"success","timeout","failed_images","failed_audio","failed_video","trial_type","trial_index","time_elapsed","internal_node_id","run_id","condition","recorded_at","source_code_version","ip","user_agent","device","browser","browser_version","platform","platform_version","rt","stimulus","response","question_order"
"true","false","[]","[]","[]","preload","0","8181","0.0-0.0","30","1","2022-11-03 12:56:21","ebf9627b049f568eb4bf28942cb89901","117.136.121.214","Mozilla/5.0 (Windows NT 10.0; Win64; x64) AppleWebKit/537.36 (KHTML, like Gecko) Chrome/107.0.0.0 Safari/537.36 Edg/107.0.1418.26","WebKit","Edge","107.0.1418.26","Windows","10.0","","","",""
"true","","","","","fullscreen","1","12194","0.0-1.0","30","1","2022-11-03 12:56:21","ebf9627b049f568eb4bf28942cb89901","117.136.121.214","Mozilla/5.0 (Windows NT 10.0; Win64; x64) AppleWebKit/537.36 (KHTML, like Gecko) Chrome/107.0.0.0 Safari/537.36 Edg/107.0.1418.26","WebKit","Edge","107.0.1418.26","Windows","10.0","","","",""
"","","","","","html-button-response","2","52208","0.0-2.0","30","1","2022-11-03 12:56:21","ebf9627b049f568eb4bf28942cb89901","117.136.121.214","Mozilla/5.0 (Windows NT 10.0; Win64; x64) AppleWebKit/537.36 (KHTML, like Gecko) Chrome/107.0.0.0 Safari/537.36 Edg/107.0.1418.26","WebKit","Edge","107.0.1418.26","Windows","10.0","40012","<p style=""font-size:20px;font-weight:bold;"">实验知情同意书</p><p style=""text-align:left;""><strong>实验名称：</strong>社会冲突研究</p><p style=""text-align:left;""><strong>主要研究者：</strong>韩晓春副教授（北京师范大学心理学部）</p><p style=""text-align:left;""><strong>联系方式：</strong>发送邮件至xiaochun.han@bnu.edu.cn</p><p style=""text-align:left;""><strong>研究目的：</strong>研究旨在了解人类面对群体冲突时的决策方式，以及相关的心理学特质。实验调查大约需要20分钟。</p><p style=""text-align:left;""><strong>实验流程：</strong>实验包含两部分。第一部分呈现一系列群体冲突场景，请你决定如何对这些冲突进行反应，大约需要10分钟完成。第二部分包含一系列人口统计学信息收集和心理学问卷，大约需要10分钟完成。</p><p style=""text-align:left;""><strong>参加及退出规则：</strong>参加本实验完全取决于您的个人意愿。在参与过程中，您可以随时退出，并且不用承担任何后果。</p><p style=""text-align:left;""><strong>隐私：</strong>本实验完全匿名进行，不会收集您的姓名或其他能够识别您身份的信息。实验中收集的作答仅用作科学研究使用，可能会在学术期刊/书籍上发表，或者用于教学，您的数据未来可能会和其他研究者或实验室分享，但您的个人身份不会被识别。</p><p style=""text-align:left;""><strong>实验报酬：</strong>实验完成后，您将获得15元人民币报酬，以感谢您的时间和努力。调查问卷中包含几道题目用以测验您作答时的认真度。只有完成全部实验，并且正确回答认真度测验的被试才能获得实验报酬。实验报酬将通过支付宝转账发放。</p><p style=""text-align:left;font-size:20px;""><strong>如果您同意以上实验知情同意书的内容，请点击'同意并且开始实验'按钮；否则请关闭浏览器界面，退出实验。</strong></p>","0",""
"","","","","","html-button-response","3","69929","0.0-3.0","30","1","2022-11-03 12:56:21","ebf9627b049f568eb4bf28942cb89901","117.136.121.214","Mozilla/5.0 (Windows NT 10.0; Win64; x64) AppleWebKit/537.36 (KHTML, like Gecko) Chrome/107.0.0.0 Safari/537.36 Edg/107.0.1418.26","WebKit","Edge","107.0.1418.26","Windows","10.0","17718","<p ><strong>实验任务一：</strong></p><p>请想象你的国家与另一个国家发生了军事冲突。</p><p>你是国家军队的指挥官，你将如何在冲突中进行决策。</p><p>具体来说，作为军队指挥官，请你决定是否发射导弹进行打击。</p><p>接下来，你会面对一系列场景，请仔细阅读每个场景，然后进行决策。</p><p>这部分实验任务大约需要10分钟。</p><p><strong>实验过程中，请集中注意力。</strong></p>","0",""
"","","","","","html-keyboard-response","4","70938","0.0-4.0-0.0","30","1","2022-11-03 12:56:21","ebf9627b049f568eb4bf28942cb89901","117.136.121.214","Mozilla/5.0 (Windows NT 10.0; Win64; x64) AppleWebKit/537.36 (KHTML, like Gecko) Chrome/107.0.0.0 Safari/537.36 Edg/107.0.1418.26","WebKit","Edge","107.0.1418.26","Windows","10.0","null","<div style=""font-size:60px;"">+</div>","null",""
"","","","","","html-button-response","5","77081","0.0-4.0-1.0","30","1","2022-11-03 12:56:21","ebf9627b049f568eb4bf28942cb89901","117.136.121.214","Mozilla/5.0 (Windows NT 10.0; Win64; x64) AppleWebKit/537.36 (KHTML, like Gecko) Chrome/107.0.0.0 Safari/537.36 Edg/107.0.1418.26","WebKit","Edge","107.0.1418.26","Windows","10.0","6138","<p>作为军队的指挥官，你可以选择发射导弹杀死 <strong>4名</strong> 敌国士兵，但会误杀附近的 <strong>1名</strong> 敌国平民。</p> <p>平民照片如下图所示。</p> <p></p> <img src='stimuli/faces/NFM5.jpg', style='max-width: 30%;'> </img> <p><strong>你是否选择发射武器？</strong></p>","1",""
"","","","","","html-keyboard-response","6","78090","0.0-4.0-0.1","30","1","2022-11-03 12:56:21","ebf9627b049f568eb4bf28942cb89901","117.136.121.214","Mozilla/5.0 (Windows NT 10.0; Win64; x64) AppleWebKit/537.36 (KHTML, like Gecko) Chrome/107.0.0.0 Safari/537.36 Edg/107.0.1418.26","WebKit","Edge","107.0.1418.26","Windows","10.0","null","<div style=""font-size:60px;"">+</div>","null",""
"","","","","","html-button-response","7","83776","0.0-4.0-1.1","30","1","2022-11-03 12:56:21","ebf9627b049f568eb4bf28942cb89901","117.136.121.214","Mozilla/5.0 (Windows NT 10.0; Win64; x64) AppleWebKit/537.36 (KHTML, like Gecko) Chrome/107.0.0.0 Safari/537.36 Edg/107.0.1418.26","WebKit","Edge","107.0.1418.26","Windows","10.0","5685","<p>作为军队的指挥官，你可以选择发射导弹杀死 <strong>6名</strong> 敌国士兵，但会误杀附近的 <strong>1名</strong> 敌国平民。</p> <p>平民照片如下图所示。</p> <p></p> <img src='stimuli/faces/NFF2.jpg', style='max-width: 30%;'> </img> <p><strong>你是否选择发射武器？</strong></p>","0",""
"","","","","","html-keyboard-response","8","84782","0.0-4.0-0.2","30","1","2022-11-03 12:56:21","ebf9627b049f568eb4bf28942cb89901","117.136.121.214","Mozilla/5.0 (Windows NT 10.0; Win64; x64) AppleWebKit/537.36 (KHTML, like Gecko) Chrome/107.0.0.0 Safari/537.36 Edg/107.0.1418.26","WebKit","Edge","107.0.1418.26","Windows","10.0","null","<div style=""font-size:60px;"">+</div>","null",""
"","","","","","html-button-response","9","85712","0.0-4.0-1.2","30","1","2022-11-03 12:56:21","ebf9627b049f568eb4bf28942cb89901","117.136.121.214","Mozilla/5.0 (Windows NT 10.0; Win64; x64) AppleWebKit/537.36 (KHTML, like Gecko) Chrome/107.0.0.0 Safari/537.36 Edg/107.0.1418.26","WebKit","Edge","107.0.1418.26","Windows","10.0","927","<p>作为军队的指挥官，你可以选择发射导弹杀死 <strong>7名</strong> 敌国士兵，但会炸毁附近的 <strong>1棵</strong> 敌国树木。</p> <p>树木的照片如下图所示。</p> <p></p> <img src='stimuli/trees/6.png', style='max-width: 30%;'> </img> <p><strong>你是否选择发射武器？</strong></p>","0",""
"","","","","","html-keyboard-response","10","86715","0.0-4.0-0.3","30","1","2022-11-03 12:56:21","ebf9627b049f568eb4bf28942cb89901","117.136.121.214","Mozilla/5.0 (Windows NT 10.0; Win64; x64) AppleWebKit/537.36 (KHTML, like Gecko) Chrome/107.0.0.0 Safari/537.36 Edg/107.0.1418.26","WebKit","Edge","107.0.1418.26","Windows","10.0","null","<div style=""font-size:60px;"">+</div>","null",""
"","","","","","html-button-response","11","89049","0.0-4.0-1.3","30","1","2022-11-03 12:56:21","ebf9627b049f568eb4bf28942cb89901","117.136.121.214","Mozilla/5.0 (Windows NT 10.0; Win64; x64) AppleWebKit/537.36 (KHTML, like Gecko) Chrome/107.0.0.0 Safari/537.36 Edg/107.0.1418.26","WebKit","Edge","107.0.1418.26","Windows","10.0","2332","<p>作为军队的指挥官，你可以选择发射导弹杀死 <strong>8名</strong> 敌国士兵，但会炸毁附近的 <strong>1棵</strong> 敌国树木。</p> <p>树木的照片如下图所示。</p> <p></p> <img src='stimuli/trees/15.png', style='max-width: 30%;'> </img> <p><strong>你是否选择发射武器？</strong></p>","0",""
"","","","","","html-keyboard-response","12","90065","0.0-4.0-0.4","30","1","2022-11-03 12:56:21","ebf9627b049f568eb4bf28942cb89901","117.136.121.214","Mozilla/5.0 (Windows NT 10.0; Win64; x64) AppleWebKit/537.36 (KHTML, like Gecko) Chrome/107.0.0.0 Safari/537.36 Edg/107.0.1418.26","WebKit","Edge","107.0.1418.26","Windows","10.0","null","<div style=""font-size:60px;"">+</div>","null",""
"","","","","","html-button-response","13","90929","0.0-4.0-1.4","30","1","2022-11-03 12:56:21","ebf9627b049f568eb4bf28942cb89901","117.136.121.214","Mozilla/5.0 (Windows NT 10.0; Win64; x64) AppleWebKit/537.36 (KHTML, like Gecko) Chrome/107.0.0.0 Safari/537.36 Edg/107.0.1418.26","WebKit","Edge","107.0.1418.26","Windows","10.0","862","<p>作为军队的指挥官，你可以选择发射导弹杀死 <strong>5名</strong> 敌国士兵，但会炸毁附近的 <strong>1棵</strong> 敌国树木。</p> <p>树木的照片如下图所示。</p> <p></p> <img src='stimuli/trees/11.png', style='max-width: 30%;'> </img> <p><strong>你是否选择发射武器？</strong></p>","0",""
"","","","","","html-keyboard-response","14","91937","0.0-4.0-0.5","30","1","2022-11-03 12:56:21","ebf9627b049f568eb4bf28942cb89901","117.136.121.214","Mozilla/5.0 (Windows NT 10.0; Win64; x64) AppleWebKit/537.36 (KHTML, like Gecko) Chrome/107.0.0.0 Safari/537.36 Edg/107.0.1418.26","WebKit","Edge","107.0.1418.26","Windows","10.0","null","<div style=""font-size:60px;"">+</div>","null",""
"","","","","","html-button-response","15","96944","0.0-4.0-1.5","30","1","2022-11-03 12:56:21","ebf9627b049f568eb4bf28942cb89901","117.136.121.214","Mozilla/5.0 (Windows NT 10.0; Win64; x64) AppleWebKit/537.36 (KHTML, like Gecko) Chrome/107.0.0.0 Safari/537.36 Edg/107.0.1418.26","WebKit","Edge","107.0.1418.26","Windows","10.0","5004","<p>作为军队的指挥官，你可以选择发射导弹杀死 <strong>7名</strong> 敌国士兵，但会误杀附近的 <strong>1名</strong> 敌国平民。</p> <p>平民照片如下图所示。</p> <p></p> <img src='stimuli/faces/NFM8.jpg', style='max-width: 30%;'> </img> <p><strong>你是否选择发射武器？</strong></p>","1",""
"","","","","","html-keyboard-response","16","97957","0.0-4.0-0.6","30","1","2022-11-03 12:56:21","ebf9627b049f568eb4bf28942cb89901","117.136.121.214","Mozilla/5.0 (Windows NT 10.0; Win64; x64) AppleWebKit/537.36 (KHTML, like Gecko) Chrome/107.0.0.0 Safari/537.36 Edg/107.0.1418.26","WebKit","Edge","107.0.1418.26","Windows","10.0","null","<div style=""font-size:60px;"">+</div>","null",""
"","","","","","html-button-response","17","100080","0.0-4.0-1.6","30","1","2022-11-03 12:56:21","ebf9627b049f568eb4bf28942cb89901","117.136.121.214","Mozilla/5.0 (Windows NT 10.0; Win64; x64) AppleWebKit/537.36 (KHTML, like Gecko) Chrome/107.0.0.0 Safari/537.36 Edg/107.0.1418.26","WebKit","Edge","107.0.1418.26","Windows","10.0","2119","<p>作为军队的指挥官，你可以选择发射导弹杀死 <strong>5名</strong> 敌国士兵，但会误杀附近的 <strong>1名</strong> 敌国平民。</p> <p>平民照片如下图所示。</p> <p></p> <img src='stimuli/faces/NFF3.jpg', style='max-width: 30%;'> </img> <p><strong>你是否选择发射武器？</strong></p>","1",""
"","","","","","html-keyboard-response","18","101086","0.0-4.0-0.7","30","1","2022-11-03 12:56:21","ebf9627b049f568eb4bf28942cb89901","117.136.121.214","Mozilla/5.0 (Windows NT 10.0; Win64; x64) AppleWebKit/537.36 (KHTML, like Gecko) Chrome/107.0.0.0 Safari/537.36 Edg/107.0.1418.26","WebKit","Edge","107.0.1418.26","Windows","10.0","null","<div style=""font-size:60px;"">+</div>","null",""
"","","","","","html-button-response","19","102496","0.0-4.0-1.7","30","1","2022-11-03 12:56:21","ebf9627b049f568eb4bf28942cb89901","117.136.121.214","Mozilla/5.0 (Windows NT 10.0; Win64; x64) AppleWebKit/537.36 (KHTML, like Gecko) Chrome/107.0.0.0 Safari/537.36 Edg/107.0.1418.26","WebKit","Edge","107.0.1418.26","Windows","10.0","1409","<p>作为军队的指挥官，你可以选择发射导弹杀死 <strong>4名</strong> 敌国士兵，但会炸毁附近的 <strong>1棵</strong> 敌国树木。</p> <p>树木的照片如下图所示。</p> <p></p> <img src='stimuli/trees/14.png', style='max-width: 30%;'> </img> <p><strong>你是否选择发射武器？</strong></p>","0",""
"","","","","","html-keyboard-response","20","103500","0.0-4.0-0.8","30","1","2022-11-03 12:56:21","ebf9627b049f568eb4bf28942cb89901","117.136.121.214","Mozilla/5.0 (Windows NT 10.0; Win64; x64) AppleWebKit/537.36 (KHTML, like Gecko) Chrome/107.0.0.0 Safari/537.36 Edg/107.0.1418.26","WebKit","Edge","107.0.1418.26","Windows","10.0","null","<div style=""font-size:60px;"">+</div>","null",""
"","","","","","html-button-response","21","106705","0.0-4.0-1.8","30","1","2022-11-03 12:56:21","ebf9627b049f568eb4bf28942cb89901","117.136.121.214","Mozilla/5.0 (Windows NT 10.0; Win64; x64) AppleWebKit/537.36 (KHTML, like Gecko) Chrome/107.0.0.0 Safari/537.36 Edg/107.0.1418.26","WebKit","Edge","107.0.1418.26","Windows","10.0","3203","<p>作为军队的指挥官，你可以选择发射导弹杀死 <strong>5名</strong> 敌国士兵，但会误杀附近的 <strong>1名</strong> 敌国平民。</p> <p>平民照片如下图所示。</p> <p></p> <img src='stimuli/faces/NFF7.jpg', style='max-width: 30%;'> </img> <p><strong>你是否选择发射武器？</strong></p>","1",""
"","","","","","html-keyboard-response","22","107707","0.0-4.0-0.9","30","1","2022-11-03 12:56:21","ebf9627b049f568eb4bf28942cb89901","117.136.121.214","Mozilla/5.0 (Windows NT 10.0; Win64; x64) AppleWebKit/537.36 (KHTML, like Gecko) Chrome/107.0.0.0 Safari/537.36 Edg/107.0.1418.26","WebKit","Edge","107.0.1418.26","Windows","10.0","null","<div style=""font-size:60px;"">+</div>","null",""
"","","","","","html-button-response","23","110480","0.0-4.0-1.9","30","1","2022-11-03 12:56:21","ebf9627b049f568eb4bf28942cb89901","117.136.121.214","Mozilla/5.0 (Windows NT 10.0; Win64; x64) AppleWebKit/537.36 (KHTML, like Gecko) Chrome/107.0.0.0 Safari/537.36 Edg/107.0.1418.26","WebKit","Edge","107.0.1418.26","Windows","10.0","2770","<p>作为军队的指挥官，你可以选择发射导弹杀死 <strong>10名</strong> 敌国士兵，但会炸毁附近的 <strong>1棵</strong> 敌国树木。</p> <p>树木的照片如下图所示。</p> <p></p> <img src='stimuli/trees/14.png', style='max-width: 30%;'> </img> <p><strong>你是否选择发射武器？</strong></p>","0",""
"","","","","","html-keyboard-response","24","111484","0.0-4.0-0.10","30","1","2022-11-03 12:56:21","ebf9627b049f568eb4bf28942cb89901","117.136.121.214","Mozilla/5.0 (Windows NT 10.0; Win64; x64) AppleWebKit/537.36 (KHTML, like Gecko) Chrome/107.0.0.0 Safari/537.36 Edg/107.0.1418.26","WebKit","Edge","107.0.1418.26","Windows","10.0","null","<div style=""font-size:60px;"">+</div>","null",""
"","","","","","html-button-response","25","114033","0.0-4.0-1.10","30","1","2022-11-03 12:56:21","ebf9627b049f568eb4bf28942cb89901","117.136.121.214","Mozilla/5.0 (Windows NT 10.0; Win64; x64) AppleWebKit/537.36 (KHTML, like Gecko) Chrome/107.0.0.0 Safari/537.36 Edg/107.0.1418.26","WebKit","Edge","107.0.1418.26","Windows","10.0","2546","<p>作为军队的指挥官，你可以选择发射导弹杀死 <strong>9名</strong> 敌国士兵，但会误杀附近的 <strong>1名</strong> 敌国平民。</p> <p>平民照片如下图所示。</p> <p></p> <img src='stimuli/faces/NFM6.jpg', style='max-width: 30%;'> </img> <p><strong>你是否选择发射武器？</strong></p>","1",""
"","","","","","html-keyboard-response","26","115044","0.0-4.0-0.11","30","1","2022-11-03 12:56:21","ebf9627b049f568eb4bf28942cb89901","117.136.121.214","Mozilla/5.0 (Windows NT 10.0; Win64; x64) AppleWebKit/537.36 (KHTML, like Gecko) Chrome/107.0.0.0 Safari/537.36 Edg/107.0.1418.26","WebKit","Edge","107.0.1418.26","Windows","10.0","null","<div style=""font-size:60px;"">+</div>","null",""
"","","","","","html-button-response","27","116536","0.0-4.0-1.11","30","1","2022-11-03 12:56:21","ebf9627b049f568eb4bf28942cb89901","117.136.121.214","Mozilla/5.0 (Windows NT 10.0; Win64; x64) AppleWebKit/537.36 (KHTML, like Gecko) Chrome/107.0.0.0 Safari/537.36 Edg/107.0.1418.26","WebKit","Edge","107.0.1418.26","Windows","10.0","1489","<p>作为军队的指挥官，你可以选择发射导弹杀死 <strong>1名</strong> 敌国士兵，但会炸毁附近的 <strong>1棵</strong> 敌国树木。</p> <p>树木的照片如下图所示。</p> <p></p> <img src='stimuli/trees/13.png', style='max-width: 30%;'> </img> <p><strong>你是否选择发射武器？</strong></p>","0",""
"","","","","","html-keyboard-response","28","117544","0.0-4.0-0.12","30","1","2022-11-03 12:56:21","ebf9627b049f568eb4bf28942cb89901","117.136.121.214","Mozilla/5.0 (Windows NT 10.0; Win64; x64) AppleWebKit/537.36 (KHTML, like Gecko) Chrome/107.0.0.0 Safari/537.36 Edg/107.0.1418.26","WebKit","Edge","107.0.1418.26","Windows","10.0","null","<div style=""font-size:60px;"">+</div>","null",""
"","","","","","html-button-response","29","118664","0.0-4.0-1.12","30","1","2022-11-03 12:56:21","ebf9627b049f568eb4bf28942cb89901","117.136.121.214","Mozilla/5.0 (Windows NT 10.0; Win64; x64) AppleWebKit/537.36 (KHTML, like Gecko) Chrome/107.0.0.0 Safari/537.36 Edg/107.0.1418.26","WebKit","Edge","107.0.1418.26","Windows","10.0","1116","<p>作为军队的指挥官，你可以选择发射导弹杀死 <strong>6名</strong> 敌国士兵，但会炸毁附近的 <strong>1棵</strong> 敌国树木。</p> <p>树木的照片如下图所示。</p> <p></p> <img src='stimuli/trees/8.png', style='max-width: 30%;'> </img> <p><strong>你是否选择发射武器？</strong></p>","0",""
"","","","","","html-keyboard-response","30","119684","0.0-4.0-0.13","30","1","2022-11-03 12:56:21","ebf9627b049f568eb4bf28942cb89901","117.136.121.214","Mozilla/5.0 (Windows NT 10.0; Win64; x64) AppleWebKit/537.36 (KHTML, like Gecko) Chrome/107.0.0.0 Safari/537.36 Edg/107.0.1418.26","WebKit","Edge","107.0.1418.26","Windows","10.0","null","<div style=""font-size:60px;"">+</div>","null",""
"","","","","","html-button-response","31","124032","0.0-4.0-1.13","30","1","2022-11-03 12:56:21","ebf9627b049f568eb4bf28942cb89901","117.136.121.214","Mozilla/5.0 (Windows NT 10.0; Win64; x64) AppleWebKit/537.36 (KHTML, like Gecko) Chrome/107.0.0.0 Safari/537.36 Edg/107.0.1418.26","WebKit","Edge","107.0.1418.26","Windows","10.0","4347","<p>作为军队的指挥官，你可以选择发射导弹杀死 <strong>2名</strong> 敌国士兵，但会炸毁附近的 <strong>1棵</strong> 敌国树木。</p> <p>树木的照片如下图所示。</p> <p></p> <img src='stimuli/trees/2.png', style='max-width: 30%;'> </img> <p><strong>你是否选择发射武器？</strong></p>","0",""
"","","","","","html-keyboard-response","32","125048","0.0-4.0-0.14","30","1","2022-11-03 12:56:21","ebf9627b049f568eb4bf28942cb89901","117.136.121.214","Mozilla/5.0 (Windows NT 10.0; Win64; x64) AppleWebKit/537.36 (KHTML, like Gecko) Chrome/107.0.0.0 Safari/537.36 Edg/107.0.1418.26","WebKit","Edge","107.0.1418.26","Windows","10.0","null","<div style=""font-size:60px;"">+</div>","null",""
"","","","","","html-button-response","33","127712","0.0-4.0-1.14","30","1","2022-11-03 12:56:21","ebf9627b049f568eb4bf28942cb89901","117.136.121.214","Mozilla/5.0 (Windows NT 10.0; Win64; x64) AppleWebKit/537.36 (KHTML, like Gecko) Chrome/107.0.0.0 Safari/537.36 Edg/107.0.1418.26","WebKit","Edge","107.0.1418.26","Windows","10.0","2661","<p>作为军队的指挥官，你可以选择发射导弹杀死 <strong>10名</strong> 敌国士兵，但会误杀附近的 <strong>1名</strong> 敌国平民。</p> <p>平民照片如下图所示。</p> <p></p> <img src='stimuli/faces/NFM7.jpg', style='max-width: 30%;'> </img> <p><strong>你是否选择发射武器？</strong></p>","1",""
"","","","","","html-keyboard-response","34","128715","0.0-4.0-0.15","30","1","2022-11-03 12:56:21","ebf9627b049f568eb4bf28942cb89901","117.136.121.214","Mozilla/5.0 (Windows NT 10.0; Win64; x64) AppleWebKit/537.36 (KHTML, like Gecko) Chrome/107.0.0.0 Safari/537.36 Edg/107.0.1418.26","WebKit","Edge","107.0.1418.26","Windows","10.0","null","<div style=""font-size:60px;"">+</div>","null",""
"","","","","","html-button-response","35","130976","0.0-4.0-1.15","30","1","2022-11-03 12:56:21","ebf9627b049f568eb4bf28942cb89901","117.136.121.214","Mozilla/5.0 (Windows NT 10.0; Win64; x64) AppleWebKit/537.36 (KHTML, like Gecko) Chrome/107.0.0.0 Safari/537.36 Edg/107.0.1418.26","WebKit","Edge","107.0.1418.26","Windows","10.0","2258","<p>作为军队的指挥官，你可以选择发射导弹杀死 <strong>1名</strong> 敌国士兵，但会误杀附近的 <strong>1名</strong> 敌国平民。</p> <p>平民照片如下图所示。</p> <p></p> <img src='stimuli/faces/NFF4.jpg', style='max-width: 30%;'> </img> <p><strong>你是否选择发射武器？</strong></p>","1",""
"","","","","","html-keyboard-response","36","131981","0.0-4.0-0.16","30","1","2022-11-03 12:56:21","ebf9627b049f568eb4bf28942cb89901","117.136.121.214","Mozilla/5.0 (Windows NT 10.0; Win64; x64) AppleWebKit/537.36 (KHTML, like Gecko) Chrome/107.0.0.0 Safari/537.36 Edg/107.0.1418.26","WebKit","Edge","107.0.1418.26","Windows","10.0","null","<div style=""font-size:60px;"">+</div>","null",""
"","","","","","html-button-response","37","133920","0.0-4.0-1.16","30","1","2022-11-03 12:56:21","ebf9627b049f568eb4bf28942cb89901","117.136.121.214","Mozilla/5.0 (Windows NT 10.0; Win64; x64) AppleWebKit/537.36 (KHTML, like Gecko) Chrome/107.0.0.0 Safari/537.36 Edg/107.0.1418.26","WebKit","Edge","107.0.1418.26","Windows","10.0","1935","<p>作为军队的指挥官，你可以选择发射导弹杀死 <strong>8名</strong> 敌国士兵，但会炸毁附近的 <strong>1棵</strong> 敌国树木。</p> <p>树木的照片如下图所示。</p> <p></p> <img src='stimuli/trees/11.png', style='max-width: 30%;'> </img> <p><strong>你是否选择发射武器？</strong></p>","0",""
"","","","","","html-keyboard-response","38","134931","0.0-4.0-0.17","30","1","2022-11-03 12:56:21","ebf9627b049f568eb4bf28942cb89901","117.136.121.214","Mozilla/5.0 (Windows NT 10.0; Win64; x64) AppleWebKit/537.36 (KHTML, like Gecko) Chrome/107.0.0.0 Safari/537.36 Edg/107.0.1418.26","WebKit","Edge","107.0.1418.26","Windows","10.0","null","<div style=""font-size:60px;"">+</div>","null",""
"","","","","","html-button-response","39","137216","0.0-4.0-1.17","30","1","2022-11-03 12:56:21","ebf9627b049f568eb4bf28942cb89901","117.136.121.214","Mozilla/5.0 (Windows NT 10.0; Win64; x64) AppleWebKit/537.36 (KHTML, like Gecko) Chrome/107.0.0.0 Safari/537.36 Edg/107.0.1418.26","WebKit","Edge","107.0.1418.26","Windows","10.0","2282","<p>作为军队的指挥官，你可以选择发射导弹杀死 <strong>9名</strong> 敌国士兵，但会误杀附近的 <strong>1名</strong> 敌国平民。</p> <p>平民照片如下图所示。</p> <p></p> <img src='stimuli/faces/NFF7.jpg', style='max-width: 30%;'> </img> <p><strong>你是否选择发射武器？</strong></p>","1",""
"","","","","","html-keyboard-response","40","138219","0.0-4.0-0.18","30","1","2022-11-03 12:56:21","ebf9627b049f568eb4bf28942cb89901","117.136.121.214","Mozilla/5.0 (Windows NT 10.0; Win64; x64) AppleWebKit/537.36 (KHTML, like Gecko) Chrome/107.0.0.0 Safari/537.36 Edg/107.0.1418.26","WebKit","Edge","107.0.1418.26","Windows","10.0","null","<div style=""font-size:60px;"">+</div>","null",""
"","","","","","html-button-response","41","140552","0.0-4.0-1.18","30","1","2022-11-03 12:56:21","ebf9627b049f568eb4bf28942cb89901","117.136.121.214","Mozilla/5.0 (Windows NT 10.0; Win64; x64) AppleWebKit/537.36 (KHTML, like Gecko) Chrome/107.0.0.0 Safari/537.36 Edg/107.0.1418.26","WebKit","Edge","107.0.1418.26","Windows","10.0","2329","<p>作为军队的指挥官，你可以选择发射导弹杀死 <strong>4名</strong> 敌国士兵，但会炸毁附近的 <strong>1棵</strong> 敌国树木。</p> <p>树木的照片如下图所示。</p> <p></p> <img src='stimuli/trees/8.png', style='max-width: 30%;'> </img> <p><strong>你是否选择发射武器？</strong></p>","0",""
"","","","","","html-keyboard-response","42","141570","0.0-4.0-0.19","30","1","2022-11-03 12:56:21","ebf9627b049f568eb4bf28942cb89901","117.136.121.214","Mozilla/5.0 (Windows NT 10.0; Win64; x64) AppleWebKit/537.36 (KHTML, like Gecko) Chrome/107.0.0.0 Safari/537.36 Edg/107.0.1418.26","WebKit","Edge","107.0.1418.26","Windows","10.0","null","<div style=""font-size:60px;"">+</div>","null",""
"","","","","","html-button-response","43","143904","0.0-4.0-1.19","30","1","2022-11-03 12:56:21","ebf9627b049f568eb4bf28942cb89901","117.136.121.214","Mozilla/5.0 (Windows NT 10.0; Win64; x64) AppleWebKit/537.36 (KHTML, like Gecko) Chrome/107.0.0.0 Safari/537.36 Edg/107.0.1418.26","WebKit","Edge","107.0.1418.26","Windows","10.0","2331","<p>作为军队的指挥官，你可以选择发射导弹杀死 <strong>1名</strong> 敌国士兵，但会误杀附近的 <strong>1名</strong> 敌国平民。</p> <p>平民照片如下图所示。</p> <p></p> <img src='stimuli/faces/NFM3.jpg', style='max-width: 30%;'> </img> <p><strong>你是否选择发射武器？</strong></p>","1",""
"","","","","","html-keyboard-response","44","144910","0.0-4.0-0.20","30","1","2022-11-03 12:56:21","ebf9627b049f568eb4bf28942cb89901","117.136.121.214","Mozilla/5.0 (Windows NT 10.0; Win64; x64) AppleWebKit/537.36 (KHTML, like Gecko) Chrome/107.0.0.0 Safari/537.36 Edg/107.0.1418.26","WebKit","Edge","107.0.1418.26","Windows","10.0","null","<div style=""font-size:60px;"">+</div>","null",""
"","","","","","html-button-response","45","147104","0.0-4.0-1.20","30","1","2022-11-03 12:56:21","ebf9627b049f568eb4bf28942cb89901","117.136.121.214","Mozilla/5.0 (Windows NT 10.0; Win64; x64) AppleWebKit/537.36 (KHTML, like Gecko) Chrome/107.0.0.0 Safari/537.36 Edg/107.0.1418.26","WebKit","Edge","107.0.1418.26","Windows","10.0","2190","<p>作为军队的指挥官，你可以选择发射导弹杀死 <strong>3名</strong> 敌国士兵，但会误杀附近的 <strong>1名</strong> 敌国平民。</p> <p>平民照片如下图所示。</p> <p></p> <img src='stimuli/faces/NFF8.jpg', style='max-width: 30%;'> </img> <p><strong>你是否选择发射武器？</strong></p>","1",""
"","","","","","html-keyboard-response","46","148107","0.0-4.0-0.21","30","1","2022-11-03 12:56:21","ebf9627b049f568eb4bf28942cb89901","117.136.121.214","Mozilla/5.0 (Windows NT 10.0; Win64; x64) AppleWebKit/537.36 (KHTML, like Gecko) Chrome/107.0.0.0 Safari/537.36 Edg/107.0.1418.26","WebKit","Edge","107.0.1418.26","Windows","10.0","null","<div style=""font-size:60px;"">+</div>","null",""
"","","","","","html-button-response","47","148976","0.0-4.0-1.21","30","1","2022-11-03 12:56:21","ebf9627b049f568eb4bf28942cb89901","117.136.121.214","Mozilla/5.0 (Windows NT 10.0; Win64; x64) AppleWebKit/537.36 (KHTML, like Gecko) Chrome/107.0.0.0 Safari/537.36 Edg/107.0.1418.26","WebKit","Edge","107.0.1418.26","Windows","10.0","865","<p>作为军队的指挥官，你可以选择发射导弹杀死 <strong>3名</strong> 敌国士兵，但会炸毁附近的 <strong>1棵</strong> 敌国树木。</p> <p>树木的照片如下图所示。</p> <p></p> <img src='stimuli/trees/3.png', style='max-width: 30%;'> </img> <p><strong>你是否选择发射武器？</strong></p>","0",""
"","","","","","html-keyboard-response","48","149979","0.0-4.0-0.22","30","1","2022-11-03 12:56:21","ebf9627b049f568eb4bf28942cb89901","117.136.121.214","Mozilla/5.0 (Windows NT 10.0; Win64; x64) AppleWebKit/537.36 (KHTML, like Gecko) Chrome/107.0.0.0 Safari/537.36 Edg/107.0.1418.26","WebKit","Edge","107.0.1418.26","Windows","10.0","null","<div style=""font-size:60px;"">+</div>","null",""
"","","","","","html-button-response","49","152704","0.0-4.0-1.22","30","1","2022-11-03 12:56:21","ebf9627b049f568eb4bf28942cb89901","117.136.121.214","Mozilla/5.0 (Windows NT 10.0; Win64; x64) AppleWebKit/537.36 (KHTML, like Gecko) Chrome/107.0.0.0 Safari/537.36 Edg/107.0.1418.26","WebKit","Edge","107.0.1418.26","Windows","10.0","2722","<p>作为军队的指挥官，你可以选择发射导弹杀死 <strong>4名</strong> 敌国士兵，但会炸毁附近的 <strong>1棵</strong> 敌国树木。</p> <p>树木的照片如下图所示。</p> <p></p> <img src='stimuli/trees/6.png', style='max-width: 30%;'> </img> <p><strong>你是否选择发射武器？</strong></p>","0",""
"","","","","","html-keyboard-response","50","153707","0.0-4.0-0.23","30","1","2022-11-03 12:56:21","ebf9627b049f568eb4bf28942cb89901","117.136.121.214","Mozilla/5.0 (Windows NT 10.0; Win64; x64) AppleWebKit/537.36 (KHTML, like Gecko) Chrome/107.0.0.0 Safari/537.36 Edg/107.0.1418.26","WebKit","Edge","107.0.1418.26","Windows","10.0","null","<div style=""font-size:60px;"">+</div>","null",""
"","","","","","html-button-response","51","156064","0.0-4.0-1.23","30","1","2022-11-03 12:56:21","ebf9627b049f568eb4bf28942cb89901","117.136.121.214","Mozilla/5.0 (Windows NT 10.0; Win64; x64) AppleWebKit/537.36 (KHTML, like Gecko) Chrome/107.0.0.0 Safari/537.36 Edg/107.0.1418.26","WebKit","Edge","107.0.1418.26","Windows","10.0","2352","<p>作为军队的指挥官，你可以选择发射导弹杀死 <strong>2名</strong> 敌国士兵，但会误杀附近的 <strong>1名</strong> 敌国平民。</p> <p>平民照片如下图所示。</p> <p></p> <img src='stimuli/faces/NFF2.jpg', style='max-width: 30%;'> </img> <p><strong>你是否选择发射武器？</strong></p>","1",""
"","","","","","html-keyboard-response","52","157067","0.0-4.0-0.24","30","1","2022-11-03 12:56:21","ebf9627b049f568eb4bf28942cb89901","117.136.121.214","Mozilla/5.0 (Windows NT 10.0; Win64; x64) AppleWebKit/537.36 (KHTML, like Gecko) Chrome/107.0.0.0 Safari/537.36 Edg/107.0.1418.26","WebKit","Edge","107.0.1418.26","Windows","10.0","null","<div style=""font-size:60px;"">+</div>","null",""
"","","","","","html-button-response","53","160136","0.0-4.0-1.24","30","1","2022-11-03 12:56:21","ebf9627b049f568eb4bf28942cb89901","117.136.121.214","Mozilla/5.0 (Windows NT 10.0; Win64; x64) AppleWebKit/537.36 (KHTML, like Gecko) Chrome/107.0.0.0 Safari/537.36 Edg/107.0.1418.26","WebKit","Edge","107.0.1418.26","Windows","10.0","3066","<p>作为军队的指挥官，你可以选择发射导弹杀死 <strong>5名</strong> 敌国士兵，但会炸毁附近的 <strong>1棵</strong> 敌国树木。</p> <p>树木的照片如下图所示。</p> <p></p> <img src='stimuli/trees/4.png', style='max-width: 30%;'> </img> <p><strong>你是否选择发射武器？</strong></p>","0",""
"","","","","","html-keyboard-response","54","161140","0.0-4.0-0.25","30","1","2022-11-03 12:56:21","ebf9627b049f568eb4bf28942cb89901","117.136.121.214","Mozilla/5.0 (Windows NT 10.0; Win64; x64) AppleWebKit/537.36 (KHTML, like Gecko) Chrome/107.0.0.0 Safari/537.36 Edg/107.0.1418.26","WebKit","Edge","107.0.1418.26","Windows","10.0","null","<div style=""font-size:60px;"">+</div>","null",""
"","","","","","html-button-response","55","162864","0.0-4.0-1.25","30","1","2022-11-03 12:56:21","ebf9627b049f568eb4bf28942cb89901","117.136.121.214","Mozilla/5.0 (Windows NT 10.0; Win64; x64) AppleWebKit/537.36 (KHTML, like Gecko) Chrome/107.0.0.0 Safari/537.36 Edg/107.0.1418.26","WebKit","Edge","107.0.1418.26","Windows","10.0","1722","<p>作为军队的指挥官，你可以选择发射导弹杀死 <strong>5名</strong> 敌国士兵，但会误杀附近的 <strong>1名</strong> 敌国平民。</p> <p>平民照片如下图所示。</p> <p></p> <img src='stimuli/faces/NFM7.jpg', style='max-width: 30%;'> </img> <p><strong>你是否选择发射武器？</strong></p>","1",""
"","","","","","html-keyboard-response","56","163867","0.0-4.0-0.26","30","1","2022-11-03 12:56:21","ebf9627b049f568eb4bf28942cb89901","117.136.121.214","Mozilla/5.0 (Windows NT 10.0; Win64; x64) AppleWebKit/537.36 (KHTML, like Gecko) Chrome/107.0.0.0 Safari/537.36 Edg/107.0.1418.26","WebKit","Edge","107.0.1418.26","Windows","10.0","null","<div style=""font-size:60px;"">+</div>","null",""
"","","","","","html-button-response","57","166001","0.0-4.0-1.26","30","1","2022-11-03 12:56:21","ebf9627b049f568eb4bf28942cb89901","117.136.121.214","Mozilla/5.0 (Windows NT 10.0; Win64; x64) AppleWebKit/537.36 (KHTML, like Gecko) Chrome/107.0.0.0 Safari/537.36 Edg/107.0.1418.26","WebKit","Edge","107.0.1418.26","Windows","10.0","2128","<p>作为军队的指挥官，你可以选择发射导弹杀死 <strong>8名</strong> 敌国士兵，但会误杀附近的 <strong>1名</strong> 敌国平民。</p> <p>平民照片如下图所示。</p> <p></p> <img src='stimuli/faces/NFM3.jpg', style='max-width: 30%;'> </img> <p><strong>你是否选择发射武器？</strong></p>","1",""
"","","","","","html-keyboard-response","58","167004","0.0-4.0-0.27","30","1","2022-11-03 12:56:21","ebf9627b049f568eb4bf28942cb89901","117.136.121.214","Mozilla/5.0 (Windows NT 10.0; Win64; x64) AppleWebKit/537.36 (KHTML, like Gecko) Chrome/107.0.0.0 Safari/537.36 Edg/107.0.1418.26","WebKit","Edge","107.0.1418.26","Windows","10.0","null","<div style=""font-size:60px;"">+</div>","null",""
"","","","","","html-button-response","59","168664","0.0-4.0-1.27","30","1","2022-11-03 12:56:21","ebf9627b049f568eb4bf28942cb89901","117.136.121.214","Mozilla/5.0 (Windows NT 10.0; Win64; x64) AppleWebKit/537.36 (KHTML, like Gecko) Chrome/107.0.0.0 Safari/537.36 Edg/107.0.1418.26","WebKit","Edge","107.0.1418.26","Windows","10.0","1655","<p>作为军队的指挥官，你可以选择发射导弹杀死 <strong>7名</strong> 敌国士兵，但会炸毁附近的 <strong>1棵</strong> 敌国树木。</p> <p>树木的照片如下图所示。</p> <p></p> <img src='stimuli/trees/1.png', style='max-width: 30%;'> </img> <p><strong>你是否选择发射武器？</strong></p>","0",""
"","","","","","html-keyboard-response","60","169669","0.0-4.0-0.28","30","1","2022-11-03 12:56:21","ebf9627b049f568eb4bf28942cb89901","117.136.121.214","Mozilla/5.0 (Windows NT 10.0; Win64; x64) AppleWebKit/537.36 (KHTML, like Gecko) Chrome/107.0.0.0 Safari/537.36 Edg/107.0.1418.26","WebKit","Edge","107.0.1418.26","Windows","10.0","null","<div style=""font-size:60px;"">+</div>","null",""
"","","","","","html-button-response","61","171208","0.0-4.0-1.28","30","1","2022-11-03 12:56:21","ebf9627b049f568eb4bf28942cb89901","117.136.121.214","Mozilla/5.0 (Windows NT 10.0; Win64; x64) AppleWebKit/537.36 (KHTML, like Gecko) Chrome/107.0.0.0 Safari/537.36 Edg/107.0.1418.26","WebKit","Edge","107.0.1418.26","Windows","10.0","1534","<p>作为军队的指挥官，你可以选择发射导弹杀死 <strong>3名</strong> 敌国士兵，但会误杀附近的 <strong>1名</strong> 敌国平民。</p> <p>平民照片如下图所示。</p> <p></p> <img src='stimuli/faces/NFM8.jpg', style='max-width: 30%;'> </img> <p><strong>你是否选择发射武器？</strong></p>","1",""
"","","","","","html-keyboard-response","62","172216","0.0-4.0-0.29","30","1","2022-11-03 12:56:21","ebf9627b049f568eb4bf28942cb89901","117.136.121.214","Mozilla/5.0 (Windows NT 10.0; Win64; x64) AppleWebKit/537.36 (KHTML, like Gecko) Chrome/107.0.0.0 Safari/537.36 Edg/107.0.1418.26","WebKit","Edge","107.0.1418.26","Windows","10.0","null","<div style=""font-size:60px;"">+</div>","null",""
"","","","","","html-button-response","63","172880","0.0-4.0-1.29","30","1","2022-11-03 12:56:21","ebf9627b049f568eb4bf28942cb89901","117.136.121.214","Mozilla/5.0 (Windows NT 10.0; Win64; x64) AppleWebKit/537.36 (KHTML, like Gecko) Chrome/107.0.0.0 Safari/537.36 Edg/107.0.1418.26","WebKit","Edge","107.0.1418.26","Windows","10.0","659","<p>作为军队的指挥官，你可以选择发射导弹杀死 <strong>8名</strong> 敌国士兵，但会炸毁附近的 <strong>1棵</strong> 敌国树木。</p> <p>树木的照片如下图所示。</p> <p></p> <img src='stimuli/trees/2.png', style='max-width: 30%;'> </img> <p><strong>你是否选择发射武器？</strong></p>","0",""
"","","","","","html-keyboard-response","64","173884","0.0-4.0-0.30","30","1","2022-11-03 12:56:21","ebf9627b049f568eb4bf28942cb89901","117.136.121.214","Mozilla/5.0 (Windows NT 10.0; Win64; x64) AppleWebKit/537.36 (KHTML, like Gecko) Chrome/107.0.0.0 Safari/537.36 Edg/107.0.1418.26","WebKit","Edge","107.0.1418.26","Windows","10.0","null","<div style=""font-size:60px;"">+</div>","null",""
"","","","","","html-button-response","65","174520","0.0-4.0-1.30","30","1","2022-11-03 12:56:21","ebf9627b049f568eb4bf28942cb89901","117.136.121.214","Mozilla/5.0 (Windows NT 10.0; Win64; x64) AppleWebKit/537.36 (KHTML, like Gecko) Chrome/107.0.0.0 Safari/537.36 Edg/107.0.1418.26","WebKit","Edge","107.0.1418.26","Windows","10.0","632","<p>作为军队的指挥官，你可以选择发射导弹杀死 <strong>8名</strong> 敌国士兵，但会炸毁附近的 <strong>1棵</strong> 敌国树木。</p> <p>树木的照片如下图所示。</p> <p></p> <img src='stimuli/trees/7.png', style='max-width: 30%;'> </img> <p><strong>你是否选择发射武器？</strong></p>","0",""
"","","","","","html-keyboard-response","66","175527","0.0-4.0-0.31","30","1","2022-11-03 12:56:21","ebf9627b049f568eb4bf28942cb89901","117.136.121.214","Mozilla/5.0 (Windows NT 10.0; Win64; x64) AppleWebKit/537.36 (KHTML, like Gecko) Chrome/107.0.0.0 Safari/537.36 Edg/107.0.1418.26","WebKit","Edge","107.0.1418.26","Windows","10.0","null","<div style=""font-size:60px;"">+</div>","null",""
"","","","","","html-button-response","67","177048","0.0-4.0-1.31","30","1","2022-11-03 12:56:21","ebf9627b049f568eb4bf28942cb89901","117.136.121.214","Mozilla/5.0 (Windows NT 10.0; Win64; x64) AppleWebKit/537.36 (KHTML, like Gecko) Chrome/107.0.0.0 Safari/537.36 Edg/107.0.1418.26","WebKit","Edge","107.0.1418.26","Windows","10.0","1519","<p>作为军队的指挥官，你可以选择发射导弹杀死 <strong>4名</strong> 敌国士兵，但会误杀附近的 <strong>1名</strong> 敌国平民。</p> <p>平民照片如下图所示。</p> <p></p> <img src='stimuli/faces/NFM4.jpg', style='max-width: 30%;'> </img> <p><strong>你是否选择发射武器？</strong></p>","1",""
"","","","","","html-keyboard-response","68","178051","0.0-4.0-0.32","30","1","2022-11-03 12:56:21","ebf9627b049f568eb4bf28942cb89901","117.136.121.214","Mozilla/5.0 (Windows NT 10.0; Win64; x64) AppleWebKit/537.36 (KHTML, like Gecko) Chrome/107.0.0.0 Safari/537.36 Edg/107.0.1418.26","WebKit","Edge","107.0.1418.26","Windows","10.0","null","<div style=""font-size:60px;"">+</div>","null",""
"","","","","","html-button-response","69","179824","0.0-4.0-1.32","30","1","2022-11-03 12:56:21","ebf9627b049f568eb4bf28942cb89901","117.136.121.214","Mozilla/5.0 (Windows NT 10.0; Win64; x64) AppleWebKit/537.36 (KHTML, like Gecko) Chrome/107.0.0.0 Safari/537.36 Edg/107.0.1418.26","WebKit","Edge","107.0.1418.26","Windows","10.0","1772","<p>作为军队的指挥官，你可以选择发射导弹杀死 <strong>7名</strong> 敌国士兵，但会炸毁附近的 <strong>1棵</strong> 敌国树木。</p> <p>树木的照片如下图所示。</p> <p></p> <img src='stimuli/trees/16.png', style='max-width: 30%;'> </img> <p><strong>你是否选择发射武器？</strong></p>","0",""
"","","","","","html-keyboard-response","70","180844","0.0-4.0-0.33","30","1","2022-11-03 12:56:21","ebf9627b049f568eb4bf28942cb89901","117.136.121.214","Mozilla/5.0 (Windows NT 10.0; Win64; x64) AppleWebKit/537.36 (KHTML, like Gecko) Chrome/107.0.0.0 Safari/537.36 Edg/107.0.1418.26","WebKit","Edge","107.0.1418.26","Windows","10.0","null","<div style=""font-size:60px;"">+</div>","null",""
"","","","","","html-button-response","71","183552","0.0-4.0-1.33","30","1","2022-11-03 12:56:21","ebf9627b049f568eb4bf28942cb89901","117.136.121.214","Mozilla/5.0 (Windows NT 10.0; Win64; x64) AppleWebKit/537.36 (KHTML, like Gecko) Chrome/107.0.0.0 Safari/537.36 Edg/107.0.1418.26","WebKit","Edge","107.0.1418.26","Windows","10.0","2706","<p>作为军队的指挥官，你可以选择发射导弹杀死 <strong>1名</strong> 敌国士兵，但会炸毁附近的 <strong>1棵</strong> 敌国树木。</p> <p>树木的照片如下图所示。</p> <p></p> <img src='stimuli/trees/1.png', style='max-width: 30%;'> </img> <p><strong>你是否选择发射武器？</strong></p>","0",""
"","","","","","html-keyboard-response","72","184555","0.0-4.0-0.34","30","1","2022-11-03 12:56:21","ebf9627b049f568eb4bf28942cb89901","117.136.121.214","Mozilla/5.0 (Windows NT 10.0; Win64; x64) AppleWebKit/537.36 (KHTML, like Gecko) Chrome/107.0.0.0 Safari/537.36 Edg/107.0.1418.26","WebKit","Edge","107.0.1418.26","Windows","10.0","null","<div style=""font-size:60px;"">+</div>","null",""
"","","","","","html-button-response","73","186920","0.0-4.0-1.34","30","1","2022-11-03 12:56:21","ebf9627b049f568eb4bf28942cb89901","117.136.121.214","Mozilla/5.0 (Windows NT 10.0; Win64; x64) AppleWebKit/537.36 (KHTML, like Gecko) Chrome/107.0.0.0 Safari/537.36 Edg/107.0.1418.26","WebKit","Edge","107.0.1418.26","Windows","10.0","2360","<p>作为军队的指挥官，你可以选择发射导弹杀死 <strong>6名</strong> 敌国士兵，但会误杀附近的 <strong>1名</strong> 敌国平民。</p> <p>平民照片如下图所示。</p> <p></p> <img src='stimuli/faces/NFF5.jpg', style='max-width: 30%;'> </img> <p><strong>你是否选择发射武器？</strong></p>","1",""
"","","","","","html-keyboard-response","74","187924","0.0-4.0-0.35","30","1","2022-11-03 12:56:21","ebf9627b049f568eb4bf28942cb89901","117.136.121.214","Mozilla/5.0 (Windows NT 10.0; Win64; x64) AppleWebKit/537.36 (KHTML, like Gecko) Chrome/107.0.0.0 Safari/537.36 Edg/107.0.1418.26","WebKit","Edge","107.0.1418.26","Windows","10.0","null","<div style=""font-size:60px;"">+</div>","null",""
"","","","","","html-button-response","75","189368","0.0-4.0-1.35","30","1","2022-11-03 12:56:21","ebf9627b049f568eb4bf28942cb89901","117.136.121.214","Mozilla/5.0 (Windows NT 10.0; Win64; x64) AppleWebKit/537.36 (KHTML, like Gecko) Chrome/107.0.0.0 Safari/537.36 Edg/107.0.1418.26","WebKit","Edge","107.0.1418.26","Windows","10.0","1438","<p>作为军队的指挥官，你可以选择发射导弹杀死 <strong>4名</strong> 敌国士兵，但会误杀附近的 <strong>1名</strong> 敌国平民。</p> <p>平民照片如下图所示。</p> <p></p> <img src='stimuli/faces/NFM2.jpg', style='max-width: 30%;'> </img> <p><strong>你是否选择发射武器？</strong></p>","1",""
"","","","","","html-keyboard-response","76","190372","0.0-4.0-0.36","30","1","2022-11-03 12:56:21","ebf9627b049f568eb4bf28942cb89901","117.136.121.214","Mozilla/5.0 (Windows NT 10.0; Win64; x64) AppleWebKit/537.36 (KHTML, like Gecko) Chrome/107.0.0.0 Safari/537.36 Edg/107.0.1418.26","WebKit","Edge","107.0.1418.26","Windows","10.0","null","<div style=""font-size:60px;"">+</div>","null",""
"","","","","","html-button-response","77","191336","0.0-4.0-1.36","30","1","2022-11-03 12:56:21","ebf9627b049f568eb4bf28942cb89901","117.136.121.214","Mozilla/5.0 (Windows NT 10.0; Win64; x64) AppleWebKit/537.36 (KHTML, like Gecko) Chrome/107.0.0.0 Safari/537.36 Edg/107.0.1418.26","WebKit","Edge","107.0.1418.26","Windows","10.0","959","<p>作为军队的指挥官，你可以选择发射导弹杀死 <strong>7名</strong> 敌国士兵，但会炸毁附近的 <strong>1棵</strong> 敌国树木。</p> <p>树木的照片如下图所示。</p> <p></p> <img src='stimuli/trees/4.png', style='max-width: 30%;'> </img> <p><strong>你是否选择发射武器？</strong></p>","0",""
"","","","","","html-keyboard-response","78","192351","0.0-4.0-0.37","30","1","2022-11-03 12:56:21","ebf9627b049f568eb4bf28942cb89901","117.136.121.214","Mozilla/5.0 (Windows NT 10.0; Win64; x64) AppleWebKit/537.36 (KHTML, like Gecko) Chrome/107.0.0.0 Safari/537.36 Edg/107.0.1418.26","WebKit","Edge","107.0.1418.26","Windows","10.0","null","<div style=""font-size:60px;"">+</div>","null",""
"","","","","","html-button-response","79","193568","0.0-4.0-1.37","30","1","2022-11-03 12:56:21","ebf9627b049f568eb4bf28942cb89901","117.136.121.214","Mozilla/5.0 (Windows NT 10.0; Win64; x64) AppleWebKit/537.36 (KHTML, like Gecko) Chrome/107.0.0.0 Safari/537.36 Edg/107.0.1418.26","WebKit","Edge","107.0.1418.26","Windows","10.0","1212","<p>作为军队的指挥官，你可以选择发射导弹杀死 <strong>4名</strong> 敌国士兵，但会炸毁附近的 <strong>1棵</strong> 敌国树木。</p> <p>树木的照片如下图所示。</p> <p></p> <img src='stimuli/trees/5.png', style='max-width: 30%;'> </img> <p><strong>你是否选择发射武器？</strong></p>","0",""
"","","","","","html-keyboard-response","80","194576","0.0-4.0-0.38","30","1","2022-11-03 12:56:21","ebf9627b049f568eb4bf28942cb89901","117.136.121.214","Mozilla/5.0 (Windows NT 10.0; Win64; x64) AppleWebKit/537.36 (KHTML, like Gecko) Chrome/107.0.0.0 Safari/537.36 Edg/107.0.1418.26","WebKit","Edge","107.0.1418.26","Windows","10.0","null","<div style=""font-size:60px;"">+</div>","null",""
"","","","","","html-button-response","81","196840","0.0-4.0-1.38","30","1","2022-11-03 12:56:21","ebf9627b049f568eb4bf28942cb89901","117.136.121.214","Mozilla/5.0 (Windows NT 10.0; Win64; x64) AppleWebKit/537.36 (KHTML, like Gecko) Chrome/107.0.0.0 Safari/537.36 Edg/107.0.1418.26","WebKit","Edge","107.0.1418.26","Windows","10.0","2262","<p>作为军队的指挥官，你可以选择发射导弹杀死 <strong>5名</strong> 敌国士兵，但会误杀附近的 <strong>1名</strong> 敌国平民。</p> <p>平民照片如下图所示。</p> <p></p> <img src='stimuli/faces/NFF6.jpg', style='max-width: 30%;'> </img> <p><strong>你是否选择发射武器？</strong></p>","1",""
"","","","","","html-keyboard-response","82","197855","0.0-4.0-0.39","30","1","2022-11-03 12:56:21","ebf9627b049f568eb4bf28942cb89901","117.136.121.214","Mozilla/5.0 (Windows NT 10.0; Win64; x64) AppleWebKit/537.36 (KHTML, like Gecko) Chrome/107.0.0.0 Safari/537.36 Edg/107.0.1418.26","WebKit","Edge","107.0.1418.26","Windows","10.0","null","<div style=""font-size:60px;"">+</div>","null",""
"","","","","","html-button-response","83","199224","0.0-4.0-1.39","30","1","2022-11-03 12:56:21","ebf9627b049f568eb4bf28942cb89901","117.136.121.214","Mozilla/5.0 (Windows NT 10.0; Win64; x64) AppleWebKit/537.36 (KHTML, like Gecko) Chrome/107.0.0.0 Safari/537.36 Edg/107.0.1418.26","WebKit","Edge","107.0.1418.26","Windows","10.0","1363","<p>作为军队的指挥官，你可以选择发射导弹杀死 <strong>3名</strong> 敌国士兵，但会炸毁附近的 <strong>1棵</strong> 敌国树木。</p> <p>树木的照片如下图所示。</p> <p></p> <img src='stimuli/trees/15.png', style='max-width: 30%;'> </img> <p><strong>你是否选择发射武器？</strong></p>","0",""
"","","","","","html-keyboard-response","84","200243","0.0-4.0-0.40","30","1","2022-11-03 12:56:21","ebf9627b049f568eb4bf28942cb89901","117.136.121.214","Mozilla/5.0 (Windows NT 10.0; Win64; x64) AppleWebKit/537.36 (KHTML, like Gecko) Chrome/107.0.0.0 Safari/537.36 Edg/107.0.1418.26","WebKit","Edge","107.0.1418.26","Windows","10.0","null","<div style=""font-size:60px;"">+</div>","null",""
"","","","","","html-button-response","85","202017","0.0-4.0-1.40","30","1","2022-11-03 12:56:21","ebf9627b049f568eb4bf28942cb89901","117.136.121.214","Mozilla/5.0 (Windows NT 10.0; Win64; x64) AppleWebKit/537.36 (KHTML, like Gecko) Chrome/107.0.0.0 Safari/537.36 Edg/107.0.1418.26","WebKit","Edge","107.0.1418.26","Windows","10.0","1769","<p>作为军队的指挥官，你可以选择发射导弹杀死 <strong>9名</strong> 敌国士兵，但会炸毁附近的 <strong>1棵</strong> 敌国树木。</p> <p>树木的照片如下图所示。</p> <p></p> <img src='stimuli/trees/10.png', style='max-width: 30%;'> </img> <p><strong>你是否选择发射武器？</strong></p>","0",""
"","","","","","html-keyboard-response","86","203027","0.0-4.0-0.41","30","1","2022-11-03 12:56:21","ebf9627b049f568eb4bf28942cb89901","117.136.121.214","Mozilla/5.0 (Windows NT 10.0; Win64; x64) AppleWebKit/537.36 (KHTML, like Gecko) Chrome/107.0.0.0 Safari/537.36 Edg/107.0.1418.26","WebKit","Edge","107.0.1418.26","Windows","10.0","null","<div style=""font-size:60px;"">+</div>","null",""
"","","","","","html-button-response","87","203664","0.0-4.0-1.41","30","1","2022-11-03 12:56:21","ebf9627b049f568eb4bf28942cb89901","117.136.121.214","Mozilla/5.0 (Windows NT 10.0; Win64; x64) AppleWebKit/537.36 (KHTML, like Gecko) Chrome/107.0.0.0 Safari/537.36 Edg/107.0.1418.26","WebKit","Edge","107.0.1418.26","Windows","10.0","635","<p>作为军队的指挥官，你可以选择发射导弹杀死 <strong>4名</strong> 敌国士兵，但会炸毁附近的 <strong>1棵</strong> 敌国树木。</p> <p>树木的照片如下图所示。</p> <p></p> <img src='stimuli/trees/16.png', style='max-width: 30%;'> </img> <p><strong>你是否选择发射武器？</strong></p>","0",""
"","","","","","html-keyboard-response","88","204686","0.0-4.0-0.42","30","1","2022-11-03 12:56:21","ebf9627b049f568eb4bf28942cb89901","117.136.121.214","Mozilla/5.0 (Windows NT 10.0; Win64; x64) AppleWebKit/537.36 (KHTML, like Gecko) Chrome/107.0.0.0 Safari/537.36 Edg/107.0.1418.26","WebKit","Edge","107.0.1418.26","Windows","10.0","null","<div style=""font-size:60px;"">+</div>","null",""
"","","","","","html-button-response","89","206328","0.0-4.0-1.42","30","1","2022-11-03 12:56:21","ebf9627b049f568eb4bf28942cb89901","117.136.121.214","Mozilla/5.0 (Windows NT 10.0; Win64; x64) AppleWebKit/537.36 (KHTML, like Gecko) Chrome/107.0.0.0 Safari/537.36 Edg/107.0.1418.26","WebKit","Edge","107.0.1418.26","Windows","10.0","1636","<p>作为军队的指挥官，你可以选择发射导弹杀死 <strong>10名</strong> 敌国士兵，但会误杀附近的 <strong>1名</strong> 敌国平民。</p> <p>平民照片如下图所示。</p> <p></p> <img src='stimuli/faces/NFF6.jpg', style='max-width: 30%;'> </img> <p><strong>你是否选择发射武器？</strong></p>","1",""
"","","","","","html-keyboard-response","90","207338","0.0-4.0-0.43","30","1","2022-11-03 12:56:21","ebf9627b049f568eb4bf28942cb89901","117.136.121.214","Mozilla/5.0 (Windows NT 10.0; Win64; x64) AppleWebKit/537.36 (KHTML, like Gecko) Chrome/107.0.0.0 Safari/537.36 Edg/107.0.1418.26","WebKit","Edge","107.0.1418.26","Windows","10.0","null","<div style=""font-size:60px;"">+</div>","null",""
"","","","","","html-button-response","91","210496","0.0-4.0-1.43","30","1","2022-11-03 12:56:21","ebf9627b049f568eb4bf28942cb89901","117.136.121.214","Mozilla/5.0 (Windows NT 10.0; Win64; x64) AppleWebKit/537.36 (KHTML, like Gecko) Chrome/107.0.0.0 Safari/537.36 Edg/107.0.1418.26","WebKit","Edge","107.0.1418.26","Windows","10.0","3152","<p>作为军队的指挥官，你可以选择发射导弹杀死 <strong>4名</strong> 敌国士兵，但会误杀附近的 <strong>1名</strong> 敌国平民。</p> <p>平民照片如下图所示。</p> <p></p> <img src='stimuli/faces/NFM1.jpg', style='max-width: 30%;'> </img> <p><strong>你是否选择发射武器？</strong></p>","1",""
"","","","","","html-keyboard-response","92","211518","0.0-4.0-0.44","30","1","2022-11-03 12:56:21","ebf9627b049f568eb4bf28942cb89901","117.136.121.214","Mozilla/5.0 (Windows NT 10.0; Win64; x64) AppleWebKit/537.36 (KHTML, like Gecko) Chrome/107.0.0.0 Safari/537.36 Edg/107.0.1418.26","WebKit","Edge","107.0.1418.26","Windows","10.0","null","<div style=""font-size:60px;"">+</div>","null",""
"","","","","","html-button-response","93","212616","0.0-4.0-1.44","30","1","2022-11-03 12:56:21","ebf9627b049f568eb4bf28942cb89901","117.136.121.214","Mozilla/5.0 (Windows NT 10.0; Win64; x64) AppleWebKit/537.36 (KHTML, like Gecko) Chrome/107.0.0.0 Safari/537.36 Edg/107.0.1418.26","WebKit","Edge","107.0.1418.26","Windows","10.0","1092","<p>作为军队的指挥官，你可以选择发射导弹杀死 <strong>10名</strong> 敌国士兵，但会炸毁附近的 <strong>1棵</strong> 敌国树木。</p> <p>树木的照片如下图所示。</p> <p></p> <img src='stimuli/trees/13.png', style='max-width: 30%;'> </img> <p><strong>你是否选择发射武器？</strong></p>","0",""
"","","","","","html-keyboard-response","94","213628","0.0-4.0-0.45","30","1","2022-11-03 12:56:21","ebf9627b049f568eb4bf28942cb89901","117.136.121.214","Mozilla/5.0 (Windows NT 10.0; Win64; x64) AppleWebKit/537.36 (KHTML, like Gecko) Chrome/107.0.0.0 Safari/537.36 Edg/107.0.1418.26","WebKit","Edge","107.0.1418.26","Windows","10.0","null","<div style=""font-size:60px;"">+</div>","null",""
"","","","","","html-button-response","95","230880","0.0-4.0-1.45","30","1","2022-11-03 12:56:21","ebf9627b049f568eb4bf28942cb89901","117.136.121.214","Mozilla/5.0 (Windows NT 10.0; Win64; x64) AppleWebKit/537.36 (KHTML, like Gecko) Chrome/107.0.0.0 Safari/537.36 Edg/107.0.1418.26","WebKit","Edge","107.0.1418.26","Windows","10.0","17247","<p>作为军队的指挥官，你可以选择发射导弹杀死 <strong>8名</strong> 敌国士兵，但会误杀附近的 <strong>1名</strong> 敌国平民。</p> <p>平民照片如下图所示。</p> <p></p> <img src='stimuli/faces/NFF3.jpg', style='max-width: 30%;'> </img> <p><strong>你是否选择发射武器？</strong></p>","1",""
"","","","","","html-keyboard-response","96","231890","0.0-4.0-0.46","30","1","2022-11-03 12:56:21","ebf9627b049f568eb4bf28942cb89901","117.136.121.214","Mozilla/5.0 (Windows NT 10.0; Win64; x64) AppleWebKit/537.36 (KHTML, like Gecko) Chrome/107.0.0.0 Safari/537.36 Edg/107.0.1418.26","WebKit","Edge","107.0.1418.26","Windows","10.0","null","<div style=""font-size:60px;"">+</div>","null",""
"","","","","","html-button-response","97","235296","0.0-4.0-1.46","30","1","2022-11-03 12:56:21","ebf9627b049f568eb4bf28942cb89901","117.136.121.214","Mozilla/5.0 (Windows NT 10.0; Win64; x64) AppleWebKit/537.36 (KHTML, like Gecko) Chrome/107.0.0.0 Safari/537.36 Edg/107.0.1418.26","WebKit","Edge","107.0.1418.26","Windows","10.0","3399","<p>作为军队的指挥官，你可以选择发射导弹杀死 <strong>6名</strong> 敌国士兵，但会误杀附近的 <strong>1名</strong> 敌国平民。</p> <p>平民照片如下图所示。</p> <p></p> <img src='stimuli/faces/NFM1.jpg', style='max-width: 30%;'> </img> <p><strong>你是否选择发射武器？</strong></p>","1",""
"","","","","","html-keyboard-response","98","236308","0.0-4.0-0.47","30","1","2022-11-03 12:56:21","ebf9627b049f568eb4bf28942cb89901","117.136.121.214","Mozilla/5.0 (Windows NT 10.0; Win64; x64) AppleWebKit/537.36 (KHTML, like Gecko) Chrome/107.0.0.0 Safari/537.36 Edg/107.0.1418.26","WebKit","Edge","107.0.1418.26","Windows","10.0","null","<div style=""font-size:60px;"">+</div>","null",""
"","","","","","html-button-response","99","237832","0.0-4.0-1.47","30","1","2022-11-03 12:56:21","ebf9627b049f568eb4bf28942cb89901","117.136.121.214","Mozilla/5.0 (Windows NT 10.0; Win64; x64) AppleWebKit/537.36 (KHTML, like Gecko) Chrome/107.0.0.0 Safari/537.36 Edg/107.0.1418.26","WebKit","Edge","107.0.1418.26","Windows","10.0","1520","<p>作为军队的指挥官，你可以选择发射导弹杀死 <strong>9名</strong> 敌国士兵，但会误杀附近的 <strong>1名</strong> 敌国平民。</p> <p>平民照片如下图所示。</p> <p></p> <img src='stimuli/faces/NFF4.jpg', style='max-width: 30%;'> </img> <p><strong>你是否选择发射武器？</strong></p>","1",""
"","","","","","html-keyboard-response","100","238849","0.0-4.0-0.48","30","1","2022-11-03 12:56:21","ebf9627b049f568eb4bf28942cb89901","117.136.121.214","Mozilla/5.0 (Windows NT 10.0; Win64; x64) AppleWebKit/537.36 (KHTML, like Gecko) Chrome/107.0.0.0 Safari/537.36 Edg/107.0.1418.26","WebKit","Edge","107.0.1418.26","Windows","10.0","null","<div style=""font-size:60px;"">+</div>","null",""
"","","","","","html-button-response","101","240296","0.0-4.0-1.48","30","1","2022-11-03 12:56:21","ebf9627b049f568eb4bf28942cb89901","117.136.121.214","Mozilla/5.0 (Windows NT 10.0; Win64; x64) AppleWebKit/537.36 (KHTML, like Gecko) Chrome/107.0.0.0 Safari/537.36 Edg/107.0.1418.26","WebKit","Edge","107.0.1418.26","Windows","10.0","1440","<p>作为军队的指挥官，你可以选择发射导弹杀死 <strong>3名</strong> 敌国士兵，但会误杀附近的 <strong>1名</strong> 敌国平民。</p> <p>平民照片如下图所示。</p> <p></p> <img src='stimuli/faces/NFF5.jpg', style='max-width: 30%;'> </img> <p><strong>你是否选择发射武器？</strong></p>","1",""
"","","","","","html-keyboard-response","102","241313","0.0-4.0-0.49","30","1","2022-11-03 12:56:21","ebf9627b049f568eb4bf28942cb89901","117.136.121.214","Mozilla/5.0 (Windows NT 10.0; Win64; x64) AppleWebKit/537.36 (KHTML, like Gecko) Chrome/107.0.0.0 Safari/537.36 Edg/107.0.1418.26","WebKit","Edge","107.0.1418.26","Windows","10.0","null","<div style=""font-size:60px;"">+</div>","null",""
"","","","","","html-button-response","103","243792","0.0-4.0-1.49","30","1","2022-11-03 12:56:21","ebf9627b049f568eb4bf28942cb89901","117.136.121.214","Mozilla/5.0 (Windows NT 10.0; Win64; x64) AppleWebKit/537.36 (KHTML, like Gecko) Chrome/107.0.0.0 Safari/537.36 Edg/107.0.1418.26","WebKit","Edge","107.0.1418.26","Windows","10.0","2473","<p>作为军队的指挥官，你可以选择发射导弹杀死 <strong>3名</strong> 敌国士兵，但会炸毁附近的 <strong>1棵</strong> 敌国树木。</p> <p>树木的照片如下图所示。</p> <p></p> <img src='stimuli/trees/12.png', style='max-width: 30%;'> </img> <p><strong>你是否选择发射武器？</strong></p>","0",""
"","","","","","html-keyboard-response","104","244802","0.0-4.0-0.50","30","1","2022-11-03 12:56:21","ebf9627b049f568eb4bf28942cb89901","117.136.121.214","Mozilla/5.0 (Windows NT 10.0; Win64; x64) AppleWebKit/537.36 (KHTML, like Gecko) Chrome/107.0.0.0 Safari/537.36 Edg/107.0.1418.26","WebKit","Edge","107.0.1418.26","Windows","10.0","null","<div style=""font-size:60px;"">+</div>","null",""
"","","","","","html-button-response","105","259576","0.0-4.0-1.50","30","1","2022-11-03 12:56:21","ebf9627b049f568eb4bf28942cb89901","117.136.121.214","Mozilla/5.0 (Windows NT 10.0; Win64; x64) AppleWebKit/537.36 (KHTML, like Gecko) Chrome/107.0.0.0 Safari/537.36 Edg/107.0.1418.26","WebKit","Edge","107.0.1418.26","Windows","10.0","14766","<p>作为军队的指挥官，你可以选择发射导弹杀死 <strong>8名</strong> 敌国士兵，但会炸毁附近的 <strong>1棵</strong> 敌国树木。</p> <p>树木的照片如下图所示。</p> <p></p> <img src='stimuli/trees/3.png', style='max-width: 30%;'> </img> <p><strong>你是否选择发射武器？</strong></p>","0",""
"","","","","","html-keyboard-response","106","260586","0.0-4.0-0.51","30","1","2022-11-03 12:56:21","ebf9627b049f568eb4bf28942cb89901","117.136.121.214","Mozilla/5.0 (Windows NT 10.0; Win64; x64) AppleWebKit/537.36 (KHTML, like Gecko) Chrome/107.0.0.0 Safari/537.36 Edg/107.0.1418.26","WebKit","Edge","107.0.1418.26","Windows","10.0","null","<div style=""font-size:60px;"">+</div>","null",""
"","","","","","html-button-response","107","262696","0.0-4.0-1.51","30","1","2022-11-03 12:56:21","ebf9627b049f568eb4bf28942cb89901","117.136.121.214","Mozilla/5.0 (Windows NT 10.0; Win64; x64) AppleWebKit/537.36 (KHTML, like Gecko) Chrome/107.0.0.0 Safari/537.36 Edg/107.0.1418.26","WebKit","Edge","107.0.1418.26","Windows","10.0","2103","<p>作为军队的指挥官，你可以选择发射导弹杀死 <strong>2名</strong> 敌国士兵，但会误杀附近的 <strong>1名</strong> 敌国平民。</p> <p>平民照片如下图所示。</p> <p></p> <img src='stimuli/faces/NFM6.jpg', style='max-width: 30%;'> </img> <p><strong>你是否选择发射武器？</strong></p>","1",""
"","","","","","html-keyboard-response","108","263703","0.0-4.0-0.52","30","1","2022-11-03 12:56:21","ebf9627b049f568eb4bf28942cb89901","117.136.121.214","Mozilla/5.0 (Windows NT 10.0; Win64; x64) AppleWebKit/537.36 (KHTML, like Gecko) Chrome/107.0.0.0 Safari/537.36 Edg/107.0.1418.26","WebKit","Edge","107.0.1418.26","Windows","10.0","null","<div style=""font-size:60px;"">+</div>","null",""
"","","","","","html-button-response","109","264880","0.0-4.0-1.52","30","1","2022-11-03 12:56:21","ebf9627b049f568eb4bf28942cb89901","117.136.121.214","Mozilla/5.0 (Windows NT 10.0; Win64; x64) AppleWebKit/537.36 (KHTML, like Gecko) Chrome/107.0.0.0 Safari/537.36 Edg/107.0.1418.26","WebKit","Edge","107.0.1418.26","Windows","10.0","1171","<p>作为军队的指挥官，你可以选择发射导弹杀死 <strong>6名</strong> 敌国士兵，但会误杀附近的 <strong>1名</strong> 敌国平民。</p> <p>平民照片如下图所示。</p> <p></p> <img src='stimuli/faces/NFM4.jpg', style='max-width: 30%;'> </img> <p><strong>你是否选择发射武器？</strong></p>","1",""
"","","","","","html-keyboard-response","110","265893","0.0-4.0-0.53","30","1","2022-11-03 12:56:21","ebf9627b049f568eb4bf28942cb89901","117.136.121.214","Mozilla/5.0 (Windows NT 10.0; Win64; x64) AppleWebKit/537.36 (KHTML, like Gecko) Chrome/107.0.0.0 Safari/537.36 Edg/107.0.1418.26","WebKit","Edge","107.0.1418.26","Windows","10.0","null","<div style=""font-size:60px;"">+</div>","null",""
"","","","","","html-button-response","111","267240","0.0-4.0-1.53","30","1","2022-11-03 12:56:21","ebf9627b049f568eb4bf28942cb89901","117.136.121.214","Mozilla/5.0 (Windows NT 10.0; Win64; x64) AppleWebKit/537.36 (KHTML, like Gecko) Chrome/107.0.0.0 Safari/537.36 Edg/107.0.1418.26","WebKit","Edge","107.0.1418.26","Windows","10.0","1341","<p>作为军队的指挥官，你可以选择发射导弹杀死 <strong>9名</strong> 敌国士兵，但会误杀附近的 <strong>1名</strong> 敌国平民。</p> <p>平民照片如下图所示。</p> <p></p> <img src='stimuli/faces/NFF8.jpg', style='max-width: 30%;'> </img> <p><strong>你是否选择发射武器？</strong></p>","1",""
"","","","","","html-keyboard-response","112","268258","0.0-4.0-0.54","30","1","2022-11-03 12:56:21","ebf9627b049f568eb4bf28942cb89901","117.136.121.214","Mozilla/5.0 (Windows NT 10.0; Win64; x64) AppleWebKit/537.36 (KHTML, like Gecko) Chrome/107.0.0.0 Safari/537.36 Edg/107.0.1418.26","WebKit","Edge","107.0.1418.26","Windows","10.0","null","<div style=""font-size:60px;"">+</div>","null",""
"","","","","","html-button-response","113","269824","0.0-4.0-1.54","30","1","2022-11-03 12:56:21","ebf9627b049f568eb4bf28942cb89901","117.136.121.214","Mozilla/5.0 (Windows NT 10.0; Win64; x64) AppleWebKit/537.36 (KHTML, like Gecko) Chrome/107.0.0.0 Safari/537.36 Edg/107.0.1418.26","WebKit","Edge","107.0.1418.26","Windows","10.0","1559","<p>作为军队的指挥官，你可以选择发射导弹杀死 <strong>8名</strong> 敌国士兵，但会炸毁附近的 <strong>1棵</strong> 敌国树木。</p> <p>树木的照片如下图所示。</p> <p></p> <img src='stimuli/trees/12.png', style='max-width: 30%;'> </img> <p><strong>你是否选择发射武器？</strong></p>","0",""
"","","","","","html-keyboard-response","114","270846","0.0-4.0-0.55","30","1","2022-11-03 12:56:21","ebf9627b049f568eb4bf28942cb89901","117.136.121.214","Mozilla/5.0 (Windows NT 10.0; Win64; x64) AppleWebKit/537.36 (KHTML, like Gecko) Chrome/107.0.0.0 Safari/537.36 Edg/107.0.1418.26","WebKit","Edge","107.0.1418.26","Windows","10.0","null","<div style=""font-size:60px;"">+</div>","null",""
"","","","","","html-button-response","115","276728","0.0-4.0-1.55","30","1","2022-11-03 12:56:21","ebf9627b049f568eb4bf28942cb89901","117.136.121.214","Mozilla/5.0 (Windows NT 10.0; Win64; x64) AppleWebKit/537.36 (KHTML, like Gecko) Chrome/107.0.0.0 Safari/537.36 Edg/107.0.1418.26","WebKit","Edge","107.0.1418.26","Windows","10.0","5875","<p>作为军队的指挥官，你可以选择发射导弹杀死 <strong>5名</strong> 敌国士兵，但会炸毁附近的 <strong>1棵</strong> 敌国树木。</p> <p>树木的照片如下图所示。</p> <p></p> <img src='stimuli/trees/7.png', style='max-width: 30%;'> </img> <p><strong>你是否选择发射武器？</strong></p>","0",""
"","","","","","html-keyboard-response","116","277752","0.0-4.0-0.56","30","1","2022-11-03 12:56:21","ebf9627b049f568eb4bf28942cb89901","117.136.121.214","Mozilla/5.0 (Windows NT 10.0; Win64; x64) AppleWebKit/537.36 (KHTML, like Gecko) Chrome/107.0.0.0 Safari/537.36 Edg/107.0.1418.26","WebKit","Edge","107.0.1418.26","Windows","10.0","null","<div style=""font-size:60px;"">+</div>","null",""
"","","","","","html-button-response","117","278496","0.0-4.0-1.56","30","1","2022-11-03 12:56:21","ebf9627b049f568eb4bf28942cb89901","117.136.121.214","Mozilla/5.0 (Windows NT 10.0; Win64; x64) AppleWebKit/537.36 (KHTML, like Gecko) Chrome/107.0.0.0 Safari/537.36 Edg/107.0.1418.26","WebKit","Edge","107.0.1418.26","Windows","10.0","738","<p>作为军队的指挥官，你可以选择发射导弹杀死 <strong>7名</strong> 敌国士兵，但会炸毁附近的 <strong>1棵</strong> 敌国树木。</p> <p>树木的照片如下图所示。</p> <p></p> <img src='stimuli/trees/5.png', style='max-width: 30%;'> </img> <p><strong>你是否选择发射武器？</strong></p>","0",""
"","","","","","html-keyboard-response","118","279508","0.0-4.0-0.57","30","1","2022-11-03 12:56:21","ebf9627b049f568eb4bf28942cb89901","117.136.121.214","Mozilla/5.0 (Windows NT 10.0; Win64; x64) AppleWebKit/537.36 (KHTML, like Gecko) Chrome/107.0.0.0 Safari/537.36 Edg/107.0.1418.26","WebKit","Edge","107.0.1418.26","Windows","10.0","null","<div style=""font-size:60px;"">+</div>","null",""
"","","","","","html-button-response","119","281400","0.0-4.0-1.57","30","1","2022-11-03 12:56:21","ebf9627b049f568eb4bf28942cb89901","117.136.121.214","Mozilla/5.0 (Windows NT 10.0; Win64; x64) AppleWebKit/537.36 (KHTML, like Gecko) Chrome/107.0.0.0 Safari/537.36 Edg/107.0.1418.26","WebKit","Edge","107.0.1418.26","Windows","10.0","1883","<p>作为军队的指挥官，你可以选择发射导弹杀死 <strong>7名</strong> 敌国士兵，但会误杀附近的 <strong>1名</strong> 敌国平民。</p> <p>平民照片如下图所示。</p> <p></p> <img src='stimuli/faces/NFM2.jpg', style='max-width: 30%;'> </img> <p><strong>你是否选择发射武器？</strong></p>","1",""
"","","","","","html-keyboard-response","120","282411","0.0-4.0-0.58","30","1","2022-11-03 12:56:21","ebf9627b049f568eb4bf28942cb89901","117.136.121.214","Mozilla/5.0 (Windows NT 10.0; Win64; x64) AppleWebKit/537.36 (KHTML, like Gecko) Chrome/107.0.0.0 Safari/537.36 Edg/107.0.1418.26","WebKit","Edge","107.0.1418.26","Windows","10.0","null","<div style=""font-size:60px;"">+</div>","null",""
"","","","","","html-button-response","121","284496","0.0-4.0-1.58","30","1","2022-11-03 12:56:21","ebf9627b049f568eb4bf28942cb89901","117.136.121.214","Mozilla/5.0 (Windows NT 10.0; Win64; x64) AppleWebKit/537.36 (KHTML, like Gecko) Chrome/107.0.0.0 Safari/537.36 Edg/107.0.1418.26","WebKit","Edge","107.0.1418.26","Windows","10.0","2072","<p>作为军队的指挥官，你可以选择发射导弹杀死 <strong>9名</strong> 敌国士兵，但会误杀附近的 <strong>1名</strong> 敌国平民。</p> <p>平民照片如下图所示。</p> <p></p> <img src='stimuli/faces/NFM5.jpg', style='max-width: 30%;'> </img> <p><strong>你是否选择发射武器？</strong></p>","1",""
"","","","","","html-keyboard-response","122","285514","0.0-4.0-0.59","30","1","2022-11-03 12:56:21","ebf9627b049f568eb4bf28942cb89901","117.136.121.214","Mozilla/5.0 (Windows NT 10.0; Win64; x64) AppleWebKit/537.36 (KHTML, like Gecko) Chrome/107.0.0.0 Safari/537.36 Edg/107.0.1418.26","WebKit","Edge","107.0.1418.26","Windows","10.0","null","<div style=""font-size:60px;"">+</div>","null",""
"","","","","","html-button-response","123","286816","0.0-4.0-1.59","30","1","2022-11-03 12:56:21","ebf9627b049f568eb4bf28942cb89901","117.136.121.214","Mozilla/5.0 (Windows NT 10.0; Win64; x64) AppleWebKit/537.36 (KHTML, like Gecko) Chrome/107.0.0.0 Safari/537.36 Edg/107.0.1418.26","WebKit","Edge","107.0.1418.26","Windows","10.0","1297","<p>作为军队的指挥官，你可以选择发射导弹杀死 <strong>9名</strong> 敌国士兵，但会炸毁附近的 <strong>1棵</strong> 敌国树木。</p> <p>树木的照片如下图所示。</p> <p></p> <img src='stimuli/trees/9.png', style='max-width: 30%;'> </img> <p><strong>你是否选择发射武器？</strong></p>","0",""
"","","","","","html-keyboard-response","124","287827","0.0-4.0-0.60","30","1","2022-11-03 12:56:21","ebf9627b049f568eb4bf28942cb89901","117.136.121.214","Mozilla/5.0 (Windows NT 10.0; Win64; x64) AppleWebKit/537.36 (KHTML, like Gecko) Chrome/107.0.0.0 Safari/537.36 Edg/107.0.1418.26","WebKit","Edge","107.0.1418.26","Windows","10.0","null","<div style=""font-size:60px;"">+</div>","null",""
"","","","","","html-button-response","125","289832","0.0-4.0-1.60","30","1","2022-11-03 12:56:21","ebf9627b049f568eb4bf28942cb89901","117.136.121.214","Mozilla/5.0 (Windows NT 10.0; Win64; x64) AppleWebKit/537.36 (KHTML, like Gecko) Chrome/107.0.0.0 Safari/537.36 Edg/107.0.1418.26","WebKit","Edge","107.0.1418.26","Windows","10.0","2000","<p>作为军队的指挥官，你可以选择发射导弹杀死 <strong>3名</strong> 敌国士兵，但会炸毁附近的 <strong>1棵</strong> 敌国树木。</p> <p>树木的照片如下图所示。</p> <p></p> <img src='stimuli/trees/10.png', style='max-width: 30%;'> </img> <p><strong>你是否选择发射武器？</strong></p>","0",""
"","","","","","html-keyboard-response","126","290857","0.0-4.0-0.61","30","1","2022-11-03 12:56:21","ebf9627b049f568eb4bf28942cb89901","117.136.121.214","Mozilla/5.0 (Windows NT 10.0; Win64; x64) AppleWebKit/537.36 (KHTML, like Gecko) Chrome/107.0.0.0 Safari/537.36 Edg/107.0.1418.26","WebKit","Edge","107.0.1418.26","Windows","10.0","null","<div style=""font-size:60px;"">+</div>","null",""
"","","","","","html-button-response","127","293360","0.0-4.0-1.61","30","1","2022-11-03 12:56:21","ebf9627b049f568eb4bf28942cb89901","117.136.121.214","Mozilla/5.0 (Windows NT 10.0; Win64; x64) AppleWebKit/537.36 (KHTML, like Gecko) Chrome/107.0.0.0 Safari/537.36 Edg/107.0.1418.26","WebKit","Edge","107.0.1418.26","Windows","10.0","2497","<p>作为军队的指挥官，你可以选择发射导弹杀死 <strong>5名</strong> 敌国士兵，但会炸毁附近的 <strong>1棵</strong> 敌国树木。</p> <p>树木的照片如下图所示。</p> <p></p> <img src='stimuli/trees/9.png', style='max-width: 30%;'> </img> <p><strong>你是否选择发射武器？</strong></p>","0",""
"","","","","","html-keyboard-response","128","294371","0.0-4.0-0.62","30","1","2022-11-03 12:56:21","ebf9627b049f568eb4bf28942cb89901","117.136.121.214","Mozilla/5.0 (Windows NT 10.0; Win64; x64) AppleWebKit/537.36 (KHTML, like Gecko) Chrome/107.0.0.0 Safari/537.36 Edg/107.0.1418.26","WebKit","Edge","107.0.1418.26","Windows","10.0","null","<div style=""font-size:60px;"">+</div>","null",""
"","","","","","html-button-response","129","315040","0.0-4.0-1.62","30","1","2022-11-03 12:56:21","ebf9627b049f568eb4bf28942cb89901","117.136.121.214","Mozilla/5.0 (Windows NT 10.0; Win64; x64) AppleWebKit/537.36 (KHTML, like Gecko) Chrome/107.0.0.0 Safari/537.36 Edg/107.0.1418.26","WebKit","Edge","107.0.1418.26","Windows","10.0","20664","<p>作为军队的指挥官，你可以选择发射导弹杀死 <strong>7名</strong> 敌国士兵，但会误杀附近的 <strong>1名</strong> 敌国平民。</p> <p>平民照片如下图所示。</p> <p></p> <img src='stimuli/faces/NFF1.jpg', style='max-width: 30%;'> </img> <p><strong>你是否选择发射武器？</strong></p>","1",""
"","","","","","html-keyboard-response","130","316051","0.0-4.0-0.63","30","1","2022-11-03 12:56:21","ebf9627b049f568eb4bf28942cb89901","117.136.121.214","Mozilla/5.0 (Windows NT 10.0; Win64; x64) AppleWebKit/537.36 (KHTML, like Gecko) Chrome/107.0.0.0 Safari/537.36 Edg/107.0.1418.26","WebKit","Edge","107.0.1418.26","Windows","10.0","null","<div style=""font-size:60px;"">+</div>","null",""
"","","","","","html-button-response","131","317064","0.0-4.0-1.63","30","1","2022-11-03 12:56:21","ebf9627b049f568eb4bf28942cb89901","117.136.121.214","Mozilla/5.0 (Windows NT 10.0; Win64; x64) AppleWebKit/537.36 (KHTML, like Gecko) Chrome/107.0.0.0 Safari/537.36 Edg/107.0.1418.26","WebKit","Edge","107.0.1418.26","Windows","10.0","1009","<p>作为军队的指挥官，你可以选择发射导弹杀死 <strong>1名</strong> 敌国士兵，但会误杀附近的 <strong>1名</strong> 敌国平民。</p> <p>平民照片如下图所示。</p> <p></p> <img src='stimuli/faces/NFF1.jpg', style='max-width: 30%;'> </img> <p><strong>你是否选择发射武器？</strong></p>","1",""
"","","","","","survey-multi-choice","132","348177","0.0-5.0","30","1","2022-11-03 12:56:21","ebf9627b049f568eb4bf28942cb89901","117.136.121.214","Mozilla/5.0 (Windows NT 10.0; Win64; x64) AppleWebKit/537.36 (KHTML, like Gecko) Chrome/107.0.0.0 Safari/537.36 Edg/107.0.1418.26","WebKit","Edge","107.0.1418.26","Windows","10.0","31108","","{""Attention1"":""""}","[0]"
"","","","","","html-button-response","133","349768","0.0-6.0","30","1","2022-11-03 12:56:21","ebf9627b049f568eb4bf28942cb89901","117.136.121.214","Mozilla/5.0 (Windows NT 10.0; Win64; x64) AppleWebKit/537.36 (KHTML, like Gecko) Chrome/107.0.0.0 Safari/537.36 Edg/107.0.1418.26","WebKit","Edge","107.0.1418.26","Windows","10.0","1586","<p style=""font-size:20px;font-weight:bold;"">恭喜！</p><p>你已经完成了实验的第一部分。</p><p>请休息放松一下，然后进入第二部分。</p><p>这部分大约需要10分钟。</p>","0",""
"","","","","","survey-text","134","396672","0.0-7.0","30","1","2022-11-03 12:56:21","ebf9627b049f568eb4bf28942cb89901","117.136.121.214","Mozilla/5.0 (Windows NT 10.0; Win64; x64) AppleWebKit/537.36 (KHTML, like Gecko) Chrome/107.0.0.0 Safari/537.36 Edg/107.0.1418.26","WebKit","Edge","107.0.1418.26","Windows","10.0","45887","","{""Age"":""20"",""Nation"":""中国"",""Born"":""四川省成都市"",""Live"":""江西省南昌市"",""Ethnic"":""汉族"",""Alipay"":""15297910363""}",""
"","","","","","survey-multi-choice","135","426520","0.0-8.0","30","1","2022-11-03 12:56:21","ebf9627b049f568eb4bf28942cb89901","117.136.121.214","Mozilla/5.0 (Windows NT 10.0; Win64; x64) AppleWebKit/537.36 (KHTML, like Gecko) Chrome/107.0.0.0 Safari/537.36 Edg/107.0.1418.26","WebKit","Edge","107.0.1418.26","Windows","10.0","29843","","{""Gender"":""女"",""Education"":""高中毕业"",""Income"":""￥70,000-￥139,999"",""Children"":""0"",""Race"":""亚洲人""}","[0,1,2,3,4]"
"","","","","","survey-multi-select","136","437184","0.0-9.0","30","1","2022-11-03 12:56:21","ebf9627b049f568eb4bf28942cb89901","117.136.121.214","Mozilla/5.0 (Windows NT 10.0; Win64; x64) AppleWebKit/537.36 (KHTML, like Gecko) Chrome/107.0.0.0 Safari/537.36 Edg/107.0.1418.26","WebKit","Edge","107.0.1418.26","Windows","10.0","10652","","{""Marriage"":[""未婚""],""Religion"":[""佛教""]}","[0,1]"
"","","","","","survey-multi-choice","137","446752","0.0-10.0","30","1","2022-11-03 12:56:21","ebf9627b049f568eb4bf28942cb89901","117.136.121.214","Mozilla/5.0 (Windows NT 10.0; Win64; x64) AppleWebKit/537.36 (KHTML, like Gecko) Chrome/107.0.0.0 Safari/537.36 Edg/107.0.1418.26","WebKit","Edge","107.0.1418.26","Windows","10.0","9561","","{""SES"":""5""}","[0]"
"","","","","","html-button-response","138","448896","0.0-11.0","30","1","2022-11-03 12:56:21","ebf9627b049f568eb4bf28942cb89901","117.136.121.214","Mozilla/5.0 (Windows NT 10.0; Win64; x64) AppleWebKit/537.36 (KHTML, like Gecko) Chrome/107.0.0.0 Safari/537.36 Edg/107.0.1418.26","WebKit","Edge","107.0.1418.26","Windows","10.0","2138","<p><strong>请判断下列陈述在多大程度上可以形容你？</p><p> (1 = ""和我一点都不像"" to 5 = ""非常像我"".)</strong></p>","0",""
"","","","","","survey-likert","139","521065","0.0-12.0","30","1","2022-11-03 12:56:21","ebf9627b049f568eb4bf28942cb89901","117.136.121.214","Mozilla/5.0 (Windows NT 10.0; Win64; x64) AppleWebKit/537.36 (KHTML, like Gecko) Chrome/107.0.0.0 Safari/537.36 Edg/107.0.1418.26","WebKit","Edge","107.0.1418.26","Windows","10.0","72166","","{""Aggression1"":0,""Aggression2"":1,""Aggression3"":1,""Aggression4"":0,""Aggression5"":1,""Aggression6"":1,""Aggression7"":3,""Aggression8"":0,""Aggression9"":1}","[0,1,2,3,4,5,6,7,8]"
"","","","","","html-button-response","140","522032","0.0-13.0","30","1","2022-11-03 12:56:21","ebf9627b049f568eb4bf28942cb89901","117.136.121.214","Mozilla/5.0 (Windows NT 10.0; Win64; x64) AppleWebKit/537.36 (KHTML, like Gecko) Chrome/107.0.0.0 Safari/537.36 Edg/107.0.1418.26","WebKit","Edge","107.0.1418.26","Windows","10.0","962","<p><strong>请判断你在多大程度上同意下列陈述。</strong></p>","0",""
"","","","","","survey-likert","141","723362","0.0-14.0","30","1","2022-11-03 12:56:21","ebf9627b049f568eb4bf28942cb89901","117.136.121.214","Mozilla/5.0 (Windows NT 10.0; Win64; x64) AppleWebKit/537.36 (KHTML, like Gecko) Chrome/107.0.0.0 Safari/537.36 Edg/107.0.1418.26","WebKit","Edge","107.0.1418.26","Windows","10.0","201324","","{""scale10"":0,""scale27"":0,""scale15"":1,""scale11"":4,""scale21"":4,""scale25"":4,""scale18"":0,""scale1"":0,""scale2"":4,""scale14"":1,""scale17"":1,""scale28"":4,""scale3"":0,""scale19"":3,""scale13"":1,""scale8"":4,""scale16"":3,""scale6"":0,""scale26"":4,""scale9"":4,""scale7"":0,""scale5"":3,""scale4"":0,""scale23"":3,""scale22"":4,""scale12"":0,""scale24"":0,""scale20"":4}","[9,26,14,10,20,24,17,0,1,13,16,27,2,18,12,7,15,5,25,8,6,4,3,22,21,11,23,19]"
"","","","","","html-button-response","142","724864","0.0-15.0","30","1","2022-11-03 12:56:21","ebf9627b049f568eb4bf28942cb89901","117.136.121.214","Mozilla/5.0 (Windows NT 10.0; Win64; x64) AppleWebKit/537.36 (KHTML, like Gecko) Chrome/107.0.0.0 Safari/537.36 Edg/107.0.1418.26","WebKit","Edge","107.0.1418.26","Windows","10.0","1496","<p><strong>请判断你在多大程度上同意下列陈述。</strong></p>","0",""
"","","","","","survey-likert","143","840873","0.0-16.0","30","1","2022-11-03 12:56:21","ebf9627b049f568eb4bf28942cb89901","117.136.121.214","Mozilla/5.0 (Windows NT 10.0; Win64; x64) AppleWebKit/537.36 (KHTML, like Gecko) Chrome/107.0.0.0 Safari/537.36 Edg/107.0.1418.26","WebKit","Edge","107.0.1418.26","Windows","10.0","116005","","{""sdo6"":0,""sdo2"":0,""sdo1"":0,""sdo11"":6,""sdo16"":6,""sdo8"":2,""sdo14"":6,""sdo5"":2,""sdo9"":6,""sdo13"":6,""sdo3"":1,""sdo7"":0,""sdo15"":6,""sdo12"":6,""sdo4"":0,""sdo10"":6}","[5,1,0,10,15,7,13,4,8,12,2,6,14,11,3,9]"
"","","","","","html-button-response","144","841768","0.0-17.0","30","1","2022-11-03 12:56:21","ebf9627b049f568eb4bf28942cb89901","117.136.121.214","Mozilla/5.0 (Windows NT 10.0; Win64; x64) AppleWebKit/537.36 (KHTML, like Gecko) Chrome/107.0.0.0 Safari/537.36 Edg/107.0.1418.26","WebKit","Edge","107.0.1418.26","Windows","10.0","889","<p><strong>请判断你在多大程度上同意下列陈述。</strong></p>","0",""
"","","","","","survey-likert","145","903024","0.0-18.0","30","1","2022-11-03 12:56:21","ebf9627b049f568eb4bf28942cb89901","117.136.121.214","Mozilla/5.0 (Windows NT 10.0; Win64; x64) AppleWebKit/537.36 (KHTML, like Gecko) Chrome/107.0.0.0 Safari/537.36 Edg/107.0.1418.26","WebKit","Edge","107.0.1418.26","Windows","10.0","61252","","{""caring1"":4,""liking1"":0,""caring2"":4,""protection1"":1,""liking2"":0,""caring3"":4,""protection2"":1,""liking3"":0,""protection3"":4,""caring4"":4,""liking4"":0,""protection4"":1,""caring5"":4,""liking5"":0,""protection5"":1}","[0,1,2,3,4,5,6,7,8,9,10,11,12,13,14]"
"","","","","","html-button-response","146","903976","0.0-19.0","30","1","2022-11-03 12:56:21","ebf9627b049f568eb4bf28942cb89901","117.136.121.214","Mozilla/5.0 (Windows NT 10.0; Win64; x64) AppleWebKit/537.36 (KHTML, like Gecko) Chrome/107.0.0.0 Safari/537.36 Edg/107.0.1418.26","WebKit","Edge","107.0.1418.26","Windows","10.0","947","<p><strong>请判断下列场景中你的内心感受有多柔软。</strong></p>","0",""
"","","","","","survey-likert","147","949528","0.0-20.0","30","1","2022-11-03 12:56:21","ebf9627b049f568eb4bf28942cb89901","117.136.121.214","Mozilla/5.0 (Windows NT 10.0; Win64; x64) AppleWebKit/537.36 (KHTML, like Gecko) Chrome/107.0.0.0 Safari/537.36 Edg/107.0.1418.26","WebKit","Edge","107.0.1418.26","Windows","10.0","45548","","{""tenderness-positive1"":4,""tenderness-negative1"":1,""tenderness-negative2"":4,""tenderness-positive2"":4,""tenderness-positive3"":4,""tenderness-negative3"":4,""tenderness-positive4"":4,""tendereness-negative4"":0,""tendernness-negative5"":1,""tenderness-positive5"":4}","[0,1,2,3,4,5,6,7,8,9]"
"","","","","","survey-multi-choice","148","952744","0.0-21.0","30","1","2022-11-03 12:56:21","ebf9627b049f568eb4bf28942cb89901","117.136.121.214","Mozilla/5.0 (Windows NT 10.0; Win64; x64) AppleWebKit/537.36 (KHTML, like Gecko) Chrome/107.0.0.0 Safari/537.36 Edg/107.0.1418.26","WebKit","Edge","107.0.1418.26","Windows","10.0","3209","","{""Attention2"":""其他""}","[0]"
"","","","","","html-button-response","149","953527","0.0-22.0","30","1","2022-11-03 12:56:21","ebf9627b049f568eb4bf28942cb89901","117.136.121.214","Mozilla/5.0 (Windows NT 10.0; Win64; x64) AppleWebKit/537.36 (KHTML, like Gecko) Chrome/107.0.0.0 Safari/537.36 Edg/107.0.1418.26","WebKit","Edge","107.0.1418.26","Windows","10.0","777","<p><strong>请判断你在多大程度上同意下列陈述。</strong></p>","0",""
"","","","","","survey-likert","150","1028521","0.0-23.0","30","1","2022-11-03 12:56:21","ebf9627b049f568eb4bf28942cb89901","117.136.121.214","Mozilla/5.0 (Windows NT 10.0; Win64; x64) AppleWebKit/537.36 (KHTML, like Gecko) Chrome/107.0.0.0 Safari/537.36 Edg/107.0.1418.26","WebKit","Edge","107.0.1418.26","Windows","10.0","74989","","{""Patri8"":4,""Patri1"":4,""Nation8"":1,""Patri3"":4,""Nation1"":4,""Nation3"":3,""Patri11"":0,""Nation4"":4,""Nation6"":4,""Patri9"":0,""Patri7"":4,""Patri2"":4,""Nation7"":3,""Patri5"":4,""Patri10"":0,""Patri12"":0,""Nation5"":4,""Patri4"":4,""Nation2"":4,""Patri6"":0}","[7,0,19,2,12,14,10,15,17,8,6,1,18,4,9,11,16,3,13,5]"
"","","","","","html-button-response","151","1029375","0.0-24.0","30","1","2022-11-03 12:56:21","ebf9627b049f568eb4bf28942cb89901","117.136.121.214","Mozilla/5.0 (Windows NT 10.0; Win64; x64) AppleWebKit/537.36 (KHTML, like Gecko) Chrome/107.0.0.0 Safari/537.36 Edg/107.0.1418.26","WebKit","Edge","107.0.1418.26","Windows","10.0","850","<p><strong>请判断你在多大程度上同意下列陈述。</strong></p>","0",""
"","","","","","survey-likert","152","1073466","0.0-25.0","30","1","2022-11-03 12:56:21","ebf9627b049f568eb4bf28942cb89901","117.136.121.214","Mozilla/5.0 (Windows NT 10.0; Win64; x64) AppleWebKit/537.36 (KHTML, like Gecko) Chrome/107.0.0.0 Safari/537.36 Edg/107.0.1418.26","WebKit","Edge","107.0.1418.26","Windows","10.0","44085","","{""vc3"":8,""hc4"":8,""vi3"":2,""vi2"":1,""hi3"":2,""hc2"":7,""hi4"":5,""vi4"":1,""vi1"":1,""vc4"":8,""vc2"":8,""hc1"":8,""hc3"":8,""hi1"":6,""vc1"":8,""hi2"":2,""Robot"":6}","[15,12,6,5,2,10,3,8,4,16,14,9,11,0,13,1,7]"
"","","","","","survey-text","153","1079063","0.0-26.0","30","1","2022-11-03 12:56:21","ebf9627b049f568eb4bf28942cb89901","117.136.121.214","Mozilla/5.0 (Windows NT 10.0; Win64; x64) AppleWebKit/537.36 (KHTML, like Gecko) Chrome/107.0.0.0 Safari/537.36 Edg/107.0.1418.26","WebKit","Edge","107.0.1418.26","Windows","10.0","5579","","{""Comments"":""没有""}",""
"","","","","","html-button-response","154","1090247","0.0-27.0","30","1","2022-11-03 12:56:21","ebf9627b049f568eb4bf28942cb89901","117.136.121.214","Mozilla/5.0 (Windows NT 10.0; Win64; x64) AppleWebKit/537.36 (KHTML, like Gecko) Chrome/107.0.0.0 Safari/537.36 Edg/107.0.1418.26","WebKit","Edge","107.0.1418.26","Windows","10.0","11180","<strong><p>恭喜你完成了实验！</p><p>感谢您的参与。</p></strong>","0",""
