"success","timeout","failed_images","failed_audio","failed_video","trial_type","trial_index","time_elapsed","internal_node_id","run_id","condition","recorded_at","source_code_version","ip","user_agent","device","browser","browser_version","platform","platform_version","rt","stimulus","response","question_order"
"true","false","[]","[]","[]","preload","0","38","0.0-0.0","33","1","2022-11-03 13:31:54","ebf9627b049f568eb4bf28942cb89901","114.254.1.12","Mozilla/5.0 (Macintosh; Intel Mac OS X 10_15_7) AppleWebKit/537.36 (KHTML, like Gecko) Chrome/106.0.0.0 Safari/537.36","Macintosh","Chrome","106.0.0.0","OS X","10_15_7","","","",""
"true","","","","","fullscreen","1","88253341","0.0-1.0","33","1","2022-11-03 13:31:54","ebf9627b049f568eb4bf28942cb89901","114.254.1.12","Mozilla/5.0 (Macintosh; Intel Mac OS X 10_15_7) AppleWebKit/537.36 (KHTML, like Gecko) Chrome/106.0.0.0 Safari/537.36","Macintosh","Chrome","106.0.0.0","OS X","10_15_7","","","",""
"","","","","","html-button-response","2","88255133","0.0-2.0","33","1","2022-11-03 13:31:54","ebf9627b049f568eb4bf28942cb89901","114.254.1.12","Mozilla/5.0 (Macintosh; Intel Mac OS X 10_15_7) AppleWebKit/537.36 (KHTML, like Gecko) Chrome/106.0.0.0 Safari/537.36","Macintosh","Chrome","106.0.0.0","OS X","10_15_7","1784","<p style=""font-size:20px;font-weight:bold;"">实验知情同意书</p><p style=""text-align:left;""><strong>实验名称：</strong>社会冲突研究</p><p style=""text-align:left;""><strong>主要研究者：</strong>韩晓春副教授（北京师范大学心理学部）</p><p style=""text-align:left;""><strong>联系方式：</strong>发送邮件至xiaochun.han@bnu.edu.cn</p><p style=""text-align:left;""><strong>研究目的：</strong>研究旨在了解人类面对群体冲突时的决策方式，以及相关的心理学特质。实验调查大约需要20分钟。</p><p style=""text-align:left;""><strong>实验流程：</strong>实验包含两部分。第一部分呈现一系列群体冲突场景，请你决定如何对这些冲突进行反应，大约需要10分钟完成。第二部分包含一系列人口统计学信息收集和心理学问卷，大约需要10分钟完成。</p><p style=""text-align:left;""><strong>参加及退出规则：</strong>参加本实验完全取决于您的个人意愿。在参与过程中，您可以随时退出，并且不用承担任何后果。</p><p style=""text-align:left;""><strong>隐私：</strong>本实验完全匿名进行，不会收集您的姓名或其他能够识别您身份的信息。实验中收集的作答仅用作科学研究使用，可能会在学术期刊/书籍上发表，或者用于教学，您的数据未来可能会和其他研究者或实验室分享，但您的个人身份不会被识别。</p><p style=""text-align:left;""><strong>实验报酬：</strong>实验完成后，您将获得15元人民币报酬，以感谢您的时间和努力。调查问卷中包含几道题目用以测验您作答时的认真度。只有完成全部实验，并且正确回答认真度测验的被试才能获得实验报酬。实验报酬将通过支付宝转账发放。</p><p style=""text-align:left;font-size:20px;""><strong>如果您同意以上实验知情同意书的内容，请点击'同意并且开始实验'按钮；否则请关闭浏览器界面，退出实验。</strong></p>","0",""
"","","","","","html-button-response","3","88258333","0.0-3.0","33","1","2022-11-03 13:31:54","ebf9627b049f568eb4bf28942cb89901","114.254.1.12","Mozilla/5.0 (Macintosh; Intel Mac OS X 10_15_7) AppleWebKit/537.36 (KHTML, like Gecko) Chrome/106.0.0.0 Safari/537.36","Macintosh","Chrome","106.0.0.0","OS X","10_15_7","3197","<p ><strong>实验任务一：</strong></p><p>请想象你的国家与另一个国家发生了军事冲突。</p><p>你是国家军队的指挥官，你将如何在冲突中进行决策。</p><p>具体来说，作为军队指挥官，请你决定是否发射导弹进行打击。</p><p>接下来，你会面对一系列场景，请仔细阅读每个场景，然后进行决策。</p><p>这部分实验任务大约需要10分钟。</p><p><strong>实验过程中，请集中注意力。</strong></p>","0",""
"","","","","","html-keyboard-response","4","88259340","0.0-4.0-0.0","33","1","2022-11-03 13:31:54","ebf9627b049f568eb4bf28942cb89901","114.254.1.12","Mozilla/5.0 (Macintosh; Intel Mac OS X 10_15_7) AppleWebKit/537.36 (KHTML, like Gecko) Chrome/106.0.0.0 Safari/537.36","Macintosh","Chrome","106.0.0.0","OS X","10_15_7","null","<div style=""font-size:60px;"">+</div>","null",""
"","","","","","html-button-response","5","88268466","0.0-4.0-1.0","33","1","2022-11-03 13:31:54","ebf9627b049f568eb4bf28942cb89901","114.254.1.12","Mozilla/5.0 (Macintosh; Intel Mac OS X 10_15_7) AppleWebKit/537.36 (KHTML, like Gecko) Chrome/106.0.0.0 Safari/537.36","Macintosh","Chrome","106.0.0.0","OS X","10_15_7","9120","<p>作为军队的指挥官，你可以选择发射导弹杀死 <strong>1名</strong> 敌国士兵，但会炸毁附近的 <strong>1棵</strong> 敌国树木。</p> <p>树木的照片如下图所示。</p> <p></p> <img src='stimuli/trees/2.png', style='max-width: 30%;'> </img> <p><strong>你是否选择发射武器？</strong></p>","1",""
"","","","","","html-keyboard-response","6","88269470","0.0-4.0-0.1","33","1","2022-11-03 13:31:54","ebf9627b049f568eb4bf28942cb89901","114.254.1.12","Mozilla/5.0 (Macintosh; Intel Mac OS X 10_15_7) AppleWebKit/537.36 (KHTML, like Gecko) Chrome/106.0.0.0 Safari/537.36","Macintosh","Chrome","106.0.0.0","OS X","10_15_7","null","<div style=""font-size:60px;"">+</div>","null",""
"","","","","","html-button-response","7","88276433","0.0-4.0-1.1","33","1","2022-11-03 13:31:54","ebf9627b049f568eb4bf28942cb89901","114.254.1.12","Mozilla/5.0 (Macintosh; Intel Mac OS X 10_15_7) AppleWebKit/537.36 (KHTML, like Gecko) Chrome/106.0.0.0 Safari/537.36","Macintosh","Chrome","106.0.0.0","OS X","10_15_7","6958","<p>作为军队的指挥官，你可以选择发射导弹杀死 <strong>10名</strong> 敌国士兵，但会误杀附近的 <strong>1名</strong> 敌国平民。</p> <p>平民照片如下图所示。</p> <p></p> <img src='stimuli/faces/NFM3.jpg', style='max-width: 30%;'> </img> <p><strong>你是否选择发射武器？</strong></p>","1",""
"","","","","","html-keyboard-response","8","88277437","0.0-4.0-0.2","33","1","2022-11-03 13:31:54","ebf9627b049f568eb4bf28942cb89901","114.254.1.12","Mozilla/5.0 (Macintosh; Intel Mac OS X 10_15_7) AppleWebKit/537.36 (KHTML, like Gecko) Chrome/106.0.0.0 Safari/537.36","Macintosh","Chrome","106.0.0.0","OS X","10_15_7","null","<div style=""font-size:60px;"">+</div>","null",""
"","","","","","html-button-response","9","88283683","0.0-4.0-1.2","33","1","2022-11-03 13:31:54","ebf9627b049f568eb4bf28942cb89901","114.254.1.12","Mozilla/5.0 (Macintosh; Intel Mac OS X 10_15_7) AppleWebKit/537.36 (KHTML, like Gecko) Chrome/106.0.0.0 Safari/537.36","Macintosh","Chrome","106.0.0.0","OS X","10_15_7","6241","<p>作为军队的指挥官，你可以选择发射导弹杀死 <strong>2名</strong> 敌国士兵，但会炸毁附近的 <strong>1棵</strong> 敌国树木。</p> <p>树木的照片如下图所示。</p> <p></p> <img src='stimuli/trees/9.png', style='max-width: 30%;'> </img> <p><strong>你是否选择发射武器？</strong></p>","1",""
"","","","","","html-keyboard-response","10","88284689","0.0-4.0-0.3","33","1","2022-11-03 13:31:54","ebf9627b049f568eb4bf28942cb89901","114.254.1.12","Mozilla/5.0 (Macintosh; Intel Mac OS X 10_15_7) AppleWebKit/537.36 (KHTML, like Gecko) Chrome/106.0.0.0 Safari/537.36","Macintosh","Chrome","106.0.0.0","OS X","10_15_7","null","<div style=""font-size:60px;"">+</div>","null",""
"","","","","","html-button-response","11","88287949","0.0-4.0-1.3","33","1","2022-11-03 13:31:54","ebf9627b049f568eb4bf28942cb89901","114.254.1.12","Mozilla/5.0 (Macintosh; Intel Mac OS X 10_15_7) AppleWebKit/537.36 (KHTML, like Gecko) Chrome/106.0.0.0 Safari/537.36","Macintosh","Chrome","106.0.0.0","OS X","10_15_7","3256","<p>作为军队的指挥官，你可以选择发射导弹杀死 <strong>3名</strong> 敌国士兵，但会误杀附近的 <strong>1名</strong> 敌国平民。</p> <p>平民照片如下图所示。</p> <p></p> <img src='stimuli/faces/NFM4.jpg', style='max-width: 30%;'> </img> <p><strong>你是否选择发射武器？</strong></p>","1",""
"","","","","","html-keyboard-response","12","88288953","0.0-4.0-0.4","33","1","2022-11-03 13:31:54","ebf9627b049f568eb4bf28942cb89901","114.254.1.12","Mozilla/5.0 (Macintosh; Intel Mac OS X 10_15_7) AppleWebKit/537.36 (KHTML, like Gecko) Chrome/106.0.0.0 Safari/537.36","Macintosh","Chrome","106.0.0.0","OS X","10_15_7","null","<div style=""font-size:60px;"">+</div>","null",""
"","","","","","html-button-response","13","88290115","0.0-4.0-1.4","33","1","2022-11-03 13:31:54","ebf9627b049f568eb4bf28942cb89901","114.254.1.12","Mozilla/5.0 (Macintosh; Intel Mac OS X 10_15_7) AppleWebKit/537.36 (KHTML, like Gecko) Chrome/106.0.0.0 Safari/537.36","Macintosh","Chrome","106.0.0.0","OS X","10_15_7","1157","<p>作为军队的指挥官，你可以选择发射导弹杀死 <strong>1名</strong> 敌国士兵，但会炸毁附近的 <strong>1棵</strong> 敌国树木。</p> <p>树木的照片如下图所示。</p> <p></p> <img src='stimuli/trees/6.png', style='max-width: 30%;'> </img> <p><strong>你是否选择发射武器？</strong></p>","1",""
"","","","","","html-keyboard-response","14","88291121","0.0-4.0-0.5","33","1","2022-11-03 13:31:54","ebf9627b049f568eb4bf28942cb89901","114.254.1.12","Mozilla/5.0 (Macintosh; Intel Mac OS X 10_15_7) AppleWebKit/537.36 (KHTML, like Gecko) Chrome/106.0.0.0 Safari/537.36","Macintosh","Chrome","106.0.0.0","OS X","10_15_7","null","<div style=""font-size:60px;"">+</div>","null",""
"","","","","","html-button-response","15","88292166","0.0-4.0-1.5","33","1","2022-11-03 13:31:54","ebf9627b049f568eb4bf28942cb89901","114.254.1.12","Mozilla/5.0 (Macintosh; Intel Mac OS X 10_15_7) AppleWebKit/537.36 (KHTML, like Gecko) Chrome/106.0.0.0 Safari/537.36","Macintosh","Chrome","106.0.0.0","OS X","10_15_7","1040","<p>作为军队的指挥官，你可以选择发射导弹杀死 <strong>1名</strong> 敌国士兵，但会误杀附近的 <strong>1名</strong> 敌国平民。</p> <p>平民照片如下图所示。</p> <p></p> <img src='stimuli/faces/NFF6.jpg', style='max-width: 30%;'> </img> <p><strong>你是否选择发射武器？</strong></p>","1",""
"","","","","","html-keyboard-response","16","88293169","0.0-4.0-0.6","33","1","2022-11-03 13:31:54","ebf9627b049f568eb4bf28942cb89901","114.254.1.12","Mozilla/5.0 (Macintosh; Intel Mac OS X 10_15_7) AppleWebKit/537.36 (KHTML, like Gecko) Chrome/106.0.0.0 Safari/537.36","Macintosh","Chrome","106.0.0.0","OS X","10_15_7","null","<div style=""font-size:60px;"">+</div>","null",""
"","","","","","html-button-response","17","88295282","0.0-4.0-1.6","33","1","2022-11-03 13:31:54","ebf9627b049f568eb4bf28942cb89901","114.254.1.12","Mozilla/5.0 (Macintosh; Intel Mac OS X 10_15_7) AppleWebKit/537.36 (KHTML, like Gecko) Chrome/106.0.0.0 Safari/537.36","Macintosh","Chrome","106.0.0.0","OS X","10_15_7","2109","<p>作为军队的指挥官，你可以选择发射导弹杀死 <strong>1名</strong> 敌国士兵，但会误杀附近的 <strong>1名</strong> 敌国平民。</p> <p>平民照片如下图所示。</p> <p></p> <img src='stimuli/faces/NFM2.jpg', style='max-width: 30%;'> </img> <p><strong>你是否选择发射武器？</strong></p>","1",""
"","","","","","html-keyboard-response","18","88296285","0.0-4.0-0.7","33","1","2022-11-03 13:31:54","ebf9627b049f568eb4bf28942cb89901","114.254.1.12","Mozilla/5.0 (Macintosh; Intel Mac OS X 10_15_7) AppleWebKit/537.36 (KHTML, like Gecko) Chrome/106.0.0.0 Safari/537.36","Macintosh","Chrome","106.0.0.0","OS X","10_15_7","null","<div style=""font-size:60px;"">+</div>","null",""
"","","","","","html-button-response","19","88299799","0.0-4.0-1.7","33","1","2022-11-03 13:31:54","ebf9627b049f568eb4bf28942cb89901","114.254.1.12","Mozilla/5.0 (Macintosh; Intel Mac OS X 10_15_7) AppleWebKit/537.36 (KHTML, like Gecko) Chrome/106.0.0.0 Safari/537.36","Macintosh","Chrome","106.0.0.0","OS X","10_15_7","3510","<p>作为军队的指挥官，你可以选择发射导弹杀死 <strong>10名</strong> 敌国士兵，但会炸毁附近的 <strong>1棵</strong> 敌国树木。</p> <p>树木的照片如下图所示。</p> <p></p> <img src='stimuli/trees/2.png', style='max-width: 30%;'> </img> <p><strong>你是否选择发射武器？</strong></p>","0",""
"","","","","","html-keyboard-response","20","88300803","0.0-4.0-0.8","33","1","2022-11-03 13:31:54","ebf9627b049f568eb4bf28942cb89901","114.254.1.12","Mozilla/5.0 (Macintosh; Intel Mac OS X 10_15_7) AppleWebKit/537.36 (KHTML, like Gecko) Chrome/106.0.0.0 Safari/537.36","Macintosh","Chrome","106.0.0.0","OS X","10_15_7","null","<div style=""font-size:60px;"">+</div>","null",""
"","","","","","html-button-response","21","88302716","0.0-4.0-1.8","33","1","2022-11-03 13:31:54","ebf9627b049f568eb4bf28942cb89901","114.254.1.12","Mozilla/5.0 (Macintosh; Intel Mac OS X 10_15_7) AppleWebKit/537.36 (KHTML, like Gecko) Chrome/106.0.0.0 Safari/537.36","Macintosh","Chrome","106.0.0.0","OS X","10_15_7","1909","<p>作为军队的指挥官，你可以选择发射导弹杀死 <strong>10名</strong> 敌国士兵，但会误杀附近的 <strong>1名</strong> 敌国平民。</p> <p>平民照片如下图所示。</p> <p></p> <img src='stimuli/faces/NFF5.jpg', style='max-width: 30%;'> </img> <p><strong>你是否选择发射武器？</strong></p>","1",""
"","","","","","html-keyboard-response","22","88303723","0.0-4.0-0.9","33","1","2022-11-03 13:31:54","ebf9627b049f568eb4bf28942cb89901","114.254.1.12","Mozilla/5.0 (Macintosh; Intel Mac OS X 10_15_7) AppleWebKit/537.36 (KHTML, like Gecko) Chrome/106.0.0.0 Safari/537.36","Macintosh","Chrome","106.0.0.0","OS X","10_15_7","null","<div style=""font-size:60px;"">+</div>","null",""
"","","","","","html-button-response","23","88307632","0.0-4.0-1.9","33","1","2022-11-03 13:31:54","ebf9627b049f568eb4bf28942cb89901","114.254.1.12","Mozilla/5.0 (Macintosh; Intel Mac OS X 10_15_7) AppleWebKit/537.36 (KHTML, like Gecko) Chrome/106.0.0.0 Safari/537.36","Macintosh","Chrome","106.0.0.0","OS X","10_15_7","3905","<p>作为军队的指挥官，你可以选择发射导弹杀死 <strong>10名</strong> 敌国士兵，但会炸毁附近的 <strong>1棵</strong> 敌国树木。</p> <p>树木的照片如下图所示。</p> <p></p> <img src='stimuli/trees/10.png', style='max-width: 30%;'> </img> <p><strong>你是否选择发射武器？</strong></p>","1",""
"","","","","","html-keyboard-response","24","88308637","0.0-4.0-0.10","33","1","2022-11-03 13:31:54","ebf9627b049f568eb4bf28942cb89901","114.254.1.12","Mozilla/5.0 (Macintosh; Intel Mac OS X 10_15_7) AppleWebKit/537.36 (KHTML, like Gecko) Chrome/106.0.0.0 Safari/537.36","Macintosh","Chrome","106.0.0.0","OS X","10_15_7","null","<div style=""font-size:60px;"">+</div>","null",""
"","","","","","html-button-response","25","88309749","0.0-4.0-1.10","33","1","2022-11-03 13:31:54","ebf9627b049f568eb4bf28942cb89901","114.254.1.12","Mozilla/5.0 (Macintosh; Intel Mac OS X 10_15_7) AppleWebKit/537.36 (KHTML, like Gecko) Chrome/106.0.0.0 Safari/537.36","Macintosh","Chrome","106.0.0.0","OS X","10_15_7","1108","<p>作为军队的指挥官，你可以选择发射导弹杀死 <strong>7名</strong> 敌国士兵，但会炸毁附近的 <strong>1棵</strong> 敌国树木。</p> <p>树木的照片如下图所示。</p> <p></p> <img src='stimuli/trees/11.png', style='max-width: 30%;'> </img> <p><strong>你是否选择发射武器？</strong></p>","1",""
"","","","","","html-keyboard-response","26","88310754","0.0-4.0-0.11","33","1","2022-11-03 13:31:54","ebf9627b049f568eb4bf28942cb89901","114.254.1.12","Mozilla/5.0 (Macintosh; Intel Mac OS X 10_15_7) AppleWebKit/537.36 (KHTML, like Gecko) Chrome/106.0.0.0 Safari/537.36","Macintosh","Chrome","106.0.0.0","OS X","10_15_7","null","<div style=""font-size:60px;"">+</div>","null",""
"","","","","","html-button-response","27","88312815","0.0-4.0-1.11","33","1","2022-11-03 13:31:54","ebf9627b049f568eb4bf28942cb89901","114.254.1.12","Mozilla/5.0 (Macintosh; Intel Mac OS X 10_15_7) AppleWebKit/537.36 (KHTML, like Gecko) Chrome/106.0.0.0 Safari/537.36","Macintosh","Chrome","106.0.0.0","OS X","10_15_7","2057","<p>作为军队的指挥官，你可以选择发射导弹杀死 <strong>5名</strong> 敌国士兵，但会炸毁附近的 <strong>1棵</strong> 敌国树木。</p> <p>树木的照片如下图所示。</p> <p></p> <img src='stimuli/trees/15.png', style='max-width: 30%;'> </img> <p><strong>你是否选择发射武器？</strong></p>","1",""
"","","","","","html-keyboard-response","28","88313818","0.0-4.0-0.12","33","1","2022-11-03 13:31:54","ebf9627b049f568eb4bf28942cb89901","114.254.1.12","Mozilla/5.0 (Macintosh; Intel Mac OS X 10_15_7) AppleWebKit/537.36 (KHTML, like Gecko) Chrome/106.0.0.0 Safari/537.36","Macintosh","Chrome","106.0.0.0","OS X","10_15_7","null","<div style=""font-size:60px;"">+</div>","null",""
"","","","","","html-button-response","29","88322415","0.0-4.0-1.12","33","1","2022-11-03 13:31:54","ebf9627b049f568eb4bf28942cb89901","114.254.1.12","Mozilla/5.0 (Macintosh; Intel Mac OS X 10_15_7) AppleWebKit/537.36 (KHTML, like Gecko) Chrome/106.0.0.0 Safari/537.36","Macintosh","Chrome","106.0.0.0","OS X","10_15_7","8593","<p>作为军队的指挥官，你可以选择发射导弹杀死 <strong>8名</strong> 敌国士兵，但会炸毁附近的 <strong>1棵</strong> 敌国树木。</p> <p>树木的照片如下图所示。</p> <p></p> <img src='stimuli/trees/4.png', style='max-width: 30%;'> </img> <p><strong>你是否选择发射武器？</strong></p>","1",""
"","","","","","html-keyboard-response","30","88323422","0.0-4.0-0.13","33","1","2022-11-03 13:31:54","ebf9627b049f568eb4bf28942cb89901","114.254.1.12","Mozilla/5.0 (Macintosh; Intel Mac OS X 10_15_7) AppleWebKit/537.36 (KHTML, like Gecko) Chrome/106.0.0.0 Safari/537.36","Macintosh","Chrome","106.0.0.0","OS X","10_15_7","null","<div style=""font-size:60px;"">+</div>","null",""
"","","","","","html-button-response","31","88324632","0.0-4.0-1.13","33","1","2022-11-03 13:31:54","ebf9627b049f568eb4bf28942cb89901","114.254.1.12","Mozilla/5.0 (Macintosh; Intel Mac OS X 10_15_7) AppleWebKit/537.36 (KHTML, like Gecko) Chrome/106.0.0.0 Safari/537.36","Macintosh","Chrome","106.0.0.0","OS X","10_15_7","1205","<p>作为军队的指挥官，你可以选择发射导弹杀死 <strong>6名</strong> 敌国士兵，但会炸毁附近的 <strong>1棵</strong> 敌国树木。</p> <p>树木的照片如下图所示。</p> <p></p> <img src='stimuli/trees/16.png', style='max-width: 30%;'> </img> <p><strong>你是否选择发射武器？</strong></p>","1",""
"","","","","","html-keyboard-response","32","88325638","0.0-4.0-0.14","33","1","2022-11-03 13:31:54","ebf9627b049f568eb4bf28942cb89901","114.254.1.12","Mozilla/5.0 (Macintosh; Intel Mac OS X 10_15_7) AppleWebKit/537.36 (KHTML, like Gecko) Chrome/106.0.0.0 Safari/537.36","Macintosh","Chrome","106.0.0.0","OS X","10_15_7","null","<div style=""font-size:60px;"">+</div>","null",""
"","","","","","html-button-response","33","88328048","0.0-4.0-1.14","33","1","2022-11-03 13:31:54","ebf9627b049f568eb4bf28942cb89901","114.254.1.12","Mozilla/5.0 (Macintosh; Intel Mac OS X 10_15_7) AppleWebKit/537.36 (KHTML, like Gecko) Chrome/106.0.0.0 Safari/537.36","Macintosh","Chrome","106.0.0.0","OS X","10_15_7","2406","<p>作为军队的指挥官，你可以选择发射导弹杀死 <strong>4名</strong> 敌国士兵，但会误杀附近的 <strong>1名</strong> 敌国平民。</p> <p>平民照片如下图所示。</p> <p></p> <img src='stimuli/faces/NFM7.jpg', style='max-width: 30%;'> </img> <p><strong>你是否选择发射武器？</strong></p>","1",""
"","","","","","html-keyboard-response","34","88329054","0.0-4.0-0.15","33","1","2022-11-03 13:31:54","ebf9627b049f568eb4bf28942cb89901","114.254.1.12","Mozilla/5.0 (Macintosh; Intel Mac OS X 10_15_7) AppleWebKit/537.36 (KHTML, like Gecko) Chrome/106.0.0.0 Safari/537.36","Macintosh","Chrome","106.0.0.0","OS X","10_15_7","null","<div style=""font-size:60px;"">+</div>","null",""
"","","","","","html-button-response","35","88330450","0.0-4.0-1.15","33","1","2022-11-03 13:31:54","ebf9627b049f568eb4bf28942cb89901","114.254.1.12","Mozilla/5.0 (Macintosh; Intel Mac OS X 10_15_7) AppleWebKit/537.36 (KHTML, like Gecko) Chrome/106.0.0.0 Safari/537.36","Macintosh","Chrome","106.0.0.0","OS X","10_15_7","1391","<p>作为军队的指挥官，你可以选择发射导弹杀死 <strong>4名</strong> 敌国士兵，但会误杀附近的 <strong>1名</strong> 敌国平民。</p> <p>平民照片如下图所示。</p> <p></p> <img src='stimuli/faces/NFM8.jpg', style='max-width: 30%;'> </img> <p><strong>你是否选择发射武器？</strong></p>","1",""
"","","","","","html-keyboard-response","36","88331457","0.0-4.0-0.16","33","1","2022-11-03 13:31:54","ebf9627b049f568eb4bf28942cb89901","114.254.1.12","Mozilla/5.0 (Macintosh; Intel Mac OS X 10_15_7) AppleWebKit/537.36 (KHTML, like Gecko) Chrome/106.0.0.0 Safari/537.36","Macintosh","Chrome","106.0.0.0","OS X","10_15_7","null","<div style=""font-size:60px;"">+</div>","null",""
"","","","","","html-button-response","37","88332548","0.0-4.0-1.16","33","1","2022-11-03 13:31:54","ebf9627b049f568eb4bf28942cb89901","114.254.1.12","Mozilla/5.0 (Macintosh; Intel Mac OS X 10_15_7) AppleWebKit/537.36 (KHTML, like Gecko) Chrome/106.0.0.0 Safari/537.36","Macintosh","Chrome","106.0.0.0","OS X","10_15_7","1086","<p>作为军队的指挥官，你可以选择发射导弹杀死 <strong>4名</strong> 敌国士兵，但会炸毁附近的 <strong>1棵</strong> 敌国树木。</p> <p>树木的照片如下图所示。</p> <p></p> <img src='stimuli/trees/5.png', style='max-width: 30%;'> </img> <p><strong>你是否选择发射武器？</strong></p>","1",""
"","","","","","html-keyboard-response","38","88333553","0.0-4.0-0.17","33","1","2022-11-03 13:31:54","ebf9627b049f568eb4bf28942cb89901","114.254.1.12","Mozilla/5.0 (Macintosh; Intel Mac OS X 10_15_7) AppleWebKit/537.36 (KHTML, like Gecko) Chrome/106.0.0.0 Safari/537.36","Macintosh","Chrome","106.0.0.0","OS X","10_15_7","null","<div style=""font-size:60px;"">+</div>","null",""
"","","","","","html-button-response","39","88335932","0.0-4.0-1.17","33","1","2022-11-03 13:31:54","ebf9627b049f568eb4bf28942cb89901","114.254.1.12","Mozilla/5.0 (Macintosh; Intel Mac OS X 10_15_7) AppleWebKit/537.36 (KHTML, like Gecko) Chrome/106.0.0.0 Safari/537.36","Macintosh","Chrome","106.0.0.0","OS X","10_15_7","2373","<p>作为军队的指挥官，你可以选择发射导弹杀死 <strong>9名</strong> 敌国士兵，但会误杀附近的 <strong>1名</strong> 敌国平民。</p> <p>平民照片如下图所示。</p> <p></p> <img src='stimuli/faces/NFM7.jpg', style='max-width: 30%;'> </img> <p><strong>你是否选择发射武器？</strong></p>","1",""
"","","","","","html-keyboard-response","40","88336935","0.0-4.0-0.18","33","1","2022-11-03 13:31:54","ebf9627b049f568eb4bf28942cb89901","114.254.1.12","Mozilla/5.0 (Macintosh; Intel Mac OS X 10_15_7) AppleWebKit/537.36 (KHTML, like Gecko) Chrome/106.0.0.0 Safari/537.36","Macintosh","Chrome","106.0.0.0","OS X","10_15_7","null","<div style=""font-size:60px;"">+</div>","null",""
"","","","","","html-button-response","41","88338599","0.0-4.0-1.18","33","1","2022-11-03 13:31:54","ebf9627b049f568eb4bf28942cb89901","114.254.1.12","Mozilla/5.0 (Macintosh; Intel Mac OS X 10_15_7) AppleWebKit/537.36 (KHTML, like Gecko) Chrome/106.0.0.0 Safari/537.36","Macintosh","Chrome","106.0.0.0","OS X","10_15_7","1660","<p>作为军队的指挥官，你可以选择发射导弹杀死 <strong>6名</strong> 敌国士兵，但会误杀附近的 <strong>1名</strong> 敌国平民。</p> <p>平民照片如下图所示。</p> <p></p> <img src='stimuli/faces/NFF7.jpg', style='max-width: 30%;'> </img> <p><strong>你是否选择发射武器？</strong></p>","1",""
"","","","","","html-keyboard-response","42","88339606","0.0-4.0-0.19","33","1","2022-11-03 13:31:54","ebf9627b049f568eb4bf28942cb89901","114.254.1.12","Mozilla/5.0 (Macintosh; Intel Mac OS X 10_15_7) AppleWebKit/537.36 (KHTML, like Gecko) Chrome/106.0.0.0 Safari/537.36","Macintosh","Chrome","106.0.0.0","OS X","10_15_7","null","<div style=""font-size:60px;"">+</div>","null",""
"","","","","","html-button-response","43","88355882","0.0-4.0-1.19","33","1","2022-11-03 13:31:54","ebf9627b049f568eb4bf28942cb89901","114.254.1.12","Mozilla/5.0 (Macintosh; Intel Mac OS X 10_15_7) AppleWebKit/537.36 (KHTML, like Gecko) Chrome/106.0.0.0 Safari/537.36","Macintosh","Chrome","106.0.0.0","OS X","10_15_7","16271","<p>作为军队的指挥官，你可以选择发射导弹杀死 <strong>4名</strong> 敌国士兵，但会炸毁附近的 <strong>1棵</strong> 敌国树木。</p> <p>树木的照片如下图所示。</p> <p></p> <img src='stimuli/trees/16.png', style='max-width: 30%;'> </img> <p><strong>你是否选择发射武器？</strong></p>","1",""
"","","","","","html-keyboard-response","44","88356888","0.0-4.0-0.20","33","1","2022-11-03 13:31:54","ebf9627b049f568eb4bf28942cb89901","114.254.1.12","Mozilla/5.0 (Macintosh; Intel Mac OS X 10_15_7) AppleWebKit/537.36 (KHTML, like Gecko) Chrome/106.0.0.0 Safari/537.36","Macintosh","Chrome","106.0.0.0","OS X","10_15_7","null","<div style=""font-size:60px;"">+</div>","null",""
"","","","","","html-button-response","45","88375398","0.0-4.0-1.20","33","1","2022-11-03 13:31:54","ebf9627b049f568eb4bf28942cb89901","114.254.1.12","Mozilla/5.0 (Macintosh; Intel Mac OS X 10_15_7) AppleWebKit/537.36 (KHTML, like Gecko) Chrome/106.0.0.0 Safari/537.36","Macintosh","Chrome","106.0.0.0","OS X","10_15_7","18505","<p>作为军队的指挥官，你可以选择发射导弹杀死 <strong>5名</strong> 敌国士兵，但会误杀附近的 <strong>1名</strong> 敌国平民。</p> <p>平民照片如下图所示。</p> <p></p> <img src='stimuli/faces/NFF8.jpg', style='max-width: 30%;'> </img> <p><strong>你是否选择发射武器？</strong></p>","1",""
"","","","","","html-keyboard-response","46","88376406","0.0-4.0-0.21","33","1","2022-11-03 13:31:54","ebf9627b049f568eb4bf28942cb89901","114.254.1.12","Mozilla/5.0 (Macintosh; Intel Mac OS X 10_15_7) AppleWebKit/537.36 (KHTML, like Gecko) Chrome/106.0.0.0 Safari/537.36","Macintosh","Chrome","106.0.0.0","OS X","10_15_7","null","<div style=""font-size:60px;"">+</div>","null",""
"","","","","","html-button-response","47","88378832","0.0-4.0-1.21","33","1","2022-11-03 13:31:54","ebf9627b049f568eb4bf28942cb89901","114.254.1.12","Mozilla/5.0 (Macintosh; Intel Mac OS X 10_15_7) AppleWebKit/537.36 (KHTML, like Gecko) Chrome/106.0.0.0 Safari/537.36","Macintosh","Chrome","106.0.0.0","OS X","10_15_7","2421","<p>作为军队的指挥官，你可以选择发射导弹杀死 <strong>3名</strong> 敌国士兵，但会炸毁附近的 <strong>1棵</strong> 敌国树木。</p> <p>树木的照片如下图所示。</p> <p></p> <img src='stimuli/trees/8.png', style='max-width: 30%;'> </img> <p><strong>你是否选择发射武器？</strong></p>","1",""
"","","","","","html-keyboard-response","48","88379837","0.0-4.0-0.22","33","1","2022-11-03 13:31:54","ebf9627b049f568eb4bf28942cb89901","114.254.1.12","Mozilla/5.0 (Macintosh; Intel Mac OS X 10_15_7) AppleWebKit/537.36 (KHTML, like Gecko) Chrome/106.0.0.0 Safari/537.36","Macintosh","Chrome","106.0.0.0","OS X","10_15_7","null","<div style=""font-size:60px;"">+</div>","null",""
"","","","","","html-button-response","49","88381550","0.0-4.0-1.22","33","1","2022-11-03 13:31:54","ebf9627b049f568eb4bf28942cb89901","114.254.1.12","Mozilla/5.0 (Macintosh; Intel Mac OS X 10_15_7) AppleWebKit/537.36 (KHTML, like Gecko) Chrome/106.0.0.0 Safari/537.36","Macintosh","Chrome","106.0.0.0","OS X","10_15_7","1707","<p>作为军队的指挥官，你可以选择发射导弹杀死 <strong>1名</strong> 敌国士兵，但会误杀附近的 <strong>1名</strong> 敌国平民。</p> <p>平民照片如下图所示。</p> <p></p> <img src='stimuli/faces/NFF5.jpg', style='max-width: 30%;'> </img> <p><strong>你是否选择发射武器？</strong></p>","1",""
"","","","","","html-keyboard-response","50","88382555","0.0-4.0-0.23","33","1","2022-11-03 13:31:54","ebf9627b049f568eb4bf28942cb89901","114.254.1.12","Mozilla/5.0 (Macintosh; Intel Mac OS X 10_15_7) AppleWebKit/537.36 (KHTML, like Gecko) Chrome/106.0.0.0 Safari/537.36","Macintosh","Chrome","106.0.0.0","OS X","10_15_7","null","<div style=""font-size:60px;"">+</div>","null",""
"","","","","","html-button-response","51","88390198","0.0-4.0-1.23","33","1","2022-11-03 13:31:54","ebf9627b049f568eb4bf28942cb89901","114.254.1.12","Mozilla/5.0 (Macintosh; Intel Mac OS X 10_15_7) AppleWebKit/537.36 (KHTML, like Gecko) Chrome/106.0.0.0 Safari/537.36","Macintosh","Chrome","106.0.0.0","OS X","10_15_7","7637","<p>作为军队的指挥官，你可以选择发射导弹杀死 <strong>5名</strong> 敌国士兵，但会误杀附近的 <strong>1名</strong> 敌国平民。</p> <p>平民照片如下图所示。</p> <p></p> <img src='stimuli/faces/NFF4.jpg', style='max-width: 30%;'> </img> <p><strong>你是否选择发射武器？</strong></p>","1",""
"","","","","","html-keyboard-response","52","88391206","0.0-4.0-0.24","33","1","2022-11-03 13:31:54","ebf9627b049f568eb4bf28942cb89901","114.254.1.12","Mozilla/5.0 (Macintosh; Intel Mac OS X 10_15_7) AppleWebKit/537.36 (KHTML, like Gecko) Chrome/106.0.0.0 Safari/537.36","Macintosh","Chrome","106.0.0.0","OS X","10_15_7","null","<div style=""font-size:60px;"">+</div>","null",""
"","","","","","html-button-response","53","88394532","0.0-4.0-1.24","33","1","2022-11-03 13:31:54","ebf9627b049f568eb4bf28942cb89901","114.254.1.12","Mozilla/5.0 (Macintosh; Intel Mac OS X 10_15_7) AppleWebKit/537.36 (KHTML, like Gecko) Chrome/106.0.0.0 Safari/537.36","Macintosh","Chrome","106.0.0.0","OS X","10_15_7","3319","<p>作为军队的指挥官，你可以选择发射导弹杀死 <strong>7名</strong> 敌国士兵，但会炸毁附近的 <strong>1棵</strong> 敌国树木。</p> <p>树木的照片如下图所示。</p> <p></p> <img src='stimuli/trees/7.png', style='max-width: 30%;'> </img> <p><strong>你是否选择发射武器？</strong></p>","1",""
"","","","","","html-keyboard-response","54","88395537","0.0-4.0-0.25","33","1","2022-11-03 13:31:54","ebf9627b049f568eb4bf28942cb89901","114.254.1.12","Mozilla/5.0 (Macintosh; Intel Mac OS X 10_15_7) AppleWebKit/537.36 (KHTML, like Gecko) Chrome/106.0.0.0 Safari/537.36","Macintosh","Chrome","106.0.0.0","OS X","10_15_7","null","<div style=""font-size:60px;"">+</div>","null",""
"","","","","","html-button-response","55","88398082","0.0-4.0-1.25","33","1","2022-11-03 13:31:54","ebf9627b049f568eb4bf28942cb89901","114.254.1.12","Mozilla/5.0 (Macintosh; Intel Mac OS X 10_15_7) AppleWebKit/537.36 (KHTML, like Gecko) Chrome/106.0.0.0 Safari/537.36","Macintosh","Chrome","106.0.0.0","OS X","10_15_7","2539","<p>作为军队的指挥官，你可以选择发射导弹杀死 <strong>2名</strong> 敌国士兵，但会炸毁附近的 <strong>1棵</strong> 敌国树木。</p> <p>树木的照片如下图所示。</p> <p></p> <img src='stimuli/trees/11.png', style='max-width: 30%;'> </img> <p><strong>你是否选择发射武器？</strong></p>","1",""
"","","","","","html-keyboard-response","56","88399090","0.0-4.0-0.26","33","1","2022-11-03 13:31:54","ebf9627b049f568eb4bf28942cb89901","114.254.1.12","Mozilla/5.0 (Macintosh; Intel Mac OS X 10_15_7) AppleWebKit/537.36 (KHTML, like Gecko) Chrome/106.0.0.0 Safari/537.36","Macintosh","Chrome","106.0.0.0","OS X","10_15_7","null","<div style=""font-size:60px;"">+</div>","null",""
"","","","","","html-button-response","57","88402882","0.0-4.0-1.26","33","1","2022-11-03 13:31:54","ebf9627b049f568eb4bf28942cb89901","114.254.1.12","Mozilla/5.0 (Macintosh; Intel Mac OS X 10_15_7) AppleWebKit/537.36 (KHTML, like Gecko) Chrome/106.0.0.0 Safari/537.36","Macintosh","Chrome","106.0.0.0","OS X","10_15_7","3787","<p>作为军队的指挥官，你可以选择发射导弹杀死 <strong>7名</strong> 敌国士兵，但会炸毁附近的 <strong>1棵</strong> 敌国树木。</p> <p>树木的照片如下图所示。</p> <p></p> <img src='stimuli/trees/12.png', style='max-width: 30%;'> </img> <p><strong>你是否选择发射武器？</strong></p>","1",""
"","","","","","html-keyboard-response","58","88403890","0.0-4.0-0.27","33","1","2022-11-03 13:31:54","ebf9627b049f568eb4bf28942cb89901","114.254.1.12","Mozilla/5.0 (Macintosh; Intel Mac OS X 10_15_7) AppleWebKit/537.36 (KHTML, like Gecko) Chrome/106.0.0.0 Safari/537.36","Macintosh","Chrome","106.0.0.0","OS X","10_15_7","null","<div style=""font-size:60px;"">+</div>","null",""
"","","","","","html-button-response","59","88407882","0.0-4.0-1.27","33","1","2022-11-03 13:31:54","ebf9627b049f568eb4bf28942cb89901","114.254.1.12","Mozilla/5.0 (Macintosh; Intel Mac OS X 10_15_7) AppleWebKit/537.36 (KHTML, like Gecko) Chrome/106.0.0.0 Safari/537.36","Macintosh","Chrome","106.0.0.0","OS X","10_15_7","3985","<p>作为军队的指挥官，你可以选择发射导弹杀死 <strong>10名</strong> 敌国士兵，但会炸毁附近的 <strong>1棵</strong> 敌国树木。</p> <p>树木的照片如下图所示。</p> <p></p> <img src='stimuli/trees/9.png', style='max-width: 30%;'> </img> <p><strong>你是否选择发射武器？</strong></p>","0",""
"","","","","","html-keyboard-response","60","88408887","0.0-4.0-0.28","33","1","2022-11-03 13:31:54","ebf9627b049f568eb4bf28942cb89901","114.254.1.12","Mozilla/5.0 (Macintosh; Intel Mac OS X 10_15_7) AppleWebKit/537.36 (KHTML, like Gecko) Chrome/106.0.0.0 Safari/537.36","Macintosh","Chrome","106.0.0.0","OS X","10_15_7","null","<div style=""font-size:60px;"">+</div>","null",""
"","","","","","html-button-response","61","88412032","0.0-4.0-1.28","33","1","2022-11-03 13:31:54","ebf9627b049f568eb4bf28942cb89901","114.254.1.12","Mozilla/5.0 (Macintosh; Intel Mac OS X 10_15_7) AppleWebKit/537.36 (KHTML, like Gecko) Chrome/106.0.0.0 Safari/537.36","Macintosh","Chrome","106.0.0.0","OS X","10_15_7","3140","<p>作为军队的指挥官，你可以选择发射导弹杀死 <strong>5名</strong> 敌国士兵，但会误杀附近的 <strong>1名</strong> 敌国平民。</p> <p>平民照片如下图所示。</p> <p></p> <img src='stimuli/faces/NFM3.jpg', style='max-width: 30%;'> </img> <p><strong>你是否选择发射武器？</strong></p>","1",""
"","","","","","html-keyboard-response","62","88413040","0.0-4.0-0.29","33","1","2022-11-03 13:31:54","ebf9627b049f568eb4bf28942cb89901","114.254.1.12","Mozilla/5.0 (Macintosh; Intel Mac OS X 10_15_7) AppleWebKit/537.36 (KHTML, like Gecko) Chrome/106.0.0.0 Safari/537.36","Macintosh","Chrome","106.0.0.0","OS X","10_15_7","null","<div style=""font-size:60px;"">+</div>","null",""
"","","","","","html-button-response","63","88416232","0.0-4.0-1.29","33","1","2022-11-03 13:31:54","ebf9627b049f568eb4bf28942cb89901","114.254.1.12","Mozilla/5.0 (Macintosh; Intel Mac OS X 10_15_7) AppleWebKit/537.36 (KHTML, like Gecko) Chrome/106.0.0.0 Safari/537.36","Macintosh","Chrome","106.0.0.0","OS X","10_15_7","3186","<p>作为军队的指挥官，你可以选择发射导弹杀死 <strong>2名</strong> 敌国士兵，但会炸毁附近的 <strong>1棵</strong> 敌国树木。</p> <p>树木的照片如下图所示。</p> <p></p> <img src='stimuli/trees/1.png', style='max-width: 30%;'> </img> <p><strong>你是否选择发射武器？</strong></p>","1",""
"","","","","","html-keyboard-response","64","88417236","0.0-4.0-0.30","33","1","2022-11-03 13:31:54","ebf9627b049f568eb4bf28942cb89901","114.254.1.12","Mozilla/5.0 (Macintosh; Intel Mac OS X 10_15_7) AppleWebKit/537.36 (KHTML, like Gecko) Chrome/106.0.0.0 Safari/537.36","Macintosh","Chrome","106.0.0.0","OS X","10_15_7","null","<div style=""font-size:60px;"">+</div>","null",""
"","","","","","html-button-response","65","88423066","0.0-4.0-1.30","33","1","2022-11-03 13:31:54","ebf9627b049f568eb4bf28942cb89901","114.254.1.12","Mozilla/5.0 (Macintosh; Intel Mac OS X 10_15_7) AppleWebKit/537.36 (KHTML, like Gecko) Chrome/106.0.0.0 Safari/537.36","Macintosh","Chrome","106.0.0.0","OS X","10_15_7","5824","<p>作为军队的指挥官，你可以选择发射导弹杀死 <strong>7名</strong> 敌国士兵，但会误杀附近的 <strong>1名</strong> 敌国平民。</p> <p>平民照片如下图所示。</p> <p></p> <img src='stimuli/faces/NFF4.jpg', style='max-width: 30%;'> </img> <p><strong>你是否选择发射武器？</strong></p>","1",""
"","","","","","html-keyboard-response","66","88424075","0.0-4.0-0.31","33","1","2022-11-03 13:31:54","ebf9627b049f568eb4bf28942cb89901","114.254.1.12","Mozilla/5.0 (Macintosh; Intel Mac OS X 10_15_7) AppleWebKit/537.36 (KHTML, like Gecko) Chrome/106.0.0.0 Safari/537.36","Macintosh","Chrome","106.0.0.0","OS X","10_15_7","null","<div style=""font-size:60px;"">+</div>","null",""
"","","","","","html-button-response","67","88427148","0.0-4.0-1.31","33","1","2022-11-03 13:31:54","ebf9627b049f568eb4bf28942cb89901","114.254.1.12","Mozilla/5.0 (Macintosh; Intel Mac OS X 10_15_7) AppleWebKit/537.36 (KHTML, like Gecko) Chrome/106.0.0.0 Safari/537.36","Macintosh","Chrome","106.0.0.0","OS X","10_15_7","3068","<p>作为军队的指挥官，你可以选择发射导弹杀死 <strong>6名</strong> 敌国士兵，但会误杀附近的 <strong>1名</strong> 敌国平民。</p> <p>平民照片如下图所示。</p> <p></p> <img src='stimuli/faces/NFF1.jpg', style='max-width: 30%;'> </img> <p><strong>你是否选择发射武器？</strong></p>","1",""
"","","","","","html-keyboard-response","68","88428154","0.0-4.0-0.32","33","1","2022-11-03 13:31:54","ebf9627b049f568eb4bf28942cb89901","114.254.1.12","Mozilla/5.0 (Macintosh; Intel Mac OS X 10_15_7) AppleWebKit/537.36 (KHTML, like Gecko) Chrome/106.0.0.0 Safari/537.36","Macintosh","Chrome","106.0.0.0","OS X","10_15_7","null","<div style=""font-size:60px;"">+</div>","null",""
"","","","","","html-button-response","69","88429114","0.0-4.0-1.32","33","1","2022-11-03 13:31:54","ebf9627b049f568eb4bf28942cb89901","114.254.1.12","Mozilla/5.0 (Macintosh; Intel Mac OS X 10_15_7) AppleWebKit/537.36 (KHTML, like Gecko) Chrome/106.0.0.0 Safari/537.36","Macintosh","Chrome","106.0.0.0","OS X","10_15_7","954","<p>作为军队的指挥官，你可以选择发射导弹杀死 <strong>6名</strong> 敌国士兵，但会炸毁附近的 <strong>1棵</strong> 敌国树木。</p> <p>树木的照片如下图所示。</p> <p></p> <img src='stimuli/trees/6.png', style='max-width: 30%;'> </img> <p><strong>你是否选择发射武器？</strong></p>","1",""
"","","","","","html-keyboard-response","70","88430118","0.0-4.0-0.33","33","1","2022-11-03 13:31:54","ebf9627b049f568eb4bf28942cb89901","114.254.1.12","Mozilla/5.0 (Macintosh; Intel Mac OS X 10_15_7) AppleWebKit/537.36 (KHTML, like Gecko) Chrome/106.0.0.0 Safari/537.36","Macintosh","Chrome","106.0.0.0","OS X","10_15_7","null","<div style=""font-size:60px;"">+</div>","null",""
"","","","","","html-button-response","71","88431132","0.0-4.0-1.33","33","1","2022-11-03 13:31:54","ebf9627b049f568eb4bf28942cb89901","114.254.1.12","Mozilla/5.0 (Macintosh; Intel Mac OS X 10_15_7) AppleWebKit/537.36 (KHTML, like Gecko) Chrome/106.0.0.0 Safari/537.36","Macintosh","Chrome","106.0.0.0","OS X","10_15_7","1008","<p>作为军队的指挥官，你可以选择发射导弹杀死 <strong>2名</strong> 敌国士兵，但会误杀附近的 <strong>1名</strong> 敌国平民。</p> <p>平民照片如下图所示。</p> <p></p> <img src='stimuli/faces/NFM6.jpg', style='max-width: 30%;'> </img> <p><strong>你是否选择发射武器？</strong></p>","1",""
"","","","","","html-keyboard-response","72","88432138","0.0-4.0-0.34","33","1","2022-11-03 13:31:54","ebf9627b049f568eb4bf28942cb89901","114.254.1.12","Mozilla/5.0 (Macintosh; Intel Mac OS X 10_15_7) AppleWebKit/537.36 (KHTML, like Gecko) Chrome/106.0.0.0 Safari/537.36","Macintosh","Chrome","106.0.0.0","OS X","10_15_7","null","<div style=""font-size:60px;"">+</div>","null",""
"","","","","","html-button-response","73","88433082","0.0-4.0-1.34","33","1","2022-11-03 13:31:54","ebf9627b049f568eb4bf28942cb89901","114.254.1.12","Mozilla/5.0 (Macintosh; Intel Mac OS X 10_15_7) AppleWebKit/537.36 (KHTML, like Gecko) Chrome/106.0.0.0 Safari/537.36","Macintosh","Chrome","106.0.0.0","OS X","10_15_7","938","<p>作为军队的指挥官，你可以选择发射导弹杀死 <strong>4名</strong> 敌国士兵，但会误杀附近的 <strong>1名</strong> 敌国平民。</p> <p>平民照片如下图所示。</p> <p></p> <img src='stimuli/faces/NFM1.jpg', style='max-width: 30%;'> </img> <p><strong>你是否选择发射武器？</strong></p>","1",""
"","","","","","html-keyboard-response","74","88434091","0.0-4.0-0.35","33","1","2022-11-03 13:31:54","ebf9627b049f568eb4bf28942cb89901","114.254.1.12","Mozilla/5.0 (Macintosh; Intel Mac OS X 10_15_7) AppleWebKit/537.36 (KHTML, like Gecko) Chrome/106.0.0.0 Safari/537.36","Macintosh","Chrome","106.0.0.0","OS X","10_15_7","null","<div style=""font-size:60px;"">+</div>","null",""
"","","","","","html-button-response","75","88440965","0.0-4.0-1.35","33","1","2022-11-03 13:31:54","ebf9627b049f568eb4bf28942cb89901","114.254.1.12","Mozilla/5.0 (Macintosh; Intel Mac OS X 10_15_7) AppleWebKit/537.36 (KHTML, like Gecko) Chrome/106.0.0.0 Safari/537.36","Macintosh","Chrome","106.0.0.0","OS X","10_15_7","6869","<p>作为军队的指挥官，你可以选择发射导弹杀死 <strong>5名</strong> 敌国士兵，但会误杀附近的 <strong>1名</strong> 敌国平民。</p> <p>平民照片如下图所示。</p> <p></p> <img src='stimuli/faces/NFF1.jpg', style='max-width: 30%;'> </img> <p><strong>你是否选择发射武器？</strong></p>","1",""
"","","","","","html-keyboard-response","76","88441974","0.0-4.0-0.36","33","1","2022-11-03 13:31:54","ebf9627b049f568eb4bf28942cb89901","114.254.1.12","Mozilla/5.0 (Macintosh; Intel Mac OS X 10_15_7) AppleWebKit/537.36 (KHTML, like Gecko) Chrome/106.0.0.0 Safari/537.36","Macintosh","Chrome","106.0.0.0","OS X","10_15_7","null","<div style=""font-size:60px;"">+</div>","null",""
"","","","","","html-button-response","77","88443332","0.0-4.0-1.36","33","1","2022-11-03 13:31:54","ebf9627b049f568eb4bf28942cb89901","114.254.1.12","Mozilla/5.0 (Macintosh; Intel Mac OS X 10_15_7) AppleWebKit/537.36 (KHTML, like Gecko) Chrome/106.0.0.0 Safari/537.36","Macintosh","Chrome","106.0.0.0","OS X","10_15_7","1351","<p>作为军队的指挥官，你可以选择发射导弹杀死 <strong>4名</strong> 敌国士兵，但会误杀附近的 <strong>1名</strong> 敌国平民。</p> <p>平民照片如下图所示。</p> <p></p> <img src='stimuli/faces/NFF2.jpg', style='max-width: 30%;'> </img> <p><strong>你是否选择发射武器？</strong></p>","1",""
"","","","","","html-keyboard-response","78","88444337","0.0-4.0-0.37","33","1","2022-11-03 13:31:54","ebf9627b049f568eb4bf28942cb89901","114.254.1.12","Mozilla/5.0 (Macintosh; Intel Mac OS X 10_15_7) AppleWebKit/537.36 (KHTML, like Gecko) Chrome/106.0.0.0 Safari/537.36","Macintosh","Chrome","106.0.0.0","OS X","10_15_7","null","<div style=""font-size:60px;"">+</div>","null",""
"","","","","","html-button-response","79","88445532","0.0-4.0-1.37","33","1","2022-11-03 13:31:54","ebf9627b049f568eb4bf28942cb89901","114.254.1.12","Mozilla/5.0 (Macintosh; Intel Mac OS X 10_15_7) AppleWebKit/537.36 (KHTML, like Gecko) Chrome/106.0.0.0 Safari/537.36","Macintosh","Chrome","106.0.0.0","OS X","10_15_7","1188","<p>作为军队的指挥官，你可以选择发射导弹杀死 <strong>10名</strong> 敌国士兵，但会误杀附近的 <strong>1名</strong> 敌国平民。</p> <p>平民照片如下图所示。</p> <p></p> <img src='stimuli/faces/NFM1.jpg', style='max-width: 30%;'> </img> <p><strong>你是否选择发射武器？</strong></p>","1",""
"","","","","","html-keyboard-response","80","88446538","0.0-4.0-0.38","33","1","2022-11-03 13:31:54","ebf9627b049f568eb4bf28942cb89901","114.254.1.12","Mozilla/5.0 (Macintosh; Intel Mac OS X 10_15_7) AppleWebKit/537.36 (KHTML, like Gecko) Chrome/106.0.0.0 Safari/537.36","Macintosh","Chrome","106.0.0.0","OS X","10_15_7","null","<div style=""font-size:60px;"">+</div>","null",""
"","","","","","html-button-response","81","88448365","0.0-4.0-1.38","33","1","2022-11-03 13:31:54","ebf9627b049f568eb4bf28942cb89901","114.254.1.12","Mozilla/5.0 (Macintosh; Intel Mac OS X 10_15_7) AppleWebKit/537.36 (KHTML, like Gecko) Chrome/106.0.0.0 Safari/537.36","Macintosh","Chrome","106.0.0.0","OS X","10_15_7","1821","<p>作为军队的指挥官，你可以选择发射导弹杀死 <strong>5名</strong> 敌国士兵，但会炸毁附近的 <strong>1棵</strong> 敌国树木。</p> <p>树木的照片如下图所示。</p> <p></p> <img src='stimuli/trees/12.png', style='max-width: 30%;'> </img> <p><strong>你是否选择发射武器？</strong></p>","1",""
"","","","","","html-keyboard-response","82","88449371","0.0-4.0-0.39","33","1","2022-11-03 13:31:54","ebf9627b049f568eb4bf28942cb89901","114.254.1.12","Mozilla/5.0 (Macintosh; Intel Mac OS X 10_15_7) AppleWebKit/537.36 (KHTML, like Gecko) Chrome/106.0.0.0 Safari/537.36","Macintosh","Chrome","106.0.0.0","OS X","10_15_7","null","<div style=""font-size:60px;"">+</div>","null",""
"","","","","","html-button-response","83","88452582","0.0-4.0-1.39","33","1","2022-11-03 13:31:54","ebf9627b049f568eb4bf28942cb89901","114.254.1.12","Mozilla/5.0 (Macintosh; Intel Mac OS X 10_15_7) AppleWebKit/537.36 (KHTML, like Gecko) Chrome/106.0.0.0 Safari/537.36","Macintosh","Chrome","106.0.0.0","OS X","10_15_7","3203","<p>作为军队的指挥官，你可以选择发射导弹杀死 <strong>1名</strong> 敌国士兵，但会误杀附近的 <strong>1名</strong> 敌国平民。</p> <p>平民照片如下图所示。</p> <p></p> <img src='stimuli/faces/NFM5.jpg', style='max-width: 30%;'> </img> <p><strong>你是否选择发射武器？</strong></p>","1",""
"","","","","","html-keyboard-response","84","88453588","0.0-4.0-0.40","33","1","2022-11-03 13:31:54","ebf9627b049f568eb4bf28942cb89901","114.254.1.12","Mozilla/5.0 (Macintosh; Intel Mac OS X 10_15_7) AppleWebKit/537.36 (KHTML, like Gecko) Chrome/106.0.0.0 Safari/537.36","Macintosh","Chrome","106.0.0.0","OS X","10_15_7","null","<div style=""font-size:60px;"">+</div>","null",""
"","","","","","html-button-response","85","88456199","0.0-4.0-1.40","33","1","2022-11-03 13:31:54","ebf9627b049f568eb4bf28942cb89901","114.254.1.12","Mozilla/5.0 (Macintosh; Intel Mac OS X 10_15_7) AppleWebKit/537.36 (KHTML, like Gecko) Chrome/106.0.0.0 Safari/537.36","Macintosh","Chrome","106.0.0.0","OS X","10_15_7","2606","<p>作为军队的指挥官，你可以选择发射导弹杀死 <strong>10名</strong> 敌国士兵，但会炸毁附近的 <strong>1棵</strong> 敌国树木。</p> <p>树木的照片如下图所示。</p> <p></p> <img src='stimuli/trees/15.png', style='max-width: 30%;'> </img> <p><strong>你是否选择发射武器？</strong></p>","0",""
"","","","","","html-keyboard-response","86","88457205","0.0-4.0-0.41","33","1","2022-11-03 13:31:54","ebf9627b049f568eb4bf28942cb89901","114.254.1.12","Mozilla/5.0 (Macintosh; Intel Mac OS X 10_15_7) AppleWebKit/537.36 (KHTML, like Gecko) Chrome/106.0.0.0 Safari/537.36","Macintosh","Chrome","106.0.0.0","OS X","10_15_7","null","<div style=""font-size:60px;"">+</div>","null",""
"","","","","","html-button-response","87","88458932","0.0-4.0-1.41","33","1","2022-11-03 13:31:54","ebf9627b049f568eb4bf28942cb89901","114.254.1.12","Mozilla/5.0 (Macintosh; Intel Mac OS X 10_15_7) AppleWebKit/537.36 (KHTML, like Gecko) Chrome/106.0.0.0 Safari/537.36","Macintosh","Chrome","106.0.0.0","OS X","10_15_7","1721","<p>作为军队的指挥官，你可以选择发射导弹杀死 <strong>1名</strong> 敌国士兵，但会炸毁附近的 <strong>1棵</strong> 敌国树木。</p> <p>树木的照片如下图所示。</p> <p></p> <img src='stimuli/trees/10.png', style='max-width: 30%;'> </img> <p><strong>你是否选择发射武器？</strong></p>","1",""
"","","","","","html-keyboard-response","88","88459936","0.0-4.0-0.42","33","1","2022-11-03 13:31:54","ebf9627b049f568eb4bf28942cb89901","114.254.1.12","Mozilla/5.0 (Macintosh; Intel Mac OS X 10_15_7) AppleWebKit/537.36 (KHTML, like Gecko) Chrome/106.0.0.0 Safari/537.36","Macintosh","Chrome","106.0.0.0","OS X","10_15_7","null","<div style=""font-size:60px;"">+</div>","null",""
"","","","","","html-button-response","89","88460631","0.0-4.0-1.42","33","1","2022-11-03 13:31:54","ebf9627b049f568eb4bf28942cb89901","114.254.1.12","Mozilla/5.0 (Macintosh; Intel Mac OS X 10_15_7) AppleWebKit/537.36 (KHTML, like Gecko) Chrome/106.0.0.0 Safari/537.36","Macintosh","Chrome","106.0.0.0","OS X","10_15_7","688","<p>作为军队的指挥官，你可以选择发射导弹杀死 <strong>10名</strong> 敌国士兵，但会误杀附近的 <strong>1名</strong> 敌国平民。</p> <p>平民照片如下图所示。</p> <p></p> <img src='stimuli/faces/NFM5.jpg', style='max-width: 30%;'> </img> <p><strong>你是否选择发射武器？</strong></p>","1",""
"","","","","","html-keyboard-response","90","88461638","0.0-4.0-0.43","33","1","2022-11-03 13:31:54","ebf9627b049f568eb4bf28942cb89901","114.254.1.12","Mozilla/5.0 (Macintosh; Intel Mac OS X 10_15_7) AppleWebKit/537.36 (KHTML, like Gecko) Chrome/106.0.0.0 Safari/537.36","Macintosh","Chrome","106.0.0.0","OS X","10_15_7","null","<div style=""font-size:60px;"">+</div>","null",""
"","","","","","html-button-response","91","88463215","0.0-4.0-1.43","33","1","2022-11-03 13:31:54","ebf9627b049f568eb4bf28942cb89901","114.254.1.12","Mozilla/5.0 (Macintosh; Intel Mac OS X 10_15_7) AppleWebKit/537.36 (KHTML, like Gecko) Chrome/106.0.0.0 Safari/537.36","Macintosh","Chrome","106.0.0.0","OS X","10_15_7","1571","<p>作为军队的指挥官，你可以选择发射导弹杀死 <strong>9名</strong> 敌国士兵，但会炸毁附近的 <strong>1棵</strong> 敌国树木。</p> <p>树木的照片如下图所示。</p> <p></p> <img src='stimuli/trees/13.png', style='max-width: 30%;'> </img> <p><strong>你是否选择发射武器？</strong></p>","1",""
"","","","","","html-keyboard-response","92","88464225","0.0-4.0-0.44","33","1","2022-11-03 13:31:54","ebf9627b049f568eb4bf28942cb89901","114.254.1.12","Mozilla/5.0 (Macintosh; Intel Mac OS X 10_15_7) AppleWebKit/537.36 (KHTML, like Gecko) Chrome/106.0.0.0 Safari/537.36","Macintosh","Chrome","106.0.0.0","OS X","10_15_7","null","<div style=""font-size:60px;"">+</div>","null",""
"","","","","","html-button-response","93","88465015","0.0-4.0-1.44","33","1","2022-11-03 13:31:54","ebf9627b049f568eb4bf28942cb89901","114.254.1.12","Mozilla/5.0 (Macintosh; Intel Mac OS X 10_15_7) AppleWebKit/537.36 (KHTML, like Gecko) Chrome/106.0.0.0 Safari/537.36","Macintosh","Chrome","106.0.0.0","OS X","10_15_7","783","<p>作为军队的指挥官，你可以选择发射导弹杀死 <strong>7名</strong> 敌国士兵，但会炸毁附近的 <strong>1棵</strong> 敌国树木。</p> <p>树木的照片如下图所示。</p> <p></p> <img src='stimuli/trees/8.png', style='max-width: 30%;'> </img> <p><strong>你是否选择发射武器？</strong></p>","1",""
"","","","","","html-keyboard-response","94","88466022","0.0-4.0-0.45","33","1","2022-11-03 13:31:54","ebf9627b049f568eb4bf28942cb89901","114.254.1.12","Mozilla/5.0 (Macintosh; Intel Mac OS X 10_15_7) AppleWebKit/537.36 (KHTML, like Gecko) Chrome/106.0.0.0 Safari/537.36","Macintosh","Chrome","106.0.0.0","OS X","10_15_7","null","<div style=""font-size:60px;"">+</div>","null",""
"","","","","","html-button-response","95","88466648","0.0-4.0-1.45","33","1","2022-11-03 13:31:54","ebf9627b049f568eb4bf28942cb89901","114.254.1.12","Mozilla/5.0 (Macintosh; Intel Mac OS X 10_15_7) AppleWebKit/537.36 (KHTML, like Gecko) Chrome/106.0.0.0 Safari/537.36","Macintosh","Chrome","106.0.0.0","OS X","10_15_7","620","<p>作为军队的指挥官，你可以选择发射导弹杀死 <strong>5名</strong> 敌国士兵，但会炸毁附近的 <strong>1棵</strong> 敌国树木。</p> <p>树木的照片如下图所示。</p> <p></p> <img src='stimuli/trees/13.png', style='max-width: 30%;'> </img> <p><strong>你是否选择发射武器？</strong></p>","1",""
"","","","","","html-keyboard-response","96","88467654","0.0-4.0-0.46","33","1","2022-11-03 13:31:54","ebf9627b049f568eb4bf28942cb89901","114.254.1.12","Mozilla/5.0 (Macintosh; Intel Mac OS X 10_15_7) AppleWebKit/537.36 (KHTML, like Gecko) Chrome/106.0.0.0 Safari/537.36","Macintosh","Chrome","106.0.0.0","OS X","10_15_7","null","<div style=""font-size:60px;"">+</div>","null",""
"","","","","","html-button-response","97","88468649","0.0-4.0-1.46","33","1","2022-11-03 13:31:54","ebf9627b049f568eb4bf28942cb89901","114.254.1.12","Mozilla/5.0 (Macintosh; Intel Mac OS X 10_15_7) AppleWebKit/537.36 (KHTML, like Gecko) Chrome/106.0.0.0 Safari/537.36","Macintosh","Chrome","106.0.0.0","OS X","10_15_7","988","<p>作为军队的指挥官，你可以选择发射导弹杀死 <strong>8名</strong> 敌国士兵，但会误杀附近的 <strong>1名</strong> 敌国平民。</p> <p>平民照片如下图所示。</p> <p></p> <img src='stimuli/faces/NFM6.jpg', style='max-width: 30%;'> </img> <p><strong>你是否选择发射武器？</strong></p>","1",""
"","","","","","html-keyboard-response","98","88469655","0.0-4.0-0.47","33","1","2022-11-03 13:31:54","ebf9627b049f568eb4bf28942cb89901","114.254.1.12","Mozilla/5.0 (Macintosh; Intel Mac OS X 10_15_7) AppleWebKit/537.36 (KHTML, like Gecko) Chrome/106.0.0.0 Safari/537.36","Macintosh","Chrome","106.0.0.0","OS X","10_15_7","null","<div style=""font-size:60px;"">+</div>","null",""
"","","","","","html-button-response","99","88471981","0.0-4.0-1.47","33","1","2022-11-03 13:31:54","ebf9627b049f568eb4bf28942cb89901","114.254.1.12","Mozilla/5.0 (Macintosh; Intel Mac OS X 10_15_7) AppleWebKit/537.36 (KHTML, like Gecko) Chrome/106.0.0.0 Safari/537.36","Macintosh","Chrome","106.0.0.0","OS X","10_15_7","2319","<p>作为军队的指挥官，你可以选择发射导弹杀死 <strong>4名</strong> 敌国士兵，但会炸毁附近的 <strong>1棵</strong> 敌国树木。</p> <p>树木的照片如下图所示。</p> <p></p> <img src='stimuli/trees/7.png', style='max-width: 30%;'> </img> <p><strong>你是否选择发射武器？</strong></p>","1",""
"","","","","","html-keyboard-response","100","88472990","0.0-4.0-0.48","33","1","2022-11-03 13:31:54","ebf9627b049f568eb4bf28942cb89901","114.254.1.12","Mozilla/5.0 (Macintosh; Intel Mac OS X 10_15_7) AppleWebKit/537.36 (KHTML, like Gecko) Chrome/106.0.0.0 Safari/537.36","Macintosh","Chrome","106.0.0.0","OS X","10_15_7","null","<div style=""font-size:60px;"">+</div>","null",""
"","","","","","html-button-response","101","88473782","0.0-4.0-1.48","33","1","2022-11-03 13:31:54","ebf9627b049f568eb4bf28942cb89901","114.254.1.12","Mozilla/5.0 (Macintosh; Intel Mac OS X 10_15_7) AppleWebKit/537.36 (KHTML, like Gecko) Chrome/106.0.0.0 Safari/537.36","Macintosh","Chrome","106.0.0.0","OS X","10_15_7","785","<p>作为军队的指挥官，你可以选择发射导弹杀死 <strong>7名</strong> 敌国士兵，但会误杀附近的 <strong>1名</strong> 敌国平民。</p> <p>平民照片如下图所示。</p> <p></p> <img src='stimuli/faces/NFF3.jpg', style='max-width: 30%;'> </img> <p><strong>你是否选择发射武器？</strong></p>","1",""
"","","","","","html-keyboard-response","102","88474790","0.0-4.0-0.49","33","1","2022-11-03 13:31:54","ebf9627b049f568eb4bf28942cb89901","114.254.1.12","Mozilla/5.0 (Macintosh; Intel Mac OS X 10_15_7) AppleWebKit/537.36 (KHTML, like Gecko) Chrome/106.0.0.0 Safari/537.36","Macintosh","Chrome","106.0.0.0","OS X","10_15_7","null","<div style=""font-size:60px;"">+</div>","null",""
"","","","","","html-button-response","103","88475999","0.0-4.0-1.49","33","1","2022-11-03 13:31:54","ebf9627b049f568eb4bf28942cb89901","114.254.1.12","Mozilla/5.0 (Macintosh; Intel Mac OS X 10_15_7) AppleWebKit/537.36 (KHTML, like Gecko) Chrome/106.0.0.0 Safari/537.36","Macintosh","Chrome","106.0.0.0","OS X","10_15_7","1201","<p>作为军队的指挥官，你可以选择发射导弹杀死 <strong>10名</strong> 敌国士兵，但会误杀附近的 <strong>1名</strong> 敌国平民。</p> <p>平民照片如下图所示。</p> <p></p> <img src='stimuli/faces/NFM4.jpg', style='max-width: 30%;'> </img> <p><strong>你是否选择发射武器？</strong></p>","1",""
"","","","","","html-keyboard-response","104","88477007","0.0-4.0-0.50","33","1","2022-11-03 13:31:54","ebf9627b049f568eb4bf28942cb89901","114.254.1.12","Mozilla/5.0 (Macintosh; Intel Mac OS X 10_15_7) AppleWebKit/537.36 (KHTML, like Gecko) Chrome/106.0.0.0 Safari/537.36","Macintosh","Chrome","106.0.0.0","OS X","10_15_7","null","<div style=""font-size:60px;"">+</div>","null",""
"","","","","","html-button-response","105","88482048","0.0-4.0-1.50","33","1","2022-11-03 13:31:54","ebf9627b049f568eb4bf28942cb89901","114.254.1.12","Mozilla/5.0 (Macintosh; Intel Mac OS X 10_15_7) AppleWebKit/537.36 (KHTML, like Gecko) Chrome/106.0.0.0 Safari/537.36","Macintosh","Chrome","106.0.0.0","OS X","10_15_7","5034","<p>作为军队的指挥官，你可以选择发射导弹杀死 <strong>2名</strong> 敌国士兵，但会炸毁附近的 <strong>1棵</strong> 敌国树木。</p> <p>树木的照片如下图所示。</p> <p></p> <img src='stimuli/trees/3.png', style='max-width: 30%;'> </img> <p><strong>你是否选择发射武器？</strong></p>","1",""
"","","","","","html-keyboard-response","106","88483054","0.0-4.0-0.51","33","1","2022-11-03 13:31:54","ebf9627b049f568eb4bf28942cb89901","114.254.1.12","Mozilla/5.0 (Macintosh; Intel Mac OS X 10_15_7) AppleWebKit/537.36 (KHTML, like Gecko) Chrome/106.0.0.0 Safari/537.36","Macintosh","Chrome","106.0.0.0","OS X","10_15_7","null","<div style=""font-size:60px;"">+</div>","null",""
"","","","","","html-button-response","107","88488382","0.0-4.0-1.51","33","1","2022-11-03 13:31:54","ebf9627b049f568eb4bf28942cb89901","114.254.1.12","Mozilla/5.0 (Macintosh; Intel Mac OS X 10_15_7) AppleWebKit/537.36 (KHTML, like Gecko) Chrome/106.0.0.0 Safari/537.36","Macintosh","Chrome","106.0.0.0","OS X","10_15_7","5321","<p>作为军队的指挥官，你可以选择发射导弹杀死 <strong>10名</strong> 敌国士兵，但会误杀附近的 <strong>1名</strong> 敌国平民。</p> <p>平民照片如下图所示。</p> <p></p> <img src='stimuli/faces/NFM8.jpg', style='max-width: 30%;'> </img> <p><strong>你是否选择发射武器？</strong></p>","0",""
"","","","","","html-keyboard-response","108","88489387","0.0-4.0-0.52","33","1","2022-11-03 13:31:54","ebf9627b049f568eb4bf28942cb89901","114.254.1.12","Mozilla/5.0 (Macintosh; Intel Mac OS X 10_15_7) AppleWebKit/537.36 (KHTML, like Gecko) Chrome/106.0.0.0 Safari/537.36","Macintosh","Chrome","106.0.0.0","OS X","10_15_7","null","<div style=""font-size:60px;"">+</div>","null",""
"","","","","","html-button-response","109","88491731","0.0-4.0-1.52","33","1","2022-11-03 13:31:54","ebf9627b049f568eb4bf28942cb89901","114.254.1.12","Mozilla/5.0 (Macintosh; Intel Mac OS X 10_15_7) AppleWebKit/537.36 (KHTML, like Gecko) Chrome/106.0.0.0 Safari/537.36","Macintosh","Chrome","106.0.0.0","OS X","10_15_7","2338","<p>作为军队的指挥官，你可以选择发射导弹杀死 <strong>9名</strong> 敌国士兵，但会炸毁附近的 <strong>1棵</strong> 敌国树木。</p> <p>树木的照片如下图所示。</p> <p></p> <img src='stimuli/trees/14.png', style='max-width: 30%;'> </img> <p><strong>你是否选择发射武器？</strong></p>","0",""
"","","","","","html-keyboard-response","110","88492739","0.0-4.0-0.53","33","1","2022-11-03 13:31:54","ebf9627b049f568eb4bf28942cb89901","114.254.1.12","Mozilla/5.0 (Macintosh; Intel Mac OS X 10_15_7) AppleWebKit/537.36 (KHTML, like Gecko) Chrome/106.0.0.0 Safari/537.36","Macintosh","Chrome","106.0.0.0","OS X","10_15_7","null","<div style=""font-size:60px;"">+</div>","null",""
"","","","","","html-button-response","111","88494048","0.0-4.0-1.53","33","1","2022-11-03 13:31:54","ebf9627b049f568eb4bf28942cb89901","114.254.1.12","Mozilla/5.0 (Macintosh; Intel Mac OS X 10_15_7) AppleWebKit/537.36 (KHTML, like Gecko) Chrome/106.0.0.0 Safari/537.36","Macintosh","Chrome","106.0.0.0","OS X","10_15_7","1302","<p>作为军队的指挥官，你可以选择发射导弹杀死 <strong>3名</strong> 敌国士兵，但会误杀附近的 <strong>1名</strong> 敌国平民。</p> <p>平民照片如下图所示。</p> <p></p> <img src='stimuli/faces/NFF3.jpg', style='max-width: 30%;'> </img> <p><strong>你是否选择发射武器？</strong></p>","1",""
"","","","","","html-keyboard-response","112","88495053","0.0-4.0-0.54","33","1","2022-11-03 13:31:54","ebf9627b049f568eb4bf28942cb89901","114.254.1.12","Mozilla/5.0 (Macintosh; Intel Mac OS X 10_15_7) AppleWebKit/537.36 (KHTML, like Gecko) Chrome/106.0.0.0 Safari/537.36","Macintosh","Chrome","106.0.0.0","OS X","10_15_7","null","<div style=""font-size:60px;"">+</div>","null",""
"","","","","","html-button-response","113","88496064","0.0-4.0-1.54","33","1","2022-11-03 13:31:54","ebf9627b049f568eb4bf28942cb89901","114.254.1.12","Mozilla/5.0 (Macintosh; Intel Mac OS X 10_15_7) AppleWebKit/537.36 (KHTML, like Gecko) Chrome/106.0.0.0 Safari/537.36","Macintosh","Chrome","106.0.0.0","OS X","10_15_7","1003","<p>作为军队的指挥官，你可以选择发射导弹杀死 <strong>7名</strong> 敌国士兵，但会误杀附近的 <strong>1名</strong> 敌国平民。</p> <p>平民照片如下图所示。</p> <p></p> <img src='stimuli/faces/NFF8.jpg', style='max-width: 30%;'> </img> <p><strong>你是否选择发射武器？</strong></p>","1",""
"","","","","","html-keyboard-response","114","88497072","0.0-4.0-0.55","33","1","2022-11-03 13:31:54","ebf9627b049f568eb4bf28942cb89901","114.254.1.12","Mozilla/5.0 (Macintosh; Intel Mac OS X 10_15_7) AppleWebKit/537.36 (KHTML, like Gecko) Chrome/106.0.0.0 Safari/537.36","Macintosh","Chrome","106.0.0.0","OS X","10_15_7","null","<div style=""font-size:60px;"">+</div>","null",""
"","","","","","html-button-response","115","88497897","0.0-4.0-1.55","33","1","2022-11-03 13:31:54","ebf9627b049f568eb4bf28942cb89901","114.254.1.12","Mozilla/5.0 (Macintosh; Intel Mac OS X 10_15_7) AppleWebKit/537.36 (KHTML, like Gecko) Chrome/106.0.0.0 Safari/537.36","Macintosh","Chrome","106.0.0.0","OS X","10_15_7","818","<p>作为军队的指挥官，你可以选择发射导弹杀死 <strong>7名</strong> 敌国士兵，但会误杀附近的 <strong>1名</strong> 敌国平民。</p> <p>平民照片如下图所示。</p> <p></p> <img src='stimuli/faces/NFM2.jpg', style='max-width: 30%;'> </img> <p><strong>你是否选择发射武器？</strong></p>","1",""
"","","","","","html-keyboard-response","116","88498903","0.0-4.0-0.56","33","1","2022-11-03 13:31:54","ebf9627b049f568eb4bf28942cb89901","114.254.1.12","Mozilla/5.0 (Macintosh; Intel Mac OS X 10_15_7) AppleWebKit/537.36 (KHTML, like Gecko) Chrome/106.0.0.0 Safari/537.36","Macintosh","Chrome","106.0.0.0","OS X","10_15_7","null","<div style=""font-size:60px;"">+</div>","null",""
"","","","","","html-button-response","117","88499581","0.0-4.0-1.56","33","1","2022-11-03 13:31:54","ebf9627b049f568eb4bf28942cb89901","114.254.1.12","Mozilla/5.0 (Macintosh; Intel Mac OS X 10_15_7) AppleWebKit/537.36 (KHTML, like Gecko) Chrome/106.0.0.0 Safari/537.36","Macintosh","Chrome","106.0.0.0","OS X","10_15_7","671","<p>作为军队的指挥官，你可以选择发射导弹杀死 <strong>8名</strong> 敌国士兵，但会炸毁附近的 <strong>1棵</strong> 敌国树木。</p> <p>树木的照片如下图所示。</p> <p></p> <img src='stimuli/trees/3.png', style='max-width: 30%;'> </img> <p><strong>你是否选择发射武器？</strong></p>","1",""
"","","","","","html-keyboard-response","118","88500589","0.0-4.0-0.57","33","1","2022-11-03 13:31:54","ebf9627b049f568eb4bf28942cb89901","114.254.1.12","Mozilla/5.0 (Macintosh; Intel Mac OS X 10_15_7) AppleWebKit/537.36 (KHTML, like Gecko) Chrome/106.0.0.0 Safari/537.36","Macintosh","Chrome","106.0.0.0","OS X","10_15_7","null","<div style=""font-size:60px;"">+</div>","null",""
"","","","","","html-button-response","119","88501365","0.0-4.0-1.57","33","1","2022-11-03 13:31:54","ebf9627b049f568eb4bf28942cb89901","114.254.1.12","Mozilla/5.0 (Macintosh; Intel Mac OS X 10_15_7) AppleWebKit/537.36 (KHTML, like Gecko) Chrome/106.0.0.0 Safari/537.36","Macintosh","Chrome","106.0.0.0","OS X","10_15_7","769","<p>作为军队的指挥官，你可以选择发射导弹杀死 <strong>10名</strong> 敌国士兵，但会炸毁附近的 <strong>1棵</strong> 敌国树木。</p> <p>树木的照片如下图所示。</p> <p></p> <img src='stimuli/trees/5.png', style='max-width: 30%;'> </img> <p><strong>你是否选择发射武器？</strong></p>","1",""
"","","","","","html-keyboard-response","120","88502372","0.0-4.0-0.58","33","1","2022-11-03 13:31:54","ebf9627b049f568eb4bf28942cb89901","114.254.1.12","Mozilla/5.0 (Macintosh; Intel Mac OS X 10_15_7) AppleWebKit/537.36 (KHTML, like Gecko) Chrome/106.0.0.0 Safari/537.36","Macintosh","Chrome","106.0.0.0","OS X","10_15_7","null","<div style=""font-size:60px;"">+</div>","null",""
"","","","","","html-button-response","121","88503431","0.0-4.0-1.58","33","1","2022-11-03 13:31:54","ebf9627b049f568eb4bf28942cb89901","114.254.1.12","Mozilla/5.0 (Macintosh; Intel Mac OS X 10_15_7) AppleWebKit/537.36 (KHTML, like Gecko) Chrome/106.0.0.0 Safari/537.36","Macintosh","Chrome","106.0.0.0","OS X","10_15_7","1052","<p>作为军队的指挥官，你可以选择发射导弹杀死 <strong>5名</strong> 敌国士兵，但会炸毁附近的 <strong>1棵</strong> 敌国树木。</p> <p>树木的照片如下图所示。</p> <p></p> <img src='stimuli/trees/4.png', style='max-width: 30%;'> </img> <p><strong>你是否选择发射武器？</strong></p>","1",""
"","","","","","html-keyboard-response","122","88504438","0.0-4.0-0.59","33","1","2022-11-03 13:31:54","ebf9627b049f568eb4bf28942cb89901","114.254.1.12","Mozilla/5.0 (Macintosh; Intel Mac OS X 10_15_7) AppleWebKit/537.36 (KHTML, like Gecko) Chrome/106.0.0.0 Safari/537.36","Macintosh","Chrome","106.0.0.0","OS X","10_15_7","null","<div style=""font-size:60px;"">+</div>","null",""
"","","","","","html-button-response","123","88505481","0.0-4.0-1.59","33","1","2022-11-03 13:31:54","ebf9627b049f568eb4bf28942cb89901","114.254.1.12","Mozilla/5.0 (Macintosh; Intel Mac OS X 10_15_7) AppleWebKit/537.36 (KHTML, like Gecko) Chrome/106.0.0.0 Safari/537.36","Macintosh","Chrome","106.0.0.0","OS X","10_15_7","1036","<p>作为军队的指挥官，你可以选择发射导弹杀死 <strong>3名</strong> 敌国士兵，但会误杀附近的 <strong>1名</strong> 敌国平民。</p> <p>平民照片如下图所示。</p> <p></p> <img src='stimuli/faces/NFF7.jpg', style='max-width: 30%;'> </img> <p><strong>你是否选择发射武器？</strong></p>","1",""
"","","","","","html-keyboard-response","124","88506491","0.0-4.0-0.60","33","1","2022-11-03 13:31:54","ebf9627b049f568eb4bf28942cb89901","114.254.1.12","Mozilla/5.0 (Macintosh; Intel Mac OS X 10_15_7) AppleWebKit/537.36 (KHTML, like Gecko) Chrome/106.0.0.0 Safari/537.36","Macintosh","Chrome","106.0.0.0","OS X","10_15_7","null","<div style=""font-size:60px;"">+</div>","null",""
"","","","","","html-button-response","125","88507864","0.0-4.0-1.60","33","1","2022-11-03 13:31:54","ebf9627b049f568eb4bf28942cb89901","114.254.1.12","Mozilla/5.0 (Macintosh; Intel Mac OS X 10_15_7) AppleWebKit/537.36 (KHTML, like Gecko) Chrome/106.0.0.0 Safari/537.36","Macintosh","Chrome","106.0.0.0","OS X","10_15_7","1366","<p>作为军队的指挥官，你可以选择发射导弹杀死 <strong>9名</strong> 敌国士兵，但会误杀附近的 <strong>1名</strong> 敌国平民。</p> <p>平民照片如下图所示。</p> <p></p> <img src='stimuli/faces/NFF2.jpg', style='max-width: 30%;'> </img> <p><strong>你是否选择发射武器？</strong></p>","1",""
"","","","","","html-keyboard-response","126","88508871","0.0-4.0-0.61","33","1","2022-11-03 13:31:54","ebf9627b049f568eb4bf28942cb89901","114.254.1.12","Mozilla/5.0 (Macintosh; Intel Mac OS X 10_15_7) AppleWebKit/537.36 (KHTML, like Gecko) Chrome/106.0.0.0 Safari/537.36","Macintosh","Chrome","106.0.0.0","OS X","10_15_7","null","<div style=""font-size:60px;"">+</div>","null",""
"","","","","","html-button-response","127","88509615","0.0-4.0-1.61","33","1","2022-11-03 13:31:54","ebf9627b049f568eb4bf28942cb89901","114.254.1.12","Mozilla/5.0 (Macintosh; Intel Mac OS X 10_15_7) AppleWebKit/537.36 (KHTML, like Gecko) Chrome/106.0.0.0 Safari/537.36","Macintosh","Chrome","106.0.0.0","OS X","10_15_7","736","<p>作为军队的指挥官，你可以选择发射导弹杀死 <strong>7名</strong> 敌国士兵，但会误杀附近的 <strong>1名</strong> 敌国平民。</p> <p>平民照片如下图所示。</p> <p></p> <img src='stimuli/faces/NFF6.jpg', style='max-width: 30%;'> </img> <p><strong>你是否选择发射武器？</strong></p>","1",""
"","","","","","html-keyboard-response","128","88510621","0.0-4.0-0.62","33","1","2022-11-03 13:31:54","ebf9627b049f568eb4bf28942cb89901","114.254.1.12","Mozilla/5.0 (Macintosh; Intel Mac OS X 10_15_7) AppleWebKit/537.36 (KHTML, like Gecko) Chrome/106.0.0.0 Safari/537.36","Macintosh","Chrome","106.0.0.0","OS X","10_15_7","null","<div style=""font-size:60px;"">+</div>","null",""
"","","","","","html-button-response","129","88511848","0.0-4.0-1.62","33","1","2022-11-03 13:31:54","ebf9627b049f568eb4bf28942cb89901","114.254.1.12","Mozilla/5.0 (Macintosh; Intel Mac OS X 10_15_7) AppleWebKit/537.36 (KHTML, like Gecko) Chrome/106.0.0.0 Safari/537.36","Macintosh","Chrome","106.0.0.0","OS X","10_15_7","1219","<p>作为军队的指挥官，你可以选择发射导弹杀死 <strong>3名</strong> 敌国士兵，但会炸毁附近的 <strong>1棵</strong> 敌国树木。</p> <p>树木的照片如下图所示。</p> <p></p> <img src='stimuli/trees/14.png', style='max-width: 30%;'> </img> <p><strong>你是否选择发射武器？</strong></p>","1",""
"","","","","","html-keyboard-response","130","88512854","0.0-4.0-0.63","33","1","2022-11-03 13:31:54","ebf9627b049f568eb4bf28942cb89901","114.254.1.12","Mozilla/5.0 (Macintosh; Intel Mac OS X 10_15_7) AppleWebKit/537.36 (KHTML, like Gecko) Chrome/106.0.0.0 Safari/537.36","Macintosh","Chrome","106.0.0.0","OS X","10_15_7","null","<div style=""font-size:60px;"">+</div>","null",""
"","","","","","html-button-response","131","88513831","0.0-4.0-1.63","33","1","2022-11-03 13:31:54","ebf9627b049f568eb4bf28942cb89901","114.254.1.12","Mozilla/5.0 (Macintosh; Intel Mac OS X 10_15_7) AppleWebKit/537.36 (KHTML, like Gecko) Chrome/106.0.0.0 Safari/537.36","Macintosh","Chrome","106.0.0.0","OS X","10_15_7","971","<p>作为军队的指挥官，你可以选择发射导弹杀死 <strong>6名</strong> 敌国士兵，但会炸毁附近的 <strong>1棵</strong> 敌国树木。</p> <p>树木的照片如下图所示。</p> <p></p> <img src='stimuli/trees/1.png', style='max-width: 30%;'> </img> <p><strong>你是否选择发射武器？</strong></p>","1",""
"","","","","","survey-multi-choice","132","88540267","0.0-5.0","33","1","2022-11-03 13:31:54","ebf9627b049f568eb4bf28942cb89901","114.254.1.12","Mozilla/5.0 (Macintosh; Intel Mac OS X 10_15_7) AppleWebKit/537.36 (KHTML, like Gecko) Chrome/106.0.0.0 Safari/537.36","Macintosh","Chrome","106.0.0.0","OS X","10_15_7","26428","","{""Attention1"":""""}","[0]"
"","","","","","html-button-response","133","88544066","0.0-6.0","33","1","2022-11-03 13:31:54","ebf9627b049f568eb4bf28942cb89901","114.254.1.12","Mozilla/5.0 (Macintosh; Intel Mac OS X 10_15_7) AppleWebKit/537.36 (KHTML, like Gecko) Chrome/106.0.0.0 Safari/537.36","Macintosh","Chrome","106.0.0.0","OS X","10_15_7","3786","<p style=""font-size:20px;font-weight:bold;"">恭喜！</p><p>你已经完成了实验的第一部分。</p><p>请休息放松一下，然后进入第二部分。</p><p>这部分大约需要10分钟。</p>","0",""
"","","","","","survey-text","134","88566820","0.0-7.0","33","1","2022-11-03 13:31:54","ebf9627b049f568eb4bf28942cb89901","114.254.1.12","Mozilla/5.0 (Macintosh; Intel Mac OS X 10_15_7) AppleWebKit/537.36 (KHTML, like Gecko) Chrome/106.0.0.0 Safari/537.36","Macintosh","Chrome","106.0.0.0","OS X","10_15_7","21738","","{""Age"":""19"",""Nation"":""中国"",""Born"":""北京"",""Live"":""北京"",""Ethnic"":""汉族"",""Alipay"":""18600873586""}",""
"","","","","","survey-multi-choice","135","88606947","0.0-8.0","33","1","2022-11-03 13:31:54","ebf9627b049f568eb4bf28942cb89901","114.254.1.12","Mozilla/5.0 (Macintosh; Intel Mac OS X 10_15_7) AppleWebKit/537.36 (KHTML, like Gecko) Chrome/106.0.0.0 Safari/537.36","Macintosh","Chrome","106.0.0.0","OS X","10_15_7","40112","","{""Gender"":""女"",""Education"":""高中毕业"",""Income"":""￥875,000-￥1,049,999"",""Children"":""0"",""Race"":""亚洲人""}","[0,1,2,3,4]"
"","","","","","survey-multi-select","136","88625031","0.0-9.0","33","1","2022-11-03 13:31:54","ebf9627b049f568eb4bf28942cb89901","114.254.1.12","Mozilla/5.0 (Macintosh; Intel Mac OS X 10_15_7) AppleWebKit/537.36 (KHTML, like Gecko) Chrome/106.0.0.0 Safari/537.36","Macintosh","Chrome","106.0.0.0","OS X","10_15_7","18061","","{""Marriage"":[""未婚""],""Religion"":[""无宗教信仰""]}","[0,1]"
"","","","","","survey-multi-choice","137","88638813","0.0-10.0","33","1","2022-11-03 13:31:54","ebf9627b049f568eb4bf28942cb89901","114.254.1.12","Mozilla/5.0 (Macintosh; Intel Mac OS X 10_15_7) AppleWebKit/537.36 (KHTML, like Gecko) Chrome/106.0.0.0 Safari/537.36","Macintosh","Chrome","106.0.0.0","OS X","10_15_7","13772","","{""SES"":""9""}","[0]"
"","","","","","html-button-response","138","88648129","0.0-11.0","33","1","2022-11-03 13:31:54","ebf9627b049f568eb4bf28942cb89901","114.254.1.12","Mozilla/5.0 (Macintosh; Intel Mac OS X 10_15_7) AppleWebKit/537.36 (KHTML, like Gecko) Chrome/106.0.0.0 Safari/537.36","Macintosh","Chrome","106.0.0.0","OS X","10_15_7","9306","<p><strong>请判断下列陈述在多大程度上可以形容你？</p><p> (1 = ""和我一点都不像"" to 5 = ""非常像我"".)</strong></p>","0",""
"","","","","","survey-likert","139","88678166","0.0-12.0","33","1","2022-11-03 13:31:54","ebf9627b049f568eb4bf28942cb89901","114.254.1.12","Mozilla/5.0 (Macintosh; Intel Mac OS X 10_15_7) AppleWebKit/537.36 (KHTML, like Gecko) Chrome/106.0.0.0 Safari/537.36","Macintosh","Chrome","106.0.0.0","OS X","10_15_7","30030","","{""Aggression1"":1,""Aggression2"":0,""Aggression3"":1,""Aggression4"":0,""Aggression5"":0,""Aggression6"":0,""Aggression7"":1,""Aggression8"":1,""Aggression9"":1}","[0,1,2,3,4,5,6,7,8]"
"","","","","","html-button-response","140","88679546","0.0-13.0","33","1","2022-11-03 13:31:54","ebf9627b049f568eb4bf28942cb89901","114.254.1.12","Mozilla/5.0 (Macintosh; Intel Mac OS X 10_15_7) AppleWebKit/537.36 (KHTML, like Gecko) Chrome/106.0.0.0 Safari/537.36","Macintosh","Chrome","106.0.0.0","OS X","10_15_7","1369","<p><strong>请判断你在多大程度上同意下列陈述。</strong></p>","0",""
"","","","","","survey-likert","141","88782917","0.0-14.0","33","1","2022-11-03 13:31:54","ebf9627b049f568eb4bf28942cb89901","114.254.1.12","Mozilla/5.0 (Macintosh; Intel Mac OS X 10_15_7) AppleWebKit/537.36 (KHTML, like Gecko) Chrome/106.0.0.0 Safari/537.36","Macintosh","Chrome","106.0.0.0","OS X","10_15_7","103362","","{""scale11"":4,""scale17"":2,""scale25"":1,""scale10"":2,""scale3"":1,""scale15"":1,""scale14"":0,""scale23"":3,""scale28"":3,""scale6"":2,""scale21"":3,""scale2"":4,""scale19"":3,""scale12"":0,""scale8"":3,""scale4"":1,""scale20"":4,""scale24"":1,""scale9"":4,""scale7"":0,""scale13"":0,""scale5"":4,""scale26"":3,""scale18"":0,""scale1"":4,""scale22"":3,""scale16"":4,""scale27"":1}","[10,16,24,9,2,14,13,22,27,5,20,1,18,11,7,3,19,23,8,6,12,4,25,17,0,21,15,26]"
"","","","","","html-button-response","142","88784446","0.0-15.0","33","1","2022-11-03 13:31:54","ebf9627b049f568eb4bf28942cb89901","114.254.1.12","Mozilla/5.0 (Macintosh; Intel Mac OS X 10_15_7) AppleWebKit/537.36 (KHTML, like Gecko) Chrome/106.0.0.0 Safari/537.36","Macintosh","Chrome","106.0.0.0","OS X","10_15_7","1518","<p><strong>请判断你在多大程度上同意下列陈述。</strong></p>","0",""
"","","","","","survey-likert","143","88868065","0.0-16.0","33","1","2022-11-03 13:31:54","ebf9627b049f568eb4bf28942cb89901","114.254.1.12","Mozilla/5.0 (Macintosh; Intel Mac OS X 10_15_7) AppleWebKit/537.36 (KHTML, like Gecko) Chrome/106.0.0.0 Safari/537.36","Macintosh","Chrome","106.0.0.0","OS X","10_15_7","83614","","{""sdo14"":5,""sdo5"":0,""sdo9"":4,""sdo10"":4,""sdo8"":0,""sdo7"":0,""sdo15"":3,""sdo11"":4,""sdo12"":4,""sdo4"":3,""sdo6"":3,""sdo2"":3,""sdo13"":4,""sdo16"":4,""sdo1"":0,""sdo3"":4}","[13,4,8,9,7,6,14,10,11,3,5,1,12,15,0,2]"
"","","","","","html-button-response","144","88869213","0.0-17.0","33","1","2022-11-03 13:31:54","ebf9627b049f568eb4bf28942cb89901","114.254.1.12","Mozilla/5.0 (Macintosh; Intel Mac OS X 10_15_7) AppleWebKit/537.36 (KHTML, like Gecko) Chrome/106.0.0.0 Safari/537.36","Macintosh","Chrome","106.0.0.0","OS X","10_15_7","1137","<p><strong>请判断你在多大程度上同意下列陈述。</strong></p>","0",""
"","","","","","survey-likert","145","88925515","0.0-18.0","33","1","2022-11-03 13:31:54","ebf9627b049f568eb4bf28942cb89901","114.254.1.12","Mozilla/5.0 (Macintosh; Intel Mac OS X 10_15_7) AppleWebKit/537.36 (KHTML, like Gecko) Chrome/106.0.0.0 Safari/537.36","Macintosh","Chrome","106.0.0.0","OS X","10_15_7","56297","","{""caring1"":1,""liking1"":1,""caring2"":3,""protection1"":3,""liking2"":2,""caring3"":3,""protection2"":1,""liking3"":2,""protection3"":3,""caring4"":3,""liking4"":2,""protection4"":3,""caring5"":1,""liking5"":3,""protection5"":2}","[0,1,2,3,4,5,6,7,8,9,10,11,12,13,14]"
"","","","","","html-button-response","146","88926813","0.0-19.0","33","1","2022-11-03 13:31:54","ebf9627b049f568eb4bf28942cb89901","114.254.1.12","Mozilla/5.0 (Macintosh; Intel Mac OS X 10_15_7) AppleWebKit/537.36 (KHTML, like Gecko) Chrome/106.0.0.0 Safari/537.36","Macintosh","Chrome","106.0.0.0","OS X","10_15_7","1287","<p><strong>请判断下列场景中你的内心感受有多柔软。</strong></p>","0",""
"","","","","","survey-likert","147","88962097","0.0-20.0","33","1","2022-11-03 13:31:54","ebf9627b049f568eb4bf28942cb89901","114.254.1.12","Mozilla/5.0 (Macintosh; Intel Mac OS X 10_15_7) AppleWebKit/537.36 (KHTML, like Gecko) Chrome/106.0.0.0 Safari/537.36","Macintosh","Chrome","106.0.0.0","OS X","10_15_7","35277","","{""tenderness-positive1"":4,""tenderness-negative1"":0,""tenderness-negative2"":1,""tenderness-positive2"":3,""tenderness-positive3"":4,""tenderness-negative3"":2,""tenderness-positive4"":4,""tendereness-negative4"":3,""tendernness-negative5"":1,""tenderness-positive5"":1}","[0,1,2,3,4,5,6,7,8,9]"
"","","","","","survey-multi-choice","148","88969896","0.0-21.0","33","1","2022-11-03 13:31:54","ebf9627b049f568eb4bf28942cb89901","114.254.1.12","Mozilla/5.0 (Macintosh; Intel Mac OS X 10_15_7) AppleWebKit/537.36 (KHTML, like Gecko) Chrome/106.0.0.0 Safari/537.36","Macintosh","Chrome","106.0.0.0","OS X","10_15_7","7788","","{""Attention2"":""其他""}","[0]"
"","","","","","html-button-response","149","88971028","0.0-22.0","33","1","2022-11-03 13:31:54","ebf9627b049f568eb4bf28942cb89901","114.254.1.12","Mozilla/5.0 (Macintosh; Intel Mac OS X 10_15_7) AppleWebKit/537.36 (KHTML, like Gecko) Chrome/106.0.0.0 Safari/537.36","Macintosh","Chrome","106.0.0.0","OS X","10_15_7","1120","<p><strong>请判断你在多大程度上同意下列陈述。</strong></p>","0",""
"","","","","","survey-likert","150","89097232","0.0-23.0","33","1","2022-11-03 13:31:54","ebf9627b049f568eb4bf28942cb89901","114.254.1.12","Mozilla/5.0 (Macintosh; Intel Mac OS X 10_15_7) AppleWebKit/537.36 (KHTML, like Gecko) Chrome/106.0.0.0 Safari/537.36","Macintosh","Chrome","106.0.0.0","OS X","10_15_7","126200","","{""Patri5"":1,""Patri10"":1,""Nation4"":0,""Nation7"":2,""Patri3"":2,""Nation1"":2,""Patri1"":2,""Nation6"":3,""Nation3"":2,""Patri8"":1,""Patri12"":3,""Patri2"":1,""Nation5"":1,""Patri6"":4,""Nation2"":1,""Patri9"":2,""Nation8"":4,""Patri7"":3,""Patri4"":3,""Patri11"":1}","[4,9,15,18,2,12,0,17,14,7,11,1,16,5,13,8,19,6,3,10]"
"","","","","","html-button-response","151","89098995","0.0-24.0","33","1","2022-11-03 13:31:54","ebf9627b049f568eb4bf28942cb89901","114.254.1.12","Mozilla/5.0 (Macintosh; Intel Mac OS X 10_15_7) AppleWebKit/537.36 (KHTML, like Gecko) Chrome/106.0.0.0 Safari/537.36","Macintosh","Chrome","106.0.0.0","OS X","10_15_7","1752","<p><strong>请判断你在多大程度上同意下列陈述。</strong></p>","0",""
"","","","","","survey-likert","152","89153482","0.0-25.0","33","1","2022-11-03 13:31:54","ebf9627b049f568eb4bf28942cb89901","114.254.1.12","Mozilla/5.0 (Macintosh; Intel Mac OS X 10_15_7) AppleWebKit/537.36 (KHTML, like Gecko) Chrome/106.0.0.0 Safari/537.36","Macintosh","Chrome","106.0.0.0","OS X","10_15_7","54479","","{""vi1"":5,""vc4"":2,""hi4"":7,""hc2"":8,""vi4"":2,""vi2"":1,""Robot"":6,""vc3"":3,""vi3"":1,""hc4"":7,""hi3"":1,""hi2"":4,""vc2"":5,""hc1"":6,""vc1"":6,""hc3"":3,""hi1"":6}","[4,16,3,10,8,5,7,15,6,12,2,1,14,9,13,11,0]"
"","","","","","survey-text","153","89158612","0.0-26.0","33","1","2022-11-03 13:31:54","ebf9627b049f568eb4bf28942cb89901","114.254.1.12","Mozilla/5.0 (Macintosh; Intel Mac OS X 10_15_7) AppleWebKit/537.36 (KHTML, like Gecko) Chrome/106.0.0.0 Safari/537.36","Macintosh","Chrome","106.0.0.0","OS X","10_15_7","5113","","{""Comments"":""无""}",""
"","","","","","html-button-response","154","89159945","0.0-27.0","33","1","2022-11-03 13:31:54","ebf9627b049f568eb4bf28942cb89901","114.254.1.12","Mozilla/5.0 (Macintosh; Intel Mac OS X 10_15_7) AppleWebKit/537.36 (KHTML, like Gecko) Chrome/106.0.0.0 Safari/537.36","Macintosh","Chrome","106.0.0.0","OS X","10_15_7","1327","<strong><p>恭喜你完成了实验！</p><p>感谢您的参与。</p></strong>","0",""
