"success","timeout","failed_images","failed_audio","failed_video","trial_type","trial_index","time_elapsed","internal_node_id","run_id","condition","recorded_at","source_code_version","ip","user_agent","device","browser","browser_version","platform","platform_version","rt","stimulus","response","question_order"
"true","false","[]","[]","[]","preload","0","2182","0.0-0.0","34","1","2022-11-03 13:53:57","ebf9627b049f568eb4bf28942cb89901","202.119.46.35","Mozilla/5.0 (Windows NT 10.0; Win64; x64) AppleWebKit/537.36 (KHTML, like Gecko) Chrome/106.0.0.0 Safari/537.36","WebKit","Chrome","106.0.0.0","Windows","10.0","","","",""
"true","","","","","fullscreen","1","5376","0.0-1.0","34","1","2022-11-03 13:53:57","ebf9627b049f568eb4bf28942cb89901","202.119.46.35","Mozilla/5.0 (Windows NT 10.0; Win64; x64) AppleWebKit/537.36 (KHTML, like Gecko) Chrome/106.0.0.0 Safari/537.36","WebKit","Chrome","106.0.0.0","Windows","10.0","","","",""
"","","","","","html-button-response","2","15158","0.0-2.0","34","1","2022-11-03 13:53:57","ebf9627b049f568eb4bf28942cb89901","202.119.46.35","Mozilla/5.0 (Windows NT 10.0; Win64; x64) AppleWebKit/537.36 (KHTML, like Gecko) Chrome/106.0.0.0 Safari/537.36","WebKit","Chrome","106.0.0.0","Windows","10.0","9780","<p style=""font-size:20px;font-weight:bold;"">实验知情同意书</p><p style=""text-align:left;""><strong>实验名称：</strong>社会冲突研究</p><p style=""text-align:left;""><strong>主要研究者：</strong>韩晓春副教授（北京师范大学心理学部）</p><p style=""text-align:left;""><strong>联系方式：</strong>发送邮件至xiaochun.han@bnu.edu.cn</p><p style=""text-align:left;""><strong>研究目的：</strong>研究旨在了解人类面对群体冲突时的决策方式，以及相关的心理学特质。实验调查大约需要20分钟。</p><p style=""text-align:left;""><strong>实验流程：</strong>实验包含两部分。第一部分呈现一系列群体冲突场景，请你决定如何对这些冲突进行反应，大约需要10分钟完成。第二部分包含一系列人口统计学信息收集和心理学问卷，大约需要10分钟完成。</p><p style=""text-align:left;""><strong>参加及退出规则：</strong>参加本实验完全取决于您的个人意愿。在参与过程中，您可以随时退出，并且不用承担任何后果。</p><p style=""text-align:left;""><strong>隐私：</strong>本实验完全匿名进行，不会收集您的姓名或其他能够识别您身份的信息。实验中收集的作答仅用作科学研究使用，可能会在学术期刊/书籍上发表，或者用于教学，您的数据未来可能会和其他研究者或实验室分享，但您的个人身份不会被识别。</p><p style=""text-align:left;""><strong>实验报酬：</strong>实验完成后，您将获得15元人民币报酬，以感谢您的时间和努力。调查问卷中包含几道题目用以测验您作答时的认真度。只有完成全部实验，并且正确回答认真度测验的被试才能获得实验报酬。实验报酬将通过支付宝转账发放。</p><p style=""text-align:left;font-size:20px;""><strong>如果您同意以上实验知情同意书的内容，请点击'同意并且开始实验'按钮；否则请关闭浏览器界面，退出实验。</strong></p>","0",""
"","","","","","html-button-response","3","23485","0.0-3.0","34","1","2022-11-03 13:53:57","ebf9627b049f568eb4bf28942cb89901","202.119.46.35","Mozilla/5.0 (Windows NT 10.0; Win64; x64) AppleWebKit/537.36 (KHTML, like Gecko) Chrome/106.0.0.0 Safari/537.36","WebKit","Chrome","106.0.0.0","Windows","10.0","8326","<p ><strong>实验任务一：</strong></p><p>请想象你的国家与另一个国家发生了军事冲突。</p><p>你是国家军队的指挥官，你将如何在冲突中进行决策。</p><p>具体来说，作为军队指挥官，请你决定是否发射导弹进行打击。</p><p>接下来，你会面对一系列场景，请仔细阅读每个场景，然后进行决策。</p><p>这部分实验任务大约需要10分钟。</p><p><strong>实验过程中，请集中注意力。</strong></p>","0",""
"","","","","","html-keyboard-response","4","24489","0.0-4.0-0.0","34","1","2022-11-03 13:53:57","ebf9627b049f568eb4bf28942cb89901","202.119.46.35","Mozilla/5.0 (Windows NT 10.0; Win64; x64) AppleWebKit/537.36 (KHTML, like Gecko) Chrome/106.0.0.0 Safari/537.36","WebKit","Chrome","106.0.0.0","Windows","10.0","null","<div style=""font-size:60px;"">+</div>","null",""
"","","","","","html-button-response","5","29005","0.0-4.0-1.0","34","1","2022-11-03 13:53:57","ebf9627b049f568eb4bf28942cb89901","202.119.46.35","Mozilla/5.0 (Windows NT 10.0; Win64; x64) AppleWebKit/537.36 (KHTML, like Gecko) Chrome/106.0.0.0 Safari/537.36","WebKit","Chrome","106.0.0.0","Windows","10.0","4514","<p>作为军队的指挥官，你可以选择发射导弹杀死 <strong>2名</strong> 敌国士兵，但会炸毁附近的 <strong>1棵</strong> 敌国树木。</p> <p>树木的照片如下图所示。</p> <p></p> <img src='stimuli/trees/6.png', style='max-width: 30%;'> </img> <p><strong>你是否选择发射武器？</strong></p>","0",""
"","","","","","html-keyboard-response","6","30007","0.0-4.0-0.1","34","1","2022-11-03 13:53:57","ebf9627b049f568eb4bf28942cb89901","202.119.46.35","Mozilla/5.0 (Windows NT 10.0; Win64; x64) AppleWebKit/537.36 (KHTML, like Gecko) Chrome/106.0.0.0 Safari/537.36","WebKit","Chrome","106.0.0.0","Windows","10.0","null","<div style=""font-size:60px;"">+</div>","null",""
"","","","","","html-button-response","7","33629","0.0-4.0-1.1","34","1","2022-11-03 13:53:57","ebf9627b049f568eb4bf28942cb89901","202.119.46.35","Mozilla/5.0 (Windows NT 10.0; Win64; x64) AppleWebKit/537.36 (KHTML, like Gecko) Chrome/106.0.0.0 Safari/537.36","WebKit","Chrome","106.0.0.0","Windows","10.0","3622","<p>作为军队的指挥官，你可以选择发射导弹杀死 <strong>1名</strong> 敌国士兵，但会误杀附近的 <strong>1名</strong> 敌国平民。</p> <p>平民照片如下图所示。</p> <p></p> <img src='stimuli/faces/NFM2.jpg', style='max-width: 30%;'> </img> <p><strong>你是否选择发射武器？</strong></p>","1",""
"","","","","","html-keyboard-response","8","34640","0.0-4.0-0.2","34","1","2022-11-03 13:53:57","ebf9627b049f568eb4bf28942cb89901","202.119.46.35","Mozilla/5.0 (Windows NT 10.0; Win64; x64) AppleWebKit/537.36 (KHTML, like Gecko) Chrome/106.0.0.0 Safari/537.36","WebKit","Chrome","106.0.0.0","Windows","10.0","null","<div style=""font-size:60px;"">+</div>","null",""
"","","","","","html-button-response","9","38341","0.0-4.0-1.2","34","1","2022-11-03 13:53:57","ebf9627b049f568eb4bf28942cb89901","202.119.46.35","Mozilla/5.0 (Windows NT 10.0; Win64; x64) AppleWebKit/537.36 (KHTML, like Gecko) Chrome/106.0.0.0 Safari/537.36","WebKit","Chrome","106.0.0.0","Windows","10.0","3699","<p>作为军队的指挥官，你可以选择发射导弹杀死 <strong>9名</strong> 敌国士兵，但会误杀附近的 <strong>1名</strong> 敌国平民。</p> <p>平民照片如下图所示。</p> <p></p> <img src='stimuli/faces/NFM3.jpg', style='max-width: 30%;'> </img> <p><strong>你是否选择发射武器？</strong></p>","0",""
"","","","","","html-keyboard-response","10","39356","0.0-4.0-0.3","34","1","2022-11-03 13:53:57","ebf9627b049f568eb4bf28942cb89901","202.119.46.35","Mozilla/5.0 (Windows NT 10.0; Win64; x64) AppleWebKit/537.36 (KHTML, like Gecko) Chrome/106.0.0.0 Safari/537.36","WebKit","Chrome","106.0.0.0","Windows","10.0","null","<div style=""font-size:60px;"">+</div>","null",""
"","","","","","html-button-response","11","41819","0.0-4.0-1.3","34","1","2022-11-03 13:53:57","ebf9627b049f568eb4bf28942cb89901","202.119.46.35","Mozilla/5.0 (Windows NT 10.0; Win64; x64) AppleWebKit/537.36 (KHTML, like Gecko) Chrome/106.0.0.0 Safari/537.36","WebKit","Chrome","106.0.0.0","Windows","10.0","2462","<p>作为军队的指挥官，你可以选择发射导弹杀死 <strong>3名</strong> 敌国士兵，但会炸毁附近的 <strong>1棵</strong> 敌国树木。</p> <p>树木的照片如下图所示。</p> <p></p> <img src='stimuli/trees/16.png', style='max-width: 30%;'> </img> <p><strong>你是否选择发射武器？</strong></p>","0",""
"","","","","","html-keyboard-response","12","42822","0.0-4.0-0.4","34","1","2022-11-03 13:53:57","ebf9627b049f568eb4bf28942cb89901","202.119.46.35","Mozilla/5.0 (Windows NT 10.0; Win64; x64) AppleWebKit/537.36 (KHTML, like Gecko) Chrome/106.0.0.0 Safari/537.36","WebKit","Chrome","106.0.0.0","Windows","10.0","null","<div style=""font-size:60px;"">+</div>","null",""
"","","","","","html-button-response","13","45562","0.0-4.0-1.4","34","1","2022-11-03 13:53:57","ebf9627b049f568eb4bf28942cb89901","202.119.46.35","Mozilla/5.0 (Windows NT 10.0; Win64; x64) AppleWebKit/537.36 (KHTML, like Gecko) Chrome/106.0.0.0 Safari/537.36","WebKit","Chrome","106.0.0.0","Windows","10.0","2739","<p>作为军队的指挥官，你可以选择发射导弹杀死 <strong>8名</strong> 敌国士兵，但会误杀附近的 <strong>1名</strong> 敌国平民。</p> <p>平民照片如下图所示。</p> <p></p> <img src='stimuli/faces/NFM8.jpg', style='max-width: 30%;'> </img> <p><strong>你是否选择发射武器？</strong></p>","0",""
"","","","","","html-keyboard-response","14","46563","0.0-4.0-0.5","34","1","2022-11-03 13:53:57","ebf9627b049f568eb4bf28942cb89901","202.119.46.35","Mozilla/5.0 (Windows NT 10.0; Win64; x64) AppleWebKit/537.36 (KHTML, like Gecko) Chrome/106.0.0.0 Safari/537.36","WebKit","Chrome","106.0.0.0","Windows","10.0","null","<div style=""font-size:60px;"">+</div>","null",""
"","","","","","html-button-response","15","51402","0.0-4.0-1.5","34","1","2022-11-03 13:53:57","ebf9627b049f568eb4bf28942cb89901","202.119.46.35","Mozilla/5.0 (Windows NT 10.0; Win64; x64) AppleWebKit/537.36 (KHTML, like Gecko) Chrome/106.0.0.0 Safari/537.36","WebKit","Chrome","106.0.0.0","Windows","10.0","4837","<p>作为军队的指挥官，你可以选择发射导弹杀死 <strong>4名</strong> 敌国士兵，但会误杀附近的 <strong>1名</strong> 敌国平民。</p> <p>平民照片如下图所示。</p> <p></p> <img src='stimuli/faces/NFF1.jpg', style='max-width: 30%;'> </img> <p><strong>你是否选择发射武器？</strong></p>","1",""
"","","","","","html-keyboard-response","16","52416","0.0-4.0-0.6","34","1","2022-11-03 13:53:57","ebf9627b049f568eb4bf28942cb89901","202.119.46.35","Mozilla/5.0 (Windows NT 10.0; Win64; x64) AppleWebKit/537.36 (KHTML, like Gecko) Chrome/106.0.0.0 Safari/537.36","WebKit","Chrome","106.0.0.0","Windows","10.0","null","<div style=""font-size:60px;"">+</div>","null",""
"","","","","","html-button-response","17","54409","0.0-4.0-1.6","34","1","2022-11-03 13:53:57","ebf9627b049f568eb4bf28942cb89901","202.119.46.35","Mozilla/5.0 (Windows NT 10.0; Win64; x64) AppleWebKit/537.36 (KHTML, like Gecko) Chrome/106.0.0.0 Safari/537.36","WebKit","Chrome","106.0.0.0","Windows","10.0","1992","<p>作为军队的指挥官，你可以选择发射导弹杀死 <strong>9名</strong> 敌国士兵，但会误杀附近的 <strong>1名</strong> 敌国平民。</p> <p>平民照片如下图所示。</p> <p></p> <img src='stimuli/faces/NFM1.jpg', style='max-width: 30%;'> </img> <p><strong>你是否选择发射武器？</strong></p>","0",""
"","","","","","html-keyboard-response","18","55426","0.0-4.0-0.7","34","1","2022-11-03 13:53:57","ebf9627b049f568eb4bf28942cb89901","202.119.46.35","Mozilla/5.0 (Windows NT 10.0; Win64; x64) AppleWebKit/537.36 (KHTML, like Gecko) Chrome/106.0.0.0 Safari/537.36","WebKit","Chrome","106.0.0.0","Windows","10.0","null","<div style=""font-size:60px;"">+</div>","null",""
"","","","","","html-button-response","19","58637","0.0-4.0-1.7","34","1","2022-11-03 13:53:57","ebf9627b049f568eb4bf28942cb89901","202.119.46.35","Mozilla/5.0 (Windows NT 10.0; Win64; x64) AppleWebKit/537.36 (KHTML, like Gecko) Chrome/106.0.0.0 Safari/537.36","WebKit","Chrome","106.0.0.0","Windows","10.0","3210","<p>作为军队的指挥官，你可以选择发射导弹杀死 <strong>2名</strong> 敌国士兵，但会误杀附近的 <strong>1名</strong> 敌国平民。</p> <p>平民照片如下图所示。</p> <p></p> <img src='stimuli/faces/NFM6.jpg', style='max-width: 30%;'> </img> <p><strong>你是否选择发射武器？</strong></p>","1",""
"","","","","","html-keyboard-response","20","59646","0.0-4.0-0.8","34","1","2022-11-03 13:53:57","ebf9627b049f568eb4bf28942cb89901","202.119.46.35","Mozilla/5.0 (Windows NT 10.0; Win64; x64) AppleWebKit/537.36 (KHTML, like Gecko) Chrome/106.0.0.0 Safari/537.36","WebKit","Chrome","106.0.0.0","Windows","10.0","null","<div style=""font-size:60px;"">+</div>","null",""
"","","","","","html-button-response","21","61786","0.0-4.0-1.8","34","1","2022-11-03 13:53:57","ebf9627b049f568eb4bf28942cb89901","202.119.46.35","Mozilla/5.0 (Windows NT 10.0; Win64; x64) AppleWebKit/537.36 (KHTML, like Gecko) Chrome/106.0.0.0 Safari/537.36","WebKit","Chrome","106.0.0.0","Windows","10.0","2139","<p>作为军队的指挥官，你可以选择发射导弹杀死 <strong>4名</strong> 敌国士兵，但会误杀附近的 <strong>1名</strong> 敌国平民。</p> <p>平民照片如下图所示。</p> <p></p> <img src='stimuli/faces/NFF4.jpg', style='max-width: 30%;'> </img> <p><strong>你是否选择发射武器？</strong></p>","1",""
"","","","","","html-keyboard-response","22","62790","0.0-4.0-0.9","34","1","2022-11-03 13:53:57","ebf9627b049f568eb4bf28942cb89901","202.119.46.35","Mozilla/5.0 (Windows NT 10.0; Win64; x64) AppleWebKit/537.36 (KHTML, like Gecko) Chrome/106.0.0.0 Safari/537.36","WebKit","Chrome","106.0.0.0","Windows","10.0","null","<div style=""font-size:60px;"">+</div>","null",""
"","","","","","html-button-response","23","65745","0.0-4.0-1.9","34","1","2022-11-03 13:53:57","ebf9627b049f568eb4bf28942cb89901","202.119.46.35","Mozilla/5.0 (Windows NT 10.0; Win64; x64) AppleWebKit/537.36 (KHTML, like Gecko) Chrome/106.0.0.0 Safari/537.36","WebKit","Chrome","106.0.0.0","Windows","10.0","2953","<p>作为军队的指挥官，你可以选择发射导弹杀死 <strong>4名</strong> 敌国士兵，但会误杀附近的 <strong>1名</strong> 敌国平民。</p> <p>平民照片如下图所示。</p> <p></p> <img src='stimuli/faces/NFF5.jpg', style='max-width: 30%;'> </img> <p><strong>你是否选择发射武器？</strong></p>","1",""
"","","","","","html-keyboard-response","24","66751","0.0-4.0-0.10","34","1","2022-11-03 13:53:57","ebf9627b049f568eb4bf28942cb89901","202.119.46.35","Mozilla/5.0 (Windows NT 10.0; Win64; x64) AppleWebKit/537.36 (KHTML, like Gecko) Chrome/106.0.0.0 Safari/537.36","WebKit","Chrome","106.0.0.0","Windows","10.0","null","<div style=""font-size:60px;"">+</div>","null",""
"","","","","","html-button-response","25","70533","0.0-4.0-1.10","34","1","2022-11-03 13:53:57","ebf9627b049f568eb4bf28942cb89901","202.119.46.35","Mozilla/5.0 (Windows NT 10.0; Win64; x64) AppleWebKit/537.36 (KHTML, like Gecko) Chrome/106.0.0.0 Safari/537.36","WebKit","Chrome","106.0.0.0","Windows","10.0","3781","<p>作为军队的指挥官，你可以选择发射导弹杀死 <strong>1名</strong> 敌国士兵，但会炸毁附近的 <strong>1棵</strong> 敌国树木。</p> <p>树木的照片如下图所示。</p> <p></p> <img src='stimuli/trees/11.png', style='max-width: 30%;'> </img> <p><strong>你是否选择发射武器？</strong></p>","1",""
"","","","","","html-keyboard-response","26","71534","0.0-4.0-0.11","34","1","2022-11-03 13:53:57","ebf9627b049f568eb4bf28942cb89901","202.119.46.35","Mozilla/5.0 (Windows NT 10.0; Win64; x64) AppleWebKit/537.36 (KHTML, like Gecko) Chrome/106.0.0.0 Safari/537.36","WebKit","Chrome","106.0.0.0","Windows","10.0","null","<div style=""font-size:60px;"">+</div>","null",""
"","","","","","html-button-response","27","73889","0.0-4.0-1.11","34","1","2022-11-03 13:53:57","ebf9627b049f568eb4bf28942cb89901","202.119.46.35","Mozilla/5.0 (Windows NT 10.0; Win64; x64) AppleWebKit/537.36 (KHTML, like Gecko) Chrome/106.0.0.0 Safari/537.36","WebKit","Chrome","106.0.0.0","Windows","10.0","2353","<p>作为军队的指挥官，你可以选择发射导弹杀死 <strong>8名</strong> 敌国士兵，但会炸毁附近的 <strong>1棵</strong> 敌国树木。</p> <p>树木的照片如下图所示。</p> <p></p> <img src='stimuli/trees/12.png', style='max-width: 30%;'> </img> <p><strong>你是否选择发射武器？</strong></p>","0",""
"","","","","","html-keyboard-response","28","74890","0.0-4.0-0.12","34","1","2022-11-03 13:53:57","ebf9627b049f568eb4bf28942cb89901","202.119.46.35","Mozilla/5.0 (Windows NT 10.0; Win64; x64) AppleWebKit/537.36 (KHTML, like Gecko) Chrome/106.0.0.0 Safari/537.36","WebKit","Chrome","106.0.0.0","Windows","10.0","null","<div style=""font-size:60px;"">+</div>","null",""
"","","","","","html-button-response","29","76877","0.0-4.0-1.12","34","1","2022-11-03 13:53:57","ebf9627b049f568eb4bf28942cb89901","202.119.46.35","Mozilla/5.0 (Windows NT 10.0; Win64; x64) AppleWebKit/537.36 (KHTML, like Gecko) Chrome/106.0.0.0 Safari/537.36","WebKit","Chrome","106.0.0.0","Windows","10.0","1986","<p>作为军队的指挥官，你可以选择发射导弹杀死 <strong>5名</strong> 敌国士兵，但会炸毁附近的 <strong>1棵</strong> 敌国树木。</p> <p>树木的照片如下图所示。</p> <p></p> <img src='stimuli/trees/3.png', style='max-width: 30%;'> </img> <p><strong>你是否选择发射武器？</strong></p>","0",""
"","","","","","html-keyboard-response","30","77888","0.0-4.0-0.13","34","1","2022-11-03 13:53:57","ebf9627b049f568eb4bf28942cb89901","202.119.46.35","Mozilla/5.0 (Windows NT 10.0; Win64; x64) AppleWebKit/537.36 (KHTML, like Gecko) Chrome/106.0.0.0 Safari/537.36","WebKit","Chrome","106.0.0.0","Windows","10.0","null","<div style=""font-size:60px;"">+</div>","null",""
"","","","","","html-button-response","31","79702","0.0-4.0-1.13","34","1","2022-11-03 13:53:57","ebf9627b049f568eb4bf28942cb89901","202.119.46.35","Mozilla/5.0 (Windows NT 10.0; Win64; x64) AppleWebKit/537.36 (KHTML, like Gecko) Chrome/106.0.0.0 Safari/537.36","WebKit","Chrome","106.0.0.0","Windows","10.0","1812","<p>作为军队的指挥官，你可以选择发射导弹杀死 <strong>10名</strong> 敌国士兵，但会误杀附近的 <strong>1名</strong> 敌国平民。</p> <p>平民照片如下图所示。</p> <p></p> <img src='stimuli/faces/NFF3.jpg', style='max-width: 30%;'> </img> <p><strong>你是否选择发射武器？</strong></p>","0",""
"","","","","","html-keyboard-response","32","80703","0.0-4.0-0.14","34","1","2022-11-03 13:53:57","ebf9627b049f568eb4bf28942cb89901","202.119.46.35","Mozilla/5.0 (Windows NT 10.0; Win64; x64) AppleWebKit/537.36 (KHTML, like Gecko) Chrome/106.0.0.0 Safari/537.36","WebKit","Chrome","106.0.0.0","Windows","10.0","null","<div style=""font-size:60px;"">+</div>","null",""
"","","","","","html-button-response","33","83265","0.0-4.0-1.14","34","1","2022-11-03 13:53:57","ebf9627b049f568eb4bf28942cb89901","202.119.46.35","Mozilla/5.0 (Windows NT 10.0; Win64; x64) AppleWebKit/537.36 (KHTML, like Gecko) Chrome/106.0.0.0 Safari/537.36","WebKit","Chrome","106.0.0.0","Windows","10.0","2560","<p>作为军队的指挥官，你可以选择发射导弹杀死 <strong>7名</strong> 敌国士兵，但会炸毁附近的 <strong>1棵</strong> 敌国树木。</p> <p>树木的照片如下图所示。</p> <p></p> <img src='stimuli/trees/1.png', style='max-width: 30%;'> </img> <p><strong>你是否选择发射武器？</strong></p>","0",""
"","","","","","html-keyboard-response","34","84274","0.0-4.0-0.15","34","1","2022-11-03 13:53:57","ebf9627b049f568eb4bf28942cb89901","202.119.46.35","Mozilla/5.0 (Windows NT 10.0; Win64; x64) AppleWebKit/537.36 (KHTML, like Gecko) Chrome/106.0.0.0 Safari/537.36","WebKit","Chrome","106.0.0.0","Windows","10.0","null","<div style=""font-size:60px;"">+</div>","null",""
"","","","","","html-button-response","35","88499","0.0-4.0-1.15","34","1","2022-11-03 13:53:57","ebf9627b049f568eb4bf28942cb89901","202.119.46.35","Mozilla/5.0 (Windows NT 10.0; Win64; x64) AppleWebKit/537.36 (KHTML, like Gecko) Chrome/106.0.0.0 Safari/537.36","WebKit","Chrome","106.0.0.0","Windows","10.0","4224","<p>作为军队的指挥官，你可以选择发射导弹杀死 <strong>3名</strong> 敌国士兵，但会误杀附近的 <strong>1名</strong> 敌国平民。</p> <p>平民照片如下图所示。</p> <p></p> <img src='stimuli/faces/NFF3.jpg', style='max-width: 30%;'> </img> <p><strong>你是否选择发射武器？</strong></p>","1",""
"","","","","","html-keyboard-response","36","89506","0.0-4.0-0.16","34","1","2022-11-03 13:53:57","ebf9627b049f568eb4bf28942cb89901","202.119.46.35","Mozilla/5.0 (Windows NT 10.0; Win64; x64) AppleWebKit/537.36 (KHTML, like Gecko) Chrome/106.0.0.0 Safari/537.36","WebKit","Chrome","106.0.0.0","Windows","10.0","null","<div style=""font-size:60px;"">+</div>","null",""
"","","","","","html-button-response","37","92889","0.0-4.0-1.16","34","1","2022-11-03 13:53:57","ebf9627b049f568eb4bf28942cb89901","202.119.46.35","Mozilla/5.0 (Windows NT 10.0; Win64; x64) AppleWebKit/537.36 (KHTML, like Gecko) Chrome/106.0.0.0 Safari/537.36","WebKit","Chrome","106.0.0.0","Windows","10.0","3381","<p>作为军队的指挥官，你可以选择发射导弹杀死 <strong>8名</strong> 敌国士兵，但会误杀附近的 <strong>1名</strong> 敌国平民。</p> <p>平民照片如下图所示。</p> <p></p> <img src='stimuli/faces/NFM7.jpg', style='max-width: 30%;'> </img> <p><strong>你是否选择发射武器？</strong></p>","0",""
"","","","","","html-keyboard-response","38","93899","0.0-4.0-0.17","34","1","2022-11-03 13:53:57","ebf9627b049f568eb4bf28942cb89901","202.119.46.35","Mozilla/5.0 (Windows NT 10.0; Win64; x64) AppleWebKit/537.36 (KHTML, like Gecko) Chrome/106.0.0.0 Safari/537.36","WebKit","Chrome","106.0.0.0","Windows","10.0","null","<div style=""font-size:60px;"">+</div>","null",""
"","","","","","html-button-response","39","96601","0.0-4.0-1.17","34","1","2022-11-03 13:53:57","ebf9627b049f568eb4bf28942cb89901","202.119.46.35","Mozilla/5.0 (Windows NT 10.0; Win64; x64) AppleWebKit/537.36 (KHTML, like Gecko) Chrome/106.0.0.0 Safari/537.36","WebKit","Chrome","106.0.0.0","Windows","10.0","2700","<p>作为军队的指挥官，你可以选择发射导弹杀死 <strong>3名</strong> 敌国士兵，但会炸毁附近的 <strong>1棵</strong> 敌国树木。</p> <p>树木的照片如下图所示。</p> <p></p> <img src='stimuli/trees/9.png', style='max-width: 30%;'> </img> <p><strong>你是否选择发射武器？</strong></p>","0",""
"","","","","","html-keyboard-response","40","97615","0.0-4.0-0.18","34","1","2022-11-03 13:53:57","ebf9627b049f568eb4bf28942cb89901","202.119.46.35","Mozilla/5.0 (Windows NT 10.0; Win64; x64) AppleWebKit/537.36 (KHTML, like Gecko) Chrome/106.0.0.0 Safari/537.36","WebKit","Chrome","106.0.0.0","Windows","10.0","null","<div style=""font-size:60px;"">+</div>","null",""
"","","","","","html-button-response","41","100049","0.0-4.0-1.18","34","1","2022-11-03 13:53:57","ebf9627b049f568eb4bf28942cb89901","202.119.46.35","Mozilla/5.0 (Windows NT 10.0; Win64; x64) AppleWebKit/537.36 (KHTML, like Gecko) Chrome/106.0.0.0 Safari/537.36","WebKit","Chrome","106.0.0.0","Windows","10.0","2432","<p>作为军队的指挥官，你可以选择发射导弹杀死 <strong>7名</strong> 敌国士兵，但会误杀附近的 <strong>1名</strong> 敌国平民。</p> <p>平民照片如下图所示。</p> <p></p> <img src='stimuli/faces/NFM5.jpg', style='max-width: 30%;'> </img> <p><strong>你是否选择发射武器？</strong></p>","0",""
"","","","","","html-keyboard-response","42","101057","0.0-4.0-0.19","34","1","2022-11-03 13:53:57","ebf9627b049f568eb4bf28942cb89901","202.119.46.35","Mozilla/5.0 (Windows NT 10.0; Win64; x64) AppleWebKit/537.36 (KHTML, like Gecko) Chrome/106.0.0.0 Safari/537.36","WebKit","Chrome","106.0.0.0","Windows","10.0","null","<div style=""font-size:60px;"">+</div>","null",""
"","","","","","html-button-response","43","102769","0.0-4.0-1.19","34","1","2022-11-03 13:53:57","ebf9627b049f568eb4bf28942cb89901","202.119.46.35","Mozilla/5.0 (Windows NT 10.0; Win64; x64) AppleWebKit/537.36 (KHTML, like Gecko) Chrome/106.0.0.0 Safari/537.36","WebKit","Chrome","106.0.0.0","Windows","10.0","1710","<p>作为军队的指挥官，你可以选择发射导弹杀死 <strong>4名</strong> 敌国士兵，但会误杀附近的 <strong>1名</strong> 敌国平民。</p> <p>平民照片如下图所示。</p> <p></p> <img src='stimuli/faces/NFM3.jpg', style='max-width: 30%;'> </img> <p><strong>你是否选择发射武器？</strong></p>","0",""
"","","","","","html-keyboard-response","44","103781","0.0-4.0-0.20","34","1","2022-11-03 13:53:57","ebf9627b049f568eb4bf28942cb89901","202.119.46.35","Mozilla/5.0 (Windows NT 10.0; Win64; x64) AppleWebKit/537.36 (KHTML, like Gecko) Chrome/106.0.0.0 Safari/537.36","WebKit","Chrome","106.0.0.0","Windows","10.0","null","<div style=""font-size:60px;"">+</div>","null",""
"","","","","","html-button-response","45","105921","0.0-4.0-1.20","34","1","2022-11-03 13:53:57","ebf9627b049f568eb4bf28942cb89901","202.119.46.35","Mozilla/5.0 (Windows NT 10.0; Win64; x64) AppleWebKit/537.36 (KHTML, like Gecko) Chrome/106.0.0.0 Safari/537.36","WebKit","Chrome","106.0.0.0","Windows","10.0","2138","<p>作为军队的指挥官，你可以选择发射导弹杀死 <strong>6名</strong> 敌国士兵，但会炸毁附近的 <strong>1棵</strong> 敌国树木。</p> <p>树木的照片如下图所示。</p> <p></p> <img src='stimuli/trees/7.png', style='max-width: 30%;'> </img> <p><strong>你是否选择发射武器？</strong></p>","0",""
"","","","","","html-keyboard-response","46","106923","0.0-4.0-0.21","34","1","2022-11-03 13:53:57","ebf9627b049f568eb4bf28942cb89901","202.119.46.35","Mozilla/5.0 (Windows NT 10.0; Win64; x64) AppleWebKit/537.36 (KHTML, like Gecko) Chrome/106.0.0.0 Safari/537.36","WebKit","Chrome","106.0.0.0","Windows","10.0","null","<div style=""font-size:60px;"">+</div>","null",""
"","","","","","html-button-response","47","108593","0.0-4.0-1.21","34","1","2022-11-03 13:53:57","ebf9627b049f568eb4bf28942cb89901","202.119.46.35","Mozilla/5.0 (Windows NT 10.0; Win64; x64) AppleWebKit/537.36 (KHTML, like Gecko) Chrome/106.0.0.0 Safari/537.36","WebKit","Chrome","106.0.0.0","Windows","10.0","1668","<p>作为军队的指挥官，你可以选择发射导弹杀死 <strong>8名</strong> 敌国士兵，但会炸毁附近的 <strong>1棵</strong> 敌国树木。</p> <p>树木的照片如下图所示。</p> <p></p> <img src='stimuli/trees/3.png', style='max-width: 30%;'> </img> <p><strong>你是否选择发射武器？</strong></p>","0",""
"","","","","","html-keyboard-response","48","109596","0.0-4.0-0.22","34","1","2022-11-03 13:53:57","ebf9627b049f568eb4bf28942cb89901","202.119.46.35","Mozilla/5.0 (Windows NT 10.0; Win64; x64) AppleWebKit/537.36 (KHTML, like Gecko) Chrome/106.0.0.0 Safari/537.36","WebKit","Chrome","106.0.0.0","Windows","10.0","null","<div style=""font-size:60px;"">+</div>","null",""
"","","","","","html-button-response","49","110921","0.0-4.0-1.22","34","1","2022-11-03 13:53:57","ebf9627b049f568eb4bf28942cb89901","202.119.46.35","Mozilla/5.0 (Windows NT 10.0; Win64; x64) AppleWebKit/537.36 (KHTML, like Gecko) Chrome/106.0.0.0 Safari/537.36","WebKit","Chrome","106.0.0.0","Windows","10.0","1323","<p>作为军队的指挥官，你可以选择发射导弹杀死 <strong>10名</strong> 敌国士兵，但会炸毁附近的 <strong>1棵</strong> 敌国树木。</p> <p>树木的照片如下图所示。</p> <p></p> <img src='stimuli/trees/4.png', style='max-width: 30%;'> </img> <p><strong>你是否选择发射武器？</strong></p>","0",""
"","","","","","html-keyboard-response","50","111931","0.0-4.0-0.23","34","1","2022-11-03 13:53:57","ebf9627b049f568eb4bf28942cb89901","202.119.46.35","Mozilla/5.0 (Windows NT 10.0; Win64; x64) AppleWebKit/537.36 (KHTML, like Gecko) Chrome/106.0.0.0 Safari/537.36","WebKit","Chrome","106.0.0.0","Windows","10.0","null","<div style=""font-size:60px;"">+</div>","null",""
"","","","","","html-button-response","51","113617","0.0-4.0-1.23","34","1","2022-11-03 13:53:57","ebf9627b049f568eb4bf28942cb89901","202.119.46.35","Mozilla/5.0 (Windows NT 10.0; Win64; x64) AppleWebKit/537.36 (KHTML, like Gecko) Chrome/106.0.0.0 Safari/537.36","WebKit","Chrome","106.0.0.0","Windows","10.0","1684","<p>作为军队的指挥官，你可以选择发射导弹杀死 <strong>10名</strong> 敌国士兵，但会误杀附近的 <strong>1名</strong> 敌国平民。</p> <p>平民照片如下图所示。</p> <p></p> <img src='stimuli/faces/NFF1.jpg', style='max-width: 30%;'> </img> <p><strong>你是否选择发射武器？</strong></p>","0",""
"","","","","","html-keyboard-response","52","114629","0.0-4.0-0.24","34","1","2022-11-03 13:53:57","ebf9627b049f568eb4bf28942cb89901","202.119.46.35","Mozilla/5.0 (Windows NT 10.0; Win64; x64) AppleWebKit/537.36 (KHTML, like Gecko) Chrome/106.0.0.0 Safari/537.36","WebKit","Chrome","106.0.0.0","Windows","10.0","null","<div style=""font-size:60px;"">+</div>","null",""
"","","","","","html-button-response","53","115713","0.0-4.0-1.24","34","1","2022-11-03 13:53:57","ebf9627b049f568eb4bf28942cb89901","202.119.46.35","Mozilla/5.0 (Windows NT 10.0; Win64; x64) AppleWebKit/537.36 (KHTML, like Gecko) Chrome/106.0.0.0 Safari/537.36","WebKit","Chrome","106.0.0.0","Windows","10.0","1083","<p>作为军队的指挥官，你可以选择发射导弹杀死 <strong>8名</strong> 敌国士兵，但会误杀附近的 <strong>1名</strong> 敌国平民。</p> <p>平民照片如下图所示。</p> <p></p> <img src='stimuli/faces/NFM2.jpg', style='max-width: 30%;'> </img> <p><strong>你是否选择发射武器？</strong></p>","0",""
"","","","","","html-keyboard-response","54","116718","0.0-4.0-0.25","34","1","2022-11-03 13:53:57","ebf9627b049f568eb4bf28942cb89901","202.119.46.35","Mozilla/5.0 (Windows NT 10.0; Win64; x64) AppleWebKit/537.36 (KHTML, like Gecko) Chrome/106.0.0.0 Safari/537.36","WebKit","Chrome","106.0.0.0","Windows","10.0","null","<div style=""font-size:60px;"">+</div>","null",""
"","","","","","html-button-response","55","118465","0.0-4.0-1.25","34","1","2022-11-03 13:53:57","ebf9627b049f568eb4bf28942cb89901","202.119.46.35","Mozilla/5.0 (Windows NT 10.0; Win64; x64) AppleWebKit/537.36 (KHTML, like Gecko) Chrome/106.0.0.0 Safari/537.36","WebKit","Chrome","106.0.0.0","Windows","10.0","1745","<p>作为军队的指挥官，你可以选择发射导弹杀死 <strong>4名</strong> 敌国士兵，但会炸毁附近的 <strong>1棵</strong> 敌国树木。</p> <p>树木的照片如下图所示。</p> <p></p> <img src='stimuli/trees/14.png', style='max-width: 30%;'> </img> <p><strong>你是否选择发射武器？</strong></p>","0",""
"","","","","","html-keyboard-response","56","119477","0.0-4.0-0.26","34","1","2022-11-03 13:53:57","ebf9627b049f568eb4bf28942cb89901","202.119.46.35","Mozilla/5.0 (Windows NT 10.0; Win64; x64) AppleWebKit/537.36 (KHTML, like Gecko) Chrome/106.0.0.0 Safari/537.36","WebKit","Chrome","106.0.0.0","Windows","10.0","null","<div style=""font-size:60px;"">+</div>","null",""
"","","","","","html-button-response","57","120889","0.0-4.0-1.26","34","1","2022-11-03 13:53:57","ebf9627b049f568eb4bf28942cb89901","202.119.46.35","Mozilla/5.0 (Windows NT 10.0; Win64; x64) AppleWebKit/537.36 (KHTML, like Gecko) Chrome/106.0.0.0 Safari/537.36","WebKit","Chrome","106.0.0.0","Windows","10.0","1410","<p>作为军队的指挥官，你可以选择发射导弹杀死 <strong>1名</strong> 敌国士兵，但会误杀附近的 <strong>1名</strong> 敌国平民。</p> <p>平民照片如下图所示。</p> <p></p> <img src='stimuli/faces/NFF2.jpg', style='max-width: 30%;'> </img> <p><strong>你是否选择发射武器？</strong></p>","1",""
"","","","","","html-keyboard-response","58","121904","0.0-4.0-0.27","34","1","2022-11-03 13:53:57","ebf9627b049f568eb4bf28942cb89901","202.119.46.35","Mozilla/5.0 (Windows NT 10.0; Win64; x64) AppleWebKit/537.36 (KHTML, like Gecko) Chrome/106.0.0.0 Safari/537.36","WebKit","Chrome","106.0.0.0","Windows","10.0","null","<div style=""font-size:60px;"">+</div>","null",""
"","","","","","html-button-response","59","122813","0.0-4.0-1.27","34","1","2022-11-03 13:53:57","ebf9627b049f568eb4bf28942cb89901","202.119.46.35","Mozilla/5.0 (Windows NT 10.0; Win64; x64) AppleWebKit/537.36 (KHTML, like Gecko) Chrome/106.0.0.0 Safari/537.36","WebKit","Chrome","106.0.0.0","Windows","10.0","907","<p>作为军队的指挥官，你可以选择发射导弹杀死 <strong>10名</strong> 敌国士兵，但会误杀附近的 <strong>1名</strong> 敌国平民。</p> <p>平民照片如下图所示。</p> <p></p> <img src='stimuli/faces/NFF5.jpg', style='max-width: 30%;'> </img> <p><strong>你是否选择发射武器？</strong></p>","0",""
"","","","","","html-keyboard-response","60","123827","0.0-4.0-0.28","34","1","2022-11-03 13:53:57","ebf9627b049f568eb4bf28942cb89901","202.119.46.35","Mozilla/5.0 (Windows NT 10.0; Win64; x64) AppleWebKit/537.36 (KHTML, like Gecko) Chrome/106.0.0.0 Safari/537.36","WebKit","Chrome","106.0.0.0","Windows","10.0","null","<div style=""font-size:60px;"">+</div>","null",""
"","","","","","html-button-response","61","124673","0.0-4.0-1.28","34","1","2022-11-03 13:53:57","ebf9627b049f568eb4bf28942cb89901","202.119.46.35","Mozilla/5.0 (Windows NT 10.0; Win64; x64) AppleWebKit/537.36 (KHTML, like Gecko) Chrome/106.0.0.0 Safari/537.36","WebKit","Chrome","106.0.0.0","Windows","10.0","844","<p>作为军队的指挥官，你可以选择发射导弹杀死 <strong>10名</strong> 敌国士兵，但会误杀附近的 <strong>1名</strong> 敌国平民。</p> <p>平民照片如下图所示。</p> <p></p> <img src='stimuli/faces/NFF2.jpg', style='max-width: 30%;'> </img> <p><strong>你是否选择发射武器？</strong></p>","0",""
"","","","","","html-keyboard-response","62","125684","0.0-4.0-0.29","34","1","2022-11-03 13:53:57","ebf9627b049f568eb4bf28942cb89901","202.119.46.35","Mozilla/5.0 (Windows NT 10.0; Win64; x64) AppleWebKit/537.36 (KHTML, like Gecko) Chrome/106.0.0.0 Safari/537.36","WebKit","Chrome","106.0.0.0","Windows","10.0","null","<div style=""font-size:60px;"">+</div>","null",""
"","","","","","html-button-response","63","127322","0.0-4.0-1.29","34","1","2022-11-03 13:53:57","ebf9627b049f568eb4bf28942cb89901","202.119.46.35","Mozilla/5.0 (Windows NT 10.0; Win64; x64) AppleWebKit/537.36 (KHTML, like Gecko) Chrome/106.0.0.0 Safari/537.36","WebKit","Chrome","106.0.0.0","Windows","10.0","1637","<p>作为军队的指挥官，你可以选择发射导弹杀死 <strong>5名</strong> 敌国士兵，但会炸毁附近的 <strong>1棵</strong> 敌国树木。</p> <p>树木的照片如下图所示。</p> <p></p> <img src='stimuli/trees/15.png', style='max-width: 30%;'> </img> <p><strong>你是否选择发射武器？</strong></p>","0",""
"","","","","","html-keyboard-response","64","128326","0.0-4.0-0.30","34","1","2022-11-03 13:53:57","ebf9627b049f568eb4bf28942cb89901","202.119.46.35","Mozilla/5.0 (Windows NT 10.0; Win64; x64) AppleWebKit/537.36 (KHTML, like Gecko) Chrome/106.0.0.0 Safari/537.36","WebKit","Chrome","106.0.0.0","Windows","10.0","null","<div style=""font-size:60px;"">+</div>","null",""
"","","","","","html-button-response","65","129234","0.0-4.0-1.30","34","1","2022-11-03 13:53:57","ebf9627b049f568eb4bf28942cb89901","202.119.46.35","Mozilla/5.0 (Windows NT 10.0; Win64; x64) AppleWebKit/537.36 (KHTML, like Gecko) Chrome/106.0.0.0 Safari/537.36","WebKit","Chrome","106.0.0.0","Windows","10.0","907","<p>作为军队的指挥官，你可以选择发射导弹杀死 <strong>7名</strong> 敌国士兵，但会炸毁附近的 <strong>1棵</strong> 敌国树木。</p> <p>树木的照片如下图所示。</p> <p></p> <img src='stimuli/trees/16.png', style='max-width: 30%;'> </img> <p><strong>你是否选择发射武器？</strong></p>","0",""
"","","","","","html-keyboard-response","66","130244","0.0-4.0-0.31","34","1","2022-11-03 13:53:57","ebf9627b049f568eb4bf28942cb89901","202.119.46.35","Mozilla/5.0 (Windows NT 10.0; Win64; x64) AppleWebKit/537.36 (KHTML, like Gecko) Chrome/106.0.0.0 Safari/537.36","WebKit","Chrome","106.0.0.0","Windows","10.0","null","<div style=""font-size:60px;"">+</div>","null",""
"","","","","","html-button-response","67","131241","0.0-4.0-1.31","34","1","2022-11-03 13:53:57","ebf9627b049f568eb4bf28942cb89901","202.119.46.35","Mozilla/5.0 (Windows NT 10.0; Win64; x64) AppleWebKit/537.36 (KHTML, like Gecko) Chrome/106.0.0.0 Safari/537.36","WebKit","Chrome","106.0.0.0","Windows","10.0","995","<p>作为军队的指挥官，你可以选择发射导弹杀死 <strong>10名</strong> 敌国士兵，但会炸毁附近的 <strong>1棵</strong> 敌国树木。</p> <p>树木的照片如下图所示。</p> <p></p> <img src='stimuli/trees/5.png', style='max-width: 30%;'> </img> <p><strong>你是否选择发射武器？</strong></p>","0",""
"","","","","","html-keyboard-response","68","132251","0.0-4.0-0.32","34","1","2022-11-03 13:53:57","ebf9627b049f568eb4bf28942cb89901","202.119.46.35","Mozilla/5.0 (Windows NT 10.0; Win64; x64) AppleWebKit/537.36 (KHTML, like Gecko) Chrome/106.0.0.0 Safari/537.36","WebKit","Chrome","106.0.0.0","Windows","10.0","null","<div style=""font-size:60px;"">+</div>","null",""
"","","","","","html-button-response","69","133137","0.0-4.0-1.32","34","1","2022-11-03 13:53:57","ebf9627b049f568eb4bf28942cb89901","202.119.46.35","Mozilla/5.0 (Windows NT 10.0; Win64; x64) AppleWebKit/537.36 (KHTML, like Gecko) Chrome/106.0.0.0 Safari/537.36","WebKit","Chrome","106.0.0.0","Windows","10.0","884","<p>作为军队的指挥官，你可以选择发射导弹杀死 <strong>6名</strong> 敌国士兵，但会炸毁附近的 <strong>1棵</strong> 敌国树木。</p> <p>树木的照片如下图所示。</p> <p></p> <img src='stimuli/trees/14.png', style='max-width: 30%;'> </img> <p><strong>你是否选择发射武器？</strong></p>","0",""
"","","","","","html-keyboard-response","70","134140","0.0-4.0-0.33","34","1","2022-11-03 13:53:57","ebf9627b049f568eb4bf28942cb89901","202.119.46.35","Mozilla/5.0 (Windows NT 10.0; Win64; x64) AppleWebKit/537.36 (KHTML, like Gecko) Chrome/106.0.0.0 Safari/537.36","WebKit","Chrome","106.0.0.0","Windows","10.0","null","<div style=""font-size:60px;"">+</div>","null",""
"","","","","","html-button-response","71","135650","0.0-4.0-1.33","34","1","2022-11-03 13:53:57","ebf9627b049f568eb4bf28942cb89901","202.119.46.35","Mozilla/5.0 (Windows NT 10.0; Win64; x64) AppleWebKit/537.36 (KHTML, like Gecko) Chrome/106.0.0.0 Safari/537.36","WebKit","Chrome","106.0.0.0","Windows","10.0","1508","<p>作为军队的指挥官，你可以选择发射导弹杀死 <strong>3名</strong> 敌国士兵，但会误杀附近的 <strong>1名</strong> 敌国平民。</p> <p>平民照片如下图所示。</p> <p></p> <img src='stimuli/faces/NFM1.jpg', style='max-width: 30%;'> </img> <p><strong>你是否选择发射武器？</strong></p>","1",""
"","","","","","html-keyboard-response","72","136652","0.0-4.0-0.34","34","1","2022-11-03 13:53:57","ebf9627b049f568eb4bf28942cb89901","202.119.46.35","Mozilla/5.0 (Windows NT 10.0; Win64; x64) AppleWebKit/537.36 (KHTML, like Gecko) Chrome/106.0.0.0 Safari/537.36","WebKit","Chrome","106.0.0.0","Windows","10.0","null","<div style=""font-size:60px;"">+</div>","null",""
"","","","","","html-button-response","73","138105","0.0-4.0-1.34","34","1","2022-11-03 13:53:57","ebf9627b049f568eb4bf28942cb89901","202.119.46.35","Mozilla/5.0 (Windows NT 10.0; Win64; x64) AppleWebKit/537.36 (KHTML, like Gecko) Chrome/106.0.0.0 Safari/537.36","WebKit","Chrome","106.0.0.0","Windows","10.0","1452","<p>作为军队的指挥官，你可以选择发射导弹杀死 <strong>6名</strong> 敌国士兵，但会误杀附近的 <strong>1名</strong> 敌国平民。</p> <p>平民照片如下图所示。</p> <p></p> <img src='stimuli/faces/NFF7.jpg', style='max-width: 30%;'> </img> <p><strong>你是否选择发射武器？</strong></p>","0",""
"","","","","","html-keyboard-response","74","139120","0.0-4.0-0.35","34","1","2022-11-03 13:53:57","ebf9627b049f568eb4bf28942cb89901","202.119.46.35","Mozilla/5.0 (Windows NT 10.0; Win64; x64) AppleWebKit/537.36 (KHTML, like Gecko) Chrome/106.0.0.0 Safari/537.36","WebKit","Chrome","106.0.0.0","Windows","10.0","null","<div style=""font-size:60px;"">+</div>","null",""
"","","","","","html-button-response","75","141089","0.0-4.0-1.35","34","1","2022-11-03 13:53:57","ebf9627b049f568eb4bf28942cb89901","202.119.46.35","Mozilla/5.0 (Windows NT 10.0; Win64; x64) AppleWebKit/537.36 (KHTML, like Gecko) Chrome/106.0.0.0 Safari/537.36","WebKit","Chrome","106.0.0.0","Windows","10.0","1967","<p>作为军队的指挥官，你可以选择发射导弹杀死 <strong>2名</strong> 敌国士兵，但会误杀附近的 <strong>1名</strong> 敌国平民。</p> <p>平民照片如下图所示。</p> <p></p> <img src='stimuli/faces/NFF8.jpg', style='max-width: 30%;'> </img> <p><strong>你是否选择发射武器？</strong></p>","1",""
"","","","","","html-keyboard-response","76","142103","0.0-4.0-0.36","34","1","2022-11-03 13:53:57","ebf9627b049f568eb4bf28942cb89901","202.119.46.35","Mozilla/5.0 (Windows NT 10.0; Win64; x64) AppleWebKit/537.36 (KHTML, like Gecko) Chrome/106.0.0.0 Safari/537.36","WebKit","Chrome","106.0.0.0","Windows","10.0","null","<div style=""font-size:60px;"">+</div>","null",""
"","","","","","html-button-response","77","143445","0.0-4.0-1.36","34","1","2022-11-03 13:53:57","ebf9627b049f568eb4bf28942cb89901","202.119.46.35","Mozilla/5.0 (Windows NT 10.0; Win64; x64) AppleWebKit/537.36 (KHTML, like Gecko) Chrome/106.0.0.0 Safari/537.36","WebKit","Chrome","106.0.0.0","Windows","10.0","1340","<p>作为军队的指挥官，你可以选择发射导弹杀死 <strong>8名</strong> 敌国士兵，但会炸毁附近的 <strong>1棵</strong> 敌国树木。</p> <p>树木的照片如下图所示。</p> <p></p> <img src='stimuli/trees/15.png', style='max-width: 30%;'> </img> <p><strong>你是否选择发射武器？</strong></p>","0",""
"","","","","","html-keyboard-response","78","144451","0.0-4.0-0.37","34","1","2022-11-03 13:53:57","ebf9627b049f568eb4bf28942cb89901","202.119.46.35","Mozilla/5.0 (Windows NT 10.0; Win64; x64) AppleWebKit/537.36 (KHTML, like Gecko) Chrome/106.0.0.0 Safari/537.36","WebKit","Chrome","106.0.0.0","Windows","10.0","null","<div style=""font-size:60px;"">+</div>","null",""
"","","","","","html-button-response","79","146294","0.0-4.0-1.37","34","1","2022-11-03 13:53:57","ebf9627b049f568eb4bf28942cb89901","202.119.46.35","Mozilla/5.0 (Windows NT 10.0; Win64; x64) AppleWebKit/537.36 (KHTML, like Gecko) Chrome/106.0.0.0 Safari/537.36","WebKit","Chrome","106.0.0.0","Windows","10.0","1840","<p>作为军队的指挥官，你可以选择发射导弹杀死 <strong>4名</strong> 敌国士兵，但会误杀附近的 <strong>1名</strong> 敌国平民。</p> <p>平民照片如下图所示。</p> <p></p> <img src='stimuli/faces/NFM5.jpg', style='max-width: 30%;'> </img> <p><strong>你是否选择发射武器？</strong></p>","0",""
"","","","","","html-keyboard-response","80","147310","0.0-4.0-0.38","34","1","2022-11-03 13:53:57","ebf9627b049f568eb4bf28942cb89901","202.119.46.35","Mozilla/5.0 (Windows NT 10.0; Win64; x64) AppleWebKit/537.36 (KHTML, like Gecko) Chrome/106.0.0.0 Safari/537.36","WebKit","Chrome","106.0.0.0","Windows","10.0","null","<div style=""font-size:60px;"">+</div>","null",""
"","","","","","html-button-response","81","148434","0.0-4.0-1.38","34","1","2022-11-03 13:53:57","ebf9627b049f568eb4bf28942cb89901","202.119.46.35","Mozilla/5.0 (Windows NT 10.0; Win64; x64) AppleWebKit/537.36 (KHTML, like Gecko) Chrome/106.0.0.0 Safari/537.36","WebKit","Chrome","106.0.0.0","Windows","10.0","1122","<p>作为军队的指挥官，你可以选择发射导弹杀死 <strong>3名</strong> 敌国士兵，但会炸毁附近的 <strong>1棵</strong> 敌国树木。</p> <p>树木的照片如下图所示。</p> <p></p> <img src='stimuli/trees/4.png', style='max-width: 30%;'> </img> <p><strong>你是否选择发射武器？</strong></p>","0",""
"","","","","","html-keyboard-response","82","149441","0.0-4.0-0.39","34","1","2022-11-03 13:53:57","ebf9627b049f568eb4bf28942cb89901","202.119.46.35","Mozilla/5.0 (Windows NT 10.0; Win64; x64) AppleWebKit/537.36 (KHTML, like Gecko) Chrome/106.0.0.0 Safari/537.36","WebKit","Chrome","106.0.0.0","Windows","10.0","null","<div style=""font-size:60px;"">+</div>","null",""
"","","","","","html-button-response","83","150841","0.0-4.0-1.39","34","1","2022-11-03 13:53:57","ebf9627b049f568eb4bf28942cb89901","202.119.46.35","Mozilla/5.0 (Windows NT 10.0; Win64; x64) AppleWebKit/537.36 (KHTML, like Gecko) Chrome/106.0.0.0 Safari/537.36","WebKit","Chrome","106.0.0.0","Windows","10.0","1398","<p>作为军队的指挥官，你可以选择发射导弹杀死 <strong>4名</strong> 敌国士兵，但会误杀附近的 <strong>1名</strong> 敌国平民。</p> <p>平民照片如下图所示。</p> <p></p> <img src='stimuli/faces/NFF7.jpg', style='max-width: 30%;'> </img> <p><strong>你是否选择发射武器？</strong></p>","1",""
"","","","","","html-keyboard-response","84","151855","0.0-4.0-0.40","34","1","2022-11-03 13:53:57","ebf9627b049f568eb4bf28942cb89901","202.119.46.35","Mozilla/5.0 (Windows NT 10.0; Win64; x64) AppleWebKit/537.36 (KHTML, like Gecko) Chrome/106.0.0.0 Safari/537.36","WebKit","Chrome","106.0.0.0","Windows","10.0","null","<div style=""font-size:60px;"">+</div>","null",""
"","","","","","html-button-response","85","154137","0.0-4.0-1.40","34","1","2022-11-03 13:53:57","ebf9627b049f568eb4bf28942cb89901","202.119.46.35","Mozilla/5.0 (Windows NT 10.0; Win64; x64) AppleWebKit/537.36 (KHTML, like Gecko) Chrome/106.0.0.0 Safari/537.36","WebKit","Chrome","106.0.0.0","Windows","10.0","2280","<p>作为军队的指挥官，你可以选择发射导弹杀死 <strong>3名</strong> 敌国士兵，但会炸毁附近的 <strong>1棵</strong> 敌国树木。</p> <p>树木的照片如下图所示。</p> <p></p> <img src='stimuli/trees/13.png', style='max-width: 30%;'> </img> <p><strong>你是否选择发射武器？</strong></p>","0",""
"","","","","","html-keyboard-response","86","155148","0.0-4.0-0.41","34","1","2022-11-03 13:53:57","ebf9627b049f568eb4bf28942cb89901","202.119.46.35","Mozilla/5.0 (Windows NT 10.0; Win64; x64) AppleWebKit/537.36 (KHTML, like Gecko) Chrome/106.0.0.0 Safari/537.36","WebKit","Chrome","106.0.0.0","Windows","10.0","null","<div style=""font-size:60px;"">+</div>","null",""
"","","","","","html-button-response","87","156477","0.0-4.0-1.41","34","1","2022-11-03 13:53:57","ebf9627b049f568eb4bf28942cb89901","202.119.46.35","Mozilla/5.0 (Windows NT 10.0; Win64; x64) AppleWebKit/537.36 (KHTML, like Gecko) Chrome/106.0.0.0 Safari/537.36","WebKit","Chrome","106.0.0.0","Windows","10.0","1326","<p>作为军队的指挥官，你可以选择发射导弹杀死 <strong>10名</strong> 敌国士兵，但会炸毁附近的 <strong>1棵</strong> 敌国树木。</p> <p>树木的照片如下图所示。</p> <p></p> <img src='stimuli/trees/6.png', style='max-width: 30%;'> </img> <p><strong>你是否选择发射武器？</strong></p>","0",""
"","","","","","html-keyboard-response","88","157486","0.0-4.0-0.42","34","1","2022-11-03 13:53:57","ebf9627b049f568eb4bf28942cb89901","202.119.46.35","Mozilla/5.0 (Windows NT 10.0; Win64; x64) AppleWebKit/537.36 (KHTML, like Gecko) Chrome/106.0.0.0 Safari/537.36","WebKit","Chrome","106.0.0.0","Windows","10.0","null","<div style=""font-size:60px;"">+</div>","null",""
"","","","","","html-button-response","89","158685","0.0-4.0-1.42","34","1","2022-11-03 13:53:57","ebf9627b049f568eb4bf28942cb89901","202.119.46.35","Mozilla/5.0 (Windows NT 10.0; Win64; x64) AppleWebKit/537.36 (KHTML, like Gecko) Chrome/106.0.0.0 Safari/537.36","WebKit","Chrome","106.0.0.0","Windows","10.0","1197","<p>作为军队的指挥官，你可以选择发射导弹杀死 <strong>2名</strong> 敌国士兵，但会炸毁附近的 <strong>1棵</strong> 敌国树木。</p> <p>树木的照片如下图所示。</p> <p></p> <img src='stimuli/trees/8.png', style='max-width: 30%;'> </img> <p><strong>你是否选择发射武器？</strong></p>","1",""
"","","","","","html-keyboard-response","90","159697","0.0-4.0-0.43","34","1","2022-11-03 13:53:57","ebf9627b049f568eb4bf28942cb89901","202.119.46.35","Mozilla/5.0 (Windows NT 10.0; Win64; x64) AppleWebKit/537.36 (KHTML, like Gecko) Chrome/106.0.0.0 Safari/537.36","WebKit","Chrome","106.0.0.0","Windows","10.0","null","<div style=""font-size:60px;"">+</div>","null",""
"","","","","","html-button-response","91","160805","0.0-4.0-1.43","34","1","2022-11-03 13:53:57","ebf9627b049f568eb4bf28942cb89901","202.119.46.35","Mozilla/5.0 (Windows NT 10.0; Win64; x64) AppleWebKit/537.36 (KHTML, like Gecko) Chrome/106.0.0.0 Safari/537.36","WebKit","Chrome","106.0.0.0","Windows","10.0","1106","<p>作为军队的指挥官，你可以选择发射导弹杀死 <strong>2名</strong> 敌国士兵，但会炸毁附近的 <strong>1棵</strong> 敌国树木。</p> <p>树木的照片如下图所示。</p> <p></p> <img src='stimuli/trees/7.png', style='max-width: 30%;'> </img> <p><strong>你是否选择发射武器？</strong></p>","1",""
"","","","","","html-keyboard-response","92","161818","0.0-4.0-0.44","34","1","2022-11-03 13:53:57","ebf9627b049f568eb4bf28942cb89901","202.119.46.35","Mozilla/5.0 (Windows NT 10.0; Win64; x64) AppleWebKit/537.36 (KHTML, like Gecko) Chrome/106.0.0.0 Safari/537.36","WebKit","Chrome","106.0.0.0","Windows","10.0","null","<div style=""font-size:60px;"">+</div>","null",""
"","","","","","html-button-response","93","163153","0.0-4.0-1.44","34","1","2022-11-03 13:53:57","ebf9627b049f568eb4bf28942cb89901","202.119.46.35","Mozilla/5.0 (Windows NT 10.0; Win64; x64) AppleWebKit/537.36 (KHTML, like Gecko) Chrome/106.0.0.0 Safari/537.36","WebKit","Chrome","106.0.0.0","Windows","10.0","1333","<p>作为军队的指挥官，你可以选择发射导弹杀死 <strong>7名</strong> 敌国士兵，但会误杀附近的 <strong>1名</strong> 敌国平民。</p> <p>平民照片如下图所示。</p> <p></p> <img src='stimuli/faces/NFF8.jpg', style='max-width: 30%;'> </img> <p><strong>你是否选择发射武器？</strong></p>","0",""
"","","","","","html-keyboard-response","94","164169","0.0-4.0-0.45","34","1","2022-11-03 13:53:57","ebf9627b049f568eb4bf28942cb89901","202.119.46.35","Mozilla/5.0 (Windows NT 10.0; Win64; x64) AppleWebKit/537.36 (KHTML, like Gecko) Chrome/106.0.0.0 Safari/537.36","WebKit","Chrome","106.0.0.0","Windows","10.0","null","<div style=""font-size:60px;"">+</div>","null",""
"","","","","","html-button-response","95","165365","0.0-4.0-1.45","34","1","2022-11-03 13:53:57","ebf9627b049f568eb4bf28942cb89901","202.119.46.35","Mozilla/5.0 (Windows NT 10.0; Win64; x64) AppleWebKit/537.36 (KHTML, like Gecko) Chrome/106.0.0.0 Safari/537.36","WebKit","Chrome","106.0.0.0","Windows","10.0","1194","<p>作为军队的指挥官，你可以选择发射导弹杀死 <strong>10名</strong> 敌国士兵，但会炸毁附近的 <strong>1棵</strong> 敌国树木。</p> <p>树木的照片如下图所示。</p> <p></p> <img src='stimuli/trees/11.png', style='max-width: 30%;'> </img> <p><strong>你是否选择发射武器？</strong></p>","0",""
"","","","","","html-keyboard-response","96","166368","0.0-4.0-0.46","34","1","2022-11-03 13:53:57","ebf9627b049f568eb4bf28942cb89901","202.119.46.35","Mozilla/5.0 (Windows NT 10.0; Win64; x64) AppleWebKit/537.36 (KHTML, like Gecko) Chrome/106.0.0.0 Safari/537.36","WebKit","Chrome","106.0.0.0","Windows","10.0","null","<div style=""font-size:60px;"">+</div>","null",""
"","","","","","html-button-response","97","167622","0.0-4.0-1.46","34","1","2022-11-03 13:53:57","ebf9627b049f568eb4bf28942cb89901","202.119.46.35","Mozilla/5.0 (Windows NT 10.0; Win64; x64) AppleWebKit/537.36 (KHTML, like Gecko) Chrome/106.0.0.0 Safari/537.36","WebKit","Chrome","106.0.0.0","Windows","10.0","1252","<p>作为军队的指挥官，你可以选择发射导弹杀死 <strong>1名</strong> 敌国士兵，但会炸毁附近的 <strong>1棵</strong> 敌国树木。</p> <p>树木的照片如下图所示。</p> <p></p> <img src='stimuli/trees/12.png', style='max-width: 30%;'> </img> <p><strong>你是否选择发射武器？</strong></p>","1",""
"","","","","","html-keyboard-response","98","168625","0.0-4.0-0.47","34","1","2022-11-03 13:53:57","ebf9627b049f568eb4bf28942cb89901","202.119.46.35","Mozilla/5.0 (Windows NT 10.0; Win64; x64) AppleWebKit/537.36 (KHTML, like Gecko) Chrome/106.0.0.0 Safari/537.36","WebKit","Chrome","106.0.0.0","Windows","10.0","null","<div style=""font-size:60px;"">+</div>","null",""
"","","","","","html-button-response","99","170033","0.0-4.0-1.47","34","1","2022-11-03 13:53:57","ebf9627b049f568eb4bf28942cb89901","202.119.46.35","Mozilla/5.0 (Windows NT 10.0; Win64; x64) AppleWebKit/537.36 (KHTML, like Gecko) Chrome/106.0.0.0 Safari/537.36","WebKit","Chrome","106.0.0.0","Windows","10.0","1406","<p>作为军队的指挥官，你可以选择发射导弹杀死 <strong>1名</strong> 敌国士兵，但会误杀附近的 <strong>1名</strong> 敌国平民。</p> <p>平民照片如下图所示。</p> <p></p> <img src='stimuli/faces/NFF6.jpg', style='max-width: 30%;'> </img> <p><strong>你是否选择发射武器？</strong></p>","1",""
"","","","","","html-keyboard-response","100","171040","0.0-4.0-0.48","34","1","2022-11-03 13:53:57","ebf9627b049f568eb4bf28942cb89901","202.119.46.35","Mozilla/5.0 (Windows NT 10.0; Win64; x64) AppleWebKit/537.36 (KHTML, like Gecko) Chrome/106.0.0.0 Safari/537.36","WebKit","Chrome","106.0.0.0","Windows","10.0","null","<div style=""font-size:60px;"">+</div>","null",""
"","","","","","html-button-response","101","172190","0.0-4.0-1.48","34","1","2022-11-03 13:53:57","ebf9627b049f568eb4bf28942cb89901","202.119.46.35","Mozilla/5.0 (Windows NT 10.0; Win64; x64) AppleWebKit/537.36 (KHTML, like Gecko) Chrome/106.0.0.0 Safari/537.36","WebKit","Chrome","106.0.0.0","Windows","10.0","1148","<p>作为军队的指挥官，你可以选择发射导弹杀死 <strong>10名</strong> 敌国士兵，但会误杀附近的 <strong>1名</strong> 敌国平民。</p> <p>平民照片如下图所示。</p> <p></p> <img src='stimuli/faces/NFF6.jpg', style='max-width: 30%;'> </img> <p><strong>你是否选择发射武器？</strong></p>","0",""
"","","","","","html-keyboard-response","102","173192","0.0-4.0-0.49","34","1","2022-11-03 13:53:57","ebf9627b049f568eb4bf28942cb89901","202.119.46.35","Mozilla/5.0 (Windows NT 10.0; Win64; x64) AppleWebKit/537.36 (KHTML, like Gecko) Chrome/106.0.0.0 Safari/537.36","WebKit","Chrome","106.0.0.0","Windows","10.0","null","<div style=""font-size:60px;"">+</div>","null",""
"","","","","","html-button-response","103","174294","0.0-4.0-1.49","34","1","2022-11-03 13:53:57","ebf9627b049f568eb4bf28942cb89901","202.119.46.35","Mozilla/5.0 (Windows NT 10.0; Win64; x64) AppleWebKit/537.36 (KHTML, like Gecko) Chrome/106.0.0.0 Safari/537.36","WebKit","Chrome","106.0.0.0","Windows","10.0","1099","<p>作为军队的指挥官，你可以选择发射导弹杀死 <strong>6名</strong> 敌国士兵，但会误杀附近的 <strong>1名</strong> 敌国平民。</p> <p>平民照片如下图所示。</p> <p></p> <img src='stimuli/faces/NFM6.jpg', style='max-width: 30%;'> </img> <p><strong>你是否选择发射武器？</strong></p>","0",""
"","","","","","html-keyboard-response","104","175297","0.0-4.0-0.50","34","1","2022-11-03 13:53:57","ebf9627b049f568eb4bf28942cb89901","202.119.46.35","Mozilla/5.0 (Windows NT 10.0; Win64; x64) AppleWebKit/537.36 (KHTML, like Gecko) Chrome/106.0.0.0 Safari/537.36","WebKit","Chrome","106.0.0.0","Windows","10.0","null","<div style=""font-size:60px;"">+</div>","null",""
"","","","","","html-button-response","105","176037","0.0-4.0-1.50","34","1","2022-11-03 13:53:57","ebf9627b049f568eb4bf28942cb89901","202.119.46.35","Mozilla/5.0 (Windows NT 10.0; Win64; x64) AppleWebKit/537.36 (KHTML, like Gecko) Chrome/106.0.0.0 Safari/537.36","WebKit","Chrome","106.0.0.0","Windows","10.0","738","<p>作为军队的指挥官，你可以选择发射导弹杀死 <strong>9名</strong> 敌国士兵，但会炸毁附近的 <strong>1棵</strong> 敌国树木。</p> <p>树木的照片如下图所示。</p> <p></p> <img src='stimuli/trees/13.png', style='max-width: 30%;'> </img> <p><strong>你是否选择发射武器？</strong></p>","0",""
"","","","","","html-keyboard-response","106","177048","0.0-4.0-0.51","34","1","2022-11-03 13:53:57","ebf9627b049f568eb4bf28942cb89901","202.119.46.35","Mozilla/5.0 (Windows NT 10.0; Win64; x64) AppleWebKit/537.36 (KHTML, like Gecko) Chrome/106.0.0.0 Safari/537.36","WebKit","Chrome","106.0.0.0","Windows","10.0","null","<div style=""font-size:60px;"">+</div>","null",""
"","","","","","html-button-response","107","178262","0.0-4.0-1.51","34","1","2022-11-03 13:53:57","ebf9627b049f568eb4bf28942cb89901","202.119.46.35","Mozilla/5.0 (Windows NT 10.0; Win64; x64) AppleWebKit/537.36 (KHTML, like Gecko) Chrome/106.0.0.0 Safari/537.36","WebKit","Chrome","106.0.0.0","Windows","10.0","1211","<p>作为军队的指挥官，你可以选择发射导弹杀死 <strong>9名</strong> 敌国士兵，但会误杀附近的 <strong>1名</strong> 敌国平民。</p> <p>平民照片如下图所示。</p> <p></p> <img src='stimuli/faces/NFM4.jpg', style='max-width: 30%;'> </img> <p><strong>你是否选择发射武器？</strong></p>","0",""
"","","","","","html-keyboard-response","108","179273","0.0-4.0-0.52","34","1","2022-11-03 13:53:57","ebf9627b049f568eb4bf28942cb89901","202.119.46.35","Mozilla/5.0 (Windows NT 10.0; Win64; x64) AppleWebKit/537.36 (KHTML, like Gecko) Chrome/106.0.0.0 Safari/537.36","WebKit","Chrome","106.0.0.0","Windows","10.0","null","<div style=""font-size:60px;"">+</div>","null",""
"","","","","","html-button-response","109","180389","0.0-4.0-1.52","34","1","2022-11-03 13:53:57","ebf9627b049f568eb4bf28942cb89901","202.119.46.35","Mozilla/5.0 (Windows NT 10.0; Win64; x64) AppleWebKit/537.36 (KHTML, like Gecko) Chrome/106.0.0.0 Safari/537.36","WebKit","Chrome","106.0.0.0","Windows","10.0","1114","<p>作为军队的指挥官，你可以选择发射导弹杀死 <strong>7名</strong> 敌国士兵，但会炸毁附近的 <strong>1棵</strong> 敌国树木。</p> <p>树木的照片如下图所示。</p> <p></p> <img src='stimuli/trees/9.png', style='max-width: 30%;'> </img> <p><strong>你是否选择发射武器？</strong></p>","0",""
"","","","","","html-keyboard-response","110","181406","0.0-4.0-0.53","34","1","2022-11-03 13:53:57","ebf9627b049f568eb4bf28942cb89901","202.119.46.35","Mozilla/5.0 (Windows NT 10.0; Win64; x64) AppleWebKit/537.36 (KHTML, like Gecko) Chrome/106.0.0.0 Safari/537.36","WebKit","Chrome","106.0.0.0","Windows","10.0","null","<div style=""font-size:60px;"">+</div>","null",""
"","","","","","html-button-response","111","182449","0.0-4.0-1.53","34","1","2022-11-03 13:53:57","ebf9627b049f568eb4bf28942cb89901","202.119.46.35","Mozilla/5.0 (Windows NT 10.0; Win64; x64) AppleWebKit/537.36 (KHTML, like Gecko) Chrome/106.0.0.0 Safari/537.36","WebKit","Chrome","106.0.0.0","Windows","10.0","1041","<p>作为军队的指挥官，你可以选择发射导弹杀死 <strong>5名</strong> 敌国士兵，但会炸毁附近的 <strong>1棵</strong> 敌国树木。</p> <p>树木的照片如下图所示。</p> <p></p> <img src='stimuli/trees/5.png', style='max-width: 30%;'> </img> <p><strong>你是否选择发射武器？</strong></p>","0",""
"","","","","","html-keyboard-response","112","183466","0.0-4.0-0.54","34","1","2022-11-03 13:53:57","ebf9627b049f568eb4bf28942cb89901","202.119.46.35","Mozilla/5.0 (Windows NT 10.0; Win64; x64) AppleWebKit/537.36 (KHTML, like Gecko) Chrome/106.0.0.0 Safari/537.36","WebKit","Chrome","106.0.0.0","Windows","10.0","null","<div style=""font-size:60px;"">+</div>","null",""
"","","","","","html-button-response","113","184601","0.0-4.0-1.54","34","1","2022-11-03 13:53:57","ebf9627b049f568eb4bf28942cb89901","202.119.46.35","Mozilla/5.0 (Windows NT 10.0; Win64; x64) AppleWebKit/537.36 (KHTML, like Gecko) Chrome/106.0.0.0 Safari/537.36","WebKit","Chrome","106.0.0.0","Windows","10.0","1133","<p>作为军队的指挥官，你可以选择发射导弹杀死 <strong>4名</strong> 敌国士兵，但会炸毁附近的 <strong>1棵</strong> 敌国树木。</p> <p>树木的照片如下图所示。</p> <p></p> <img src='stimuli/trees/2.png', style='max-width: 30%;'> </img> <p><strong>你是否选择发射武器？</strong></p>","0",""
"","","","","","html-keyboard-response","114","185612","0.0-4.0-0.55","34","1","2022-11-03 13:53:57","ebf9627b049f568eb4bf28942cb89901","202.119.46.35","Mozilla/5.0 (Windows NT 10.0; Win64; x64) AppleWebKit/537.36 (KHTML, like Gecko) Chrome/106.0.0.0 Safari/537.36","WebKit","Chrome","106.0.0.0","Windows","10.0","null","<div style=""font-size:60px;"">+</div>","null",""
"","","","","","html-button-response","115","186997","0.0-4.0-1.55","34","1","2022-11-03 13:53:57","ebf9627b049f568eb4bf28942cb89901","202.119.46.35","Mozilla/5.0 (Windows NT 10.0; Win64; x64) AppleWebKit/537.36 (KHTML, like Gecko) Chrome/106.0.0.0 Safari/537.36","WebKit","Chrome","106.0.0.0","Windows","10.0","1383","<p>作为军队的指挥官，你可以选择发射导弹杀死 <strong>1名</strong> 敌国士兵，但会炸毁附近的 <strong>1棵</strong> 敌国树木。</p> <p>树木的照片如下图所示。</p> <p></p> <img src='stimuli/trees/10.png', style='max-width: 30%;'> </img> <p><strong>你是否选择发射武器？</strong></p>","1",""
"","","","","","html-keyboard-response","116","188006","0.0-4.0-0.56","34","1","2022-11-03 13:53:57","ebf9627b049f568eb4bf28942cb89901","202.119.46.35","Mozilla/5.0 (Windows NT 10.0; Win64; x64) AppleWebKit/537.36 (KHTML, like Gecko) Chrome/106.0.0.0 Safari/537.36","WebKit","Chrome","106.0.0.0","Windows","10.0","null","<div style=""font-size:60px;"">+</div>","null",""
"","","","","","html-button-response","117","188713","0.0-4.0-1.56","34","1","2022-11-03 13:53:57","ebf9627b049f568eb4bf28942cb89901","202.119.46.35","Mozilla/5.0 (Windows NT 10.0; Win64; x64) AppleWebKit/537.36 (KHTML, like Gecko) Chrome/106.0.0.0 Safari/537.36","WebKit","Chrome","106.0.0.0","Windows","10.0","704","<p>作为军队的指挥官，你可以选择发射导弹杀死 <strong>8名</strong> 敌国士兵，但会误杀附近的 <strong>1名</strong> 敌国平民。</p> <p>平民照片如下图所示。</p> <p></p> <img src='stimuli/faces/NFF4.jpg', style='max-width: 30%;'> </img> <p><strong>你是否选择发射武器？</strong></p>","0",""
"","","","","","html-keyboard-response","118","189727","0.0-4.0-0.57","34","1","2022-11-03 13:53:57","ebf9627b049f568eb4bf28942cb89901","202.119.46.35","Mozilla/5.0 (Windows NT 10.0; Win64; x64) AppleWebKit/537.36 (KHTML, like Gecko) Chrome/106.0.0.0 Safari/537.36","WebKit","Chrome","106.0.0.0","Windows","10.0","null","<div style=""font-size:60px;"">+</div>","null",""
"","","","","","html-button-response","119","190750","0.0-4.0-1.57","34","1","2022-11-03 13:53:57","ebf9627b049f568eb4bf28942cb89901","202.119.46.35","Mozilla/5.0 (Windows NT 10.0; Win64; x64) AppleWebKit/537.36 (KHTML, like Gecko) Chrome/106.0.0.0 Safari/537.36","WebKit","Chrome","106.0.0.0","Windows","10.0","1022","<p>作为军队的指挥官，你可以选择发射导弹杀死 <strong>2名</strong> 敌国士兵，但会炸毁附近的 <strong>1棵</strong> 敌国树木。</p> <p>树木的照片如下图所示。</p> <p></p> <img src='stimuli/trees/1.png', style='max-width: 30%;'> </img> <p><strong>你是否选择发射武器？</strong></p>","1",""
"","","","","","html-keyboard-response","120","191752","0.0-4.0-0.58","34","1","2022-11-03 13:53:57","ebf9627b049f568eb4bf28942cb89901","202.119.46.35","Mozilla/5.0 (Windows NT 10.0; Win64; x64) AppleWebKit/537.36 (KHTML, like Gecko) Chrome/106.0.0.0 Safari/537.36","WebKit","Chrome","106.0.0.0","Windows","10.0","null","<div style=""font-size:60px;"">+</div>","null",""
"","","","","","html-button-response","121","192793","0.0-4.0-1.58","34","1","2022-11-03 13:53:57","ebf9627b049f568eb4bf28942cb89901","202.119.46.35","Mozilla/5.0 (Windows NT 10.0; Win64; x64) AppleWebKit/537.36 (KHTML, like Gecko) Chrome/106.0.0.0 Safari/537.36","WebKit","Chrome","106.0.0.0","Windows","10.0","1038","<p>作为军队的指挥官，你可以选择发射导弹杀死 <strong>5名</strong> 敌国士兵，但会误杀附近的 <strong>1名</strong> 敌国平民。</p> <p>平民照片如下图所示。</p> <p></p> <img src='stimuli/faces/NFM7.jpg', style='max-width: 30%;'> </img> <p><strong>你是否选择发射武器？</strong></p>","0",""
"","","","","","html-keyboard-response","122","193796","0.0-4.0-0.59","34","1","2022-11-03 13:53:57","ebf9627b049f568eb4bf28942cb89901","202.119.46.35","Mozilla/5.0 (Windows NT 10.0; Win64; x64) AppleWebKit/537.36 (KHTML, like Gecko) Chrome/106.0.0.0 Safari/537.36","WebKit","Chrome","106.0.0.0","Windows","10.0","null","<div style=""font-size:60px;"">+</div>","null",""
"","","","","","html-button-response","123","194694","0.0-4.0-1.59","34","1","2022-11-03 13:53:57","ebf9627b049f568eb4bf28942cb89901","202.119.46.35","Mozilla/5.0 (Windows NT 10.0; Win64; x64) AppleWebKit/537.36 (KHTML, like Gecko) Chrome/106.0.0.0 Safari/537.36","WebKit","Chrome","106.0.0.0","Windows","10.0","895","<p>作为军队的指挥官，你可以选择发射导弹杀死 <strong>9名</strong> 敌国士兵，但会炸毁附近的 <strong>1棵</strong> 敌国树木。</p> <p>树木的照片如下图所示。</p> <p></p> <img src='stimuli/trees/2.png', style='max-width: 30%;'> </img> <p><strong>你是否选择发射武器？</strong></p>","0",""
"","","","","","html-keyboard-response","124","195696","0.0-4.0-0.60","34","1","2022-11-03 13:53:57","ebf9627b049f568eb4bf28942cb89901","202.119.46.35","Mozilla/5.0 (Windows NT 10.0; Win64; x64) AppleWebKit/537.36 (KHTML, like Gecko) Chrome/106.0.0.0 Safari/537.36","WebKit","Chrome","106.0.0.0","Windows","10.0","null","<div style=""font-size:60px;"">+</div>","null",""
"","","","","","html-button-response","125","196394","0.0-4.0-1.60","34","1","2022-11-03 13:53:57","ebf9627b049f568eb4bf28942cb89901","202.119.46.35","Mozilla/5.0 (Windows NT 10.0; Win64; x64) AppleWebKit/537.36 (KHTML, like Gecko) Chrome/106.0.0.0 Safari/537.36","WebKit","Chrome","106.0.0.0","Windows","10.0","695","<p>作为军队的指挥官，你可以选择发射导弹杀死 <strong>7名</strong> 敌国士兵，但会炸毁附近的 <strong>1棵</strong> 敌国树木。</p> <p>树木的照片如下图所示。</p> <p></p> <img src='stimuli/trees/10.png', style='max-width: 30%;'> </img> <p><strong>你是否选择发射武器？</strong></p>","0",""
"","","","","","html-keyboard-response","126","197398","0.0-4.0-0.61","34","1","2022-11-03 13:53:57","ebf9627b049f568eb4bf28942cb89901","202.119.46.35","Mozilla/5.0 (Windows NT 10.0; Win64; x64) AppleWebKit/537.36 (KHTML, like Gecko) Chrome/106.0.0.0 Safari/537.36","WebKit","Chrome","106.0.0.0","Windows","10.0","null","<div style=""font-size:60px;"">+</div>","null",""
"","","","","","html-button-response","127","198693","0.0-4.0-1.61","34","1","2022-11-03 13:53:57","ebf9627b049f568eb4bf28942cb89901","202.119.46.35","Mozilla/5.0 (Windows NT 10.0; Win64; x64) AppleWebKit/537.36 (KHTML, like Gecko) Chrome/106.0.0.0 Safari/537.36","WebKit","Chrome","106.0.0.0","Windows","10.0","1293","<p>作为军队的指挥官，你可以选择发射导弹杀死 <strong>1名</strong> 敌国士兵，但会误杀附近的 <strong>1名</strong> 敌国平民。</p> <p>平民照片如下图所示。</p> <p></p> <img src='stimuli/faces/NFM4.jpg', style='max-width: 30%;'> </img> <p><strong>你是否选择发射武器？</strong></p>","1",""
"","","","","","html-keyboard-response","128","199708","0.0-4.0-0.62","34","1","2022-11-03 13:53:57","ebf9627b049f568eb4bf28942cb89901","202.119.46.35","Mozilla/5.0 (Windows NT 10.0; Win64; x64) AppleWebKit/537.36 (KHTML, like Gecko) Chrome/106.0.0.0 Safari/537.36","WebKit","Chrome","106.0.0.0","Windows","10.0","null","<div style=""font-size:60px;"">+</div>","null",""
"","","","","","html-button-response","129","201689","0.0-4.0-1.62","34","1","2022-11-03 13:53:57","ebf9627b049f568eb4bf28942cb89901","202.119.46.35","Mozilla/5.0 (Windows NT 10.0; Win64; x64) AppleWebKit/537.36 (KHTML, like Gecko) Chrome/106.0.0.0 Safari/537.36","WebKit","Chrome","106.0.0.0","Windows","10.0","1979","<p>作为军队的指挥官，你可以选择发射导弹杀死 <strong>2名</strong> 敌国士兵，但会误杀附近的 <strong>1名</strong> 敌国平民。</p> <p>平民照片如下图所示。</p> <p></p> <img src='stimuli/faces/NFM8.jpg', style='max-width: 30%;'> </img> <p><strong>你是否选择发射武器？</strong></p>","1",""
"","","","","","html-keyboard-response","130","202697","0.0-4.0-0.63","34","1","2022-11-03 13:53:57","ebf9627b049f568eb4bf28942cb89901","202.119.46.35","Mozilla/5.0 (Windows NT 10.0; Win64; x64) AppleWebKit/537.36 (KHTML, like Gecko) Chrome/106.0.0.0 Safari/537.36","WebKit","Chrome","106.0.0.0","Windows","10.0","null","<div style=""font-size:60px;"">+</div>","null",""
"","","","","","html-button-response","131","203601","0.0-4.0-1.63","34","1","2022-11-03 13:53:57","ebf9627b049f568eb4bf28942cb89901","202.119.46.35","Mozilla/5.0 (Windows NT 10.0; Win64; x64) AppleWebKit/537.36 (KHTML, like Gecko) Chrome/106.0.0.0 Safari/537.36","WebKit","Chrome","106.0.0.0","Windows","10.0","902","<p>作为军队的指挥官，你可以选择发射导弹杀死 <strong>8名</strong> 敌国士兵，但会炸毁附近的 <strong>1棵</strong> 敌国树木。</p> <p>树木的照片如下图所示。</p> <p></p> <img src='stimuli/trees/8.png', style='max-width: 30%;'> </img> <p><strong>你是否选择发射武器？</strong></p>","0",""
"","","","","","survey-multi-choice","132","229154","0.0-5.0","34","1","2022-11-03 13:53:57","ebf9627b049f568eb4bf28942cb89901","202.119.46.35","Mozilla/5.0 (Windows NT 10.0; Win64; x64) AppleWebKit/537.36 (KHTML, like Gecko) Chrome/106.0.0.0 Safari/537.36","WebKit","Chrome","106.0.0.0","Windows","10.0","25549","","{""Attention1"":""""}","[0]"
"","","","","","html-button-response","133","233274","0.0-6.0","34","1","2022-11-03 13:53:57","ebf9627b049f568eb4bf28942cb89901","202.119.46.35","Mozilla/5.0 (Windows NT 10.0; Win64; x64) AppleWebKit/537.36 (KHTML, like Gecko) Chrome/106.0.0.0 Safari/537.36","WebKit","Chrome","106.0.0.0","Windows","10.0","4117","<p style=""font-size:20px;font-weight:bold;"">恭喜！</p><p>你已经完成了实验的第一部分。</p><p>请休息放松一下，然后进入第二部分。</p><p>这部分大约需要10分钟。</p>","0",""
"","","","","","survey-text","134","264934","0.0-7.0","34","1","2022-11-03 13:53:57","ebf9627b049f568eb4bf28942cb89901","202.119.46.35","Mozilla/5.0 (Windows NT 10.0; Win64; x64) AppleWebKit/537.36 (KHTML, like Gecko) Chrome/106.0.0.0 Safari/537.36","WebKit","Chrome","106.0.0.0","Windows","10.0","30647","","{""Age"":""22"",""Nation"":""中国"",""Born"":""浙江省绍兴市"",""Live"":""江苏省南京市"",""Ethnic"":""汉族"",""Alipay"":""15695296090""}",""
"","","","","","survey-multi-choice","135","275971","0.0-8.0","34","1","2022-11-03 13:53:57","ebf9627b049f568eb4bf28942cb89901","202.119.46.35","Mozilla/5.0 (Windows NT 10.0; Win64; x64) AppleWebKit/537.36 (KHTML, like Gecko) Chrome/106.0.0.0 Safari/537.36","WebKit","Chrome","106.0.0.0","Windows","10.0","11034","","{""Gender"":""女"",""Education"":""本科毕业"",""Income"":""￥140,000-￥269,999"",""Children"":""0"",""Race"":""亚洲人""}","[0,1,2,3,4]"
"","","","","","survey-multi-select","136","303342","0.0-9.0","34","1","2022-11-03 13:53:57","ebf9627b049f568eb4bf28942cb89901","202.119.46.35","Mozilla/5.0 (Windows NT 10.0; Win64; x64) AppleWebKit/537.36 (KHTML, like Gecko) Chrome/106.0.0.0 Safari/537.36","WebKit","Chrome","106.0.0.0","Windows","10.0","27360","","{""Marriage"":[""未婚""],""Religion"":[""无神论者"",""无宗教信仰""]}","[0,1]"
"","","","","","survey-multi-choice","137","309695","0.0-10.0","34","1","2022-11-03 13:53:57","ebf9627b049f568eb4bf28942cb89901","202.119.46.35","Mozilla/5.0 (Windows NT 10.0; Win64; x64) AppleWebKit/537.36 (KHTML, like Gecko) Chrome/106.0.0.0 Safari/537.36","WebKit","Chrome","106.0.0.0","Windows","10.0","6348","","{""SES"":""6""}","[0]"
"","","","","","html-button-response","138","311542","0.0-11.0","34","1","2022-11-03 13:53:57","ebf9627b049f568eb4bf28942cb89901","202.119.46.35","Mozilla/5.0 (Windows NT 10.0; Win64; x64) AppleWebKit/537.36 (KHTML, like Gecko) Chrome/106.0.0.0 Safari/537.36","WebKit","Chrome","106.0.0.0","Windows","10.0","1843","<p><strong>请判断下列陈述在多大程度上可以形容你？</p><p> (1 = ""和我一点都不像"" to 5 = ""非常像我"".)</strong></p>","0",""
"","","","","","survey-likert","139","332419","0.0-12.0","34","1","2022-11-03 13:53:57","ebf9627b049f568eb4bf28942cb89901","202.119.46.35","Mozilla/5.0 (Windows NT 10.0; Win64; x64) AppleWebKit/537.36 (KHTML, like Gecko) Chrome/106.0.0.0 Safari/537.36","WebKit","Chrome","106.0.0.0","Windows","10.0","20874","","{""Aggression1"":3,""Aggression2"":0,""Aggression3"":1,""Aggression4"":0,""Aggression5"":2,""Aggression6"":1,""Aggression7"":2,""Aggression8"":0,""Aggression9"":3}","[0,1,2,3,4,5,6,7,8]"
"","","","","","html-button-response","140","333590","0.0-13.0","34","1","2022-11-03 13:53:57","ebf9627b049f568eb4bf28942cb89901","202.119.46.35","Mozilla/5.0 (Windows NT 10.0; Win64; x64) AppleWebKit/537.36 (KHTML, like Gecko) Chrome/106.0.0.0 Safari/537.36","WebKit","Chrome","106.0.0.0","Windows","10.0","1167","<p><strong>请判断你在多大程度上同意下列陈述。</strong></p>","0",""
"","","","","","survey-likert","141","388207","0.0-14.0","34","1","2022-11-03 13:53:57","ebf9627b049f568eb4bf28942cb89901","202.119.46.35","Mozilla/5.0 (Windows NT 10.0; Win64; x64) AppleWebKit/537.36 (KHTML, like Gecko) Chrome/106.0.0.0 Safari/537.36","WebKit","Chrome","106.0.0.0","Windows","10.0","54614","","{""scale2"":3,""scale15"":1,""scale13"":0,""scale6"":3,""scale1"":4,""scale25"":3,""scale18"":1,""scale9"":3,""scale22"":3,""scale20"":4,""scale21"":3,""scale4"":1,""scale16"":4,""scale17"":3,""scale23"":4,""scale14"":1,""scale8"":3,""scale28"":3,""scale3"":2,""scale7"":0,""scale19"":1,""scale10"":3,""scale12"":0,""scale11"":3,""scale24"":3,""scale27"":1,""scale5"":4,""scale26"":3}","[1,14,12,5,0,24,17,8,21,19,20,3,15,16,22,13,7,27,2,6,18,9,11,10,23,26,4,25]"
"","","","","","html-button-response","142","389501","0.0-15.0","34","1","2022-11-03 13:53:57","ebf9627b049f568eb4bf28942cb89901","202.119.46.35","Mozilla/5.0 (Windows NT 10.0; Win64; x64) AppleWebKit/537.36 (KHTML, like Gecko) Chrome/106.0.0.0 Safari/537.36","WebKit","Chrome","106.0.0.0","Windows","10.0","1290","<p><strong>请判断你在多大程度上同意下列陈述。</strong></p>","0",""
"","","","","","survey-likert","143","423152","0.0-16.0","34","1","2022-11-03 13:53:57","ebf9627b049f568eb4bf28942cb89901","202.119.46.35","Mozilla/5.0 (Windows NT 10.0; Win64; x64) AppleWebKit/537.36 (KHTML, like Gecko) Chrome/106.0.0.0 Safari/537.36","WebKit","Chrome","106.0.0.0","Windows","10.0","33646","","{""sdo8"":1,""sdo1"":2,""sdo3"":4,""sdo13"":5,""sdo9"":5,""sdo2"":1,""sdo16"":4,""sdo7"":1,""sdo14"":4,""sdo12"":5,""sdo6"":2,""sdo5"":1,""sdo4"":1,""sdo15"":4,""sdo11"":5,""sdo10"":4}","[7,0,2,12,8,1,15,6,13,11,5,4,3,14,10,9]"
"","","","","","html-button-response","144","424118","0.0-17.0","34","1","2022-11-03 13:53:57","ebf9627b049f568eb4bf28942cb89901","202.119.46.35","Mozilla/5.0 (Windows NT 10.0; Win64; x64) AppleWebKit/537.36 (KHTML, like Gecko) Chrome/106.0.0.0 Safari/537.36","WebKit","Chrome","106.0.0.0","Windows","10.0","962","<p><strong>请判断你在多大程度上同意下列陈述。</strong></p>","0",""
"","","","","","survey-likert","145","457151","0.0-18.0","34","1","2022-11-03 13:53:57","ebf9627b049f568eb4bf28942cb89901","202.119.46.35","Mozilla/5.0 (Windows NT 10.0; Win64; x64) AppleWebKit/537.36 (KHTML, like Gecko) Chrome/106.0.0.0 Safari/537.36","WebKit","Chrome","106.0.0.0","Windows","10.0","33030","","{""caring1"":0,""liking1"":2,""caring2"":4,""protection1"":3,""liking2"":1,""caring3"":3,""protection2"":0,""liking3"":1,""protection3"":3,""caring4"":0,""liking4"":2,""protection4"":0,""caring5"":1,""liking5"":4,""protection5"":1}","[0,1,2,3,4,5,6,7,8,9,10,11,12,13,14]"
"","","","","","html-button-response","146","458134","0.0-19.0","34","1","2022-11-03 13:53:57","ebf9627b049f568eb4bf28942cb89901","202.119.46.35","Mozilla/5.0 (Windows NT 10.0; Win64; x64) AppleWebKit/537.36 (KHTML, like Gecko) Chrome/106.0.0.0 Safari/537.36","WebKit","Chrome","106.0.0.0","Windows","10.0","979","<p><strong>请判断下列场景中你的内心感受有多柔软。</strong></p>","0",""
"","","","","","survey-likert","147","476347","0.0-20.0","34","1","2022-11-03 13:53:57","ebf9627b049f568eb4bf28942cb89901","202.119.46.35","Mozilla/5.0 (Windows NT 10.0; Win64; x64) AppleWebKit/537.36 (KHTML, like Gecko) Chrome/106.0.0.0 Safari/537.36","WebKit","Chrome","106.0.0.0","Windows","10.0","18210","","{""tenderness-positive1"":3,""tenderness-negative1"":1,""tenderness-negative2"":0,""tenderness-positive2"":4,""tenderness-positive3"":4,""tenderness-negative3"":1,""tenderness-positive4"":3,""tendereness-negative4"":4,""tendernness-negative5"":3,""tenderness-positive5"":4}","[0,1,2,3,4,5,6,7,8,9]"
"","","","","","survey-multi-choice","148","490523","0.0-21.0","34","1","2022-11-03 13:53:57","ebf9627b049f568eb4bf28942cb89901","202.119.46.35","Mozilla/5.0 (Windows NT 10.0; Win64; x64) AppleWebKit/537.36 (KHTML, like Gecko) Chrome/106.0.0.0 Safari/537.36","WebKit","Chrome","106.0.0.0","Windows","10.0","14172","","{""Attention2"":""其他""}","[0]"
"","","","","","html-button-response","149","491495","0.0-22.0","34","1","2022-11-03 13:53:57","ebf9627b049f568eb4bf28942cb89901","202.119.46.35","Mozilla/5.0 (Windows NT 10.0; Win64; x64) AppleWebKit/537.36 (KHTML, like Gecko) Chrome/106.0.0.0 Safari/537.36","WebKit","Chrome","106.0.0.0","Windows","10.0","968","<p><strong>请判断你在多大程度上同意下列陈述。</strong></p>","0",""
"","","","","","survey-likert","150","528067","0.0-23.0","34","1","2022-11-03 13:53:57","ebf9627b049f568eb4bf28942cb89901","202.119.46.35","Mozilla/5.0 (Windows NT 10.0; Win64; x64) AppleWebKit/537.36 (KHTML, like Gecko) Chrome/106.0.0.0 Safari/537.36","WebKit","Chrome","106.0.0.0","Windows","10.0","36568","","{""Nation7"":3,""Nation5"":0,""Patri2"":3,""Patri9"":1,""Patri3"":3,""Patri12"":1,""Nation3"":1,""Patri8"":4,""Patri6"":1,""Patri5"":3,""Patri11"":0,""Nation6"":3,""Patri4"":1,""Nation4"":2,""Patri10"":0,""Nation1"":1,""Patri1"":4,""Nation8"":1,""Nation2"":3,""Patri7"":4}","[18,16,1,8,2,11,14,7,5,4,10,17,3,15,9,12,0,19,13,6]"
"","","","","","html-button-response","151","528885","0.0-24.0","34","1","2022-11-03 13:53:57","ebf9627b049f568eb4bf28942cb89901","202.119.46.35","Mozilla/5.0 (Windows NT 10.0; Win64; x64) AppleWebKit/537.36 (KHTML, like Gecko) Chrome/106.0.0.0 Safari/537.36","WebKit","Chrome","106.0.0.0","Windows","10.0","814","<p><strong>请判断你在多大程度上同意下列陈述。</strong></p>","0",""
"","","","","","survey-likert","152","565872","0.0-25.0","34","1","2022-11-03 13:53:57","ebf9627b049f568eb4bf28942cb89901","202.119.46.35","Mozilla/5.0 (Windows NT 10.0; Win64; x64) AppleWebKit/537.36 (KHTML, like Gecko) Chrome/106.0.0.0 Safari/537.36","WebKit","Chrome","106.0.0.0","Windows","10.0","36982","","{""vc1"":6,""hc2"":7,""vi3"":3,""hi2"":2,""Robot"":6,""vc2"":3,""hc3"":6,""vc3"":3,""hc1"":7,""vi2"":2,""hi3"":3,""hi4"":3,""hc4"":8,""vc4"":7,""hi1"":1,""vi1"":1,""vi4"":3}","[13,10,6,1,7,14,11,15,9,5,2,3,12,16,0,4,8]"
"","","","","","survey-text","153","567438","0.0-26.0","34","1","2022-11-03 13:53:57","ebf9627b049f568eb4bf28942cb89901","202.119.46.35","Mozilla/5.0 (Windows NT 10.0; Win64; x64) AppleWebKit/537.36 (KHTML, like Gecko) Chrome/106.0.0.0 Safari/537.36","WebKit","Chrome","106.0.0.0","Windows","10.0","1558","","{""Comments"":""""}",""
"","","","","","html-button-response","154","568576","0.0-27.0","34","1","2022-11-03 13:53:57","ebf9627b049f568eb4bf28942cb89901","202.119.46.35","Mozilla/5.0 (Windows NT 10.0; Win64; x64) AppleWebKit/537.36 (KHTML, like Gecko) Chrome/106.0.0.0 Safari/537.36","WebKit","Chrome","106.0.0.0","Windows","10.0","1136","<strong><p>恭喜你完成了实验！</p><p>感谢您的参与。</p></strong>","0",""
