"success","timeout","failed_images","failed_audio","failed_video","trial_type","trial_index","time_elapsed","internal_node_id","run_id","condition","recorded_at","source_code_version","ip","user_agent","device","browser","browser_version","platform","platform_version","rt","stimulus","response","question_order"
"true","false","[]","[]","[]","preload","0","2879","0.0-0.0","35","1","2022-11-03 14:19:18","ebf9627b049f568eb4bf28942cb89901","219.142.99.22","Mozilla/5.0 (Windows NT 10.0; Win64; x64) AppleWebKit/537.36 (KHTML, like Gecko) Chrome/107.0.0.0 Safari/537.36 Edg/107.0.1418.26","WebKit","Edge","107.0.1418.26","Windows","10.0","","","",""
"true","","","","","fullscreen","1","6015","0.0-1.0","35","1","2022-11-03 14:19:18","ebf9627b049f568eb4bf28942cb89901","219.142.99.22","Mozilla/5.0 (Windows NT 10.0; Win64; x64) AppleWebKit/537.36 (KHTML, like Gecko) Chrome/107.0.0.0 Safari/537.36 Edg/107.0.1418.26","WebKit","Edge","107.0.1418.26","Windows","10.0","","","",""
"","","","","","html-button-response","2","16065","0.0-2.0","35","1","2022-11-03 14:19:18","ebf9627b049f568eb4bf28942cb89901","219.142.99.22","Mozilla/5.0 (Windows NT 10.0; Win64; x64) AppleWebKit/537.36 (KHTML, like Gecko) Chrome/107.0.0.0 Safari/537.36 Edg/107.0.1418.26","WebKit","Edge","107.0.1418.26","Windows","10.0","10048","<p style=""font-size:20px;font-weight:bold;"">实验知情同意书</p><p style=""text-align:left;""><strong>实验名称：</strong>社会冲突研究</p><p style=""text-align:left;""><strong>主要研究者：</strong>韩晓春副教授（北京师范大学心理学部）</p><p style=""text-align:left;""><strong>联系方式：</strong>发送邮件至xiaochun.han@bnu.edu.cn</p><p style=""text-align:left;""><strong>研究目的：</strong>研究旨在了解人类面对群体冲突时的决策方式，以及相关的心理学特质。实验调查大约需要20分钟。</p><p style=""text-align:left;""><strong>实验流程：</strong>实验包含两部分。第一部分呈现一系列群体冲突场景，请你决定如何对这些冲突进行反应，大约需要10分钟完成。第二部分包含一系列人口统计学信息收集和心理学问卷，大约需要10分钟完成。</p><p style=""text-align:left;""><strong>参加及退出规则：</strong>参加本实验完全取决于您的个人意愿。在参与过程中，您可以随时退出，并且不用承担任何后果。</p><p style=""text-align:left;""><strong>隐私：</strong>本实验完全匿名进行，不会收集您的姓名或其他能够识别您身份的信息。实验中收集的作答仅用作科学研究使用，可能会在学术期刊/书籍上发表，或者用于教学，您的数据未来可能会和其他研究者或实验室分享，但您的个人身份不会被识别。</p><p style=""text-align:left;""><strong>实验报酬：</strong>实验完成后，您将获得15元人民币报酬，以感谢您的时间和努力。调查问卷中包含几道题目用以测验您作答时的认真度。只有完成全部实验，并且正确回答认真度测验的被试才能获得实验报酬。实验报酬将通过支付宝转账发放。</p><p style=""text-align:left;font-size:20px;""><strong>如果您同意以上实验知情同意书的内容，请点击'同意并且开始实验'按钮；否则请关闭浏览器界面，退出实验。</strong></p>","0",""
"","","","","","html-button-response","3","21626","0.0-3.0","35","1","2022-11-03 14:19:18","ebf9627b049f568eb4bf28942cb89901","219.142.99.22","Mozilla/5.0 (Windows NT 10.0; Win64; x64) AppleWebKit/537.36 (KHTML, like Gecko) Chrome/107.0.0.0 Safari/537.36 Edg/107.0.1418.26","WebKit","Edge","107.0.1418.26","Windows","10.0","5559","<p ><strong>实验任务一：</strong></p><p>请想象你的国家与另一个国家发生了军事冲突。</p><p>你是国家军队的指挥官，你将如何在冲突中进行决策。</p><p>具体来说，作为军队指挥官，请你决定是否发射导弹进行打击。</p><p>接下来，你会面对一系列场景，请仔细阅读每个场景，然后进行决策。</p><p>这部分实验任务大约需要10分钟。</p><p><strong>实验过程中，请集中注意力。</strong></p>","0",""
"","","","","","html-keyboard-response","4","22630","0.0-4.0-0.0","35","1","2022-11-03 14:19:18","ebf9627b049f568eb4bf28942cb89901","219.142.99.22","Mozilla/5.0 (Windows NT 10.0; Win64; x64) AppleWebKit/537.36 (KHTML, like Gecko) Chrome/107.0.0.0 Safari/537.36 Edg/107.0.1418.26","WebKit","Edge","107.0.1418.26","Windows","10.0","null","<div style=""font-size:60px;"">+</div>","null",""
"","","","","","html-button-response","5","31983","0.0-4.0-1.0","35","1","2022-11-03 14:19:18","ebf9627b049f568eb4bf28942cb89901","219.142.99.22","Mozilla/5.0 (Windows NT 10.0; Win64; x64) AppleWebKit/537.36 (KHTML, like Gecko) Chrome/107.0.0.0 Safari/537.36 Edg/107.0.1418.26","WebKit","Edge","107.0.1418.26","Windows","10.0","9350","<p>作为军队的指挥官，你可以选择发射导弹杀死 <strong>3名</strong> 敌国士兵，但会误杀附近的 <strong>1名</strong> 敌国平民。</p> <p>平民照片如下图所示。</p> <p></p> <img src='stimuli/faces/NFM3.jpg', style='max-width: 30%;'> </img> <p><strong>你是否选择发射武器？</strong></p>","1",""
"","","","","","html-keyboard-response","6","32991","0.0-4.0-0.1","35","1","2022-11-03 14:19:18","ebf9627b049f568eb4bf28942cb89901","219.142.99.22","Mozilla/5.0 (Windows NT 10.0; Win64; x64) AppleWebKit/537.36 (KHTML, like Gecko) Chrome/107.0.0.0 Safari/537.36 Edg/107.0.1418.26","WebKit","Edge","107.0.1418.26","Windows","10.0","null","<div style=""font-size:60px;"">+</div>","null",""
"","","","","","html-button-response","7","34970","0.0-4.0-1.1","35","1","2022-11-03 14:19:18","ebf9627b049f568eb4bf28942cb89901","219.142.99.22","Mozilla/5.0 (Windows NT 10.0; Win64; x64) AppleWebKit/537.36 (KHTML, like Gecko) Chrome/107.0.0.0 Safari/537.36 Edg/107.0.1418.26","WebKit","Edge","107.0.1418.26","Windows","10.0","1976","<p>作为军队的指挥官，你可以选择发射导弹杀死 <strong>2名</strong> 敌国士兵，但会误杀附近的 <strong>1名</strong> 敌国平民。</p> <p>平民照片如下图所示。</p> <p></p> <img src='stimuli/faces/NFF8.jpg', style='max-width: 30%;'> </img> <p><strong>你是否选择发射武器？</strong></p>","1",""
"","","","","","html-keyboard-response","8","35978","0.0-4.0-0.2","35","1","2022-11-03 14:19:18","ebf9627b049f568eb4bf28942cb89901","219.142.99.22","Mozilla/5.0 (Windows NT 10.0; Win64; x64) AppleWebKit/537.36 (KHTML, like Gecko) Chrome/107.0.0.0 Safari/537.36 Edg/107.0.1418.26","WebKit","Edge","107.0.1418.26","Windows","10.0","null","<div style=""font-size:60px;"">+</div>","null",""
"","","","","","html-button-response","9","38407","0.0-4.0-1.2","35","1","2022-11-03 14:19:18","ebf9627b049f568eb4bf28942cb89901","219.142.99.22","Mozilla/5.0 (Windows NT 10.0; Win64; x64) AppleWebKit/537.36 (KHTML, like Gecko) Chrome/107.0.0.0 Safari/537.36 Edg/107.0.1418.26","WebKit","Edge","107.0.1418.26","Windows","10.0","2427","<p>作为军队的指挥官，你可以选择发射导弹杀死 <strong>10名</strong> 敌国士兵，但会炸毁附近的 <strong>1棵</strong> 敌国树木。</p> <p>树木的照片如下图所示。</p> <p></p> <img src='stimuli/trees/13.png', style='max-width: 30%;'> </img> <p><strong>你是否选择发射武器？</strong></p>","0",""
"","","","","","html-keyboard-response","10","39434","0.0-4.0-0.3","35","1","2022-11-03 14:19:18","ebf9627b049f568eb4bf28942cb89901","219.142.99.22","Mozilla/5.0 (Windows NT 10.0; Win64; x64) AppleWebKit/537.36 (KHTML, like Gecko) Chrome/107.0.0.0 Safari/537.36 Edg/107.0.1418.26","WebKit","Edge","107.0.1418.26","Windows","10.0","null","<div style=""font-size:60px;"">+</div>","null",""
"","","","","","html-button-response","11","43095","0.0-4.0-1.3","35","1","2022-11-03 14:19:18","ebf9627b049f568eb4bf28942cb89901","219.142.99.22","Mozilla/5.0 (Windows NT 10.0; Win64; x64) AppleWebKit/537.36 (KHTML, like Gecko) Chrome/107.0.0.0 Safari/537.36 Edg/107.0.1418.26","WebKit","Edge","107.0.1418.26","Windows","10.0","3659","<p>作为军队的指挥官，你可以选择发射导弹杀死 <strong>4名</strong> 敌国士兵，但会炸毁附近的 <strong>1棵</strong> 敌国树木。</p> <p>树木的照片如下图所示。</p> <p></p> <img src='stimuli/trees/9.png', style='max-width: 30%;'> </img> <p><strong>你是否选择发射武器？</strong></p>","0",""
"","","","","","html-keyboard-response","12","44106","0.0-4.0-0.4","35","1","2022-11-03 14:19:18","ebf9627b049f568eb4bf28942cb89901","219.142.99.22","Mozilla/5.0 (Windows NT 10.0; Win64; x64) AppleWebKit/537.36 (KHTML, like Gecko) Chrome/107.0.0.0 Safari/537.36 Edg/107.0.1418.26","WebKit","Edge","107.0.1418.26","Windows","10.0","null","<div style=""font-size:60px;"">+</div>","null",""
"","","","","","html-button-response","13","50103","0.0-4.0-1.4","35","1","2022-11-03 14:19:18","ebf9627b049f568eb4bf28942cb89901","219.142.99.22","Mozilla/5.0 (Windows NT 10.0; Win64; x64) AppleWebKit/537.36 (KHTML, like Gecko) Chrome/107.0.0.0 Safari/537.36 Edg/107.0.1418.26","WebKit","Edge","107.0.1418.26","Windows","10.0","5995","<p>作为军队的指挥官，你可以选择发射导弹杀死 <strong>1名</strong> 敌国士兵，但会误杀附近的 <strong>1名</strong> 敌国平民。</p> <p>平民照片如下图所示。</p> <p></p> <img src='stimuli/faces/NFM6.jpg', style='max-width: 30%;'> </img> <p><strong>你是否选择发射武器？</strong></p>","1",""
"","","","","","html-keyboard-response","14","51105","0.0-4.0-0.5","35","1","2022-11-03 14:19:18","ebf9627b049f568eb4bf28942cb89901","219.142.99.22","Mozilla/5.0 (Windows NT 10.0; Win64; x64) AppleWebKit/537.36 (KHTML, like Gecko) Chrome/107.0.0.0 Safari/537.36 Edg/107.0.1418.26","WebKit","Edge","107.0.1418.26","Windows","10.0","null","<div style=""font-size:60px;"">+</div>","null",""
"","","","","","html-button-response","15","53950","0.0-4.0-1.5","35","1","2022-11-03 14:19:18","ebf9627b049f568eb4bf28942cb89901","219.142.99.22","Mozilla/5.0 (Windows NT 10.0; Win64; x64) AppleWebKit/537.36 (KHTML, like Gecko) Chrome/107.0.0.0 Safari/537.36 Edg/107.0.1418.26","WebKit","Edge","107.0.1418.26","Windows","10.0","2843","<p>作为军队的指挥官，你可以选择发射导弹杀死 <strong>5名</strong> 敌国士兵，但会误杀附近的 <strong>1名</strong> 敌国平民。</p> <p>平民照片如下图所示。</p> <p></p> <img src='stimuli/faces/NFM2.jpg', style='max-width: 30%;'> </img> <p><strong>你是否选择发射武器？</strong></p>","1",""
"","","","","","html-keyboard-response","16","54964","0.0-4.0-0.6","35","1","2022-11-03 14:19:18","ebf9627b049f568eb4bf28942cb89901","219.142.99.22","Mozilla/5.0 (Windows NT 10.0; Win64; x64) AppleWebKit/537.36 (KHTML, like Gecko) Chrome/107.0.0.0 Safari/537.36 Edg/107.0.1418.26","WebKit","Edge","107.0.1418.26","Windows","10.0","null","<div style=""font-size:60px;"">+</div>","null",""
"","","","","","html-button-response","17","56599","0.0-4.0-1.6","35","1","2022-11-03 14:19:18","ebf9627b049f568eb4bf28942cb89901","219.142.99.22","Mozilla/5.0 (Windows NT 10.0; Win64; x64) AppleWebKit/537.36 (KHTML, like Gecko) Chrome/107.0.0.0 Safari/537.36 Edg/107.0.1418.26","WebKit","Edge","107.0.1418.26","Windows","10.0","1632","<p>作为军队的指挥官，你可以选择发射导弹杀死 <strong>8名</strong> 敌国士兵，但会误杀附近的 <strong>1名</strong> 敌国平民。</p> <p>平民照片如下图所示。</p> <p></p> <img src='stimuli/faces/NFM1.jpg', style='max-width: 30%;'> </img> <p><strong>你是否选择发射武器？</strong></p>","1",""
"","","","","","html-keyboard-response","18","57610","0.0-4.0-0.7","35","1","2022-11-03 14:19:18","ebf9627b049f568eb4bf28942cb89901","219.142.99.22","Mozilla/5.0 (Windows NT 10.0; Win64; x64) AppleWebKit/537.36 (KHTML, like Gecko) Chrome/107.0.0.0 Safari/537.36 Edg/107.0.1418.26","WebKit","Edge","107.0.1418.26","Windows","10.0","null","<div style=""font-size:60px;"">+</div>","null",""
"","","","","","html-button-response","19","59271","0.0-4.0-1.7","35","1","2022-11-03 14:19:18","ebf9627b049f568eb4bf28942cb89901","219.142.99.22","Mozilla/5.0 (Windows NT 10.0; Win64; x64) AppleWebKit/537.36 (KHTML, like Gecko) Chrome/107.0.0.0 Safari/537.36 Edg/107.0.1418.26","WebKit","Edge","107.0.1418.26","Windows","10.0","1659","<p>作为军队的指挥官，你可以选择发射导弹杀死 <strong>4名</strong> 敌国士兵，但会误杀附近的 <strong>1名</strong> 敌国平民。</p> <p>平民照片如下图所示。</p> <p></p> <img src='stimuli/faces/NFM4.jpg', style='max-width: 30%;'> </img> <p><strong>你是否选择发射武器？</strong></p>","1",""
"","","","","","html-keyboard-response","20","60280","0.0-4.0-0.8","35","1","2022-11-03 14:19:18","ebf9627b049f568eb4bf28942cb89901","219.142.99.22","Mozilla/5.0 (Windows NT 10.0; Win64; x64) AppleWebKit/537.36 (KHTML, like Gecko) Chrome/107.0.0.0 Safari/537.36 Edg/107.0.1418.26","WebKit","Edge","107.0.1418.26","Windows","10.0","null","<div style=""font-size:60px;"">+</div>","null",""
"","","","","","html-button-response","21","63797","0.0-4.0-1.8","35","1","2022-11-03 14:19:18","ebf9627b049f568eb4bf28942cb89901","219.142.99.22","Mozilla/5.0 (Windows NT 10.0; Win64; x64) AppleWebKit/537.36 (KHTML, like Gecko) Chrome/107.0.0.0 Safari/537.36 Edg/107.0.1418.26","WebKit","Edge","107.0.1418.26","Windows","10.0","3515","<p>作为军队的指挥官，你可以选择发射导弹杀死 <strong>8名</strong> 敌国士兵，但会炸毁附近的 <strong>1棵</strong> 敌国树木。</p> <p>树木的照片如下图所示。</p> <p></p> <img src='stimuli/trees/11.png', style='max-width: 30%;'> </img> <p><strong>你是否选择发射武器？</strong></p>","0",""
"","","","","","html-keyboard-response","22","64820","0.0-4.0-0.9","35","1","2022-11-03 14:19:18","ebf9627b049f568eb4bf28942cb89901","219.142.99.22","Mozilla/5.0 (Windows NT 10.0; Win64; x64) AppleWebKit/537.36 (KHTML, like Gecko) Chrome/107.0.0.0 Safari/537.36 Edg/107.0.1418.26","WebKit","Edge","107.0.1418.26","Windows","10.0","null","<div style=""font-size:60px;"">+</div>","null",""
"","","","","","html-button-response","23","66856","0.0-4.0-1.9","35","1","2022-11-03 14:19:18","ebf9627b049f568eb4bf28942cb89901","219.142.99.22","Mozilla/5.0 (Windows NT 10.0; Win64; x64) AppleWebKit/537.36 (KHTML, like Gecko) Chrome/107.0.0.0 Safari/537.36 Edg/107.0.1418.26","WebKit","Edge","107.0.1418.26","Windows","10.0","2032","<p>作为军队的指挥官，你可以选择发射导弹杀死 <strong>1名</strong> 敌国士兵，但会炸毁附近的 <strong>1棵</strong> 敌国树木。</p> <p>树木的照片如下图所示。</p> <p></p> <img src='stimuli/trees/8.png', style='max-width: 30%;'> </img> <p><strong>你是否选择发射武器？</strong></p>","0",""
"","","","","","html-keyboard-response","24","67871","0.0-4.0-0.10","35","1","2022-11-03 14:19:18","ebf9627b049f568eb4bf28942cb89901","219.142.99.22","Mozilla/5.0 (Windows NT 10.0; Win64; x64) AppleWebKit/537.36 (KHTML, like Gecko) Chrome/107.0.0.0 Safari/537.36 Edg/107.0.1418.26","WebKit","Edge","107.0.1418.26","Windows","10.0","null","<div style=""font-size:60px;"">+</div>","null",""
"","","","","","html-button-response","25","70246","0.0-4.0-1.10","35","1","2022-11-03 14:19:18","ebf9627b049f568eb4bf28942cb89901","219.142.99.22","Mozilla/5.0 (Windows NT 10.0; Win64; x64) AppleWebKit/537.36 (KHTML, like Gecko) Chrome/107.0.0.0 Safari/537.36 Edg/107.0.1418.26","WebKit","Edge","107.0.1418.26","Windows","10.0","2372","<p>作为军队的指挥官，你可以选择发射导弹杀死 <strong>10名</strong> 敌国士兵，但会误杀附近的 <strong>1名</strong> 敌国平民。</p> <p>平民照片如下图所示。</p> <p></p> <img src='stimuli/faces/NFM7.jpg', style='max-width: 30%;'> </img> <p><strong>你是否选择发射武器？</strong></p>","1",""
"","","","","","html-keyboard-response","26","71263","0.0-4.0-0.11","35","1","2022-11-03 14:19:18","ebf9627b049f568eb4bf28942cb89901","219.142.99.22","Mozilla/5.0 (Windows NT 10.0; Win64; x64) AppleWebKit/537.36 (KHTML, like Gecko) Chrome/107.0.0.0 Safari/537.36 Edg/107.0.1418.26","WebKit","Edge","107.0.1418.26","Windows","10.0","null","<div style=""font-size:60px;"">+</div>","null",""
"","","","","","html-button-response","27","73307","0.0-4.0-1.11","35","1","2022-11-03 14:19:18","ebf9627b049f568eb4bf28942cb89901","219.142.99.22","Mozilla/5.0 (Windows NT 10.0; Win64; x64) AppleWebKit/537.36 (KHTML, like Gecko) Chrome/107.0.0.0 Safari/537.36 Edg/107.0.1418.26","WebKit","Edge","107.0.1418.26","Windows","10.0","2041","<p>作为军队的指挥官，你可以选择发射导弹杀死 <strong>8名</strong> 敌国士兵，但会炸毁附近的 <strong>1棵</strong> 敌国树木。</p> <p>树木的照片如下图所示。</p> <p></p> <img src='stimuli/trees/4.png', style='max-width: 30%;'> </img> <p><strong>你是否选择发射武器？</strong></p>","0",""
"","","","","","html-keyboard-response","28","74314","0.0-4.0-0.12","35","1","2022-11-03 14:19:18","ebf9627b049f568eb4bf28942cb89901","219.142.99.22","Mozilla/5.0 (Windows NT 10.0; Win64; x64) AppleWebKit/537.36 (KHTML, like Gecko) Chrome/107.0.0.0 Safari/537.36 Edg/107.0.1418.26","WebKit","Edge","107.0.1418.26","Windows","10.0","null","<div style=""font-size:60px;"">+</div>","null",""
"","","","","","html-button-response","29","76189","0.0-4.0-1.12","35","1","2022-11-03 14:19:18","ebf9627b049f568eb4bf28942cb89901","219.142.99.22","Mozilla/5.0 (Windows NT 10.0; Win64; x64) AppleWebKit/537.36 (KHTML, like Gecko) Chrome/107.0.0.0 Safari/537.36 Edg/107.0.1418.26","WebKit","Edge","107.0.1418.26","Windows","10.0","1873","<p>作为军队的指挥官，你可以选择发射导弹杀死 <strong>6名</strong> 敌国士兵，但会炸毁附近的 <strong>1棵</strong> 敌国树木。</p> <p>树木的照片如下图所示。</p> <p></p> <img src='stimuli/trees/8.png', style='max-width: 30%;'> </img> <p><strong>你是否选择发射武器？</strong></p>","0",""
"","","","","","html-keyboard-response","30","77199","0.0-4.0-0.13","35","1","2022-11-03 14:19:18","ebf9627b049f568eb4bf28942cb89901","219.142.99.22","Mozilla/5.0 (Windows NT 10.0; Win64; x64) AppleWebKit/537.36 (KHTML, like Gecko) Chrome/107.0.0.0 Safari/537.36 Edg/107.0.1418.26","WebKit","Edge","107.0.1418.26","Windows","10.0","null","<div style=""font-size:60px;"">+</div>","null",""
"","","","","","html-button-response","31","78923","0.0-4.0-1.13","35","1","2022-11-03 14:19:18","ebf9627b049f568eb4bf28942cb89901","219.142.99.22","Mozilla/5.0 (Windows NT 10.0; Win64; x64) AppleWebKit/537.36 (KHTML, like Gecko) Chrome/107.0.0.0 Safari/537.36 Edg/107.0.1418.26","WebKit","Edge","107.0.1418.26","Windows","10.0","1722","<p>作为军队的指挥官，你可以选择发射导弹杀死 <strong>4名</strong> 敌国士兵，但会炸毁附近的 <strong>1棵</strong> 敌国树木。</p> <p>树木的照片如下图所示。</p> <p></p> <img src='stimuli/trees/5.png', style='max-width: 30%;'> </img> <p><strong>你是否选择发射武器？</strong></p>","0",""
"","","","","","html-keyboard-response","32","79946","0.0-4.0-0.14","35","1","2022-11-03 14:19:18","ebf9627b049f568eb4bf28942cb89901","219.142.99.22","Mozilla/5.0 (Windows NT 10.0; Win64; x64) AppleWebKit/537.36 (KHTML, like Gecko) Chrome/107.0.0.0 Safari/537.36 Edg/107.0.1418.26","WebKit","Edge","107.0.1418.26","Windows","10.0","null","<div style=""font-size:60px;"">+</div>","null",""
"","","","","","html-button-response","33","82052","0.0-4.0-1.14","35","1","2022-11-03 14:19:18","ebf9627b049f568eb4bf28942cb89901","219.142.99.22","Mozilla/5.0 (Windows NT 10.0; Win64; x64) AppleWebKit/537.36 (KHTML, like Gecko) Chrome/107.0.0.0 Safari/537.36 Edg/107.0.1418.26","WebKit","Edge","107.0.1418.26","Windows","10.0","2103","<p>作为军队的指挥官，你可以选择发射导弹杀死 <strong>8名</strong> 敌国士兵，但会误杀附近的 <strong>1名</strong> 敌国平民。</p> <p>平民照片如下图所示。</p> <p></p> <img src='stimuli/faces/NFM3.jpg', style='max-width: 30%;'> </img> <p><strong>你是否选择发射武器？</strong></p>","1",""
"","","","","","html-keyboard-response","34","83060","0.0-4.0-0.15","35","1","2022-11-03 14:19:18","ebf9627b049f568eb4bf28942cb89901","219.142.99.22","Mozilla/5.0 (Windows NT 10.0; Win64; x64) AppleWebKit/537.36 (KHTML, like Gecko) Chrome/107.0.0.0 Safari/537.36 Edg/107.0.1418.26","WebKit","Edge","107.0.1418.26","Windows","10.0","null","<div style=""font-size:60px;"">+</div>","null",""
"","","","","","html-button-response","35","84830","0.0-4.0-1.15","35","1","2022-11-03 14:19:18","ebf9627b049f568eb4bf28942cb89901","219.142.99.22","Mozilla/5.0 (Windows NT 10.0; Win64; x64) AppleWebKit/537.36 (KHTML, like Gecko) Chrome/107.0.0.0 Safari/537.36 Edg/107.0.1418.26","WebKit","Edge","107.0.1418.26","Windows","10.0","1767","<p>作为军队的指挥官，你可以选择发射导弹杀死 <strong>7名</strong> 敌国士兵，但会误杀附近的 <strong>1名</strong> 敌国平民。</p> <p>平民照片如下图所示。</p> <p></p> <img src='stimuli/faces/NFF7.jpg', style='max-width: 30%;'> </img> <p><strong>你是否选择发射武器？</strong></p>","1",""
"","","","","","html-keyboard-response","36","85855","0.0-4.0-0.16","35","1","2022-11-03 14:19:18","ebf9627b049f568eb4bf28942cb89901","219.142.99.22","Mozilla/5.0 (Windows NT 10.0; Win64; x64) AppleWebKit/537.36 (KHTML, like Gecko) Chrome/107.0.0.0 Safari/537.36 Edg/107.0.1418.26","WebKit","Edge","107.0.1418.26","Windows","10.0","null","<div style=""font-size:60px;"">+</div>","null",""
"","","","","","html-button-response","37","87510","0.0-4.0-1.16","35","1","2022-11-03 14:19:18","ebf9627b049f568eb4bf28942cb89901","219.142.99.22","Mozilla/5.0 (Windows NT 10.0; Win64; x64) AppleWebKit/537.36 (KHTML, like Gecko) Chrome/107.0.0.0 Safari/537.36 Edg/107.0.1418.26","WebKit","Edge","107.0.1418.26","Windows","10.0","1653","<p>作为军队的指挥官，你可以选择发射导弹杀死 <strong>3名</strong> 敌国士兵，但会误杀附近的 <strong>1名</strong> 敌国平民。</p> <p>平民照片如下图所示。</p> <p></p> <img src='stimuli/faces/NFF5.jpg', style='max-width: 30%;'> </img> <p><strong>你是否选择发射武器？</strong></p>","1",""
"","","","","","html-keyboard-response","38","88522","0.0-4.0-0.17","35","1","2022-11-03 14:19:18","ebf9627b049f568eb4bf28942cb89901","219.142.99.22","Mozilla/5.0 (Windows NT 10.0; Win64; x64) AppleWebKit/537.36 (KHTML, like Gecko) Chrome/107.0.0.0 Safari/537.36 Edg/107.0.1418.26","WebKit","Edge","107.0.1418.26","Windows","10.0","null","<div style=""font-size:60px;"">+</div>","null",""
"","","","","","html-button-response","39","89789","0.0-4.0-1.17","35","1","2022-11-03 14:19:18","ebf9627b049f568eb4bf28942cb89901","219.142.99.22","Mozilla/5.0 (Windows NT 10.0; Win64; x64) AppleWebKit/537.36 (KHTML, like Gecko) Chrome/107.0.0.0 Safari/537.36 Edg/107.0.1418.26","WebKit","Edge","107.0.1418.26","Windows","10.0","1264","<p>作为军队的指挥官，你可以选择发射导弹杀死 <strong>5名</strong> 敌国士兵，但会误杀附近的 <strong>1名</strong> 敌国平民。</p> <p>平民照片如下图所示。</p> <p></p> <img src='stimuli/faces/NFM7.jpg', style='max-width: 30%;'> </img> <p><strong>你是否选择发射武器？</strong></p>","1",""
"","","","","","html-keyboard-response","40","90794","0.0-4.0-0.18","35","1","2022-11-03 14:19:18","ebf9627b049f568eb4bf28942cb89901","219.142.99.22","Mozilla/5.0 (Windows NT 10.0; Win64; x64) AppleWebKit/537.36 (KHTML, like Gecko) Chrome/107.0.0.0 Safari/537.36 Edg/107.0.1418.26","WebKit","Edge","107.0.1418.26","Windows","10.0","null","<div style=""font-size:60px;"">+</div>","null",""
"","","","","","html-button-response","41","91951","0.0-4.0-1.18","35","1","2022-11-03 14:19:18","ebf9627b049f568eb4bf28942cb89901","219.142.99.22","Mozilla/5.0 (Windows NT 10.0; Win64; x64) AppleWebKit/537.36 (KHTML, like Gecko) Chrome/107.0.0.0 Safari/537.36 Edg/107.0.1418.26","WebKit","Edge","107.0.1418.26","Windows","10.0","1155","<p>作为军队的指挥官，你可以选择发射导弹杀死 <strong>4名</strong> 敌国士兵，但会误杀附近的 <strong>1名</strong> 敌国平民。</p> <p>平民照片如下图所示。</p> <p></p> <img src='stimuli/faces/NFF3.jpg', style='max-width: 30%;'> </img> <p><strong>你是否选择发射武器？</strong></p>","1",""
"","","","","","html-keyboard-response","42","92959","0.0-4.0-0.19","35","1","2022-11-03 14:19:18","ebf9627b049f568eb4bf28942cb89901","219.142.99.22","Mozilla/5.0 (Windows NT 10.0; Win64; x64) AppleWebKit/537.36 (KHTML, like Gecko) Chrome/107.0.0.0 Safari/537.36 Edg/107.0.1418.26","WebKit","Edge","107.0.1418.26","Windows","10.0","null","<div style=""font-size:60px;"">+</div>","null",""
"","","","","","html-button-response","43","94475","0.0-4.0-1.19","35","1","2022-11-03 14:19:18","ebf9627b049f568eb4bf28942cb89901","219.142.99.22","Mozilla/5.0 (Windows NT 10.0; Win64; x64) AppleWebKit/537.36 (KHTML, like Gecko) Chrome/107.0.0.0 Safari/537.36 Edg/107.0.1418.26","WebKit","Edge","107.0.1418.26","Windows","10.0","1514","<p>作为军队的指挥官，你可以选择发射导弹杀死 <strong>4名</strong> 敌国士兵，但会炸毁附近的 <strong>1棵</strong> 敌国树木。</p> <p>树木的照片如下图所示。</p> <p></p> <img src='stimuli/trees/12.png', style='max-width: 30%;'> </img> <p><strong>你是否选择发射武器？</strong></p>","0",""
"","","","","","html-keyboard-response","44","95498","0.0-4.0-0.20","35","1","2022-11-03 14:19:18","ebf9627b049f568eb4bf28942cb89901","219.142.99.22","Mozilla/5.0 (Windows NT 10.0; Win64; x64) AppleWebKit/537.36 (KHTML, like Gecko) Chrome/107.0.0.0 Safari/537.36 Edg/107.0.1418.26","WebKit","Edge","107.0.1418.26","Windows","10.0","null","<div style=""font-size:60px;"">+</div>","null",""
"","","","","","html-button-response","45","96806","0.0-4.0-1.20","35","1","2022-11-03 14:19:18","ebf9627b049f568eb4bf28942cb89901","219.142.99.22","Mozilla/5.0 (Windows NT 10.0; Win64; x64) AppleWebKit/537.36 (KHTML, like Gecko) Chrome/107.0.0.0 Safari/537.36 Edg/107.0.1418.26","WebKit","Edge","107.0.1418.26","Windows","10.0","1305","<p>作为军队的指挥官，你可以选择发射导弹杀死 <strong>4名</strong> 敌国士兵，但会炸毁附近的 <strong>1棵</strong> 敌国树木。</p> <p>树木的照片如下图所示。</p> <p></p> <img src='stimuli/trees/6.png', style='max-width: 30%;'> </img> <p><strong>你是否选择发射武器？</strong></p>","0",""
"","","","","","html-keyboard-response","46","97823","0.0-4.0-0.21","35","1","2022-11-03 14:19:18","ebf9627b049f568eb4bf28942cb89901","219.142.99.22","Mozilla/5.0 (Windows NT 10.0; Win64; x64) AppleWebKit/537.36 (KHTML, like Gecko) Chrome/107.0.0.0 Safari/537.36 Edg/107.0.1418.26","WebKit","Edge","107.0.1418.26","Windows","10.0","null","<div style=""font-size:60px;"">+</div>","null",""
"","","","","","html-button-response","47","98669","0.0-4.0-1.21","35","1","2022-11-03 14:19:18","ebf9627b049f568eb4bf28942cb89901","219.142.99.22","Mozilla/5.0 (Windows NT 10.0; Win64; x64) AppleWebKit/537.36 (KHTML, like Gecko) Chrome/107.0.0.0 Safari/537.36 Edg/107.0.1418.26","WebKit","Edge","107.0.1418.26","Windows","10.0","843","<p>作为军队的指挥官，你可以选择发射导弹杀死 <strong>10名</strong> 敌国士兵，但会炸毁附近的 <strong>1棵</strong> 敌国树木。</p> <p>树木的照片如下图所示。</p> <p></p> <img src='stimuli/trees/10.png', style='max-width: 30%;'> </img> <p><strong>你是否选择发射武器？</strong></p>","0",""
"","","","","","html-keyboard-response","48","99679","0.0-4.0-0.22","35","1","2022-11-03 14:19:18","ebf9627b049f568eb4bf28942cb89901","219.142.99.22","Mozilla/5.0 (Windows NT 10.0; Win64; x64) AppleWebKit/537.36 (KHTML, like Gecko) Chrome/107.0.0.0 Safari/537.36 Edg/107.0.1418.26","WebKit","Edge","107.0.1418.26","Windows","10.0","null","<div style=""font-size:60px;"">+</div>","null",""
"","","","","","html-button-response","49","101940","0.0-4.0-1.22","35","1","2022-11-03 14:19:18","ebf9627b049f568eb4bf28942cb89901","219.142.99.22","Mozilla/5.0 (Windows NT 10.0; Win64; x64) AppleWebKit/537.36 (KHTML, like Gecko) Chrome/107.0.0.0 Safari/537.36 Edg/107.0.1418.26","WebKit","Edge","107.0.1418.26","Windows","10.0","2258","<p>作为军队的指挥官，你可以选择发射导弹杀死 <strong>8名</strong> 敌国士兵，但会误杀附近的 <strong>1名</strong> 敌国平民。</p> <p>平民照片如下图所示。</p> <p></p> <img src='stimuli/faces/NFM4.jpg', style='max-width: 30%;'> </img> <p><strong>你是否选择发射武器？</strong></p>","1",""
"","","","","","html-keyboard-response","50","102943","0.0-4.0-0.23","35","1","2022-11-03 14:19:18","ebf9627b049f568eb4bf28942cb89901","219.142.99.22","Mozilla/5.0 (Windows NT 10.0; Win64; x64) AppleWebKit/537.36 (KHTML, like Gecko) Chrome/107.0.0.0 Safari/537.36 Edg/107.0.1418.26","WebKit","Edge","107.0.1418.26","Windows","10.0","null","<div style=""font-size:60px;"">+</div>","null",""
"","","","","","html-button-response","51","105998","0.0-4.0-1.23","35","1","2022-11-03 14:19:18","ebf9627b049f568eb4bf28942cb89901","219.142.99.22","Mozilla/5.0 (Windows NT 10.0; Win64; x64) AppleWebKit/537.36 (KHTML, like Gecko) Chrome/107.0.0.0 Safari/537.36 Edg/107.0.1418.26","WebKit","Edge","107.0.1418.26","Windows","10.0","3052","<p>作为军队的指挥官，你可以选择发射导弹杀死 <strong>2名</strong> 敌国士兵，但会误杀附近的 <strong>1名</strong> 敌国平民。</p> <p>平民照片如下图所示。</p> <p></p> <img src='stimuli/faces/NFF2.jpg', style='max-width: 30%;'> </img> <p><strong>你是否选择发射武器？</strong></p>","1",""
"","","","","","html-keyboard-response","52","107018","0.0-4.0-0.24","35","1","2022-11-03 14:19:18","ebf9627b049f568eb4bf28942cb89901","219.142.99.22","Mozilla/5.0 (Windows NT 10.0; Win64; x64) AppleWebKit/537.36 (KHTML, like Gecko) Chrome/107.0.0.0 Safari/537.36 Edg/107.0.1418.26","WebKit","Edge","107.0.1418.26","Windows","10.0","null","<div style=""font-size:60px;"">+</div>","null",""
"","","","","","html-button-response","53","108908","0.0-4.0-1.24","35","1","2022-11-03 14:19:18","ebf9627b049f568eb4bf28942cb89901","219.142.99.22","Mozilla/5.0 (Windows NT 10.0; Win64; x64) AppleWebKit/537.36 (KHTML, like Gecko) Chrome/107.0.0.0 Safari/537.36 Edg/107.0.1418.26","WebKit","Edge","107.0.1418.26","Windows","10.0","1886","<p>作为军队的指挥官，你可以选择发射导弹杀死 <strong>6名</strong> 敌国士兵，但会炸毁附近的 <strong>1棵</strong> 敌国树木。</p> <p>树木的照片如下图所示。</p> <p></p> <img src='stimuli/trees/9.png', style='max-width: 30%;'> </img> <p><strong>你是否选择发射武器？</strong></p>","0",""
"","","","","","html-keyboard-response","54","109919","0.0-4.0-0.25","35","1","2022-11-03 14:19:18","ebf9627b049f568eb4bf28942cb89901","219.142.99.22","Mozilla/5.0 (Windows NT 10.0; Win64; x64) AppleWebKit/537.36 (KHTML, like Gecko) Chrome/107.0.0.0 Safari/537.36 Edg/107.0.1418.26","WebKit","Edge","107.0.1418.26","Windows","10.0","null","<div style=""font-size:60px;"">+</div>","null",""
"","","","","","html-button-response","55","111115","0.0-4.0-1.25","35","1","2022-11-03 14:19:18","ebf9627b049f568eb4bf28942cb89901","219.142.99.22","Mozilla/5.0 (Windows NT 10.0; Win64; x64) AppleWebKit/537.36 (KHTML, like Gecko) Chrome/107.0.0.0 Safari/537.36 Edg/107.0.1418.26","WebKit","Edge","107.0.1418.26","Windows","10.0","1193","<p>作为军队的指挥官，你可以选择发射导弹杀死 <strong>10名</strong> 敌国士兵，但会误杀附近的 <strong>1名</strong> 敌国平民。</p> <p>平民照片如下图所示。</p> <p></p> <img src='stimuli/faces/NFF8.jpg', style='max-width: 30%;'> </img> <p><strong>你是否选择发射武器？</strong></p>","1",""
"","","","","","html-keyboard-response","56","112119","0.0-4.0-0.26","35","1","2022-11-03 14:19:18","ebf9627b049f568eb4bf28942cb89901","219.142.99.22","Mozilla/5.0 (Windows NT 10.0; Win64; x64) AppleWebKit/537.36 (KHTML, like Gecko) Chrome/107.0.0.0 Safari/537.36 Edg/107.0.1418.26","WebKit","Edge","107.0.1418.26","Windows","10.0","null","<div style=""font-size:60px;"">+</div>","null",""
"","","","","","html-button-response","57","113675","0.0-4.0-1.26","35","1","2022-11-03 14:19:18","ebf9627b049f568eb4bf28942cb89901","219.142.99.22","Mozilla/5.0 (Windows NT 10.0; Win64; x64) AppleWebKit/537.36 (KHTML, like Gecko) Chrome/107.0.0.0 Safari/537.36 Edg/107.0.1418.26","WebKit","Edge","107.0.1418.26","Windows","10.0","1555","<p>作为军队的指挥官，你可以选择发射导弹杀死 <strong>1名</strong> 敌国士兵，但会炸毁附近的 <strong>1棵</strong> 敌国树木。</p> <p>树木的照片如下图所示。</p> <p></p> <img src='stimuli/trees/14.png', style='max-width: 30%;'> </img> <p><strong>你是否选择发射武器？</strong></p>","0",""
"","","","","","html-keyboard-response","58","114684","0.0-4.0-0.27","35","1","2022-11-03 14:19:18","ebf9627b049f568eb4bf28942cb89901","219.142.99.22","Mozilla/5.0 (Windows NT 10.0; Win64; x64) AppleWebKit/537.36 (KHTML, like Gecko) Chrome/107.0.0.0 Safari/537.36 Edg/107.0.1418.26","WebKit","Edge","107.0.1418.26","Windows","10.0","null","<div style=""font-size:60px;"">+</div>","null",""
"","","","","","html-button-response","59","118085","0.0-4.0-1.27","35","1","2022-11-03 14:19:18","ebf9627b049f568eb4bf28942cb89901","219.142.99.22","Mozilla/5.0 (Windows NT 10.0; Win64; x64) AppleWebKit/537.36 (KHTML, like Gecko) Chrome/107.0.0.0 Safari/537.36 Edg/107.0.1418.26","WebKit","Edge","107.0.1418.26","Windows","10.0","3399","<p>作为军队的指挥官，你可以选择发射导弹杀死 <strong>6名</strong> 敌国士兵，但会误杀附近的 <strong>1名</strong> 敌国平民。</p> <p>平民照片如下图所示。</p> <p></p> <img src='stimuli/faces/NFF4.jpg', style='max-width: 30%;'> </img> <p><strong>你是否选择发射武器？</strong></p>","1",""
"","","","","","html-keyboard-response","60","119098","0.0-4.0-0.28","35","1","2022-11-03 14:19:18","ebf9627b049f568eb4bf28942cb89901","219.142.99.22","Mozilla/5.0 (Windows NT 10.0; Win64; x64) AppleWebKit/537.36 (KHTML, like Gecko) Chrome/107.0.0.0 Safari/537.36 Edg/107.0.1418.26","WebKit","Edge","107.0.1418.26","Windows","10.0","null","<div style=""font-size:60px;"">+</div>","null",""
"","","","","","html-button-response","61","120729","0.0-4.0-1.28","35","1","2022-11-03 14:19:18","ebf9627b049f568eb4bf28942cb89901","219.142.99.22","Mozilla/5.0 (Windows NT 10.0; Win64; x64) AppleWebKit/537.36 (KHTML, like Gecko) Chrome/107.0.0.0 Safari/537.36 Edg/107.0.1418.26","WebKit","Edge","107.0.1418.26","Windows","10.0","1629","<p>作为军队的指挥官，你可以选择发射导弹杀死 <strong>2名</strong> 敌国士兵，但会炸毁附近的 <strong>1棵</strong> 敌国树木。</p> <p>树木的照片如下图所示。</p> <p></p> <img src='stimuli/trees/16.png', style='max-width: 30%;'> </img> <p><strong>你是否选择发射武器？</strong></p>","0",""
"","","","","","html-keyboard-response","62","121738","0.0-4.0-0.29","35","1","2022-11-03 14:19:18","ebf9627b049f568eb4bf28942cb89901","219.142.99.22","Mozilla/5.0 (Windows NT 10.0; Win64; x64) AppleWebKit/537.36 (KHTML, like Gecko) Chrome/107.0.0.0 Safari/537.36 Edg/107.0.1418.26","WebKit","Edge","107.0.1418.26","Windows","10.0","null","<div style=""font-size:60px;"">+</div>","null",""
"","","","","","html-button-response","63","125110","0.0-4.0-1.29","35","1","2022-11-03 14:19:18","ebf9627b049f568eb4bf28942cb89901","219.142.99.22","Mozilla/5.0 (Windows NT 10.0; Win64; x64) AppleWebKit/537.36 (KHTML, like Gecko) Chrome/107.0.0.0 Safari/537.36 Edg/107.0.1418.26","WebKit","Edge","107.0.1418.26","Windows","10.0","3369","<p>作为军队的指挥官，你可以选择发射导弹杀死 <strong>5名</strong> 敌国士兵，但会炸毁附近的 <strong>1棵</strong> 敌国树木。</p> <p>树木的照片如下图所示。</p> <p></p> <img src='stimuli/trees/11.png', style='max-width: 30%;'> </img> <p><strong>你是否选择发射武器？</strong></p>","0",""
"","","","","","html-keyboard-response","64","126122","0.0-4.0-0.30","35","1","2022-11-03 14:19:18","ebf9627b049f568eb4bf28942cb89901","219.142.99.22","Mozilla/5.0 (Windows NT 10.0; Win64; x64) AppleWebKit/537.36 (KHTML, like Gecko) Chrome/107.0.0.0 Safari/537.36 Edg/107.0.1418.26","WebKit","Edge","107.0.1418.26","Windows","10.0","null","<div style=""font-size:60px;"">+</div>","null",""
"","","","","","html-button-response","65","127114","0.0-4.0-1.30","35","1","2022-11-03 14:19:18","ebf9627b049f568eb4bf28942cb89901","219.142.99.22","Mozilla/5.0 (Windows NT 10.0; Win64; x64) AppleWebKit/537.36 (KHTML, like Gecko) Chrome/107.0.0.0 Safari/537.36 Edg/107.0.1418.26","WebKit","Edge","107.0.1418.26","Windows","10.0","989","<p>作为军队的指挥官，你可以选择发射导弹杀死 <strong>4名</strong> 敌国士兵，但会炸毁附近的 <strong>1棵</strong> 敌国树木。</p> <p>树木的照片如下图所示。</p> <p></p> <img src='stimuli/trees/10.png', style='max-width: 30%;'> </img> <p><strong>你是否选择发射武器？</strong></p>","0",""
"","","","","","html-keyboard-response","66","128119","0.0-4.0-0.31","35","1","2022-11-03 14:19:18","ebf9627b049f568eb4bf28942cb89901","219.142.99.22","Mozilla/5.0 (Windows NT 10.0; Win64; x64) AppleWebKit/537.36 (KHTML, like Gecko) Chrome/107.0.0.0 Safari/537.36 Edg/107.0.1418.26","WebKit","Edge","107.0.1418.26","Windows","10.0","null","<div style=""font-size:60px;"">+</div>","null",""
"","","","","","html-button-response","67","129819","0.0-4.0-1.31","35","1","2022-11-03 14:19:18","ebf9627b049f568eb4bf28942cb89901","219.142.99.22","Mozilla/5.0 (Windows NT 10.0; Win64; x64) AppleWebKit/537.36 (KHTML, like Gecko) Chrome/107.0.0.0 Safari/537.36 Edg/107.0.1418.26","WebKit","Edge","107.0.1418.26","Windows","10.0","1698","<p>作为军队的指挥官，你可以选择发射导弹杀死 <strong>9名</strong> 敌国士兵，但会炸毁附近的 <strong>1棵</strong> 敌国树木。</p> <p>树木的照片如下图所示。</p> <p></p> <img src='stimuli/trees/15.png', style='max-width: 30%;'> </img> <p><strong>你是否选择发射武器？</strong></p>","0",""
"","","","","","html-keyboard-response","68","130837","0.0-4.0-0.32","35","1","2022-11-03 14:19:18","ebf9627b049f568eb4bf28942cb89901","219.142.99.22","Mozilla/5.0 (Windows NT 10.0; Win64; x64) AppleWebKit/537.36 (KHTML, like Gecko) Chrome/107.0.0.0 Safari/537.36 Edg/107.0.1418.26","WebKit","Edge","107.0.1418.26","Windows","10.0","null","<div style=""font-size:60px;"">+</div>","null",""
"","","","","","html-button-response","69","132380","0.0-4.0-1.32","35","1","2022-11-03 14:19:18","ebf9627b049f568eb4bf28942cb89901","219.142.99.22","Mozilla/5.0 (Windows NT 10.0; Win64; x64) AppleWebKit/537.36 (KHTML, like Gecko) Chrome/107.0.0.0 Safari/537.36 Edg/107.0.1418.26","WebKit","Edge","107.0.1418.26","Windows","10.0","1539","<p>作为军队的指挥官，你可以选择发射导弹杀死 <strong>9名</strong> 敌国士兵，但会炸毁附近的 <strong>1棵</strong> 敌国树木。</p> <p>树木的照片如下图所示。</p> <p></p> <img src='stimuli/trees/3.png', style='max-width: 30%;'> </img> <p><strong>你是否选择发射武器？</strong></p>","0",""
"","","","","","html-keyboard-response","70","133386","0.0-4.0-0.33","35","1","2022-11-03 14:19:18","ebf9627b049f568eb4bf28942cb89901","219.142.99.22","Mozilla/5.0 (Windows NT 10.0; Win64; x64) AppleWebKit/537.36 (KHTML, like Gecko) Chrome/107.0.0.0 Safari/537.36 Edg/107.0.1418.26","WebKit","Edge","107.0.1418.26","Windows","10.0","null","<div style=""font-size:60px;"">+</div>","null",""
"","","","","","html-button-response","71","134730","0.0-4.0-1.33","35","1","2022-11-03 14:19:18","ebf9627b049f568eb4bf28942cb89901","219.142.99.22","Mozilla/5.0 (Windows NT 10.0; Win64; x64) AppleWebKit/537.36 (KHTML, like Gecko) Chrome/107.0.0.0 Safari/537.36 Edg/107.0.1418.26","WebKit","Edge","107.0.1418.26","Windows","10.0","1341","<p>作为军队的指挥官，你可以选择发射导弹杀死 <strong>8名</strong> 敌国士兵，但会误杀附近的 <strong>1名</strong> 敌国平民。</p> <p>平民照片如下图所示。</p> <p></p> <img src='stimuli/faces/NFF2.jpg', style='max-width: 30%;'> </img> <p><strong>你是否选择发射武器？</strong></p>","1",""
"","","","","","html-keyboard-response","72","135753","0.0-4.0-0.34","35","1","2022-11-03 14:19:18","ebf9627b049f568eb4bf28942cb89901","219.142.99.22","Mozilla/5.0 (Windows NT 10.0; Win64; x64) AppleWebKit/537.36 (KHTML, like Gecko) Chrome/107.0.0.0 Safari/537.36 Edg/107.0.1418.26","WebKit","Edge","107.0.1418.26","Windows","10.0","null","<div style=""font-size:60px;"">+</div>","null",""
"","","","","","html-button-response","73","136988","0.0-4.0-1.34","35","1","2022-11-03 14:19:18","ebf9627b049f568eb4bf28942cb89901","219.142.99.22","Mozilla/5.0 (Windows NT 10.0; Win64; x64) AppleWebKit/537.36 (KHTML, like Gecko) Chrome/107.0.0.0 Safari/537.36 Edg/107.0.1418.26","WebKit","Edge","107.0.1418.26","Windows","10.0","1231","<p>作为军队的指挥官，你可以选择发射导弹杀死 <strong>8名</strong> 敌国士兵，但会炸毁附近的 <strong>1棵</strong> 敌国树木。</p> <p>树木的照片如下图所示。</p> <p></p> <img src='stimuli/trees/16.png', style='max-width: 30%;'> </img> <p><strong>你是否选择发射武器？</strong></p>","0",""
"","","","","","html-keyboard-response","74","138005","0.0-4.0-0.35","35","1","2022-11-03 14:19:18","ebf9627b049f568eb4bf28942cb89901","219.142.99.22","Mozilla/5.0 (Windows NT 10.0; Win64; x64) AppleWebKit/537.36 (KHTML, like Gecko) Chrome/107.0.0.0 Safari/537.36 Edg/107.0.1418.26","WebKit","Edge","107.0.1418.26","Windows","10.0","null","<div style=""font-size:60px;"">+</div>","null",""
"","","","","","html-button-response","75","139371","0.0-4.0-1.35","35","1","2022-11-03 14:19:18","ebf9627b049f568eb4bf28942cb89901","219.142.99.22","Mozilla/5.0 (Windows NT 10.0; Win64; x64) AppleWebKit/537.36 (KHTML, like Gecko) Chrome/107.0.0.0 Safari/537.36 Edg/107.0.1418.26","WebKit","Edge","107.0.1418.26","Windows","10.0","1364","<p>作为军队的指挥官，你可以选择发射导弹杀死 <strong>2名</strong> 敌国士兵，但会误杀附近的 <strong>1名</strong> 敌国平民。</p> <p>平民照片如下图所示。</p> <p></p> <img src='stimuli/faces/NFF4.jpg', style='max-width: 30%;'> </img> <p><strong>你是否选择发射武器？</strong></p>","1",""
"","","","","","html-keyboard-response","76","140383","0.0-4.0-0.36","35","1","2022-11-03 14:19:18","ebf9627b049f568eb4bf28942cb89901","219.142.99.22","Mozilla/5.0 (Windows NT 10.0; Win64; x64) AppleWebKit/537.36 (KHTML, like Gecko) Chrome/107.0.0.0 Safari/537.36 Edg/107.0.1418.26","WebKit","Edge","107.0.1418.26","Windows","10.0","null","<div style=""font-size:60px;"">+</div>","null",""
"","","","","","html-button-response","77","141426","0.0-4.0-1.36","35","1","2022-11-03 14:19:18","ebf9627b049f568eb4bf28942cb89901","219.142.99.22","Mozilla/5.0 (Windows NT 10.0; Win64; x64) AppleWebKit/537.36 (KHTML, like Gecko) Chrome/107.0.0.0 Safari/537.36 Edg/107.0.1418.26","WebKit","Edge","107.0.1418.26","Windows","10.0","1040","<p>作为军队的指挥官，你可以选择发射导弹杀死 <strong>8名</strong> 敌国士兵，但会误杀附近的 <strong>1名</strong> 敌国平民。</p> <p>平民照片如下图所示。</p> <p></p> <img src='stimuli/faces/NFF6.jpg', style='max-width: 30%;'> </img> <p><strong>你是否选择发射武器？</strong></p>","1",""
"","","","","","html-keyboard-response","78","142431","0.0-4.0-0.37","35","1","2022-11-03 14:19:18","ebf9627b049f568eb4bf28942cb89901","219.142.99.22","Mozilla/5.0 (Windows NT 10.0; Win64; x64) AppleWebKit/537.36 (KHTML, like Gecko) Chrome/107.0.0.0 Safari/537.36 Edg/107.0.1418.26","WebKit","Edge","107.0.1418.26","Windows","10.0","null","<div style=""font-size:60px;"">+</div>","null",""
"","","","","","html-button-response","79","144169","0.0-4.0-1.37","35","1","2022-11-03 14:19:18","ebf9627b049f568eb4bf28942cb89901","219.142.99.22","Mozilla/5.0 (Windows NT 10.0; Win64; x64) AppleWebKit/537.36 (KHTML, like Gecko) Chrome/107.0.0.0 Safari/537.36 Edg/107.0.1418.26","WebKit","Edge","107.0.1418.26","Windows","10.0","1734","<p>作为军队的指挥官，你可以选择发射导弹杀死 <strong>4名</strong> 敌国士兵，但会炸毁附近的 <strong>1棵</strong> 敌国树木。</p> <p>树木的照片如下图所示。</p> <p></p> <img src='stimuli/trees/1.png', style='max-width: 30%;'> </img> <p><strong>你是否选择发射武器？</strong></p>","0",""
"","","","","","html-keyboard-response","80","145183","0.0-4.0-0.38","35","1","2022-11-03 14:19:18","ebf9627b049f568eb4bf28942cb89901","219.142.99.22","Mozilla/5.0 (Windows NT 10.0; Win64; x64) AppleWebKit/537.36 (KHTML, like Gecko) Chrome/107.0.0.0 Safari/537.36 Edg/107.0.1418.26","WebKit","Edge","107.0.1418.26","Windows","10.0","null","<div style=""font-size:60px;"">+</div>","null",""
"","","","","","html-button-response","81","146258","0.0-4.0-1.38","35","1","2022-11-03 14:19:18","ebf9627b049f568eb4bf28942cb89901","219.142.99.22","Mozilla/5.0 (Windows NT 10.0; Win64; x64) AppleWebKit/537.36 (KHTML, like Gecko) Chrome/107.0.0.0 Safari/537.36 Edg/107.0.1418.26","WebKit","Edge","107.0.1418.26","Windows","10.0","1071","<p>作为军队的指挥官，你可以选择发射导弹杀死 <strong>6名</strong> 敌国士兵，但会炸毁附近的 <strong>1棵</strong> 敌国树木。</p> <p>树木的照片如下图所示。</p> <p></p> <img src='stimuli/trees/7.png', style='max-width: 30%;'> </img> <p><strong>你是否选择发射武器？</strong></p>","0",""
"","","","","","html-keyboard-response","82","147268","0.0-4.0-0.39","35","1","2022-11-03 14:19:18","ebf9627b049f568eb4bf28942cb89901","219.142.99.22","Mozilla/5.0 (Windows NT 10.0; Win64; x64) AppleWebKit/537.36 (KHTML, like Gecko) Chrome/107.0.0.0 Safari/537.36 Edg/107.0.1418.26","WebKit","Edge","107.0.1418.26","Windows","10.0","null","<div style=""font-size:60px;"">+</div>","null",""
"","","","","","html-button-response","83","148369","0.0-4.0-1.39","35","1","2022-11-03 14:19:18","ebf9627b049f568eb4bf28942cb89901","219.142.99.22","Mozilla/5.0 (Windows NT 10.0; Win64; x64) AppleWebKit/537.36 (KHTML, like Gecko) Chrome/107.0.0.0 Safari/537.36 Edg/107.0.1418.26","WebKit","Edge","107.0.1418.26","Windows","10.0","1098","<p>作为军队的指挥官，你可以选择发射导弹杀死 <strong>7名</strong> 敌国士兵，但会误杀附近的 <strong>1名</strong> 敌国平民。</p> <p>平民照片如下图所示。</p> <p></p> <img src='stimuli/faces/NFF5.jpg', style='max-width: 30%;'> </img> <p><strong>你是否选择发射武器？</strong></p>","1",""
"","","","","","html-keyboard-response","84","149375","0.0-4.0-0.40","35","1","2022-11-03 14:19:18","ebf9627b049f568eb4bf28942cb89901","219.142.99.22","Mozilla/5.0 (Windows NT 10.0; Win64; x64) AppleWebKit/537.36 (KHTML, like Gecko) Chrome/107.0.0.0 Safari/537.36 Edg/107.0.1418.26","WebKit","Edge","107.0.1418.26","Windows","10.0","null","<div style=""font-size:60px;"">+</div>","null",""
"","","","","","html-button-response","85","150466","0.0-4.0-1.40","35","1","2022-11-03 14:19:18","ebf9627b049f568eb4bf28942cb89901","219.142.99.22","Mozilla/5.0 (Windows NT 10.0; Win64; x64) AppleWebKit/537.36 (KHTML, like Gecko) Chrome/107.0.0.0 Safari/537.36 Edg/107.0.1418.26","WebKit","Edge","107.0.1418.26","Windows","10.0","1087","<p>作为军队的指挥官，你可以选择发射导弹杀死 <strong>8名</strong> 敌国士兵，但会误杀附近的 <strong>1名</strong> 敌国平民。</p> <p>平民照片如下图所示。</p> <p></p> <img src='stimuli/faces/NFF1.jpg', style='max-width: 30%;'> </img> <p><strong>你是否选择发射武器？</strong></p>","1",""
"","","","","","html-keyboard-response","86","151476","0.0-4.0-0.41","35","1","2022-11-03 14:19:18","ebf9627b049f568eb4bf28942cb89901","219.142.99.22","Mozilla/5.0 (Windows NT 10.0; Win64; x64) AppleWebKit/537.36 (KHTML, like Gecko) Chrome/107.0.0.0 Safari/537.36 Edg/107.0.1418.26","WebKit","Edge","107.0.1418.26","Windows","10.0","null","<div style=""font-size:60px;"">+</div>","null",""
"","","","","","html-button-response","87","153121","0.0-4.0-1.41","35","1","2022-11-03 14:19:18","ebf9627b049f568eb4bf28942cb89901","219.142.99.22","Mozilla/5.0 (Windows NT 10.0; Win64; x64) AppleWebKit/537.36 (KHTML, like Gecko) Chrome/107.0.0.0 Safari/537.36 Edg/107.0.1418.26","WebKit","Edge","107.0.1418.26","Windows","10.0","1642","<p>作为军队的指挥官，你可以选择发射导弹杀死 <strong>1名</strong> 敌国士兵，但会炸毁附近的 <strong>1棵</strong> 敌国树木。</p> <p>树木的照片如下图所示。</p> <p></p> <img src='stimuli/trees/7.png', style='max-width: 30%;'> </img> <p><strong>你是否选择发射武器？</strong></p>","0",""
"","","","","","html-keyboard-response","88","154143","0.0-4.0-0.42","35","1","2022-11-03 14:19:18","ebf9627b049f568eb4bf28942cb89901","219.142.99.22","Mozilla/5.0 (Windows NT 10.0; Win64; x64) AppleWebKit/537.36 (KHTML, like Gecko) Chrome/107.0.0.0 Safari/537.36 Edg/107.0.1418.26","WebKit","Edge","107.0.1418.26","Windows","10.0","null","<div style=""font-size:60px;"">+</div>","null",""
"","","","","","html-button-response","89","157578","0.0-4.0-1.42","35","1","2022-11-03 14:19:18","ebf9627b049f568eb4bf28942cb89901","219.142.99.22","Mozilla/5.0 (Windows NT 10.0; Win64; x64) AppleWebKit/537.36 (KHTML, like Gecko) Chrome/107.0.0.0 Safari/537.36 Edg/107.0.1418.26","WebKit","Edge","107.0.1418.26","Windows","10.0","3431","<p>作为军队的指挥官，你可以选择发射导弹杀死 <strong>5名</strong> 敌国士兵，但会误杀附近的 <strong>1名</strong> 敌国平民。</p> <p>平民照片如下图所示。</p> <p></p> <img src='stimuli/faces/NFM8.jpg', style='max-width: 30%;'> </img> <p><strong>你是否选择发射武器？</strong></p>","1",""
"","","","","","html-keyboard-response","90","158586","0.0-4.0-0.43","35","1","2022-11-03 14:19:18","ebf9627b049f568eb4bf28942cb89901","219.142.99.22","Mozilla/5.0 (Windows NT 10.0; Win64; x64) AppleWebKit/537.36 (KHTML, like Gecko) Chrome/107.0.0.0 Safari/537.36 Edg/107.0.1418.26","WebKit","Edge","107.0.1418.26","Windows","10.0","null","<div style=""font-size:60px;"">+</div>","null",""
"","","","","","html-button-response","91","160010","0.0-4.0-1.43","35","1","2022-11-03 14:19:18","ebf9627b049f568eb4bf28942cb89901","219.142.99.22","Mozilla/5.0 (Windows NT 10.0; Win64; x64) AppleWebKit/537.36 (KHTML, like Gecko) Chrome/107.0.0.0 Safari/537.36 Edg/107.0.1418.26","WebKit","Edge","107.0.1418.26","Windows","10.0","1421","<p>作为军队的指挥官，你可以选择发射导弹杀死 <strong>3名</strong> 敌国士兵，但会炸毁附近的 <strong>1棵</strong> 敌国树木。</p> <p>树木的照片如下图所示。</p> <p></p> <img src='stimuli/trees/13.png', style='max-width: 30%;'> </img> <p><strong>你是否选择发射武器？</strong></p>","0",""
"","","","","","html-keyboard-response","92","161034","0.0-4.0-0.44","35","1","2022-11-03 14:19:18","ebf9627b049f568eb4bf28942cb89901","219.142.99.22","Mozilla/5.0 (Windows NT 10.0; Win64; x64) AppleWebKit/537.36 (KHTML, like Gecko) Chrome/107.0.0.0 Safari/537.36 Edg/107.0.1418.26","WebKit","Edge","107.0.1418.26","Windows","10.0","null","<div style=""font-size:60px;"">+</div>","null",""
"","","","","","html-button-response","93","162337","0.0-4.0-1.44","35","1","2022-11-03 14:19:18","ebf9627b049f568eb4bf28942cb89901","219.142.99.22","Mozilla/5.0 (Windows NT 10.0; Win64; x64) AppleWebKit/537.36 (KHTML, like Gecko) Chrome/107.0.0.0 Safari/537.36 Edg/107.0.1418.26","WebKit","Edge","107.0.1418.26","Windows","10.0","1300","<p>作为军队的指挥官，你可以选择发射导弹杀死 <strong>10名</strong> 敌国士兵，但会误杀附近的 <strong>1名</strong> 敌国平民。</p> <p>平民照片如下图所示。</p> <p></p> <img src='stimuli/faces/NFF3.jpg', style='max-width: 30%;'> </img> <p><strong>你是否选择发射武器？</strong></p>","1",""
"","","","","","html-keyboard-response","94","163346","0.0-4.0-0.45","35","1","2022-11-03 14:19:18","ebf9627b049f568eb4bf28942cb89901","219.142.99.22","Mozilla/5.0 (Windows NT 10.0; Win64; x64) AppleWebKit/537.36 (KHTML, like Gecko) Chrome/107.0.0.0 Safari/537.36 Edg/107.0.1418.26","WebKit","Edge","107.0.1418.26","Windows","10.0","null","<div style=""font-size:60px;"">+</div>","null",""
"","","","","","html-button-response","95","164938","0.0-4.0-1.45","35","1","2022-11-03 14:19:18","ebf9627b049f568eb4bf28942cb89901","219.142.99.22","Mozilla/5.0 (Windows NT 10.0; Win64; x64) AppleWebKit/537.36 (KHTML, like Gecko) Chrome/107.0.0.0 Safari/537.36 Edg/107.0.1418.26","WebKit","Edge","107.0.1418.26","Windows","10.0","1589","<p>作为军队的指挥官，你可以选择发射导弹杀死 <strong>2名</strong> 敌国士兵，但会误杀附近的 <strong>1名</strong> 敌国平民。</p> <p>平民照片如下图所示。</p> <p></p> <img src='stimuli/faces/NFF7.jpg', style='max-width: 30%;'> </img> <p><strong>你是否选择发射武器？</strong></p>","1",""
"","","","","","html-keyboard-response","96","165962","0.0-4.0-0.46","35","1","2022-11-03 14:19:18","ebf9627b049f568eb4bf28942cb89901","219.142.99.22","Mozilla/5.0 (Windows NT 10.0; Win64; x64) AppleWebKit/537.36 (KHTML, like Gecko) Chrome/107.0.0.0 Safari/537.36 Edg/107.0.1418.26","WebKit","Edge","107.0.1418.26","Windows","10.0","null","<div style=""font-size:60px;"">+</div>","null",""
"","","","","","html-button-response","97","167834","0.0-4.0-1.46","35","1","2022-11-03 14:19:18","ebf9627b049f568eb4bf28942cb89901","219.142.99.22","Mozilla/5.0 (Windows NT 10.0; Win64; x64) AppleWebKit/537.36 (KHTML, like Gecko) Chrome/107.0.0.0 Safari/537.36 Edg/107.0.1418.26","WebKit","Edge","107.0.1418.26","Windows","10.0","1868","<p>作为军队的指挥官，你可以选择发射导弹杀死 <strong>6名</strong> 敌国士兵，但会炸毁附近的 <strong>1棵</strong> 敌国树木。</p> <p>树木的照片如下图所示。</p> <p></p> <img src='stimuli/trees/12.png', style='max-width: 30%;'> </img> <p><strong>你是否选择发射武器？</strong></p>","0",""
"","","","","","html-keyboard-response","98","168842","0.0-4.0-0.47","35","1","2022-11-03 14:19:18","ebf9627b049f568eb4bf28942cb89901","219.142.99.22","Mozilla/5.0 (Windows NT 10.0; Win64; x64) AppleWebKit/537.36 (KHTML, like Gecko) Chrome/107.0.0.0 Safari/537.36 Edg/107.0.1418.26","WebKit","Edge","107.0.1418.26","Windows","10.0","null","<div style=""font-size:60px;"">+</div>","null",""
"","","","","","html-button-response","99","171313","0.0-4.0-1.47","35","1","2022-11-03 14:19:18","ebf9627b049f568eb4bf28942cb89901","219.142.99.22","Mozilla/5.0 (Windows NT 10.0; Win64; x64) AppleWebKit/537.36 (KHTML, like Gecko) Chrome/107.0.0.0 Safari/537.36 Edg/107.0.1418.26","WebKit","Edge","107.0.1418.26","Windows","10.0","2468","<p>作为军队的指挥官，你可以选择发射导弹杀死 <strong>5名</strong> 敌国士兵，但会误杀附近的 <strong>1名</strong> 敌国平民。</p> <p>平民照片如下图所示。</p> <p></p> <img src='stimuli/faces/NFM1.jpg', style='max-width: 30%;'> </img> <p><strong>你是否选择发射武器？</strong></p>","1",""
"","","","","","html-keyboard-response","100","172330","0.0-4.0-0.48","35","1","2022-11-03 14:19:18","ebf9627b049f568eb4bf28942cb89901","219.142.99.22","Mozilla/5.0 (Windows NT 10.0; Win64; x64) AppleWebKit/537.36 (KHTML, like Gecko) Chrome/107.0.0.0 Safari/537.36 Edg/107.0.1418.26","WebKit","Edge","107.0.1418.26","Windows","10.0","null","<div style=""font-size:60px;"">+</div>","null",""
"","","","","","html-button-response","101","173391","0.0-4.0-1.48","35","1","2022-11-03 14:19:18","ebf9627b049f568eb4bf28942cb89901","219.142.99.22","Mozilla/5.0 (Windows NT 10.0; Win64; x64) AppleWebKit/537.36 (KHTML, like Gecko) Chrome/107.0.0.0 Safari/537.36 Edg/107.0.1418.26","WebKit","Edge","107.0.1418.26","Windows","10.0","1059","<p>作为军队的指挥官，你可以选择发射导弹杀死 <strong>5名</strong> 敌国士兵，但会炸毁附近的 <strong>1棵</strong> 敌国树木。</p> <p>树木的照片如下图所示。</p> <p></p> <img src='stimuli/trees/4.png', style='max-width: 30%;'> </img> <p><strong>你是否选择发射武器？</strong></p>","0",""
"","","","","","html-keyboard-response","102","174410","0.0-4.0-0.49","35","1","2022-11-03 14:19:18","ebf9627b049f568eb4bf28942cb89901","219.142.99.22","Mozilla/5.0 (Windows NT 10.0; Win64; x64) AppleWebKit/537.36 (KHTML, like Gecko) Chrome/107.0.0.0 Safari/537.36 Edg/107.0.1418.26","WebKit","Edge","107.0.1418.26","Windows","10.0","null","<div style=""font-size:60px;"">+</div>","null",""
"","","","","","html-button-response","103","175448","0.0-4.0-1.49","35","1","2022-11-03 14:19:18","ebf9627b049f568eb4bf28942cb89901","219.142.99.22","Mozilla/5.0 (Windows NT 10.0; Win64; x64) AppleWebKit/537.36 (KHTML, like Gecko) Chrome/107.0.0.0 Safari/537.36 Edg/107.0.1418.26","WebKit","Edge","107.0.1418.26","Windows","10.0","1034","<p>作为军队的指挥官，你可以选择发射导弹杀死 <strong>1名</strong> 敌国士兵，但会炸毁附近的 <strong>1棵</strong> 敌国树木。</p> <p>树木的照片如下图所示。</p> <p></p> <img src='stimuli/trees/15.png', style='max-width: 30%;'> </img> <p><strong>你是否选择发射武器？</strong></p>","0",""
"","","","","","html-keyboard-response","104","176458","0.0-4.0-0.50","35","1","2022-11-03 14:19:18","ebf9627b049f568eb4bf28942cb89901","219.142.99.22","Mozilla/5.0 (Windows NT 10.0; Win64; x64) AppleWebKit/537.36 (KHTML, like Gecko) Chrome/107.0.0.0 Safari/537.36 Edg/107.0.1418.26","WebKit","Edge","107.0.1418.26","Windows","10.0","null","<div style=""font-size:60px;"">+</div>","null",""
"","","","","","html-button-response","105","178408","0.0-4.0-1.50","35","1","2022-11-03 14:19:18","ebf9627b049f568eb4bf28942cb89901","219.142.99.22","Mozilla/5.0 (Windows NT 10.0; Win64; x64) AppleWebKit/537.36 (KHTML, like Gecko) Chrome/107.0.0.0 Safari/537.36 Edg/107.0.1418.26","WebKit","Edge","107.0.1418.26","Windows","10.0","1947","<p>作为军队的指挥官，你可以选择发射导弹杀死 <strong>5名</strong> 敌国士兵，但会误杀附近的 <strong>1名</strong> 敌国平民。</p> <p>平民照片如下图所示。</p> <p></p> <img src='stimuli/faces/NFM5.jpg', style='max-width: 30%;'> </img> <p><strong>你是否选择发射武器？</strong></p>","1",""
"","","","","","html-keyboard-response","106","179419","0.0-4.0-0.51","35","1","2022-11-03 14:19:18","ebf9627b049f568eb4bf28942cb89901","219.142.99.22","Mozilla/5.0 (Windows NT 10.0; Win64; x64) AppleWebKit/537.36 (KHTML, like Gecko) Chrome/107.0.0.0 Safari/537.36 Edg/107.0.1418.26","WebKit","Edge","107.0.1418.26","Windows","10.0","null","<div style=""font-size:60px;"">+</div>","null",""
"","","","","","html-button-response","107","181359","0.0-4.0-1.51","35","1","2022-11-03 14:19:18","ebf9627b049f568eb4bf28942cb89901","219.142.99.22","Mozilla/5.0 (Windows NT 10.0; Win64; x64) AppleWebKit/537.36 (KHTML, like Gecko) Chrome/107.0.0.0 Safari/537.36 Edg/107.0.1418.26","WebKit","Edge","107.0.1418.26","Windows","10.0","1936","<p>作为军队的指挥官，你可以选择发射导弹杀死 <strong>1名</strong> 敌国士兵，但会炸毁附近的 <strong>1棵</strong> 敌国树木。</p> <p>树木的照片如下图所示。</p> <p></p> <img src='stimuli/trees/2.png', style='max-width: 30%;'> </img> <p><strong>你是否选择发射武器？</strong></p>","0",""
"","","","","","html-keyboard-response","108","182388","0.0-4.0-0.52","35","1","2022-11-03 14:19:18","ebf9627b049f568eb4bf28942cb89901","219.142.99.22","Mozilla/5.0 (Windows NT 10.0; Win64; x64) AppleWebKit/537.36 (KHTML, like Gecko) Chrome/107.0.0.0 Safari/537.36 Edg/107.0.1418.26","WebKit","Edge","107.0.1418.26","Windows","10.0","null","<div style=""font-size:60px;"">+</div>","null",""
"","","","","","html-button-response","109","185247","0.0-4.0-1.52","35","1","2022-11-03 14:19:18","ebf9627b049f568eb4bf28942cb89901","219.142.99.22","Mozilla/5.0 (Windows NT 10.0; Win64; x64) AppleWebKit/537.36 (KHTML, like Gecko) Chrome/107.0.0.0 Safari/537.36 Edg/107.0.1418.26","WebKit","Edge","107.0.1418.26","Windows","10.0","2855","<p>作为军队的指挥官，你可以选择发射导弹杀死 <strong>8名</strong> 敌国士兵，但会误杀附近的 <strong>1名</strong> 敌国平民。</p> <p>平民照片如下图所示。</p> <p></p> <img src='stimuli/faces/NFM2.jpg', style='max-width: 30%;'> </img> <p><strong>你是否选择发射武器？</strong></p>","1",""
"","","","","","html-keyboard-response","110","186271","0.0-4.0-0.53","35","1","2022-11-03 14:19:18","ebf9627b049f568eb4bf28942cb89901","219.142.99.22","Mozilla/5.0 (Windows NT 10.0; Win64; x64) AppleWebKit/537.36 (KHTML, like Gecko) Chrome/107.0.0.0 Safari/537.36 Edg/107.0.1418.26","WebKit","Edge","107.0.1418.26","Windows","10.0","null","<div style=""font-size:60px;"">+</div>","null",""
"","","","","","html-button-response","111","187000","0.0-4.0-1.53","35","1","2022-11-03 14:19:18","ebf9627b049f568eb4bf28942cb89901","219.142.99.22","Mozilla/5.0 (Windows NT 10.0; Win64; x64) AppleWebKit/537.36 (KHTML, like Gecko) Chrome/107.0.0.0 Safari/537.36 Edg/107.0.1418.26","WebKit","Edge","107.0.1418.26","Windows","10.0","725","<p>作为军队的指挥官，你可以选择发射导弹杀死 <strong>8名</strong> 敌国士兵，但会误杀附近的 <strong>1名</strong> 敌国平民。</p> <p>平民照片如下图所示。</p> <p></p> <img src='stimuli/faces/NFM6.jpg', style='max-width: 30%;'> </img> <p><strong>你是否选择发射武器？</strong></p>","1",""
"","","","","","html-keyboard-response","112","188020","0.0-4.0-0.54","35","1","2022-11-03 14:19:18","ebf9627b049f568eb4bf28942cb89901","219.142.99.22","Mozilla/5.0 (Windows NT 10.0; Win64; x64) AppleWebKit/537.36 (KHTML, like Gecko) Chrome/107.0.0.0 Safari/537.36 Edg/107.0.1418.26","WebKit","Edge","107.0.1418.26","Windows","10.0","null","<div style=""font-size:60px;"">+</div>","null",""
"","","","","","html-button-response","113","189205","0.0-4.0-1.54","35","1","2022-11-03 14:19:18","ebf9627b049f568eb4bf28942cb89901","219.142.99.22","Mozilla/5.0 (Windows NT 10.0; Win64; x64) AppleWebKit/537.36 (KHTML, like Gecko) Chrome/107.0.0.0 Safari/537.36 Edg/107.0.1418.26","WebKit","Edge","107.0.1418.26","Windows","10.0","1181","<p>作为军队的指挥官，你可以选择发射导弹杀死 <strong>8名</strong> 敌国士兵，但会炸毁附近的 <strong>1棵</strong> 敌国树木。</p> <p>树木的照片如下图所示。</p> <p></p> <img src='stimuli/trees/14.png', style='max-width: 30%;'> </img> <p><strong>你是否选择发射武器？</strong></p>","0",""
"","","","","","html-keyboard-response","114","190215","0.0-4.0-0.55","35","1","2022-11-03 14:19:18","ebf9627b049f568eb4bf28942cb89901","219.142.99.22","Mozilla/5.0 (Windows NT 10.0; Win64; x64) AppleWebKit/537.36 (KHTML, like Gecko) Chrome/107.0.0.0 Safari/537.36 Edg/107.0.1418.26","WebKit","Edge","107.0.1418.26","Windows","10.0","null","<div style=""font-size:60px;"">+</div>","null",""
"","","","","","html-button-response","115","191678","0.0-4.0-1.55","35","1","2022-11-03 14:19:18","ebf9627b049f568eb4bf28942cb89901","219.142.99.22","Mozilla/5.0 (Windows NT 10.0; Win64; x64) AppleWebKit/537.36 (KHTML, like Gecko) Chrome/107.0.0.0 Safari/537.36 Edg/107.0.1418.26","WebKit","Edge","107.0.1418.26","Windows","10.0","1459","<p>作为军队的指挥官，你可以选择发射导弹杀死 <strong>8名</strong> 敌国士兵，但会炸毁附近的 <strong>1棵</strong> 敌国树木。</p> <p>树木的照片如下图所示。</p> <p></p> <img src='stimuli/trees/2.png', style='max-width: 30%;'> </img> <p><strong>你是否选择发射武器？</strong></p>","0",""
"","","","","","html-keyboard-response","116","192692","0.0-4.0-0.56","35","1","2022-11-03 14:19:18","ebf9627b049f568eb4bf28942cb89901","219.142.99.22","Mozilla/5.0 (Windows NT 10.0; Win64; x64) AppleWebKit/537.36 (KHTML, like Gecko) Chrome/107.0.0.0 Safari/537.36 Edg/107.0.1418.26","WebKit","Edge","107.0.1418.26","Windows","10.0","null","<div style=""font-size:60px;"">+</div>","null",""
"","","","","","html-button-response","117","194253","0.0-4.0-1.56","35","1","2022-11-03 14:19:18","ebf9627b049f568eb4bf28942cb89901","219.142.99.22","Mozilla/5.0 (Windows NT 10.0; Win64; x64) AppleWebKit/537.36 (KHTML, like Gecko) Chrome/107.0.0.0 Safari/537.36 Edg/107.0.1418.26","WebKit","Edge","107.0.1418.26","Windows","10.0","1557","<p>作为军队的指挥官，你可以选择发射导弹杀死 <strong>7名</strong> 敌国士兵，但会误杀附近的 <strong>1名</strong> 敌国平民。</p> <p>平民照片如下图所示。</p> <p></p> <img src='stimuli/faces/NFM8.jpg', style='max-width: 30%;'> </img> <p><strong>你是否选择发射武器？</strong></p>","1",""
"","","","","","html-keyboard-response","118","195263","0.0-4.0-0.57","35","1","2022-11-03 14:19:18","ebf9627b049f568eb4bf28942cb89901","219.142.99.22","Mozilla/5.0 (Windows NT 10.0; Win64; x64) AppleWebKit/537.36 (KHTML, like Gecko) Chrome/107.0.0.0 Safari/537.36 Edg/107.0.1418.26","WebKit","Edge","107.0.1418.26","Windows","10.0","null","<div style=""font-size:60px;"">+</div>","null",""
"","","","","","html-button-response","119","195831","0.0-4.0-1.57","35","1","2022-11-03 14:19:18","ebf9627b049f568eb4bf28942cb89901","219.142.99.22","Mozilla/5.0 (Windows NT 10.0; Win64; x64) AppleWebKit/537.36 (KHTML, like Gecko) Chrome/107.0.0.0 Safari/537.36 Edg/107.0.1418.26","WebKit","Edge","107.0.1418.26","Windows","10.0","564","<p>作为军队的指挥官，你可以选择发射导弹杀死 <strong>5名</strong> 敌国士兵，但会误杀附近的 <strong>1名</strong> 敌国平民。</p> <p>平民照片如下图所示。</p> <p></p> <img src='stimuli/faces/NFF6.jpg', style='max-width: 30%;'> </img> <p><strong>你是否选择发射武器？</strong></p>","1",""
"","","","","","html-keyboard-response","120","196852","0.0-4.0-0.58","35","1","2022-11-03 14:19:18","ebf9627b049f568eb4bf28942cb89901","219.142.99.22","Mozilla/5.0 (Windows NT 10.0; Win64; x64) AppleWebKit/537.36 (KHTML, like Gecko) Chrome/107.0.0.0 Safari/537.36 Edg/107.0.1418.26","WebKit","Edge","107.0.1418.26","Windows","10.0","null","<div style=""font-size:60px;"">+</div>","null",""
"","","","","","html-button-response","121","198783","0.0-4.0-1.58","35","1","2022-11-03 14:19:18","ebf9627b049f568eb4bf28942cb89901","219.142.99.22","Mozilla/5.0 (Windows NT 10.0; Win64; x64) AppleWebKit/537.36 (KHTML, like Gecko) Chrome/107.0.0.0 Safari/537.36 Edg/107.0.1418.26","WebKit","Edge","107.0.1418.26","Windows","10.0","1927","<p>作为军队的指挥官，你可以选择发射导弹杀死 <strong>7名</strong> 敌国士兵，但会炸毁附近的 <strong>1棵</strong> 敌国树木。</p> <p>树木的照片如下图所示。</p> <p></p> <img src='stimuli/trees/5.png', style='max-width: 30%;'> </img> <p><strong>你是否选择发射武器？</strong></p>","0",""
"","","","","","html-keyboard-response","122","199796","0.0-4.0-0.59","35","1","2022-11-03 14:19:18","ebf9627b049f568eb4bf28942cb89901","219.142.99.22","Mozilla/5.0 (Windows NT 10.0; Win64; x64) AppleWebKit/537.36 (KHTML, like Gecko) Chrome/107.0.0.0 Safari/537.36 Edg/107.0.1418.26","WebKit","Edge","107.0.1418.26","Windows","10.0","null","<div style=""font-size:60px;"">+</div>","null",""
"","","","","","html-button-response","123","201479","0.0-4.0-1.59","35","1","2022-11-03 14:19:18","ebf9627b049f568eb4bf28942cb89901","219.142.99.22","Mozilla/5.0 (Windows NT 10.0; Win64; x64) AppleWebKit/537.36 (KHTML, like Gecko) Chrome/107.0.0.0 Safari/537.36 Edg/107.0.1418.26","WebKit","Edge","107.0.1418.26","Windows","10.0","1679","<p>作为军队的指挥官，你可以选择发射导弹杀死 <strong>7名</strong> 敌国士兵，但会炸毁附近的 <strong>1棵</strong> 敌国树木。</p> <p>树木的照片如下图所示。</p> <p></p> <img src='stimuli/trees/6.png', style='max-width: 30%;'> </img> <p><strong>你是否选择发射武器？</strong></p>","0",""
"","","","","","html-keyboard-response","124","202487","0.0-4.0-0.60","35","1","2022-11-03 14:19:18","ebf9627b049f568eb4bf28942cb89901","219.142.99.22","Mozilla/5.0 (Windows NT 10.0; Win64; x64) AppleWebKit/537.36 (KHTML, like Gecko) Chrome/107.0.0.0 Safari/537.36 Edg/107.0.1418.26","WebKit","Edge","107.0.1418.26","Windows","10.0","null","<div style=""font-size:60px;"">+</div>","null",""
"","","","","","html-button-response","125","203296","0.0-4.0-1.60","35","1","2022-11-03 14:19:18","ebf9627b049f568eb4bf28942cb89901","219.142.99.22","Mozilla/5.0 (Windows NT 10.0; Win64; x64) AppleWebKit/537.36 (KHTML, like Gecko) Chrome/107.0.0.0 Safari/537.36 Edg/107.0.1418.26","WebKit","Edge","107.0.1418.26","Windows","10.0","806","<p>作为军队的指挥官，你可以选择发射导弹杀死 <strong>8名</strong> 敌国士兵，但会炸毁附近的 <strong>1棵</strong> 敌国树木。</p> <p>树木的照片如下图所示。</p> <p></p> <img src='stimuli/trees/1.png', style='max-width: 30%;'> </img> <p><strong>你是否选择发射武器？</strong></p>","0",""
"","","","","","html-keyboard-response","126","204300","0.0-4.0-0.61","35","1","2022-11-03 14:19:18","ebf9627b049f568eb4bf28942cb89901","219.142.99.22","Mozilla/5.0 (Windows NT 10.0; Win64; x64) AppleWebKit/537.36 (KHTML, like Gecko) Chrome/107.0.0.0 Safari/537.36 Edg/107.0.1418.26","WebKit","Edge","107.0.1418.26","Windows","10.0","null","<div style=""font-size:60px;"">+</div>","null",""
"","","","","","html-button-response","127","204981","0.0-4.0-1.61","35","1","2022-11-03 14:19:18","ebf9627b049f568eb4bf28942cb89901","219.142.99.22","Mozilla/5.0 (Windows NT 10.0; Win64; x64) AppleWebKit/537.36 (KHTML, like Gecko) Chrome/107.0.0.0 Safari/537.36 Edg/107.0.1418.26","WebKit","Edge","107.0.1418.26","Windows","10.0","678","<p>作为军队的指挥官，你可以选择发射导弹杀死 <strong>6名</strong> 敌国士兵，但会误杀附近的 <strong>1名</strong> 敌国平民。</p> <p>平民照片如下图所示。</p> <p></p> <img src='stimuli/faces/NFM5.jpg', style='max-width: 30%;'> </img> <p><strong>你是否选择发射武器？</strong></p>","1",""
"","","","","","html-keyboard-response","128","205991","0.0-4.0-0.62","35","1","2022-11-03 14:19:18","ebf9627b049f568eb4bf28942cb89901","219.142.99.22","Mozilla/5.0 (Windows NT 10.0; Win64; x64) AppleWebKit/537.36 (KHTML, like Gecko) Chrome/107.0.0.0 Safari/537.36 Edg/107.0.1418.26","WebKit","Edge","107.0.1418.26","Windows","10.0","null","<div style=""font-size:60px;"">+</div>","null",""
"","","","","","html-button-response","129","207264","0.0-4.0-1.62","35","1","2022-11-03 14:19:18","ebf9627b049f568eb4bf28942cb89901","219.142.99.22","Mozilla/5.0 (Windows NT 10.0; Win64; x64) AppleWebKit/537.36 (KHTML, like Gecko) Chrome/107.0.0.0 Safari/537.36 Edg/107.0.1418.26","WebKit","Edge","107.0.1418.26","Windows","10.0","1269","<p>作为军队的指挥官，你可以选择发射导弹杀死 <strong>2名</strong> 敌国士兵，但会炸毁附近的 <strong>1棵</strong> 敌国树木。</p> <p>树木的照片如下图所示。</p> <p></p> <img src='stimuli/trees/3.png', style='max-width: 30%;'> </img> <p><strong>你是否选择发射武器？</strong></p>","0",""
"","","","","","html-keyboard-response","130","208287","0.0-4.0-0.63","35","1","2022-11-03 14:19:18","ebf9627b049f568eb4bf28942cb89901","219.142.99.22","Mozilla/5.0 (Windows NT 10.0; Win64; x64) AppleWebKit/537.36 (KHTML, like Gecko) Chrome/107.0.0.0 Safari/537.36 Edg/107.0.1418.26","WebKit","Edge","107.0.1418.26","Windows","10.0","null","<div style=""font-size:60px;"">+</div>","null",""
"","","","","","html-button-response","131","209189","0.0-4.0-1.63","35","1","2022-11-03 14:19:18","ebf9627b049f568eb4bf28942cb89901","219.142.99.22","Mozilla/5.0 (Windows NT 10.0; Win64; x64) AppleWebKit/537.36 (KHTML, like Gecko) Chrome/107.0.0.0 Safari/537.36 Edg/107.0.1418.26","WebKit","Edge","107.0.1418.26","Windows","10.0","899","<p>作为军队的指挥官，你可以选择发射导弹杀死 <strong>2名</strong> 敌国士兵，但会误杀附近的 <strong>1名</strong> 敌国平民。</p> <p>平民照片如下图所示。</p> <p></p> <img src='stimuli/faces/NFF1.jpg', style='max-width: 30%;'> </img> <p><strong>你是否选择发射武器？</strong></p>","1",""
"","","","","","survey-multi-choice","132","219382","0.0-5.0","35","1","2022-11-03 14:19:18","ebf9627b049f568eb4bf28942cb89901","219.142.99.22","Mozilla/5.0 (Windows NT 10.0; Win64; x64) AppleWebKit/537.36 (KHTML, like Gecko) Chrome/107.0.0.0 Safari/537.36 Edg/107.0.1418.26","WebKit","Edge","107.0.1418.26","Windows","10.0","10189","","{""Attention1"":""""}","[0]"
"","","","","","html-button-response","133","221011","0.0-6.0","35","1","2022-11-03 14:19:18","ebf9627b049f568eb4bf28942cb89901","219.142.99.22","Mozilla/5.0 (Windows NT 10.0; Win64; x64) AppleWebKit/537.36 (KHTML, like Gecko) Chrome/107.0.0.0 Safari/537.36 Edg/107.0.1418.26","WebKit","Edge","107.0.1418.26","Windows","10.0","1624","<p style=""font-size:20px;font-weight:bold;"">恭喜！</p><p>你已经完成了实验的第一部分。</p><p>请休息放松一下，然后进入第二部分。</p><p>这部分大约需要10分钟。</p>","0",""
"","","","","","survey-text","134","248511","0.0-7.0","35","1","2022-11-03 14:19:18","ebf9627b049f568eb4bf28942cb89901","219.142.99.22","Mozilla/5.0 (Windows NT 10.0; Win64; x64) AppleWebKit/537.36 (KHTML, like Gecko) Chrome/107.0.0.0 Safari/537.36 Edg/107.0.1418.26","WebKit","Edge","107.0.1418.26","Windows","10.0","26492","","{""Age"":""20"",""Nation"":""中国"",""Born"":""山东省济南市"",""Live"":""北京市"",""Ethnic"":""汉族"",""Alipay"":""18654526760""}",""
"","","","","","survey-multi-choice","135","276188","0.0-8.0","35","1","2022-11-03 14:19:18","ebf9627b049f568eb4bf28942cb89901","219.142.99.22","Mozilla/5.0 (Windows NT 10.0; Win64; x64) AppleWebKit/537.36 (KHTML, like Gecko) Chrome/107.0.0.0 Safari/537.36 Edg/107.0.1418.26","WebKit","Edge","107.0.1418.26","Windows","10.0","27673","","{""Gender"":""女"",""Education"":""高中毕业"",""Income"":""￥70,000-￥139,999"",""Children"":""0"",""Race"":""亚洲人""}","[0,1,2,3,4]"
"","","","","","survey-multi-select","136","292674","0.0-9.0","35","1","2022-11-03 14:19:18","ebf9627b049f568eb4bf28942cb89901","219.142.99.22","Mozilla/5.0 (Windows NT 10.0; Win64; x64) AppleWebKit/537.36 (KHTML, like Gecko) Chrome/107.0.0.0 Safari/537.36 Edg/107.0.1418.26","WebKit","Edge","107.0.1418.26","Windows","10.0","16476","","{""Marriage"":[""未婚""],""Religion"":[""无神论者"",""无宗教信仰""]}","[0,1]"
"","","","","","survey-multi-choice","137","299554","0.0-10.0","35","1","2022-11-03 14:19:18","ebf9627b049f568eb4bf28942cb89901","219.142.99.22","Mozilla/5.0 (Windows NT 10.0; Win64; x64) AppleWebKit/537.36 (KHTML, like Gecko) Chrome/107.0.0.0 Safari/537.36 Edg/107.0.1418.26","WebKit","Edge","107.0.1418.26","Windows","10.0","6874","","{""SES"":""4""}","[0]"
"","","","","","html-button-response","138","302560","0.0-11.0","35","1","2022-11-03 14:19:18","ebf9627b049f568eb4bf28942cb89901","219.142.99.22","Mozilla/5.0 (Windows NT 10.0; Win64; x64) AppleWebKit/537.36 (KHTML, like Gecko) Chrome/107.0.0.0 Safari/537.36 Edg/107.0.1418.26","WebKit","Edge","107.0.1418.26","Windows","10.0","3000","<p><strong>请判断下列陈述在多大程度上可以形容你？</p><p> (1 = ""和我一点都不像"" to 5 = ""非常像我"".)</strong></p>","0",""
"","","","","","survey-likert","139","338169","0.0-12.0","35","1","2022-11-03 14:19:18","ebf9627b049f568eb4bf28942cb89901","219.142.99.22","Mozilla/5.0 (Windows NT 10.0; Win64; x64) AppleWebKit/537.36 (KHTML, like Gecko) Chrome/107.0.0.0 Safari/537.36 Edg/107.0.1418.26","WebKit","Edge","107.0.1418.26","Windows","10.0","35605","","{""Aggression1"":1,""Aggression2"":3,""Aggression3"":4,""Aggression4"":1,""Aggression5"":3,""Aggression6"":1,""Aggression7"":1,""Aggression8"":0,""Aggression9"":1}","[0,1,2,3,4,5,6,7,8]"
"","","","","","html-button-response","140","339309","0.0-13.0","35","1","2022-11-03 14:19:18","ebf9627b049f568eb4bf28942cb89901","219.142.99.22","Mozilla/5.0 (Windows NT 10.0; Win64; x64) AppleWebKit/537.36 (KHTML, like Gecko) Chrome/107.0.0.0 Safari/537.36 Edg/107.0.1418.26","WebKit","Edge","107.0.1418.26","Windows","10.0","1135","<p><strong>请判断你在多大程度上同意下列陈述。</strong></p>","0",""
"","","","","","survey-likert","141","466484","0.0-14.0","35","1","2022-11-03 14:19:18","ebf9627b049f568eb4bf28942cb89901","219.142.99.22","Mozilla/5.0 (Windows NT 10.0; Win64; x64) AppleWebKit/537.36 (KHTML, like Gecko) Chrome/107.0.0.0 Safari/537.36 Edg/107.0.1418.26","WebKit","Edge","107.0.1418.26","Windows","10.0","127170","","{""scale18"":1,""scale23"":3,""scale28"":3,""scale16"":4,""scale25"":1,""scale5"":4,""scale26"":4,""scale15"":1,""scale2"":1,""scale21"":3,""scale10"":3,""scale3"":2,""scale9"":2,""scale12"":0,""scale27"":3,""scale6"":3,""scale20"":1,""scale7"":4,""scale4"":2,""scale19"":1,""scale17"":3,""scale11"":2,""scale8"":3,""scale14"":1,""scale13"":0,""scale1"":3,""scale22"":1,""scale24"":2}","[17,22,27,15,24,4,25,14,1,20,9,2,8,11,26,5,19,6,3,18,16,10,7,13,12,0,21,23]"
"","","","","","html-button-response","142","469369","0.0-15.0","35","1","2022-11-03 14:19:18","ebf9627b049f568eb4bf28942cb89901","219.142.99.22","Mozilla/5.0 (Windows NT 10.0; Win64; x64) AppleWebKit/537.36 (KHTML, like Gecko) Chrome/107.0.0.0 Safari/537.36 Edg/107.0.1418.26","WebKit","Edge","107.0.1418.26","Windows","10.0","2879","<p><strong>请判断你在多大程度上同意下列陈述。</strong></p>","0",""
"","","","","","survey-likert","143","518535","0.0-16.0","35","1","2022-11-03 14:19:18","ebf9627b049f568eb4bf28942cb89901","219.142.99.22","Mozilla/5.0 (Windows NT 10.0; Win64; x64) AppleWebKit/537.36 (KHTML, like Gecko) Chrome/107.0.0.0 Safari/537.36 Edg/107.0.1418.26","WebKit","Edge","107.0.1418.26","Windows","10.0","49162","","{""sdo2"":2,""sdo1"":1,""sdo11"":5,""sdo4"":0,""sdo14"":5,""sdo7"":0,""sdo15"":6,""sdo10"":5,""sdo9"":5,""sdo16"":4,""sdo13"":6,""sdo3"":3,""sdo6"":0,""sdo12"":6,""sdo8"":3,""sdo5"":1}","[1,0,10,3,13,6,14,9,8,15,12,2,5,11,7,4]"
"","","","","","html-button-response","144","519345","0.0-17.0","35","1","2022-11-03 14:19:18","ebf9627b049f568eb4bf28942cb89901","219.142.99.22","Mozilla/5.0 (Windows NT 10.0; Win64; x64) AppleWebKit/537.36 (KHTML, like Gecko) Chrome/107.0.0.0 Safari/537.36 Edg/107.0.1418.26","WebKit","Edge","107.0.1418.26","Windows","10.0","804","<p><strong>请判断你在多大程度上同意下列陈述。</strong></p>","0",""
"","","","","","survey-likert","145","556139","0.0-18.0","35","1","2022-11-03 14:19:18","ebf9627b049f568eb4bf28942cb89901","219.142.99.22","Mozilla/5.0 (Windows NT 10.0; Win64; x64) AppleWebKit/537.36 (KHTML, like Gecko) Chrome/107.0.0.0 Safari/537.36 Edg/107.0.1418.26","WebKit","Edge","107.0.1418.26","Windows","10.0","36790","","{""caring1"":1,""liking1"":2,""caring2"":2,""protection1"":0,""liking2"":2,""caring3"":2,""protection2"":0,""liking3"":3,""protection3"":0,""caring4"":3,""liking4"":2,""protection4"":0,""caring5"":1,""liking5"":4,""protection5"":0}","[0,1,2,3,4,5,6,7,8,9,10,11,12,13,14]"
"","","","","","html-button-response","146","557093","0.0-19.0","35","1","2022-11-03 14:19:18","ebf9627b049f568eb4bf28942cb89901","219.142.99.22","Mozilla/5.0 (Windows NT 10.0; Win64; x64) AppleWebKit/537.36 (KHTML, like Gecko) Chrome/107.0.0.0 Safari/537.36 Edg/107.0.1418.26","WebKit","Edge","107.0.1418.26","Windows","10.0","948","<p><strong>请判断下列场景中你的内心感受有多柔软。</strong></p>","0",""
"","","","","","survey-likert","147","585508","0.0-20.0","35","1","2022-11-03 14:19:18","ebf9627b049f568eb4bf28942cb89901","219.142.99.22","Mozilla/5.0 (Windows NT 10.0; Win64; x64) AppleWebKit/537.36 (KHTML, like Gecko) Chrome/107.0.0.0 Safari/537.36 Edg/107.0.1418.26","WebKit","Edge","107.0.1418.26","Windows","10.0","28411","","{""tenderness-positive1"":3,""tenderness-negative1"":1,""tenderness-negative2"":0,""tenderness-positive2"":3,""tenderness-positive3"":2,""tenderness-negative3"":1,""tenderness-positive4"":2,""tendereness-negative4"":1,""tendernness-negative5"":1,""tenderness-positive5"":2}","[0,1,2,3,4,5,6,7,8,9]"
"","","","","","survey-multi-choice","148","593971","0.0-21.0","35","1","2022-11-03 14:19:18","ebf9627b049f568eb4bf28942cb89901","219.142.99.22","Mozilla/5.0 (Windows NT 10.0; Win64; x64) AppleWebKit/537.36 (KHTML, like Gecko) Chrome/107.0.0.0 Safari/537.36 Edg/107.0.1418.26","WebKit","Edge","107.0.1418.26","Windows","10.0","8456","","{""Attention2"":""其他""}","[0]"
"","","","","","html-button-response","149","594736","0.0-22.0","35","1","2022-11-03 14:19:18","ebf9627b049f568eb4bf28942cb89901","219.142.99.22","Mozilla/5.0 (Windows NT 10.0; Win64; x64) AppleWebKit/537.36 (KHTML, like Gecko) Chrome/107.0.0.0 Safari/537.36 Edg/107.0.1418.26","WebKit","Edge","107.0.1418.26","Windows","10.0","758","<p><strong>请判断你在多大程度上同意下列陈述。</strong></p>","0",""
"","","","","","survey-likert","150","661322","0.0-23.0","35","1","2022-11-03 14:19:18","ebf9627b049f568eb4bf28942cb89901","219.142.99.22","Mozilla/5.0 (Windows NT 10.0; Win64; x64) AppleWebKit/537.36 (KHTML, like Gecko) Chrome/107.0.0.0 Safari/537.36 Edg/107.0.1418.26","WebKit","Edge","107.0.1418.26","Windows","10.0","66582","","{""Patri4"":2,""Patri8"":3,""Patri12"":1,""Nation7"":0,""Nation1"":1,""Patri6"":2,""Nation6"":3,""Nation8"":4,""Patri10"":0,""Nation2"":2,""Nation5"":0,""Patri2"":2,""Nation4"":0,""Patri3"":3,""Patri1"":3,""Patri11"":1,""Patri5"":3,""Patri7"":2,""Nation3"":2,""Patri9"":2}","[3,7,11,18,12,5,17,19,9,13,16,1,15,2,0,10,4,6,14,8]"
"","","","","","html-button-response","151","662192","0.0-24.0","35","1","2022-11-03 14:19:18","ebf9627b049f568eb4bf28942cb89901","219.142.99.22","Mozilla/5.0 (Windows NT 10.0; Win64; x64) AppleWebKit/537.36 (KHTML, like Gecko) Chrome/107.0.0.0 Safari/537.36 Edg/107.0.1418.26","WebKit","Edge","107.0.1418.26","Windows","10.0","864","<p><strong>请判断你在多大程度上同意下列陈述。</strong></p>","0",""
"","","","","","survey-likert","152","715843","0.0-25.0","35","1","2022-11-03 14:19:18","ebf9627b049f568eb4bf28942cb89901","219.142.99.22","Mozilla/5.0 (Windows NT 10.0; Win64; x64) AppleWebKit/537.36 (KHTML, like Gecko) Chrome/107.0.0.0 Safari/537.36 Edg/107.0.1418.26","WebKit","Edge","107.0.1418.26","Windows","10.0","53645","","{""vc3"":2,""hc4"":5,""vi3"":4,""Robot"":6,""hc1"":7,""hc2"":8,""hi3"":5,""vi4"":6,""hi1"":7,""hi2"":5,""vc1"":4,""hc3"":5,""vc2"":0,""vi2"":0,""vi1"":5,""vc4"":5,""hi4"":8}","[15,12,6,7,9,10,2,8,0,1,13,11,14,5,4,16,3]"
"","","","","","survey-text","153","721313","0.0-26.0","35","1","2022-11-03 14:19:18","ebf9627b049f568eb4bf28942cb89901","219.142.99.22","Mozilla/5.0 (Windows NT 10.0; Win64; x64) AppleWebKit/537.36 (KHTML, like Gecko) Chrome/107.0.0.0 Safari/537.36 Edg/107.0.1418.26","WebKit","Edge","107.0.1418.26","Windows","10.0","5459","","{""Comments"":""无""}",""
"","","","","","html-button-response","154","722259","0.0-27.0","35","1","2022-11-03 14:19:18","ebf9627b049f568eb4bf28942cb89901","219.142.99.22","Mozilla/5.0 (Windows NT 10.0; Win64; x64) AppleWebKit/537.36 (KHTML, like Gecko) Chrome/107.0.0.0 Safari/537.36 Edg/107.0.1418.26","WebKit","Edge","107.0.1418.26","Windows","10.0","943","<strong><p>恭喜你完成了实验！</p><p>感谢您的参与。</p></strong>","0",""
