"success","timeout","failed_images","failed_audio","failed_video","trial_type","trial_index","time_elapsed","internal_node_id","run_id","condition","recorded_at","source_code_version","ip","user_agent","device","browser","browser_version","platform","platform_version","rt","stimulus","response","question_order"
"true","false","[]","[]","[]","preload","0","1113","0.0-0.0","44","1","2022-11-04 05:23:37","ebf9627b049f568eb4bf28942cb89901","111.205.21.102","Mozilla/5.0 (Windows NT 10.0; Win64; x64) AppleWebKit/537.36 (KHTML, like Gecko) Chrome/107.0.0.0 Safari/537.36 Edg/107.0.1418.26","WebKit","Edge","107.0.1418.26","Windows","10.0","","","",""
"true","","","","","fullscreen","1","7210","0.0-1.0","44","1","2022-11-04 05:23:37","ebf9627b049f568eb4bf28942cb89901","111.205.21.102","Mozilla/5.0 (Windows NT 10.0; Win64; x64) AppleWebKit/537.36 (KHTML, like Gecko) Chrome/107.0.0.0 Safari/537.36 Edg/107.0.1418.26","WebKit","Edge","107.0.1418.26","Windows","10.0","","","",""
"","","","","","html-button-response","2","26675","0.0-2.0","44","1","2022-11-04 05:23:37","ebf9627b049f568eb4bf28942cb89901","111.205.21.102","Mozilla/5.0 (Windows NT 10.0; Win64; x64) AppleWebKit/537.36 (KHTML, like Gecko) Chrome/107.0.0.0 Safari/537.36 Edg/107.0.1418.26","WebKit","Edge","107.0.1418.26","Windows","10.0","19463","<p style=""font-size:20px;font-weight:bold;"">实验知情同意书</p><p style=""text-align:left;""><strong>实验名称：</strong>社会冲突研究</p><p style=""text-align:left;""><strong>主要研究者：</strong>韩晓春副教授（北京师范大学心理学部）</p><p style=""text-align:left;""><strong>联系方式：</strong>发送邮件至xiaochun.han@bnu.edu.cn</p><p style=""text-align:left;""><strong>研究目的：</strong>研究旨在了解人类面对群体冲突时的决策方式，以及相关的心理学特质。实验调查大约需要20分钟。</p><p style=""text-align:left;""><strong>实验流程：</strong>实验包含两部分。第一部分呈现一系列群体冲突场景，请你决定如何对这些冲突进行反应，大约需要10分钟完成。第二部分包含一系列人口统计学信息收集和心理学问卷，大约需要10分钟完成。</p><p style=""text-align:left;""><strong>参加及退出规则：</strong>参加本实验完全取决于您的个人意愿。在参与过程中，您可以随时退出，并且不用承担任何后果。</p><p style=""text-align:left;""><strong>隐私：</strong>本实验完全匿名进行，不会收集您的姓名或其他能够识别您身份的信息。实验中收集的作答仅用作科学研究使用，可能会在学术期刊/书籍上发表，或者用于教学，您的数据未来可能会和其他研究者或实验室分享，但您的个人身份不会被识别。</p><p style=""text-align:left;""><strong>实验报酬：</strong>实验完成后，您将获得15元人民币报酬，以感谢您的时间和努力。调查问卷中包含几道题目用以测验您作答时的认真度。只有完成全部实验，并且正确回答认真度测验的被试才能获得实验报酬。实验报酬将通过支付宝转账发放。</p><p style=""text-align:left;font-size:20px;""><strong>如果您同意以上实验知情同意书的内容，请点击'同意并且开始实验'按钮；否则请关闭浏览器界面，退出实验。</strong></p>","0",""
"","","","","","html-button-response","3","38893","0.0-3.0","44","1","2022-11-04 05:23:37","ebf9627b049f568eb4bf28942cb89901","111.205.21.102","Mozilla/5.0 (Windows NT 10.0; Win64; x64) AppleWebKit/537.36 (KHTML, like Gecko) Chrome/107.0.0.0 Safari/537.36 Edg/107.0.1418.26","WebKit","Edge","107.0.1418.26","Windows","10.0","12213","<p ><strong>实验任务一：</strong></p><p>请想象你的国家与另一个国家发生了军事冲突。</p><p>你是国家军队的指挥官，你将如何在冲突中进行决策。</p><p>具体来说，作为军队指挥官，请你决定是否发射导弹进行打击。</p><p>接下来，你会面对一系列场景，请仔细阅读每个场景，然后进行决策。</p><p>这部分实验任务大约需要10分钟。</p><p><strong>实验过程中，请集中注意力。</strong></p>","0",""
"","","","","","html-keyboard-response","4","39916","0.0-4.0-0.0","44","1","2022-11-04 05:23:37","ebf9627b049f568eb4bf28942cb89901","111.205.21.102","Mozilla/5.0 (Windows NT 10.0; Win64; x64) AppleWebKit/537.36 (KHTML, like Gecko) Chrome/107.0.0.0 Safari/537.36 Edg/107.0.1418.26","WebKit","Edge","107.0.1418.26","Windows","10.0","null","<div style=""font-size:60px;"">+</div>","null",""
"","","","","","html-button-response","5","53156","0.0-4.0-1.0","44","1","2022-11-04 05:23:37","ebf9627b049f568eb4bf28942cb89901","111.205.21.102","Mozilla/5.0 (Windows NT 10.0; Win64; x64) AppleWebKit/537.36 (KHTML, like Gecko) Chrome/107.0.0.0 Safari/537.36 Edg/107.0.1418.26","WebKit","Edge","107.0.1418.26","Windows","10.0","13231","<p>作为军队的指挥官，你可以选择发射导弹杀死 <strong>4名</strong> 敌国士兵，但会炸毁附近的 <strong>1棵</strong> 敌国树木。</p> <p>树木的照片如下图所示。</p> <p></p> <img src='stimuli/trees/5.png', style='max-width: 30%;'> </img> <p><strong>你是否选择发射武器？</strong></p>","0",""
"","","","","","html-keyboard-response","6","54174","0.0-4.0-0.1","44","1","2022-11-04 05:23:37","ebf9627b049f568eb4bf28942cb89901","111.205.21.102","Mozilla/5.0 (Windows NT 10.0; Win64; x64) AppleWebKit/537.36 (KHTML, like Gecko) Chrome/107.0.0.0 Safari/537.36 Edg/107.0.1418.26","WebKit","Edge","107.0.1418.26","Windows","10.0","null","<div style=""font-size:60px;"">+</div>","null",""
"","","","","","html-button-response","7","58174","0.0-4.0-1.1","44","1","2022-11-04 05:23:37","ebf9627b049f568eb4bf28942cb89901","111.205.21.102","Mozilla/5.0 (Windows NT 10.0; Win64; x64) AppleWebKit/537.36 (KHTML, like Gecko) Chrome/107.0.0.0 Safari/537.36 Edg/107.0.1418.26","WebKit","Edge","107.0.1418.26","Windows","10.0","3998","<p>作为军队的指挥官，你可以选择发射导弹杀死 <strong>7名</strong> 敌国士兵，但会炸毁附近的 <strong>1棵</strong> 敌国树木。</p> <p>树木的照片如下图所示。</p> <p></p> <img src='stimuli/trees/9.png', style='max-width: 30%;'> </img> <p><strong>你是否选择发射武器？</strong></p>","0",""
"","","","","","html-keyboard-response","8","59185","0.0-4.0-0.2","44","1","2022-11-04 05:23:37","ebf9627b049f568eb4bf28942cb89901","111.205.21.102","Mozilla/5.0 (Windows NT 10.0; Win64; x64) AppleWebKit/537.36 (KHTML, like Gecko) Chrome/107.0.0.0 Safari/537.36 Edg/107.0.1418.26","WebKit","Edge","107.0.1418.26","Windows","10.0","null","<div style=""font-size:60px;"">+</div>","null",""
"","","","","","html-button-response","9","64182","0.0-4.0-1.2","44","1","2022-11-04 05:23:37","ebf9627b049f568eb4bf28942cb89901","111.205.21.102","Mozilla/5.0 (Windows NT 10.0; Win64; x64) AppleWebKit/537.36 (KHTML, like Gecko) Chrome/107.0.0.0 Safari/537.36 Edg/107.0.1418.26","WebKit","Edge","107.0.1418.26","Windows","10.0","4995","<p>作为军队的指挥官，你可以选择发射导弹杀死 <strong>2名</strong> 敌国士兵，但会误杀附近的 <strong>1名</strong> 敌国平民。</p> <p>平民照片如下图所示。</p> <p></p> <img src='stimuli/faces/NFM4.jpg', style='max-width: 30%;'> </img> <p><strong>你是否选择发射武器？</strong></p>","1",""
"","","","","","html-keyboard-response","10","65192","0.0-4.0-0.3","44","1","2022-11-04 05:23:37","ebf9627b049f568eb4bf28942cb89901","111.205.21.102","Mozilla/5.0 (Windows NT 10.0; Win64; x64) AppleWebKit/537.36 (KHTML, like Gecko) Chrome/107.0.0.0 Safari/537.36 Edg/107.0.1418.26","WebKit","Edge","107.0.1418.26","Windows","10.0","null","<div style=""font-size:60px;"">+</div>","null",""
"","","","","","html-button-response","11","71753","0.0-4.0-1.3","44","1","2022-11-04 05:23:37","ebf9627b049f568eb4bf28942cb89901","111.205.21.102","Mozilla/5.0 (Windows NT 10.0; Win64; x64) AppleWebKit/537.36 (KHTML, like Gecko) Chrome/107.0.0.0 Safari/537.36 Edg/107.0.1418.26","WebKit","Edge","107.0.1418.26","Windows","10.0","6556","<p>作为军队的指挥官，你可以选择发射导弹杀死 <strong>4名</strong> 敌国士兵，但会误杀附近的 <strong>1名</strong> 敌国平民。</p> <p>平民照片如下图所示。</p> <p></p> <img src='stimuli/faces/NFF2.jpg', style='max-width: 30%;'> </img> <p><strong>你是否选择发射武器？</strong></p>","1",""
"","","","","","html-keyboard-response","12","72777","0.0-4.0-0.4","44","1","2022-11-04 05:23:37","ebf9627b049f568eb4bf28942cb89901","111.205.21.102","Mozilla/5.0 (Windows NT 10.0; Win64; x64) AppleWebKit/537.36 (KHTML, like Gecko) Chrome/107.0.0.0 Safari/537.36 Edg/107.0.1418.26","WebKit","Edge","107.0.1418.26","Windows","10.0","null","<div style=""font-size:60px;"">+</div>","null",""
"","","","","","html-button-response","13","75492","0.0-4.0-1.4","44","1","2022-11-04 05:23:37","ebf9627b049f568eb4bf28942cb89901","111.205.21.102","Mozilla/5.0 (Windows NT 10.0; Win64; x64) AppleWebKit/537.36 (KHTML, like Gecko) Chrome/107.0.0.0 Safari/537.36 Edg/107.0.1418.26","WebKit","Edge","107.0.1418.26","Windows","10.0","2711","<p>作为军队的指挥官，你可以选择发射导弹杀死 <strong>5名</strong> 敌国士兵，但会炸毁附近的 <strong>1棵</strong> 敌国树木。</p> <p>树木的照片如下图所示。</p> <p></p> <img src='stimuli/trees/12.png', style='max-width: 30%;'> </img> <p><strong>你是否选择发射武器？</strong></p>","0",""
"","","","","","html-keyboard-response","14","76504","0.0-4.0-0.5","44","1","2022-11-04 05:23:37","ebf9627b049f568eb4bf28942cb89901","111.205.21.102","Mozilla/5.0 (Windows NT 10.0; Win64; x64) AppleWebKit/537.36 (KHTML, like Gecko) Chrome/107.0.0.0 Safari/537.36 Edg/107.0.1418.26","WebKit","Edge","107.0.1418.26","Windows","10.0","null","<div style=""font-size:60px;"">+</div>","null",""
"","","","","","html-button-response","15","78800","0.0-4.0-1.5","44","1","2022-11-04 05:23:37","ebf9627b049f568eb4bf28942cb89901","111.205.21.102","Mozilla/5.0 (Windows NT 10.0; Win64; x64) AppleWebKit/537.36 (KHTML, like Gecko) Chrome/107.0.0.0 Safari/537.36 Edg/107.0.1418.26","WebKit","Edge","107.0.1418.26","Windows","10.0","2294","<p>作为军队的指挥官，你可以选择发射导弹杀死 <strong>4名</strong> 敌国士兵，但会炸毁附近的 <strong>1棵</strong> 敌国树木。</p> <p>树木的照片如下图所示。</p> <p></p> <img src='stimuli/trees/16.png', style='max-width: 30%;'> </img> <p><strong>你是否选择发射武器？</strong></p>","0",""
"","","","","","html-keyboard-response","16","79815","0.0-4.0-0.6","44","1","2022-11-04 05:23:37","ebf9627b049f568eb4bf28942cb89901","111.205.21.102","Mozilla/5.0 (Windows NT 10.0; Win64; x64) AppleWebKit/537.36 (KHTML, like Gecko) Chrome/107.0.0.0 Safari/537.36 Edg/107.0.1418.26","WebKit","Edge","107.0.1418.26","Windows","10.0","null","<div style=""font-size:60px;"">+</div>","null",""
"","","","","","html-button-response","17","82649","0.0-4.0-1.6","44","1","2022-11-04 05:23:37","ebf9627b049f568eb4bf28942cb89901","111.205.21.102","Mozilla/5.0 (Windows NT 10.0; Win64; x64) AppleWebKit/537.36 (KHTML, like Gecko) Chrome/107.0.0.0 Safari/537.36 Edg/107.0.1418.26","WebKit","Edge","107.0.1418.26","Windows","10.0","2830","<p>作为军队的指挥官，你可以选择发射导弹杀死 <strong>1名</strong> 敌国士兵，但会误杀附近的 <strong>1名</strong> 敌国平民。</p> <p>平民照片如下图所示。</p> <p></p> <img src='stimuli/faces/NFM6.jpg', style='max-width: 30%;'> </img> <p><strong>你是否选择发射武器？</strong></p>","1",""
"","","","","","html-keyboard-response","18","83658","0.0-4.0-0.7","44","1","2022-11-04 05:23:37","ebf9627b049f568eb4bf28942cb89901","111.205.21.102","Mozilla/5.0 (Windows NT 10.0; Win64; x64) AppleWebKit/537.36 (KHTML, like Gecko) Chrome/107.0.0.0 Safari/537.36 Edg/107.0.1418.26","WebKit","Edge","107.0.1418.26","Windows","10.0","null","<div style=""font-size:60px;"">+</div>","null",""
"","","","","","html-button-response","19","85776","0.0-4.0-1.7","44","1","2022-11-04 05:23:37","ebf9627b049f568eb4bf28942cb89901","111.205.21.102","Mozilla/5.0 (Windows NT 10.0; Win64; x64) AppleWebKit/537.36 (KHTML, like Gecko) Chrome/107.0.0.0 Safari/537.36 Edg/107.0.1418.26","WebKit","Edge","107.0.1418.26","Windows","10.0","2114","<p>作为军队的指挥官，你可以选择发射导弹杀死 <strong>9名</strong> 敌国士兵，但会炸毁附近的 <strong>1棵</strong> 敌国树木。</p> <p>树木的照片如下图所示。</p> <p></p> <img src='stimuli/trees/8.png', style='max-width: 30%;'> </img> <p><strong>你是否选择发射武器？</strong></p>","0",""
"","","","","","html-keyboard-response","20","86787","0.0-4.0-0.8","44","1","2022-11-04 05:23:37","ebf9627b049f568eb4bf28942cb89901","111.205.21.102","Mozilla/5.0 (Windows NT 10.0; Win64; x64) AppleWebKit/537.36 (KHTML, like Gecko) Chrome/107.0.0.0 Safari/537.36 Edg/107.0.1418.26","WebKit","Edge","107.0.1418.26","Windows","10.0","null","<div style=""font-size:60px;"">+</div>","null",""
"","","","","","html-button-response","21","88638","0.0-4.0-1.8","44","1","2022-11-04 05:23:37","ebf9627b049f568eb4bf28942cb89901","111.205.21.102","Mozilla/5.0 (Windows NT 10.0; Win64; x64) AppleWebKit/537.36 (KHTML, like Gecko) Chrome/107.0.0.0 Safari/537.36 Edg/107.0.1418.26","WebKit","Edge","107.0.1418.26","Windows","10.0","1847","<p>作为军队的指挥官，你可以选择发射导弹杀死 <strong>6名</strong> 敌国士兵，但会误杀附近的 <strong>1名</strong> 敌国平民。</p> <p>平民照片如下图所示。</p> <p></p> <img src='stimuli/faces/NFF5.jpg', style='max-width: 30%;'> </img> <p><strong>你是否选择发射武器？</strong></p>","0",""
"","","","","","html-keyboard-response","22","89648","0.0-4.0-0.9","44","1","2022-11-04 05:23:37","ebf9627b049f568eb4bf28942cb89901","111.205.21.102","Mozilla/5.0 (Windows NT 10.0; Win64; x64) AppleWebKit/537.36 (KHTML, like Gecko) Chrome/107.0.0.0 Safari/537.36 Edg/107.0.1418.26","WebKit","Edge","107.0.1418.26","Windows","10.0","null","<div style=""font-size:60px;"">+</div>","null",""
"","","","","","html-button-response","23","91350","0.0-4.0-1.9","44","1","2022-11-04 05:23:37","ebf9627b049f568eb4bf28942cb89901","111.205.21.102","Mozilla/5.0 (Windows NT 10.0; Win64; x64) AppleWebKit/537.36 (KHTML, like Gecko) Chrome/107.0.0.0 Safari/537.36 Edg/107.0.1418.26","WebKit","Edge","107.0.1418.26","Windows","10.0","1698","<p>作为军队的指挥官，你可以选择发射导弹杀死 <strong>10名</strong> 敌国士兵，但会炸毁附近的 <strong>1棵</strong> 敌国树木。</p> <p>树木的照片如下图所示。</p> <p></p> <img src='stimuli/trees/13.png', style='max-width: 30%;'> </img> <p><strong>你是否选择发射武器？</strong></p>","0",""
"","","","","","html-keyboard-response","24","92359","0.0-4.0-0.10","44","1","2022-11-04 05:23:37","ebf9627b049f568eb4bf28942cb89901","111.205.21.102","Mozilla/5.0 (Windows NT 10.0; Win64; x64) AppleWebKit/537.36 (KHTML, like Gecko) Chrome/107.0.0.0 Safari/537.36 Edg/107.0.1418.26","WebKit","Edge","107.0.1418.26","Windows","10.0","null","<div style=""font-size:60px;"">+</div>","null",""
"","","","","","html-button-response","25","94294","0.0-4.0-1.10","44","1","2022-11-04 05:23:37","ebf9627b049f568eb4bf28942cb89901","111.205.21.102","Mozilla/5.0 (Windows NT 10.0; Win64; x64) AppleWebKit/537.36 (KHTML, like Gecko) Chrome/107.0.0.0 Safari/537.36 Edg/107.0.1418.26","WebKit","Edge","107.0.1418.26","Windows","10.0","1931","<p>作为军队的指挥官，你可以选择发射导弹杀死 <strong>5名</strong> 敌国士兵，但会炸毁附近的 <strong>1棵</strong> 敌国树木。</p> <p>树木的照片如下图所示。</p> <p></p> <img src='stimuli/trees/1.png', style='max-width: 30%;'> </img> <p><strong>你是否选择发射武器？</strong></p>","0",""
"","","","","","html-keyboard-response","26","95304","0.0-4.0-0.11","44","1","2022-11-04 05:23:37","ebf9627b049f568eb4bf28942cb89901","111.205.21.102","Mozilla/5.0 (Windows NT 10.0; Win64; x64) AppleWebKit/537.36 (KHTML, like Gecko) Chrome/107.0.0.0 Safari/537.36 Edg/107.0.1418.26","WebKit","Edge","107.0.1418.26","Windows","10.0","null","<div style=""font-size:60px;"">+</div>","null",""
"","","","","","html-button-response","27","96624","0.0-4.0-1.11","44","1","2022-11-04 05:23:37","ebf9627b049f568eb4bf28942cb89901","111.205.21.102","Mozilla/5.0 (Windows NT 10.0; Win64; x64) AppleWebKit/537.36 (KHTML, like Gecko) Chrome/107.0.0.0 Safari/537.36 Edg/107.0.1418.26","WebKit","Edge","107.0.1418.26","Windows","10.0","1315","<p>作为军队的指挥官，你可以选择发射导弹杀死 <strong>7名</strong> 敌国士兵，但会误杀附近的 <strong>1名</strong> 敌国平民。</p> <p>平民照片如下图所示。</p> <p></p> <img src='stimuli/faces/NFF2.jpg', style='max-width: 30%;'> </img> <p><strong>你是否选择发射武器？</strong></p>","0",""
"","","","","","html-keyboard-response","28","97634","0.0-4.0-0.12","44","1","2022-11-04 05:23:37","ebf9627b049f568eb4bf28942cb89901","111.205.21.102","Mozilla/5.0 (Windows NT 10.0; Win64; x64) AppleWebKit/537.36 (KHTML, like Gecko) Chrome/107.0.0.0 Safari/537.36 Edg/107.0.1418.26","WebKit","Edge","107.0.1418.26","Windows","10.0","null","<div style=""font-size:60px;"">+</div>","null",""
"","","","","","html-button-response","29","99736","0.0-4.0-1.12","44","1","2022-11-04 05:23:37","ebf9627b049f568eb4bf28942cb89901","111.205.21.102","Mozilla/5.0 (Windows NT 10.0; Win64; x64) AppleWebKit/537.36 (KHTML, like Gecko) Chrome/107.0.0.0 Safari/537.36 Edg/107.0.1418.26","WebKit","Edge","107.0.1418.26","Windows","10.0","2099","<p>作为军队的指挥官，你可以选择发射导弹杀死 <strong>7名</strong> 敌国士兵，但会炸毁附近的 <strong>1棵</strong> 敌国树木。</p> <p>树木的照片如下图所示。</p> <p></p> <img src='stimuli/trees/1.png', style='max-width: 30%;'> </img> <p><strong>你是否选择发射武器？</strong></p>","0",""
"","","","","","html-keyboard-response","30","100760","0.0-4.0-0.13","44","1","2022-11-04 05:23:37","ebf9627b049f568eb4bf28942cb89901","111.205.21.102","Mozilla/5.0 (Windows NT 10.0; Win64; x64) AppleWebKit/537.36 (KHTML, like Gecko) Chrome/107.0.0.0 Safari/537.36 Edg/107.0.1418.26","WebKit","Edge","107.0.1418.26","Windows","10.0","null","<div style=""font-size:60px;"">+</div>","null",""
"","","","","","html-button-response","31","102380","0.0-4.0-1.13","44","1","2022-11-04 05:23:37","ebf9627b049f568eb4bf28942cb89901","111.205.21.102","Mozilla/5.0 (Windows NT 10.0; Win64; x64) AppleWebKit/537.36 (KHTML, like Gecko) Chrome/107.0.0.0 Safari/537.36 Edg/107.0.1418.26","WebKit","Edge","107.0.1418.26","Windows","10.0","1615","<p>作为军队的指挥官，你可以选择发射导弹杀死 <strong>8名</strong> 敌国士兵，但会炸毁附近的 <strong>1棵</strong> 敌国树木。</p> <p>树木的照片如下图所示。</p> <p></p> <img src='stimuli/trees/5.png', style='max-width: 30%;'> </img> <p><strong>你是否选择发射武器？</strong></p>","0",""
"","","","","","html-keyboard-response","32","103390","0.0-4.0-0.14","44","1","2022-11-04 05:23:37","ebf9627b049f568eb4bf28942cb89901","111.205.21.102","Mozilla/5.0 (Windows NT 10.0; Win64; x64) AppleWebKit/537.36 (KHTML, like Gecko) Chrome/107.0.0.0 Safari/537.36 Edg/107.0.1418.26","WebKit","Edge","107.0.1418.26","Windows","10.0","null","<div style=""font-size:60px;"">+</div>","null",""
"","","","","","html-button-response","33","105043","0.0-4.0-1.14","44","1","2022-11-04 05:23:37","ebf9627b049f568eb4bf28942cb89901","111.205.21.102","Mozilla/5.0 (Windows NT 10.0; Win64; x64) AppleWebKit/537.36 (KHTML, like Gecko) Chrome/107.0.0.0 Safari/537.36 Edg/107.0.1418.26","WebKit","Edge","107.0.1418.26","Windows","10.0","1647","<p>作为军队的指挥官，你可以选择发射导弹杀死 <strong>5名</strong> 敌国士兵，但会炸毁附近的 <strong>1棵</strong> 敌国树木。</p> <p>树木的照片如下图所示。</p> <p></p> <img src='stimuli/trees/10.png', style='max-width: 30%;'> </img> <p><strong>你是否选择发射武器？</strong></p>","0",""
"","","","","","html-keyboard-response","34","106051","0.0-4.0-0.15","44","1","2022-11-04 05:23:37","ebf9627b049f568eb4bf28942cb89901","111.205.21.102","Mozilla/5.0 (Windows NT 10.0; Win64; x64) AppleWebKit/537.36 (KHTML, like Gecko) Chrome/107.0.0.0 Safari/537.36 Edg/107.0.1418.26","WebKit","Edge","107.0.1418.26","Windows","10.0","null","<div style=""font-size:60px;"">+</div>","null",""
"","","","","","html-button-response","35","107422","0.0-4.0-1.15","44","1","2022-11-04 05:23:37","ebf9627b049f568eb4bf28942cb89901","111.205.21.102","Mozilla/5.0 (Windows NT 10.0; Win64; x64) AppleWebKit/537.36 (KHTML, like Gecko) Chrome/107.0.0.0 Safari/537.36 Edg/107.0.1418.26","WebKit","Edge","107.0.1418.26","Windows","10.0","1369","<p>作为军队的指挥官，你可以选择发射导弹杀死 <strong>8名</strong> 敌国士兵，但会误杀附近的 <strong>1名</strong> 敌国平民。</p> <p>平民照片如下图所示。</p> <p></p> <img src='stimuli/faces/NFM6.jpg', style='max-width: 30%;'> </img> <p><strong>你是否选择发射武器？</strong></p>","0",""
"","","","","","html-keyboard-response","36","108431","0.0-4.0-0.16","44","1","2022-11-04 05:23:37","ebf9627b049f568eb4bf28942cb89901","111.205.21.102","Mozilla/5.0 (Windows NT 10.0; Win64; x64) AppleWebKit/537.36 (KHTML, like Gecko) Chrome/107.0.0.0 Safari/537.36 Edg/107.0.1418.26","WebKit","Edge","107.0.1418.26","Windows","10.0","null","<div style=""font-size:60px;"">+</div>","null",""
"","","","","","html-button-response","37","109815","0.0-4.0-1.16","44","1","2022-11-04 05:23:37","ebf9627b049f568eb4bf28942cb89901","111.205.21.102","Mozilla/5.0 (Windows NT 10.0; Win64; x64) AppleWebKit/537.36 (KHTML, like Gecko) Chrome/107.0.0.0 Safari/537.36 Edg/107.0.1418.26","WebKit","Edge","107.0.1418.26","Windows","10.0","1379","<p>作为军队的指挥官，你可以选择发射导弹杀死 <strong>8名</strong> 敌国士兵，但会误杀附近的 <strong>1名</strong> 敌国平民。</p> <p>平民照片如下图所示。</p> <p></p> <img src='stimuli/faces/NFF7.jpg', style='max-width: 30%;'> </img> <p><strong>你是否选择发射武器？</strong></p>","0",""
"","","","","","html-keyboard-response","38","110825","0.0-4.0-0.17","44","1","2022-11-04 05:23:37","ebf9627b049f568eb4bf28942cb89901","111.205.21.102","Mozilla/5.0 (Windows NT 10.0; Win64; x64) AppleWebKit/537.36 (KHTML, like Gecko) Chrome/107.0.0.0 Safari/537.36 Edg/107.0.1418.26","WebKit","Edge","107.0.1418.26","Windows","10.0","null","<div style=""font-size:60px;"">+</div>","null",""
"","","","","","html-button-response","39","112892","0.0-4.0-1.17","44","1","2022-11-04 05:23:37","ebf9627b049f568eb4bf28942cb89901","111.205.21.102","Mozilla/5.0 (Windows NT 10.0; Win64; x64) AppleWebKit/537.36 (KHTML, like Gecko) Chrome/107.0.0.0 Safari/537.36 Edg/107.0.1418.26","WebKit","Edge","107.0.1418.26","Windows","10.0","2062","<p>作为军队的指挥官，你可以选择发射导弹杀死 <strong>4名</strong> 敌国士兵，但会炸毁附近的 <strong>1棵</strong> 敌国树木。</p> <p>树木的照片如下图所示。</p> <p></p> <img src='stimuli/trees/9.png', style='max-width: 30%;'> </img> <p><strong>你是否选择发射武器？</strong></p>","0",""
"","","","","","html-keyboard-response","40","113912","0.0-4.0-0.18","44","1","2022-11-04 05:23:37","ebf9627b049f568eb4bf28942cb89901","111.205.21.102","Mozilla/5.0 (Windows NT 10.0; Win64; x64) AppleWebKit/537.36 (KHTML, like Gecko) Chrome/107.0.0.0 Safari/537.36 Edg/107.0.1418.26","WebKit","Edge","107.0.1418.26","Windows","10.0","null","<div style=""font-size:60px;"">+</div>","null",""
"","","","","","html-button-response","41","115174","0.0-4.0-1.18","44","1","2022-11-04 05:23:37","ebf9627b049f568eb4bf28942cb89901","111.205.21.102","Mozilla/5.0 (Windows NT 10.0; Win64; x64) AppleWebKit/537.36 (KHTML, like Gecko) Chrome/107.0.0.0 Safari/537.36 Edg/107.0.1418.26","WebKit","Edge","107.0.1418.26","Windows","10.0","1258","<p>作为军队的指挥官，你可以选择发射导弹杀死 <strong>7名</strong> 敌国士兵，但会炸毁附近的 <strong>1棵</strong> 敌国树木。</p> <p>树木的照片如下图所示。</p> <p></p> <img src='stimuli/trees/16.png', style='max-width: 30%;'> </img> <p><strong>你是否选择发射武器？</strong></p>","0",""
"","","","","","html-keyboard-response","42","116184","0.0-4.0-0.19","44","1","2022-11-04 05:23:37","ebf9627b049f568eb4bf28942cb89901","111.205.21.102","Mozilla/5.0 (Windows NT 10.0; Win64; x64) AppleWebKit/537.36 (KHTML, like Gecko) Chrome/107.0.0.0 Safari/537.36 Edg/107.0.1418.26","WebKit","Edge","107.0.1418.26","Windows","10.0","null","<div style=""font-size:60px;"">+</div>","null",""
"","","","","","html-button-response","43","117620","0.0-4.0-1.19","44","1","2022-11-04 05:23:37","ebf9627b049f568eb4bf28942cb89901","111.205.21.102","Mozilla/5.0 (Windows NT 10.0; Win64; x64) AppleWebKit/537.36 (KHTML, like Gecko) Chrome/107.0.0.0 Safari/537.36 Edg/107.0.1418.26","WebKit","Edge","107.0.1418.26","Windows","10.0","1428","<p>作为军队的指挥官，你可以选择发射导弹杀死 <strong>4名</strong> 敌国士兵，但会炸毁附近的 <strong>1棵</strong> 敌国树木。</p> <p>树木的照片如下图所示。</p> <p></p> <img src='stimuli/trees/2.png', style='max-width: 30%;'> </img> <p><strong>你是否选择发射武器？</strong></p>","0",""
"","","","","","html-keyboard-response","44","118630","0.0-4.0-0.20","44","1","2022-11-04 05:23:37","ebf9627b049f568eb4bf28942cb89901","111.205.21.102","Mozilla/5.0 (Windows NT 10.0; Win64; x64) AppleWebKit/537.36 (KHTML, like Gecko) Chrome/107.0.0.0 Safari/537.36 Edg/107.0.1418.26","WebKit","Edge","107.0.1418.26","Windows","10.0","null","<div style=""font-size:60px;"">+</div>","null",""
"","","","","","html-button-response","45","121613","0.0-4.0-1.20","44","1","2022-11-04 05:23:37","ebf9627b049f568eb4bf28942cb89901","111.205.21.102","Mozilla/5.0 (Windows NT 10.0; Win64; x64) AppleWebKit/537.36 (KHTML, like Gecko) Chrome/107.0.0.0 Safari/537.36 Edg/107.0.1418.26","WebKit","Edge","107.0.1418.26","Windows","10.0","2980","<p>作为军队的指挥官，你可以选择发射导弹杀死 <strong>3名</strong> 敌国士兵，但会误杀附近的 <strong>1名</strong> 敌国平民。</p> <p>平民照片如下图所示。</p> <p></p> <img src='stimuli/faces/NFM7.jpg', style='max-width: 30%;'> </img> <p><strong>你是否选择发射武器？</strong></p>","1",""
"","","","","","html-keyboard-response","46","122631","0.0-4.0-0.21","44","1","2022-11-04 05:23:37","ebf9627b049f568eb4bf28942cb89901","111.205.21.102","Mozilla/5.0 (Windows NT 10.0; Win64; x64) AppleWebKit/537.36 (KHTML, like Gecko) Chrome/107.0.0.0 Safari/537.36 Edg/107.0.1418.26","WebKit","Edge","107.0.1418.26","Windows","10.0","null","<div style=""font-size:60px;"">+</div>","null",""
"","","","","","html-button-response","47","124892","0.0-4.0-1.21","44","1","2022-11-04 05:23:37","ebf9627b049f568eb4bf28942cb89901","111.205.21.102","Mozilla/5.0 (Windows NT 10.0; Win64; x64) AppleWebKit/537.36 (KHTML, like Gecko) Chrome/107.0.0.0 Safari/537.36 Edg/107.0.1418.26","WebKit","Edge","107.0.1418.26","Windows","10.0","2255","<p>作为军队的指挥官，你可以选择发射导弹杀死 <strong>6名</strong> 敌国士兵，但会误杀附近的 <strong>1名</strong> 敌国平民。</p> <p>平民照片如下图所示。</p> <p></p> <img src='stimuli/faces/NFF8.jpg', style='max-width: 30%;'> </img> <p><strong>你是否选择发射武器？</strong></p>","0",""
"","","","","","html-keyboard-response","48","125900","0.0-4.0-0.22","44","1","2022-11-04 05:23:37","ebf9627b049f568eb4bf28942cb89901","111.205.21.102","Mozilla/5.0 (Windows NT 10.0; Win64; x64) AppleWebKit/537.36 (KHTML, like Gecko) Chrome/107.0.0.0 Safari/537.36 Edg/107.0.1418.26","WebKit","Edge","107.0.1418.26","Windows","10.0","null","<div style=""font-size:60px;"">+</div>","null",""
"","","","","","html-button-response","49","127038","0.0-4.0-1.22","44","1","2022-11-04 05:23:37","ebf9627b049f568eb4bf28942cb89901","111.205.21.102","Mozilla/5.0 (Windows NT 10.0; Win64; x64) AppleWebKit/537.36 (KHTML, like Gecko) Chrome/107.0.0.0 Safari/537.36 Edg/107.0.1418.26","WebKit","Edge","107.0.1418.26","Windows","10.0","1136","<p>作为军队的指挥官，你可以选择发射导弹杀死 <strong>10名</strong> 敌国士兵，但会误杀附近的 <strong>1名</strong> 敌国平民。</p> <p>平民照片如下图所示。</p> <p></p> <img src='stimuli/faces/NFM8.jpg', style='max-width: 30%;'> </img> <p><strong>你是否选择发射武器？</strong></p>","0",""
"","","","","","html-keyboard-response","50","128057","0.0-4.0-0.23","44","1","2022-11-04 05:23:37","ebf9627b049f568eb4bf28942cb89901","111.205.21.102","Mozilla/5.0 (Windows NT 10.0; Win64; x64) AppleWebKit/537.36 (KHTML, like Gecko) Chrome/107.0.0.0 Safari/537.36 Edg/107.0.1418.26","WebKit","Edge","107.0.1418.26","Windows","10.0","null","<div style=""font-size:60px;"">+</div>","null",""
"","","","","","html-button-response","51","130282","0.0-4.0-1.23","44","1","2022-11-04 05:23:37","ebf9627b049f568eb4bf28942cb89901","111.205.21.102","Mozilla/5.0 (Windows NT 10.0; Win64; x64) AppleWebKit/537.36 (KHTML, like Gecko) Chrome/107.0.0.0 Safari/537.36 Edg/107.0.1418.26","WebKit","Edge","107.0.1418.26","Windows","10.0","2221","<p>作为军队的指挥官，你可以选择发射导弹杀死 <strong>5名</strong> 敌国士兵，但会炸毁附近的 <strong>1棵</strong> 敌国树木。</p> <p>树木的照片如下图所示。</p> <p></p> <img src='stimuli/trees/3.png', style='max-width: 30%;'> </img> <p><strong>你是否选择发射武器？</strong></p>","0",""
"","","","","","html-keyboard-response","52","131294","0.0-4.0-0.24","44","1","2022-11-04 05:23:37","ebf9627b049f568eb4bf28942cb89901","111.205.21.102","Mozilla/5.0 (Windows NT 10.0; Win64; x64) AppleWebKit/537.36 (KHTML, like Gecko) Chrome/107.0.0.0 Safari/537.36 Edg/107.0.1418.26","WebKit","Edge","107.0.1418.26","Windows","10.0","null","<div style=""font-size:60px;"">+</div>","null",""
"","","","","","html-button-response","53","133276","0.0-4.0-1.24","44","1","2022-11-04 05:23:37","ebf9627b049f568eb4bf28942cb89901","111.205.21.102","Mozilla/5.0 (Windows NT 10.0; Win64; x64) AppleWebKit/537.36 (KHTML, like Gecko) Chrome/107.0.0.0 Safari/537.36 Edg/107.0.1418.26","WebKit","Edge","107.0.1418.26","Windows","10.0","1977","<p>作为军队的指挥官，你可以选择发射导弹杀死 <strong>1名</strong> 敌国士兵，但会误杀附近的 <strong>1名</strong> 敌国平民。</p> <p>平民照片如下图所示。</p> <p></p> <img src='stimuli/faces/NFM1.jpg', style='max-width: 30%;'> </img> <p><strong>你是否选择发射武器？</strong></p>","1",""
"","","","","","html-keyboard-response","54","134289","0.0-4.0-0.25","44","1","2022-11-04 05:23:37","ebf9627b049f568eb4bf28942cb89901","111.205.21.102","Mozilla/5.0 (Windows NT 10.0; Win64; x64) AppleWebKit/537.36 (KHTML, like Gecko) Chrome/107.0.0.0 Safari/537.36 Edg/107.0.1418.26","WebKit","Edge","107.0.1418.26","Windows","10.0","null","<div style=""font-size:60px;"">+</div>","null",""
"","","","","","html-button-response","55","136799","0.0-4.0-1.25","44","1","2022-11-04 05:23:37","ebf9627b049f568eb4bf28942cb89901","111.205.21.102","Mozilla/5.0 (Windows NT 10.0; Win64; x64) AppleWebKit/537.36 (KHTML, like Gecko) Chrome/107.0.0.0 Safari/537.36 Edg/107.0.1418.26","WebKit","Edge","107.0.1418.26","Windows","10.0","2508","<p>作为军队的指挥官，你可以选择发射导弹杀死 <strong>1名</strong> 敌国士兵，但会炸毁附近的 <strong>1棵</strong> 敌国树木。</p> <p>树木的照片如下图所示。</p> <p></p> <img src='stimuli/trees/6.png', style='max-width: 30%;'> </img> <p><strong>你是否选择发射武器？</strong></p>","1",""
"","","","","","html-keyboard-response","56","137813","0.0-4.0-0.26","44","1","2022-11-04 05:23:37","ebf9627b049f568eb4bf28942cb89901","111.205.21.102","Mozilla/5.0 (Windows NT 10.0; Win64; x64) AppleWebKit/537.36 (KHTML, like Gecko) Chrome/107.0.0.0 Safari/537.36 Edg/107.0.1418.26","WebKit","Edge","107.0.1418.26","Windows","10.0","null","<div style=""font-size:60px;"">+</div>","null",""
"","","","","","html-button-response","57","139749","0.0-4.0-1.26","44","1","2022-11-04 05:23:37","ebf9627b049f568eb4bf28942cb89901","111.205.21.102","Mozilla/5.0 (Windows NT 10.0; Win64; x64) AppleWebKit/537.36 (KHTML, like Gecko) Chrome/107.0.0.0 Safari/537.36 Edg/107.0.1418.26","WebKit","Edge","107.0.1418.26","Windows","10.0","1929","<p>作为军队的指挥官，你可以选择发射导弹杀死 <strong>2名</strong> 敌国士兵，但会误杀附近的 <strong>1名</strong> 敌国平民。</p> <p>平民照片如下图所示。</p> <p></p> <img src='stimuli/faces/NFF1.jpg', style='max-width: 30%;'> </img> <p><strong>你是否选择发射武器？</strong></p>","1",""
"","","","","","html-keyboard-response","58","140758","0.0-4.0-0.27","44","1","2022-11-04 05:23:37","ebf9627b049f568eb4bf28942cb89901","111.205.21.102","Mozilla/5.0 (Windows NT 10.0; Win64; x64) AppleWebKit/537.36 (KHTML, like Gecko) Chrome/107.0.0.0 Safari/537.36 Edg/107.0.1418.26","WebKit","Edge","107.0.1418.26","Windows","10.0","null","<div style=""font-size:60px;"">+</div>","null",""
"","","","","","html-button-response","59","142842","0.0-4.0-1.27","44","1","2022-11-04 05:23:37","ebf9627b049f568eb4bf28942cb89901","111.205.21.102","Mozilla/5.0 (Windows NT 10.0; Win64; x64) AppleWebKit/537.36 (KHTML, like Gecko) Chrome/107.0.0.0 Safari/537.36 Edg/107.0.1418.26","WebKit","Edge","107.0.1418.26","Windows","10.0","2078","<p>作为军队的指挥官，你可以选择发射导弹杀死 <strong>6名</strong> 敌国士兵，但会炸毁附近的 <strong>1棵</strong> 敌国树木。</p> <p>树木的照片如下图所示。</p> <p></p> <img src='stimuli/trees/15.png', style='max-width: 30%;'> </img> <p><strong>你是否选择发射武器？</strong></p>","0",""
"","","","","","html-keyboard-response","60","143867","0.0-4.0-0.28","44","1","2022-11-04 05:23:37","ebf9627b049f568eb4bf28942cb89901","111.205.21.102","Mozilla/5.0 (Windows NT 10.0; Win64; x64) AppleWebKit/537.36 (KHTML, like Gecko) Chrome/107.0.0.0 Safari/537.36 Edg/107.0.1418.26","WebKit","Edge","107.0.1418.26","Windows","10.0","null","<div style=""font-size:60px;"">+</div>","null",""
"","","","","","html-button-response","61","144772","0.0-4.0-1.28","44","1","2022-11-04 05:23:37","ebf9627b049f568eb4bf28942cb89901","111.205.21.102","Mozilla/5.0 (Windows NT 10.0; Win64; x64) AppleWebKit/537.36 (KHTML, like Gecko) Chrome/107.0.0.0 Safari/537.36 Edg/107.0.1418.26","WebKit","Edge","107.0.1418.26","Windows","10.0","899","<p>作为军队的指挥官，你可以选择发射导弹杀死 <strong>6名</strong> 敌国士兵，但会炸毁附近的 <strong>1棵</strong> 敌国树木。</p> <p>树木的照片如下图所示。</p> <p></p> <img src='stimuli/trees/2.png', style='max-width: 30%;'> </img> <p><strong>你是否选择发射武器？</strong></p>","0",""
"","","","","","html-keyboard-response","62","145782","0.0-4.0-0.29","44","1","2022-11-04 05:23:37","ebf9627b049f568eb4bf28942cb89901","111.205.21.102","Mozilla/5.0 (Windows NT 10.0; Win64; x64) AppleWebKit/537.36 (KHTML, like Gecko) Chrome/107.0.0.0 Safari/537.36 Edg/107.0.1418.26","WebKit","Edge","107.0.1418.26","Windows","10.0","null","<div style=""font-size:60px;"">+</div>","null",""
"","","","","","html-button-response","63","147002","0.0-4.0-1.29","44","1","2022-11-04 05:23:37","ebf9627b049f568eb4bf28942cb89901","111.205.21.102","Mozilla/5.0 (Windows NT 10.0; Win64; x64) AppleWebKit/537.36 (KHTML, like Gecko) Chrome/107.0.0.0 Safari/537.36 Edg/107.0.1418.26","WebKit","Edge","107.0.1418.26","Windows","10.0","1214","<p>作为军队的指挥官，你可以选择发射导弹杀死 <strong>9名</strong> 敌国士兵，但会炸毁附近的 <strong>1棵</strong> 敌国树木。</p> <p>树木的照片如下图所示。</p> <p></p> <img src='stimuli/trees/12.png', style='max-width: 30%;'> </img> <p><strong>你是否选择发射武器？</strong></p>","0",""
"","","","","","html-keyboard-response","64","148011","0.0-4.0-0.30","44","1","2022-11-04 05:23:37","ebf9627b049f568eb4bf28942cb89901","111.205.21.102","Mozilla/5.0 (Windows NT 10.0; Win64; x64) AppleWebKit/537.36 (KHTML, like Gecko) Chrome/107.0.0.0 Safari/537.36 Edg/107.0.1418.26","WebKit","Edge","107.0.1418.26","Windows","10.0","null","<div style=""font-size:60px;"">+</div>","null",""
"","","","","","html-button-response","65","149643","0.0-4.0-1.30","44","1","2022-11-04 05:23:37","ebf9627b049f568eb4bf28942cb89901","111.205.21.102","Mozilla/5.0 (Windows NT 10.0; Win64; x64) AppleWebKit/537.36 (KHTML, like Gecko) Chrome/107.0.0.0 Safari/537.36 Edg/107.0.1418.26","WebKit","Edge","107.0.1418.26","Windows","10.0","1630","<p>作为军队的指挥官，你可以选择发射导弹杀死 <strong>3名</strong> 敌国士兵，但会炸毁附近的 <strong>1棵</strong> 敌国树木。</p> <p>树木的照片如下图所示。</p> <p></p> <img src='stimuli/trees/15.png', style='max-width: 30%;'> </img> <p><strong>你是否选择发射武器？</strong></p>","0",""
"","","","","","html-keyboard-response","66","150657","0.0-4.0-0.31","44","1","2022-11-04 05:23:37","ebf9627b049f568eb4bf28942cb89901","111.205.21.102","Mozilla/5.0 (Windows NT 10.0; Win64; x64) AppleWebKit/537.36 (KHTML, like Gecko) Chrome/107.0.0.0 Safari/537.36 Edg/107.0.1418.26","WebKit","Edge","107.0.1418.26","Windows","10.0","null","<div style=""font-size:60px;"">+</div>","null",""
"","","","","","html-button-response","67","152191","0.0-4.0-1.31","44","1","2022-11-04 05:23:37","ebf9627b049f568eb4bf28942cb89901","111.205.21.102","Mozilla/5.0 (Windows NT 10.0; Win64; x64) AppleWebKit/537.36 (KHTML, like Gecko) Chrome/107.0.0.0 Safari/537.36 Edg/107.0.1418.26","WebKit","Edge","107.0.1418.26","Windows","10.0","1528","<p>作为军队的指挥官，你可以选择发射导弹杀死 <strong>4名</strong> 敌国士兵，但会炸毁附近的 <strong>1棵</strong> 敌国树木。</p> <p>树木的照片如下图所示。</p> <p></p> <img src='stimuli/trees/11.png', style='max-width: 30%;'> </img> <p><strong>你是否选择发射武器？</strong></p>","0",""
"","","","","","html-keyboard-response","68","153202","0.0-4.0-0.32","44","1","2022-11-04 05:23:37","ebf9627b049f568eb4bf28942cb89901","111.205.21.102","Mozilla/5.0 (Windows NT 10.0; Win64; x64) AppleWebKit/537.36 (KHTML, like Gecko) Chrome/107.0.0.0 Safari/537.36 Edg/107.0.1418.26","WebKit","Edge","107.0.1418.26","Windows","10.0","null","<div style=""font-size:60px;"">+</div>","null",""
"","","","","","html-button-response","69","154488","0.0-4.0-1.32","44","1","2022-11-04 05:23:37","ebf9627b049f568eb4bf28942cb89901","111.205.21.102","Mozilla/5.0 (Windows NT 10.0; Win64; x64) AppleWebKit/537.36 (KHTML, like Gecko) Chrome/107.0.0.0 Safari/537.36 Edg/107.0.1418.26","WebKit","Edge","107.0.1418.26","Windows","10.0","1283","<p>作为军队的指挥官，你可以选择发射导弹杀死 <strong>5名</strong> 敌国士兵，但会误杀附近的 <strong>1名</strong> 敌国平民。</p> <p>平民照片如下图所示。</p> <p></p> <img src='stimuli/faces/NFM5.jpg', style='max-width: 30%;'> </img> <p><strong>你是否选择发射武器？</strong></p>","0",""
"","","","","","html-keyboard-response","70","155514","0.0-4.0-0.33","44","1","2022-11-04 05:23:37","ebf9627b049f568eb4bf28942cb89901","111.205.21.102","Mozilla/5.0 (Windows NT 10.0; Win64; x64) AppleWebKit/537.36 (KHTML, like Gecko) Chrome/107.0.0.0 Safari/537.36 Edg/107.0.1418.26","WebKit","Edge","107.0.1418.26","Windows","10.0","null","<div style=""font-size:60px;"">+</div>","null",""
"","","","","","html-button-response","71","157667","0.0-4.0-1.33","44","1","2022-11-04 05:23:37","ebf9627b049f568eb4bf28942cb89901","111.205.21.102","Mozilla/5.0 (Windows NT 10.0; Win64; x64) AppleWebKit/537.36 (KHTML, like Gecko) Chrome/107.0.0.0 Safari/537.36 Edg/107.0.1418.26","WebKit","Edge","107.0.1418.26","Windows","10.0","2145","<p>作为军队的指挥官，你可以选择发射导弹杀死 <strong>1名</strong> 敌国士兵，但会炸毁附近的 <strong>1棵</strong> 敌国树木。</p> <p>树木的照片如下图所示。</p> <p></p> <img src='stimuli/trees/8.png', style='max-width: 30%;'> </img> <p><strong>你是否选择发射武器？</strong></p>","1",""
"","","","","","html-keyboard-response","72","158676","0.0-4.0-0.34","44","1","2022-11-04 05:23:37","ebf9627b049f568eb4bf28942cb89901","111.205.21.102","Mozilla/5.0 (Windows NT 10.0; Win64; x64) AppleWebKit/537.36 (KHTML, like Gecko) Chrome/107.0.0.0 Safari/537.36 Edg/107.0.1418.26","WebKit","Edge","107.0.1418.26","Windows","10.0","null","<div style=""font-size:60px;"">+</div>","null",""
"","","","","","html-button-response","73","161027","0.0-4.0-1.34","44","1","2022-11-04 05:23:37","ebf9627b049f568eb4bf28942cb89901","111.205.21.102","Mozilla/5.0 (Windows NT 10.0; Win64; x64) AppleWebKit/537.36 (KHTML, like Gecko) Chrome/107.0.0.0 Safari/537.36 Edg/107.0.1418.26","WebKit","Edge","107.0.1418.26","Windows","10.0","2348","<p>作为军队的指挥官，你可以选择发射导弹杀死 <strong>3名</strong> 敌国士兵，但会误杀附近的 <strong>1名</strong> 敌国平民。</p> <p>平民照片如下图所示。</p> <p></p> <img src='stimuli/faces/NFM2.jpg', style='max-width: 30%;'> </img> <p><strong>你是否选择发射武器？</strong></p>","1",""
"","","","","","html-keyboard-response","74","162036","0.0-4.0-0.35","44","1","2022-11-04 05:23:37","ebf9627b049f568eb4bf28942cb89901","111.205.21.102","Mozilla/5.0 (Windows NT 10.0; Win64; x64) AppleWebKit/537.36 (KHTML, like Gecko) Chrome/107.0.0.0 Safari/537.36 Edg/107.0.1418.26","WebKit","Edge","107.0.1418.26","Windows","10.0","null","<div style=""font-size:60px;"">+</div>","null",""
"","","","","","html-button-response","75","165069","0.0-4.0-1.35","44","1","2022-11-04 05:23:37","ebf9627b049f568eb4bf28942cb89901","111.205.21.102","Mozilla/5.0 (Windows NT 10.0; Win64; x64) AppleWebKit/537.36 (KHTML, like Gecko) Chrome/107.0.0.0 Safari/537.36 Edg/107.0.1418.26","WebKit","Edge","107.0.1418.26","Windows","10.0","3026","<p>作为军队的指挥官，你可以选择发射导弹杀死 <strong>4名</strong> 敌国士兵，但会炸毁附近的 <strong>1棵</strong> 敌国树木。</p> <p>树木的照片如下图所示。</p> <p></p> <img src='stimuli/trees/7.png', style='max-width: 30%;'> </img> <p><strong>你是否选择发射武器？</strong></p>","0",""
"","","","","","html-keyboard-response","76","166079","0.0-4.0-0.36","44","1","2022-11-04 05:23:37","ebf9627b049f568eb4bf28942cb89901","111.205.21.102","Mozilla/5.0 (Windows NT 10.0; Win64; x64) AppleWebKit/537.36 (KHTML, like Gecko) Chrome/107.0.0.0 Safari/537.36 Edg/107.0.1418.26","WebKit","Edge","107.0.1418.26","Windows","10.0","null","<div style=""font-size:60px;"">+</div>","null",""
"","","","","","html-button-response","77","167023","0.0-4.0-1.36","44","1","2022-11-04 05:23:37","ebf9627b049f568eb4bf28942cb89901","111.205.21.102","Mozilla/5.0 (Windows NT 10.0; Win64; x64) AppleWebKit/537.36 (KHTML, like Gecko) Chrome/107.0.0.0 Safari/537.36 Edg/107.0.1418.26","WebKit","Edge","107.0.1418.26","Windows","10.0","941","<p>作为军队的指挥官，你可以选择发射导弹杀死 <strong>8名</strong> 敌国士兵，但会炸毁附近的 <strong>1棵</strong> 敌国树木。</p> <p>树木的照片如下图所示。</p> <p></p> <img src='stimuli/trees/11.png', style='max-width: 30%;'> </img> <p><strong>你是否选择发射武器？</strong></p>","0",""
"","","","","","html-keyboard-response","78","168044","0.0-4.0-0.37","44","1","2022-11-04 05:23:37","ebf9627b049f568eb4bf28942cb89901","111.205.21.102","Mozilla/5.0 (Windows NT 10.0; Win64; x64) AppleWebKit/537.36 (KHTML, like Gecko) Chrome/107.0.0.0 Safari/537.36 Edg/107.0.1418.26","WebKit","Edge","107.0.1418.26","Windows","10.0","null","<div style=""font-size:60px;"">+</div>","null",""
"","","","","","html-button-response","79","168995","0.0-4.0-1.37","44","1","2022-11-04 05:23:37","ebf9627b049f568eb4bf28942cb89901","111.205.21.102","Mozilla/5.0 (Windows NT 10.0; Win64; x64) AppleWebKit/537.36 (KHTML, like Gecko) Chrome/107.0.0.0 Safari/537.36 Edg/107.0.1418.26","WebKit","Edge","107.0.1418.26","Windows","10.0","948","<p>作为军队的指挥官，你可以选择发射导弹杀死 <strong>8名</strong> 敌国士兵，但会误杀附近的 <strong>1名</strong> 敌国平民。</p> <p>平民照片如下图所示。</p> <p></p> <img src='stimuli/faces/NFM1.jpg', style='max-width: 30%;'> </img> <p><strong>你是否选择发射武器？</strong></p>","0",""
"","","","","","html-keyboard-response","80","170006","0.0-4.0-0.38","44","1","2022-11-04 05:23:37","ebf9627b049f568eb4bf28942cb89901","111.205.21.102","Mozilla/5.0 (Windows NT 10.0; Win64; x64) AppleWebKit/537.36 (KHTML, like Gecko) Chrome/107.0.0.0 Safari/537.36 Edg/107.0.1418.26","WebKit","Edge","107.0.1418.26","Windows","10.0","null","<div style=""font-size:60px;"">+</div>","null",""
"","","","","","html-button-response","81","171278","0.0-4.0-1.38","44","1","2022-11-04 05:23:37","ebf9627b049f568eb4bf28942cb89901","111.205.21.102","Mozilla/5.0 (Windows NT 10.0; Win64; x64) AppleWebKit/537.36 (KHTML, like Gecko) Chrome/107.0.0.0 Safari/537.36 Edg/107.0.1418.26","WebKit","Edge","107.0.1418.26","Windows","10.0","1263","<p>作为军队的指挥官，你可以选择发射导弹杀死 <strong>8名</strong> 敌国士兵，但会误杀附近的 <strong>1名</strong> 敌国平民。</p> <p>平民照片如下图所示。</p> <p></p> <img src='stimuli/faces/NFF4.jpg', style='max-width: 30%;'> </img> <p><strong>你是否选择发射武器？</strong></p>","0",""
"","","","","","html-keyboard-response","82","172286","0.0-4.0-0.39","44","1","2022-11-04 05:23:37","ebf9627b049f568eb4bf28942cb89901","111.205.21.102","Mozilla/5.0 (Windows NT 10.0; Win64; x64) AppleWebKit/537.36 (KHTML, like Gecko) Chrome/107.0.0.0 Safari/537.36 Edg/107.0.1418.26","WebKit","Edge","107.0.1418.26","Windows","10.0","null","<div style=""font-size:60px;"">+</div>","null",""
"","","","","","html-button-response","83","173223","0.0-4.0-1.39","44","1","2022-11-04 05:23:37","ebf9627b049f568eb4bf28942cb89901","111.205.21.102","Mozilla/5.0 (Windows NT 10.0; Win64; x64) AppleWebKit/537.36 (KHTML, like Gecko) Chrome/107.0.0.0 Safari/537.36 Edg/107.0.1418.26","WebKit","Edge","107.0.1418.26","Windows","10.0","933","<p>作为军队的指挥官，你可以选择发射导弹杀死 <strong>8名</strong> 敌国士兵，但会误杀附近的 <strong>1名</strong> 敌国平民。</p> <p>平民照片如下图所示。</p> <p></p> <img src='stimuli/faces/NFM5.jpg', style='max-width: 30%;'> </img> <p><strong>你是否选择发射武器？</strong></p>","0",""
"","","","","","html-keyboard-response","84","174231","0.0-4.0-0.40","44","1","2022-11-04 05:23:37","ebf9627b049f568eb4bf28942cb89901","111.205.21.102","Mozilla/5.0 (Windows NT 10.0; Win64; x64) AppleWebKit/537.36 (KHTML, like Gecko) Chrome/107.0.0.0 Safari/537.36 Edg/107.0.1418.26","WebKit","Edge","107.0.1418.26","Windows","10.0","null","<div style=""font-size:60px;"">+</div>","null",""
"","","","","","html-button-response","85","175485","0.0-4.0-1.40","44","1","2022-11-04 05:23:37","ebf9627b049f568eb4bf28942cb89901","111.205.21.102","Mozilla/5.0 (Windows NT 10.0; Win64; x64) AppleWebKit/537.36 (KHTML, like Gecko) Chrome/107.0.0.0 Safari/537.36 Edg/107.0.1418.26","WebKit","Edge","107.0.1418.26","Windows","10.0","1248","<p>作为军队的指挥官，你可以选择发射导弹杀死 <strong>7名</strong> 敌国士兵，但会炸毁附近的 <strong>1棵</strong> 敌国树木。</p> <p>树木的照片如下图所示。</p> <p></p> <img src='stimuli/trees/4.png', style='max-width: 30%;'> </img> <p><strong>你是否选择发射武器？</strong></p>","0",""
"","","","","","html-keyboard-response","86","176493","0.0-4.0-0.41","44","1","2022-11-04 05:23:37","ebf9627b049f568eb4bf28942cb89901","111.205.21.102","Mozilla/5.0 (Windows NT 10.0; Win64; x64) AppleWebKit/537.36 (KHTML, like Gecko) Chrome/107.0.0.0 Safari/537.36 Edg/107.0.1418.26","WebKit","Edge","107.0.1418.26","Windows","10.0","null","<div style=""font-size:60px;"">+</div>","null",""
"","","","","","html-button-response","87","177694","0.0-4.0-1.41","44","1","2022-11-04 05:23:37","ebf9627b049f568eb4bf28942cb89901","111.205.21.102","Mozilla/5.0 (Windows NT 10.0; Win64; x64) AppleWebKit/537.36 (KHTML, like Gecko) Chrome/107.0.0.0 Safari/537.36 Edg/107.0.1418.26","WebKit","Edge","107.0.1418.26","Windows","10.0","1197","<p>作为军队的指挥官，你可以选择发射导弹杀死 <strong>5名</strong> 敌国士兵，但会误杀附近的 <strong>1名</strong> 敌国平民。</p> <p>平民照片如下图所示。</p> <p></p> <img src='stimuli/faces/NFF5.jpg', style='max-width: 30%;'> </img> <p><strong>你是否选择发射武器？</strong></p>","0",""
"","","","","","html-keyboard-response","88","178707","0.0-4.0-0.42","44","1","2022-11-04 05:23:37","ebf9627b049f568eb4bf28942cb89901","111.205.21.102","Mozilla/5.0 (Windows NT 10.0; Win64; x64) AppleWebKit/537.36 (KHTML, like Gecko) Chrome/107.0.0.0 Safari/537.36 Edg/107.0.1418.26","WebKit","Edge","107.0.1418.26","Windows","10.0","null","<div style=""font-size:60px;"">+</div>","null",""
"","","","","","html-button-response","89","179712","0.0-4.0-1.42","44","1","2022-11-04 05:23:37","ebf9627b049f568eb4bf28942cb89901","111.205.21.102","Mozilla/5.0 (Windows NT 10.0; Win64; x64) AppleWebKit/537.36 (KHTML, like Gecko) Chrome/107.0.0.0 Safari/537.36 Edg/107.0.1418.26","WebKit","Edge","107.0.1418.26","Windows","10.0","1001","<p>作为军队的指挥官，你可以选择发射导弹杀死 <strong>5名</strong> 敌国士兵，但会误杀附近的 <strong>1名</strong> 敌国平民。</p> <p>平民照片如下图所示。</p> <p></p> <img src='stimuli/faces/NFF8.jpg', style='max-width: 30%;'> </img> <p><strong>你是否选择发射武器？</strong></p>","0",""
"","","","","","html-keyboard-response","90","180735","0.0-4.0-0.43","44","1","2022-11-04 05:23:37","ebf9627b049f568eb4bf28942cb89901","111.205.21.102","Mozilla/5.0 (Windows NT 10.0; Win64; x64) AppleWebKit/537.36 (KHTML, like Gecko) Chrome/107.0.0.0 Safari/537.36 Edg/107.0.1418.26","WebKit","Edge","107.0.1418.26","Windows","10.0","null","<div style=""font-size:60px;"">+</div>","null",""
"","","","","","html-button-response","91","182754","0.0-4.0-1.43","44","1","2022-11-04 05:23:37","ebf9627b049f568eb4bf28942cb89901","111.205.21.102","Mozilla/5.0 (Windows NT 10.0; Win64; x64) AppleWebKit/537.36 (KHTML, like Gecko) Chrome/107.0.0.0 Safari/537.36 Edg/107.0.1418.26","WebKit","Edge","107.0.1418.26","Windows","10.0","2011","<p>作为军队的指挥官，你可以选择发射导弹杀死 <strong>3名</strong> 敌国士兵，但会误杀附近的 <strong>1名</strong> 敌国平民。</p> <p>平民照片如下图所示。</p> <p></p> <img src='stimuli/faces/NFM8.jpg', style='max-width: 30%;'> </img> <p><strong>你是否选择发射武器？</strong></p>","1",""
"","","","","","html-keyboard-response","92","183765","0.0-4.0-0.44","44","1","2022-11-04 05:23:37","ebf9627b049f568eb4bf28942cb89901","111.205.21.102","Mozilla/5.0 (Windows NT 10.0; Win64; x64) AppleWebKit/537.36 (KHTML, like Gecko) Chrome/107.0.0.0 Safari/537.36 Edg/107.0.1418.26","WebKit","Edge","107.0.1418.26","Windows","10.0","null","<div style=""font-size:60px;"">+</div>","null",""
"","","","","","html-button-response","93","185303","0.0-4.0-1.44","44","1","2022-11-04 05:23:37","ebf9627b049f568eb4bf28942cb89901","111.205.21.102","Mozilla/5.0 (Windows NT 10.0; Win64; x64) AppleWebKit/537.36 (KHTML, like Gecko) Chrome/107.0.0.0 Safari/537.36 Edg/107.0.1418.26","WebKit","Edge","107.0.1418.26","Windows","10.0","1534","<p>作为军队的指挥官，你可以选择发射导弹杀死 <strong>4名</strong> 敌国士兵，但会误杀附近的 <strong>1名</strong> 敌国平民。</p> <p>平民照片如下图所示。</p> <p></p> <img src='stimuli/faces/NFM3.jpg', style='max-width: 30%;'> </img> <p><strong>你是否选择发射武器？</strong></p>","1",""
"","","","","","html-keyboard-response","94","186326","0.0-4.0-0.45","44","1","2022-11-04 05:23:37","ebf9627b049f568eb4bf28942cb89901","111.205.21.102","Mozilla/5.0 (Windows NT 10.0; Win64; x64) AppleWebKit/537.36 (KHTML, like Gecko) Chrome/107.0.0.0 Safari/537.36 Edg/107.0.1418.26","WebKit","Edge","107.0.1418.26","Windows","10.0","null","<div style=""font-size:60px;"">+</div>","null",""
"","","","","","html-button-response","95","188048","0.0-4.0-1.45","44","1","2022-11-04 05:23:37","ebf9627b049f568eb4bf28942cb89901","111.205.21.102","Mozilla/5.0 (Windows NT 10.0; Win64; x64) AppleWebKit/537.36 (KHTML, like Gecko) Chrome/107.0.0.0 Safari/537.36 Edg/107.0.1418.26","WebKit","Edge","107.0.1418.26","Windows","10.0","1708","<p>作为军队的指挥官，你可以选择发射导弹杀死 <strong>7名</strong> 敌国士兵，但会炸毁附近的 <strong>1棵</strong> 敌国树木。</p> <p>树木的照片如下图所示。</p> <p></p> <img src='stimuli/trees/3.png', style='max-width: 30%;'> </img> <p><strong>你是否选择发射武器？</strong></p>","0",""
"","","","","","html-keyboard-response","96","189055","0.0-4.0-0.46","44","1","2022-11-04 05:23:37","ebf9627b049f568eb4bf28942cb89901","111.205.21.102","Mozilla/5.0 (Windows NT 10.0; Win64; x64) AppleWebKit/537.36 (KHTML, like Gecko) Chrome/107.0.0.0 Safari/537.36 Edg/107.0.1418.26","WebKit","Edge","107.0.1418.26","Windows","10.0","null","<div style=""font-size:60px;"">+</div>","null",""
"","","","","","html-button-response","97","189926","0.0-4.0-1.46","44","1","2022-11-04 05:23:37","ebf9627b049f568eb4bf28942cb89901","111.205.21.102","Mozilla/5.0 (Windows NT 10.0; Win64; x64) AppleWebKit/537.36 (KHTML, like Gecko) Chrome/107.0.0.0 Safari/537.36 Edg/107.0.1418.26","WebKit","Edge","107.0.1418.26","Windows","10.0","865","<p>作为军队的指挥官，你可以选择发射导弹杀死 <strong>8名</strong> 敌国士兵，但会炸毁附近的 <strong>1棵</strong> 敌国树木。</p> <p>树木的照片如下图所示。</p> <p></p> <img src='stimuli/trees/10.png', style='max-width: 30%;'> </img> <p><strong>你是否选择发射武器？</strong></p>","0",""
"","","","","","html-keyboard-response","98","190952","0.0-4.0-0.47","44","1","2022-11-04 05:23:37","ebf9627b049f568eb4bf28942cb89901","111.205.21.102","Mozilla/5.0 (Windows NT 10.0; Win64; x64) AppleWebKit/537.36 (KHTML, like Gecko) Chrome/107.0.0.0 Safari/537.36 Edg/107.0.1418.26","WebKit","Edge","107.0.1418.26","Windows","10.0","null","<div style=""font-size:60px;"">+</div>","null",""
"","","","","","html-button-response","99","191921","0.0-4.0-1.47","44","1","2022-11-04 05:23:37","ebf9627b049f568eb4bf28942cb89901","111.205.21.102","Mozilla/5.0 (Windows NT 10.0; Win64; x64) AppleWebKit/537.36 (KHTML, like Gecko) Chrome/107.0.0.0 Safari/537.36 Edg/107.0.1418.26","WebKit","Edge","107.0.1418.26","Windows","10.0","962","<p>作为军队的指挥官，你可以选择发射导弹杀死 <strong>9名</strong> 敌国士兵，但会炸毁附近的 <strong>1棵</strong> 敌国树木。</p> <p>树木的照片如下图所示。</p> <p></p> <img src='stimuli/trees/14.png', style='max-width: 30%;'> </img> <p><strong>你是否选择发射武器？</strong></p>","0",""
"","","","","","html-keyboard-response","100","192932","0.0-4.0-0.48","44","1","2022-11-04 05:23:37","ebf9627b049f568eb4bf28942cb89901","111.205.21.102","Mozilla/5.0 (Windows NT 10.0; Win64; x64) AppleWebKit/537.36 (KHTML, like Gecko) Chrome/107.0.0.0 Safari/537.36 Edg/107.0.1418.26","WebKit","Edge","107.0.1418.26","Windows","10.0","null","<div style=""font-size:60px;"">+</div>","null",""
"","","","","","html-button-response","101","193767","0.0-4.0-1.48","44","1","2022-11-04 05:23:37","ebf9627b049f568eb4bf28942cb89901","111.205.21.102","Mozilla/5.0 (Windows NT 10.0; Win64; x64) AppleWebKit/537.36 (KHTML, like Gecko) Chrome/107.0.0.0 Safari/537.36 Edg/107.0.1418.26","WebKit","Edge","107.0.1418.26","Windows","10.0","831","<p>作为军队的指挥官，你可以选择发射导弹杀死 <strong>9名</strong> 敌国士兵，但会误杀附近的 <strong>1名</strong> 敌国平民。</p> <p>平民照片如下图所示。</p> <p></p> <img src='stimuli/faces/NFF6.jpg', style='max-width: 30%;'> </img> <p><strong>你是否选择发射武器？</strong></p>","0",""
"","","","","","html-keyboard-response","102","194778","0.0-4.0-0.49","44","1","2022-11-04 05:23:37","ebf9627b049f568eb4bf28942cb89901","111.205.21.102","Mozilla/5.0 (Windows NT 10.0; Win64; x64) AppleWebKit/537.36 (KHTML, like Gecko) Chrome/107.0.0.0 Safari/537.36 Edg/107.0.1418.26","WebKit","Edge","107.0.1418.26","Windows","10.0","null","<div style=""font-size:60px;"">+</div>","null",""
"","","","","","html-button-response","103","196995","0.0-4.0-1.49","44","1","2022-11-04 05:23:37","ebf9627b049f568eb4bf28942cb89901","111.205.21.102","Mozilla/5.0 (Windows NT 10.0; Win64; x64) AppleWebKit/537.36 (KHTML, like Gecko) Chrome/107.0.0.0 Safari/537.36 Edg/107.0.1418.26","WebKit","Edge","107.0.1418.26","Windows","10.0","2213","<p>作为军队的指挥官，你可以选择发射导弹杀死 <strong>2名</strong> 敌国士兵，但会炸毁附近的 <strong>1棵</strong> 敌国树木。</p> <p>树木的照片如下图所示。</p> <p></p> <img src='stimuli/trees/14.png', style='max-width: 30%;'> </img> <p><strong>你是否选择发射武器？</strong></p>","1",""
"","","","","","html-keyboard-response","104","198002","0.0-4.0-0.50","44","1","2022-11-04 05:23:37","ebf9627b049f568eb4bf28942cb89901","111.205.21.102","Mozilla/5.0 (Windows NT 10.0; Win64; x64) AppleWebKit/537.36 (KHTML, like Gecko) Chrome/107.0.0.0 Safari/537.36 Edg/107.0.1418.26","WebKit","Edge","107.0.1418.26","Windows","10.0","null","<div style=""font-size:60px;"">+</div>","null",""
"","","","","","html-button-response","105","199589","0.0-4.0-1.50","44","1","2022-11-04 05:23:37","ebf9627b049f568eb4bf28942cb89901","111.205.21.102","Mozilla/5.0 (Windows NT 10.0; Win64; x64) AppleWebKit/537.36 (KHTML, like Gecko) Chrome/107.0.0.0 Safari/537.36 Edg/107.0.1418.26","WebKit","Edge","107.0.1418.26","Windows","10.0","1584","<p>作为军队的指挥官，你可以选择发射导弹杀死 <strong>6名</strong> 敌国士兵，但会误杀附近的 <strong>1名</strong> 敌国平民。</p> <p>平民照片如下图所示。</p> <p></p> <img src='stimuli/faces/NFM2.jpg', style='max-width: 30%;'> </img> <p><strong>你是否选择发射武器？</strong></p>","0",""
"","","","","","html-keyboard-response","106","200602","0.0-4.0-0.51","44","1","2022-11-04 05:23:37","ebf9627b049f568eb4bf28942cb89901","111.205.21.102","Mozilla/5.0 (Windows NT 10.0; Win64; x64) AppleWebKit/537.36 (KHTML, like Gecko) Chrome/107.0.0.0 Safari/537.36 Edg/107.0.1418.26","WebKit","Edge","107.0.1418.26","Windows","10.0","null","<div style=""font-size:60px;"">+</div>","null",""
"","","","","","html-button-response","107","201688","0.0-4.0-1.51","44","1","2022-11-04 05:23:37","ebf9627b049f568eb4bf28942cb89901","111.205.21.102","Mozilla/5.0 (Windows NT 10.0; Win64; x64) AppleWebKit/537.36 (KHTML, like Gecko) Chrome/107.0.0.0 Safari/537.36 Edg/107.0.1418.26","WebKit","Edge","107.0.1418.26","Windows","10.0","1079","<p>作为军队的指挥官，你可以选择发射导弹杀死 <strong>8名</strong> 敌国士兵，但会误杀附近的 <strong>1名</strong> 敌国平民。</p> <p>平民照片如下图所示。</p> <p></p> <img src='stimuli/faces/NFM3.jpg', style='max-width: 30%;'> </img> <p><strong>你是否选择发射武器？</strong></p>","0",""
"","","","","","html-keyboard-response","108","202700","0.0-4.0-0.52","44","1","2022-11-04 05:23:37","ebf9627b049f568eb4bf28942cb89901","111.205.21.102","Mozilla/5.0 (Windows NT 10.0; Win64; x64) AppleWebKit/537.36 (KHTML, like Gecko) Chrome/107.0.0.0 Safari/537.36 Edg/107.0.1418.26","WebKit","Edge","107.0.1418.26","Windows","10.0","null","<div style=""font-size:60px;"">+</div>","null",""
"","","","","","html-button-response","109","209973","0.0-4.0-1.52","44","1","2022-11-04 05:23:37","ebf9627b049f568eb4bf28942cb89901","111.205.21.102","Mozilla/5.0 (Windows NT 10.0; Win64; x64) AppleWebKit/537.36 (KHTML, like Gecko) Chrome/107.0.0.0 Safari/537.36 Edg/107.0.1418.26","WebKit","Edge","107.0.1418.26","Windows","10.0","7266","<p>作为军队的指挥官，你可以选择发射导弹杀死 <strong>4名</strong> 敌国士兵，但会误杀附近的 <strong>1名</strong> 敌国平民。</p> <p>平民照片如下图所示。</p> <p></p> <img src='stimuli/faces/NFF6.jpg', style='max-width: 30%;'> </img> <p><strong>你是否选择发射武器？</strong></p>","1",""
"","","","","","html-keyboard-response","110","210983","0.0-4.0-0.53","44","1","2022-11-04 05:23:37","ebf9627b049f568eb4bf28942cb89901","111.205.21.102","Mozilla/5.0 (Windows NT 10.0; Win64; x64) AppleWebKit/537.36 (KHTML, like Gecko) Chrome/107.0.0.0 Safari/537.36 Edg/107.0.1418.26","WebKit","Edge","107.0.1418.26","Windows","10.0","null","<div style=""font-size:60px;"">+</div>","null",""
"","","","","","html-button-response","111","212768","0.0-4.0-1.53","44","1","2022-11-04 05:23:37","ebf9627b049f568eb4bf28942cb89901","111.205.21.102","Mozilla/5.0 (Windows NT 10.0; Win64; x64) AppleWebKit/537.36 (KHTML, like Gecko) Chrome/107.0.0.0 Safari/537.36 Edg/107.0.1418.26","WebKit","Edge","107.0.1418.26","Windows","10.0","1780","<p>作为军队的指挥官，你可以选择发射导弹杀死 <strong>10名</strong> 敌国士兵，但会误杀附近的 <strong>1名</strong> 敌国平民。</p> <p>平民照片如下图所示。</p> <p></p> <img src='stimuli/faces/NFF3.jpg', style='max-width: 30%;'> </img> <p><strong>你是否选择发射武器？</strong></p>","0",""
"","","","","","html-keyboard-response","112","213780","0.0-4.0-0.54","44","1","2022-11-04 05:23:37","ebf9627b049f568eb4bf28942cb89901","111.205.21.102","Mozilla/5.0 (Windows NT 10.0; Win64; x64) AppleWebKit/537.36 (KHTML, like Gecko) Chrome/107.0.0.0 Safari/537.36 Edg/107.0.1418.26","WebKit","Edge","107.0.1418.26","Windows","10.0","null","<div style=""font-size:60px;"">+</div>","null",""
"","","","","","html-button-response","113","214717","0.0-4.0-1.54","44","1","2022-11-04 05:23:37","ebf9627b049f568eb4bf28942cb89901","111.205.21.102","Mozilla/5.0 (Windows NT 10.0; Win64; x64) AppleWebKit/537.36 (KHTML, like Gecko) Chrome/107.0.0.0 Safari/537.36 Edg/107.0.1418.26","WebKit","Edge","107.0.1418.26","Windows","10.0","933","<p>作为军队的指挥官，你可以选择发射导弹杀死 <strong>6名</strong> 敌国士兵，但会误杀附近的 <strong>1名</strong> 敌国平民。</p> <p>平民照片如下图所示。</p> <p></p> <img src='stimuli/faces/NFF1.jpg', style='max-width: 30%;'> </img> <p><strong>你是否选择发射武器？</strong></p>","0",""
"","","","","","html-keyboard-response","114","215727","0.0-4.0-0.55","44","1","2022-11-04 05:23:37","ebf9627b049f568eb4bf28942cb89901","111.205.21.102","Mozilla/5.0 (Windows NT 10.0; Win64; x64) AppleWebKit/537.36 (KHTML, like Gecko) Chrome/107.0.0.0 Safari/537.36 Edg/107.0.1418.26","WebKit","Edge","107.0.1418.26","Windows","10.0","null","<div style=""font-size:60px;"">+</div>","null",""
"","","","","","html-button-response","115","217410","0.0-4.0-1.55","44","1","2022-11-04 05:23:37","ebf9627b049f568eb4bf28942cb89901","111.205.21.102","Mozilla/5.0 (Windows NT 10.0; Win64; x64) AppleWebKit/537.36 (KHTML, like Gecko) Chrome/107.0.0.0 Safari/537.36 Edg/107.0.1418.26","WebKit","Edge","107.0.1418.26","Windows","10.0","1680","<p>作为军队的指挥官，你可以选择发射导弹杀死 <strong>3名</strong> 敌国士兵，但会炸毁附近的 <strong>1棵</strong> 敌国树木。</p> <p>树木的照片如下图所示。</p> <p></p> <img src='stimuli/trees/4.png', style='max-width: 30%;'> </img> <p><strong>你是否选择发射武器？</strong></p>","0",""
"","","","","","html-keyboard-response","116","218420","0.0-4.0-0.56","44","1","2022-11-04 05:23:37","ebf9627b049f568eb4bf28942cb89901","111.205.21.102","Mozilla/5.0 (Windows NT 10.0; Win64; x64) AppleWebKit/537.36 (KHTML, like Gecko) Chrome/107.0.0.0 Safari/537.36 Edg/107.0.1418.26","WebKit","Edge","107.0.1418.26","Windows","10.0","null","<div style=""font-size:60px;"">+</div>","null",""
"","","","","","html-button-response","117","219342","0.0-4.0-1.56","44","1","2022-11-04 05:23:37","ebf9627b049f568eb4bf28942cb89901","111.205.21.102","Mozilla/5.0 (Windows NT 10.0; Win64; x64) AppleWebKit/537.36 (KHTML, like Gecko) Chrome/107.0.0.0 Safari/537.36 Edg/107.0.1418.26","WebKit","Edge","107.0.1418.26","Windows","10.0","915","<p>作为军队的指挥官，你可以选择发射导弹杀死 <strong>5名</strong> 敌国士兵，但会误杀附近的 <strong>1名</strong> 敌国平民。</p> <p>平民照片如下图所示。</p> <p></p> <img src='stimuli/faces/NFF3.jpg', style='max-width: 30%;'> </img> <p><strong>你是否选择发射武器？</strong></p>","0",""
"","","","","","html-keyboard-response","118","220352","0.0-4.0-0.57","44","1","2022-11-04 05:23:37","ebf9627b049f568eb4bf28942cb89901","111.205.21.102","Mozilla/5.0 (Windows NT 10.0; Win64; x64) AppleWebKit/537.36 (KHTML, like Gecko) Chrome/107.0.0.0 Safari/537.36 Edg/107.0.1418.26","WebKit","Edge","107.0.1418.26","Windows","10.0","null","<div style=""font-size:60px;"">+</div>","null",""
"","","","","","html-button-response","119","221234","0.0-4.0-1.57","44","1","2022-11-04 05:23:37","ebf9627b049f568eb4bf28942cb89901","111.205.21.102","Mozilla/5.0 (Windows NT 10.0; Win64; x64) AppleWebKit/537.36 (KHTML, like Gecko) Chrome/107.0.0.0 Safari/537.36 Edg/107.0.1418.26","WebKit","Edge","107.0.1418.26","Windows","10.0","877","<p>作为军队的指挥官，你可以选择发射导弹杀死 <strong>6名</strong> 敌国士兵，但会误杀附近的 <strong>1名</strong> 敌国平民。</p> <p>平民照片如下图所示。</p> <p></p> <img src='stimuli/faces/NFM4.jpg', style='max-width: 30%;'> </img> <p><strong>你是否选择发射武器？</strong></p>","0",""
"","","","","","html-keyboard-response","120","222246","0.0-4.0-0.58","44","1","2022-11-04 05:23:37","ebf9627b049f568eb4bf28942cb89901","111.205.21.102","Mozilla/5.0 (Windows NT 10.0; Win64; x64) AppleWebKit/537.36 (KHTML, like Gecko) Chrome/107.0.0.0 Safari/537.36 Edg/107.0.1418.26","WebKit","Edge","107.0.1418.26","Windows","10.0","null","<div style=""font-size:60px;"">+</div>","null",""
"","","","","","html-button-response","121","223182","0.0-4.0-1.58","44","1","2022-11-04 05:23:37","ebf9627b049f568eb4bf28942cb89901","111.205.21.102","Mozilla/5.0 (Windows NT 10.0; Win64; x64) AppleWebKit/537.36 (KHTML, like Gecko) Chrome/107.0.0.0 Safari/537.36 Edg/107.0.1418.26","WebKit","Edge","107.0.1418.26","Windows","10.0","933","<p>作为军队的指挥官，你可以选择发射导弹杀死 <strong>6名</strong> 敌国士兵，但会炸毁附近的 <strong>1棵</strong> 敌国树木。</p> <p>树木的照片如下图所示。</p> <p></p> <img src='stimuli/trees/6.png', style='max-width: 30%;'> </img> <p><strong>你是否选择发射武器？</strong></p>","0",""
"","","","","","html-keyboard-response","122","224193","0.0-4.0-0.59","44","1","2022-11-04 05:23:37","ebf9627b049f568eb4bf28942cb89901","111.205.21.102","Mozilla/5.0 (Windows NT 10.0; Win64; x64) AppleWebKit/537.36 (KHTML, like Gecko) Chrome/107.0.0.0 Safari/537.36 Edg/107.0.1418.26","WebKit","Edge","107.0.1418.26","Windows","10.0","null","<div style=""font-size:60px;"">+</div>","null",""
"","","","","","html-button-response","123","225048","0.0-4.0-1.59","44","1","2022-11-04 05:23:37","ebf9627b049f568eb4bf28942cb89901","111.205.21.102","Mozilla/5.0 (Windows NT 10.0; Win64; x64) AppleWebKit/537.36 (KHTML, like Gecko) Chrome/107.0.0.0 Safari/537.36 Edg/107.0.1418.26","WebKit","Edge","107.0.1418.26","Windows","10.0","852","<p>作为军队的指挥官，你可以选择发射导弹杀死 <strong>6名</strong> 敌国士兵，但会炸毁附近的 <strong>1棵</strong> 敌国树木。</p> <p>树木的照片如下图所示。</p> <p></p> <img src='stimuli/trees/7.png', style='max-width: 30%;'> </img> <p><strong>你是否选择发射武器？</strong></p>","0",""
"","","","","","html-keyboard-response","124","226073","0.0-4.0-0.60","44","1","2022-11-04 05:23:37","ebf9627b049f568eb4bf28942cb89901","111.205.21.102","Mozilla/5.0 (Windows NT 10.0; Win64; x64) AppleWebKit/537.36 (KHTML, like Gecko) Chrome/107.0.0.0 Safari/537.36 Edg/107.0.1418.26","WebKit","Edge","107.0.1418.26","Windows","10.0","null","<div style=""font-size:60px;"">+</div>","null",""
"","","","","","html-button-response","125","226961","0.0-4.0-1.60","44","1","2022-11-04 05:23:37","ebf9627b049f568eb4bf28942cb89901","111.205.21.102","Mozilla/5.0 (Windows NT 10.0; Win64; x64) AppleWebKit/537.36 (KHTML, like Gecko) Chrome/107.0.0.0 Safari/537.36 Edg/107.0.1418.26","WebKit","Edge","107.0.1418.26","Windows","10.0","886","<p>作为军队的指挥官，你可以选择发射导弹杀死 <strong>6名</strong> 敌国士兵，但会误杀附近的 <strong>1名</strong> 敌国平民。</p> <p>平民照片如下图所示。</p> <p></p> <img src='stimuli/faces/NFM7.jpg', style='max-width: 30%;'> </img> <p><strong>你是否选择发射武器？</strong></p>","0",""
"","","","","","html-keyboard-response","126","227985","0.0-4.0-0.61","44","1","2022-11-04 05:23:37","ebf9627b049f568eb4bf28942cb89901","111.205.21.102","Mozilla/5.0 (Windows NT 10.0; Win64; x64) AppleWebKit/537.36 (KHTML, like Gecko) Chrome/107.0.0.0 Safari/537.36 Edg/107.0.1418.26","WebKit","Edge","107.0.1418.26","Windows","10.0","null","<div style=""font-size:60px;"">+</div>","null",""
"","","","","","html-button-response","127","231871","0.0-4.0-1.61","44","1","2022-11-04 05:23:37","ebf9627b049f568eb4bf28942cb89901","111.205.21.102","Mozilla/5.0 (Windows NT 10.0; Win64; x64) AppleWebKit/537.36 (KHTML, like Gecko) Chrome/107.0.0.0 Safari/537.36 Edg/107.0.1418.26","WebKit","Edge","107.0.1418.26","Windows","10.0","3882","<p>作为军队的指挥官，你可以选择发射导弹杀死 <strong>3名</strong> 敌国士兵，但会炸毁附近的 <strong>1棵</strong> 敌国树木。</p> <p>树木的照片如下图所示。</p> <p></p> <img src='stimuli/trees/13.png', style='max-width: 30%;'> </img> <p><strong>你是否选择发射武器？</strong></p>","0",""
"","","","","","html-keyboard-response","128","232894","0.0-4.0-0.62","44","1","2022-11-04 05:23:37","ebf9627b049f568eb4bf28942cb89901","111.205.21.102","Mozilla/5.0 (Windows NT 10.0; Win64; x64) AppleWebKit/537.36 (KHTML, like Gecko) Chrome/107.0.0.0 Safari/537.36 Edg/107.0.1418.26","WebKit","Edge","107.0.1418.26","Windows","10.0","null","<div style=""font-size:60px;"">+</div>","null",""
"","","","","","html-button-response","129","233882","0.0-4.0-1.62","44","1","2022-11-04 05:23:37","ebf9627b049f568eb4bf28942cb89901","111.205.21.102","Mozilla/5.0 (Windows NT 10.0; Win64; x64) AppleWebKit/537.36 (KHTML, like Gecko) Chrome/107.0.0.0 Safari/537.36 Edg/107.0.1418.26","WebKit","Edge","107.0.1418.26","Windows","10.0","984","<p>作为军队的指挥官，你可以选择发射导弹杀死 <strong>5名</strong> 敌国士兵，但会误杀附近的 <strong>1名</strong> 敌国平民。</p> <p>平民照片如下图所示。</p> <p></p> <img src='stimuli/faces/NFF4.jpg', style='max-width: 30%;'> </img> <p><strong>你是否选择发射武器？</strong></p>","0",""
"","","","","","html-keyboard-response","130","234907","0.0-4.0-0.63","44","1","2022-11-04 05:23:37","ebf9627b049f568eb4bf28942cb89901","111.205.21.102","Mozilla/5.0 (Windows NT 10.0; Win64; x64) AppleWebKit/537.36 (KHTML, like Gecko) Chrome/107.0.0.0 Safari/537.36 Edg/107.0.1418.26","WebKit","Edge","107.0.1418.26","Windows","10.0","null","<div style=""font-size:60px;"">+</div>","null",""
"","","","","","html-button-response","131","237190","0.0-4.0-1.63","44","1","2022-11-04 05:23:37","ebf9627b049f568eb4bf28942cb89901","111.205.21.102","Mozilla/5.0 (Windows NT 10.0; Win64; x64) AppleWebKit/537.36 (KHTML, like Gecko) Chrome/107.0.0.0 Safari/537.36 Edg/107.0.1418.26","WebKit","Edge","107.0.1418.26","Windows","10.0","2279","<p>作为军队的指挥官，你可以选择发射导弹杀死 <strong>3名</strong> 敌国士兵，但会误杀附近的 <strong>1名</strong> 敌国平民。</p> <p>平民照片如下图所示。</p> <p></p> <img src='stimuli/faces/NFF7.jpg', style='max-width: 30%;'> </img> <p><strong>你是否选择发射武器？</strong></p>","1",""
"","","","","","survey-multi-choice","132","270805","0.0-5.0","44","1","2022-11-04 05:23:37","ebf9627b049f568eb4bf28942cb89901","111.205.21.102","Mozilla/5.0 (Windows NT 10.0; Win64; x64) AppleWebKit/537.36 (KHTML, like Gecko) Chrome/107.0.0.0 Safari/537.36 Edg/107.0.1418.26","WebKit","Edge","107.0.1418.26","Windows","10.0","33601","","{""Attention1"":""""}","[0]"
"","","","","","html-button-response","133","275444","0.0-6.0","44","1","2022-11-04 05:23:37","ebf9627b049f568eb4bf28942cb89901","111.205.21.102","Mozilla/5.0 (Windows NT 10.0; Win64; x64) AppleWebKit/537.36 (KHTML, like Gecko) Chrome/107.0.0.0 Safari/537.36 Edg/107.0.1418.26","WebKit","Edge","107.0.1418.26","Windows","10.0","4618","<p style=""font-size:20px;font-weight:bold;"">恭喜！</p><p>你已经完成了实验的第一部分。</p><p>请休息放松一下，然后进入第二部分。</p><p>这部分大约需要10分钟。</p>","0",""
"","","","","","survey-text","134","324892","0.0-7.0","44","1","2022-11-04 05:23:37","ebf9627b049f568eb4bf28942cb89901","111.205.21.102","Mozilla/5.0 (Windows NT 10.0; Win64; x64) AppleWebKit/537.36 (KHTML, like Gecko) Chrome/107.0.0.0 Safari/537.36 Edg/107.0.1418.26","WebKit","Edge","107.0.1418.26","Windows","10.0","48392","","{""Age"":""23"",""Nation"":""中国"",""Born"":""山东省淄博市"",""Live"":""山东省淄博市"",""Ethnic"":""汉"",""Alipay"":""19800305960""}",""
"","","","","","survey-multi-choice","135","353603","0.0-8.0","44","1","2022-11-04 05:23:37","ebf9627b049f568eb4bf28942cb89901","111.205.21.102","Mozilla/5.0 (Windows NT 10.0; Win64; x64) AppleWebKit/537.36 (KHTML, like Gecko) Chrome/107.0.0.0 Safari/537.36 Edg/107.0.1418.26","WebKit","Edge","107.0.1418.26","Windows","10.0","28702","","{""Gender"":""女"",""Education"":""高中毕业"",""Income"":""￥0-￥34,999"",""Children"":""0"",""Race"":""亚洲人""}","[0,1,2,3,4]"
"","","","","","survey-multi-select","136","362907","0.0-9.0","44","1","2022-11-04 05:23:37","ebf9627b049f568eb4bf28942cb89901","111.205.21.102","Mozilla/5.0 (Windows NT 10.0; Win64; x64) AppleWebKit/537.36 (KHTML, like Gecko) Chrome/107.0.0.0 Safari/537.36 Edg/107.0.1418.26","WebKit","Edge","107.0.1418.26","Windows","10.0","9292","","{""Marriage"":[""未婚""],""Religion"":[""无宗教信仰""]}","[0,1]"
"","","","","","survey-multi-choice","137","382601","0.0-10.0","44","1","2022-11-04 05:23:37","ebf9627b049f568eb4bf28942cb89901","111.205.21.102","Mozilla/5.0 (Windows NT 10.0; Win64; x64) AppleWebKit/537.36 (KHTML, like Gecko) Chrome/107.0.0.0 Safari/537.36 Edg/107.0.1418.26","WebKit","Edge","107.0.1418.26","Windows","10.0","19671","","{""SES"":""5""}","[0]"
"","","","","","html-button-response","138","398273","0.0-11.0","44","1","2022-11-04 05:23:37","ebf9627b049f568eb4bf28942cb89901","111.205.21.102","Mozilla/5.0 (Windows NT 10.0; Win64; x64) AppleWebKit/537.36 (KHTML, like Gecko) Chrome/107.0.0.0 Safari/537.36 Edg/107.0.1418.26","WebKit","Edge","107.0.1418.26","Windows","10.0","15665","<p><strong>请判断下列陈述在多大程度上可以形容你？</p><p> (1 = ""和我一点都不像"" to 5 = ""非常像我"".)</strong></p>","0",""
"","","","","","survey-likert","139","432528","0.0-12.0","44","1","2022-11-04 05:23:37","ebf9627b049f568eb4bf28942cb89901","111.205.21.102","Mozilla/5.0 (Windows NT 10.0; Win64; x64) AppleWebKit/537.36 (KHTML, like Gecko) Chrome/107.0.0.0 Safari/537.36 Edg/107.0.1418.26","WebKit","Edge","107.0.1418.26","Windows","10.0","34250","","{""Aggression1"":0,""Aggression2"":1,""Aggression3"":3,""Aggression4"":0,""Aggression5"":4,""Aggression6"":3,""Aggression7"":0,""Aggression8"":1,""Aggression9"":1}","[0,1,2,3,4,5,6,7,8]"
"","","","","","html-button-response","140","435025","0.0-13.0","44","1","2022-11-04 05:23:37","ebf9627b049f568eb4bf28942cb89901","111.205.21.102","Mozilla/5.0 (Windows NT 10.0; Win64; x64) AppleWebKit/537.36 (KHTML, like Gecko) Chrome/107.0.0.0 Safari/537.36 Edg/107.0.1418.26","WebKit","Edge","107.0.1418.26","Windows","10.0","2489","<p><strong>请判断你在多大程度上同意下列陈述。</strong></p>","0",""
"","","","","","survey-likert","141","555133","0.0-14.0","44","1","2022-11-04 05:23:37","ebf9627b049f568eb4bf28942cb89901","111.205.21.102","Mozilla/5.0 (Windows NT 10.0; Win64; x64) AppleWebKit/537.36 (KHTML, like Gecko) Chrome/107.0.0.0 Safari/537.36 Edg/107.0.1418.26","WebKit","Edge","107.0.1418.26","Windows","10.0","120100","","{""scale21"":4,""scale7"":3,""scale22"":1,""scale1"":1,""scale26"":0,""scale2"":1,""scale8"":3,""scale12"":1,""scale3"":2,""scale6"":2,""scale16"":0,""scale24"":1,""scale10"":1,""scale9"":1,""scale27"":1,""scale13"":3,""scale15"":3,""scale25"":3,""scale28"":3,""scale4"":2,""scale14"":3,""scale19"":3,""scale11"":3,""scale23"":0,""scale18"":2,""scale20"":1,""scale17"":1,""scale5"":0}","[20,6,21,0,25,1,7,11,2,5,15,23,9,8,26,12,14,24,27,3,13,18,10,22,17,19,16,4]"
"","","","","","html-button-response","142","558112","0.0-15.0","44","1","2022-11-04 05:23:37","ebf9627b049f568eb4bf28942cb89901","111.205.21.102","Mozilla/5.0 (Windows NT 10.0; Win64; x64) AppleWebKit/537.36 (KHTML, like Gecko) Chrome/107.0.0.0 Safari/537.36 Edg/107.0.1418.26","WebKit","Edge","107.0.1418.26","Windows","10.0","2971","<p><strong>请判断你在多大程度上同意下列陈述。</strong></p>","0",""
"","","","","","survey-likert","143","631681","0.0-16.0","44","1","2022-11-04 05:23:37","ebf9627b049f568eb4bf28942cb89901","111.205.21.102","Mozilla/5.0 (Windows NT 10.0; Win64; x64) AppleWebKit/537.36 (KHTML, like Gecko) Chrome/107.0.0.0 Safari/537.36 Edg/107.0.1418.26","WebKit","Edge","107.0.1418.26","Windows","10.0","73575","","{""sdo7"":1,""sdo10"":5,""sdo8"":3,""sdo12"":6,""sdo6"":2,""sdo5"":1,""sdo2"":4,""sdo11"":6,""sdo3"":2,""sdo9"":5,""sdo16"":5,""sdo14"":4,""sdo4"":1,""sdo13"":6,""sdo1"":0,""sdo15"":6}","[6,9,7,11,5,4,1,10,2,8,15,13,3,12,0,14]"
"","","","","","html-button-response","144","633810","0.0-17.0","44","1","2022-11-04 05:23:37","ebf9627b049f568eb4bf28942cb89901","111.205.21.102","Mozilla/5.0 (Windows NT 10.0; Win64; x64) AppleWebKit/537.36 (KHTML, like Gecko) Chrome/107.0.0.0 Safari/537.36 Edg/107.0.1418.26","WebKit","Edge","107.0.1418.26","Windows","10.0","2121","<p><strong>请判断你在多大程度上同意下列陈述。</strong></p>","0",""
"","","","","","survey-likert","145","699856","0.0-18.0","44","1","2022-11-04 05:23:37","ebf9627b049f568eb4bf28942cb89901","111.205.21.102","Mozilla/5.0 (Windows NT 10.0; Win64; x64) AppleWebKit/537.36 (KHTML, like Gecko) Chrome/107.0.0.0 Safari/537.36 Edg/107.0.1418.26","WebKit","Edge","107.0.1418.26","Windows","10.0","66027","","{""caring1"":1,""liking1"":3,""caring2"":2,""protection1"":2,""liking2"":3,""caring3"":1,""protection2"":1,""liking3"":3,""protection3"":2,""caring4"":2,""liking4"":3,""protection4"":2,""caring5"":2,""liking5"":2,""protection5"":2}","[0,1,2,3,4,5,6,7,8,9,10,11,12,13,14]"
"","","","","","html-button-response","146","702072","0.0-19.0","44","1","2022-11-04 05:23:37","ebf9627b049f568eb4bf28942cb89901","111.205.21.102","Mozilla/5.0 (Windows NT 10.0; Win64; x64) AppleWebKit/537.36 (KHTML, like Gecko) Chrome/107.0.0.0 Safari/537.36 Edg/107.0.1418.26","WebKit","Edge","107.0.1418.26","Windows","10.0","2209","<p><strong>请判断下列场景中你的内心感受有多柔软。</strong></p>","0",""
"","","","","","survey-likert","147","744249","0.0-20.0","44","1","2022-11-04 05:23:37","ebf9627b049f568eb4bf28942cb89901","111.205.21.102","Mozilla/5.0 (Windows NT 10.0; Win64; x64) AppleWebKit/537.36 (KHTML, like Gecko) Chrome/107.0.0.0 Safari/537.36 Edg/107.0.1418.26","WebKit","Edge","107.0.1418.26","Windows","10.0","42169","","{""tenderness-positive1"":2,""tenderness-negative1"":3,""tenderness-negative2"":1,""tenderness-positive2"":2,""tenderness-positive3"":2,""tenderness-negative3"":1,""tenderness-positive4"":1,""tendereness-negative4"":2,""tendernness-negative5"":2,""tenderness-positive5"":2}","[0,1,2,3,4,5,6,7,8,9]"
"","","","","","survey-multi-choice","148","761083","0.0-21.0","44","1","2022-11-04 05:23:37","ebf9627b049f568eb4bf28942cb89901","111.205.21.102","Mozilla/5.0 (Windows NT 10.0; Win64; x64) AppleWebKit/537.36 (KHTML, like Gecko) Chrome/107.0.0.0 Safari/537.36 Edg/107.0.1418.26","WebKit","Edge","107.0.1418.26","Windows","10.0","16826","","{""Attention2"":""其他""}","[0]"
"","","","","","html-button-response","149","763328","0.0-22.0","44","1","2022-11-04 05:23:37","ebf9627b049f568eb4bf28942cb89901","111.205.21.102","Mozilla/5.0 (Windows NT 10.0; Win64; x64) AppleWebKit/537.36 (KHTML, like Gecko) Chrome/107.0.0.0 Safari/537.36 Edg/107.0.1418.26","WebKit","Edge","107.0.1418.26","Windows","10.0","2237","<p><strong>请判断你在多大程度上同意下列陈述。</strong></p>","0",""
"","","","","","survey-likert","150","876489","0.0-23.0","44","1","2022-11-04 05:23:37","ebf9627b049f568eb4bf28942cb89901","111.205.21.102","Mozilla/5.0 (Windows NT 10.0; Win64; x64) AppleWebKit/537.36 (KHTML, like Gecko) Chrome/107.0.0.0 Safari/537.36 Edg/107.0.1418.26","WebKit","Edge","107.0.1418.26","Windows","10.0","113162","","{""Nation2"":4,""Patri9"":0,""Nation7"":3,""Patri6"":0,""Patri5"":4,""Nation4"":2,""Patri7"":4,""Patri10"":1,""Patri3"":4,""Patri8"":4,""Nation6"":3,""Patri11"":0,""Patri2"":4,""Nation5"":3,""Patri12"":1,""Patri4"":4,""Nation8"":3,""Nation1"":2,""Nation3"":2,""Patri1"":4}","[13,8,18,5,4,15,6,9,2,7,17,10,1,16,11,3,19,12,14,0]"
"","","","","","html-button-response","151","878654","0.0-24.0","44","1","2022-11-04 05:23:37","ebf9627b049f568eb4bf28942cb89901","111.205.21.102","Mozilla/5.0 (Windows NT 10.0; Win64; x64) AppleWebKit/537.36 (KHTML, like Gecko) Chrome/107.0.0.0 Safari/537.36 Edg/107.0.1418.26","WebKit","Edge","107.0.1418.26","Windows","10.0","2155","<p><strong>请判断你在多大程度上同意下列陈述。</strong></p>","0",""
"","","","","","survey-likert","152","946790","0.0-25.0","44","1","2022-11-04 05:23:37","ebf9627b049f568eb4bf28942cb89901","111.205.21.102","Mozilla/5.0 (Windows NT 10.0; Win64; x64) AppleWebKit/537.36 (KHTML, like Gecko) Chrome/107.0.0.0 Safari/537.36 Edg/107.0.1418.26","WebKit","Edge","107.0.1418.26","Windows","10.0","68120","","{""hi2"":8,""vc4"":7,""hi4"":7,""hc2"":4,""hc4"":4,""vi3"":5,""Robot"":6,""vc1"":8,""hi3"":6,""hc3"":3,""hc1"":4,""vi4"":4,""vc3"":7,""vi2"":5,""hi1"":7,""vi1"":4,""vc2"":7}","[1,16,3,10,12,6,7,13,2,11,9,8,15,5,0,4,14]"
"","","","","","survey-text","153","953990","0.0-26.0","44","1","2022-11-04 05:23:37","ebf9627b049f568eb4bf28942cb89901","111.205.21.102","Mozilla/5.0 (Windows NT 10.0; Win64; x64) AppleWebKit/537.36 (KHTML, like Gecko) Chrome/107.0.0.0 Safari/537.36 Edg/107.0.1418.26","WebKit","Edge","107.0.1418.26","Windows","10.0","7182","","{""Comments"":""无""}",""
"","","","","","html-button-response","154","956004","0.0-27.0","44","1","2022-11-04 05:23:37","ebf9627b049f568eb4bf28942cb89901","111.205.21.102","Mozilla/5.0 (Windows NT 10.0; Win64; x64) AppleWebKit/537.36 (KHTML, like Gecko) Chrome/107.0.0.0 Safari/537.36 Edg/107.0.1418.26","WebKit","Edge","107.0.1418.26","Windows","10.0","2010","<strong><p>恭喜你完成了实验！</p><p>感谢您的参与。</p></strong>","0",""
