"success","timeout","failed_images","failed_audio","failed_video","trial_type","trial_index","time_elapsed","internal_node_id","run_id","condition","recorded_at","source_code_version","ip","user_agent","device","browser","browser_version","platform","platform_version","rt","stimulus","response","question_order"
"true","false","[]","[]","[]","preload","0","8748","0.0-0.0","49","1","2022-11-04 11:26:53","ebf9627b049f568eb4bf28942cb89901","14.145.23.230","Mozilla/5.0 (Windows NT 10.0; Win64; x64) AppleWebKit/537.36 (KHTML, like Gecko) Chrome/106.0.0.0 Safari/537.36 Edg/106.0.1370.47","WebKit","Edge","106.0.1370.47","Windows","10.0","","","",""
"true","","","","","fullscreen","1","69561","0.0-1.0","49","1","2022-11-04 11:26:53","ebf9627b049f568eb4bf28942cb89901","14.145.23.230","Mozilla/5.0 (Windows NT 10.0; Win64; x64) AppleWebKit/537.36 (KHTML, like Gecko) Chrome/106.0.0.0 Safari/537.36 Edg/106.0.1370.47","WebKit","Edge","106.0.1370.47","Windows","10.0","","","",""
"","","","","","html-button-response","2","106831","0.0-2.0","49","1","2022-11-04 11:26:53","ebf9627b049f568eb4bf28942cb89901","14.145.23.230","Mozilla/5.0 (Windows NT 10.0; Win64; x64) AppleWebKit/537.36 (KHTML, like Gecko) Chrome/106.0.0.0 Safari/537.36 Edg/106.0.1370.47","WebKit","Edge","106.0.1370.47","Windows","10.0","37267","<p style=""font-size:20px;font-weight:bold;"">实验知情同意书</p><p style=""text-align:left;""><strong>实验名称：</strong>社会冲突研究</p><p style=""text-align:left;""><strong>主要研究者：</strong>韩晓春副教授（北京师范大学心理学部）</p><p style=""text-align:left;""><strong>联系方式：</strong>发送邮件至xiaochun.han@bnu.edu.cn</p><p style=""text-align:left;""><strong>研究目的：</strong>研究旨在了解人类面对群体冲突时的决策方式，以及相关的心理学特质。实验调查大约需要20分钟。</p><p style=""text-align:left;""><strong>实验流程：</strong>实验包含两部分。第一部分呈现一系列群体冲突场景，请你决定如何对这些冲突进行反应，大约需要10分钟完成。第二部分包含一系列人口统计学信息收集和心理学问卷，大约需要10分钟完成。</p><p style=""text-align:left;""><strong>参加及退出规则：</strong>参加本实验完全取决于您的个人意愿。在参与过程中，您可以随时退出，并且不用承担任何后果。</p><p style=""text-align:left;""><strong>隐私：</strong>本实验完全匿名进行，不会收集您的姓名或其他能够识别您身份的信息。实验中收集的作答仅用作科学研究使用，可能会在学术期刊/书籍上发表，或者用于教学，您的数据未来可能会和其他研究者或实验室分享，但您的个人身份不会被识别。</p><p style=""text-align:left;""><strong>实验报酬：</strong>实验完成后，您将获得15元人民币报酬，以感谢您的时间和努力。调查问卷中包含几道题目用以测验您作答时的认真度。只有完成全部实验，并且正确回答认真度测验的被试才能获得实验报酬。实验报酬将通过支付宝转账发放。</p><p style=""text-align:left;font-size:20px;""><strong>如果您同意以上实验知情同意书的内容，请点击'同意并且开始实验'按钮；否则请关闭浏览器界面，退出实验。</strong></p>","0",""
"","","","","","html-button-response","3","157870","0.0-3.0","49","1","2022-11-04 11:26:53","ebf9627b049f568eb4bf28942cb89901","14.145.23.230","Mozilla/5.0 (Windows NT 10.0; Win64; x64) AppleWebKit/537.36 (KHTML, like Gecko) Chrome/106.0.0.0 Safari/537.36 Edg/106.0.1370.47","WebKit","Edge","106.0.1370.47","Windows","10.0","51035","<p ><strong>实验任务一：</strong></p><p>请想象你的国家与另一个国家发生了军事冲突。</p><p>你是国家军队的指挥官，你将如何在冲突中进行决策。</p><p>具体来说，作为军队指挥官，请你决定是否发射导弹进行打击。</p><p>接下来，你会面对一系列场景，请仔细阅读每个场景，然后进行决策。</p><p>这部分实验任务大约需要10分钟。</p><p><strong>实验过程中，请集中注意力。</strong></p>","0",""
"","","","","","html-keyboard-response","4","158886","0.0-4.0-0.0","49","1","2022-11-04 11:26:53","ebf9627b049f568eb4bf28942cb89901","14.145.23.230","Mozilla/5.0 (Windows NT 10.0; Win64; x64) AppleWebKit/537.36 (KHTML, like Gecko) Chrome/106.0.0.0 Safari/537.36 Edg/106.0.1370.47","WebKit","Edge","106.0.1370.47","Windows","10.0","null","<div style=""font-size:60px;"">+</div>","null",""
"","","","","","html-button-response","5","173568","0.0-4.0-1.0","49","1","2022-11-04 11:26:53","ebf9627b049f568eb4bf28942cb89901","14.145.23.230","Mozilla/5.0 (Windows NT 10.0; Win64; x64) AppleWebKit/537.36 (KHTML, like Gecko) Chrome/106.0.0.0 Safari/537.36 Edg/106.0.1370.47","WebKit","Edge","106.0.1370.47","Windows","10.0","14675","<p>作为军队的指挥官，你可以选择发射导弹杀死 <strong>5名</strong> 敌国士兵，但会误杀附近的 <strong>1名</strong> 敌国平民。</p> <p>平民照片如下图所示。</p> <p></p> <img src='stimuli/faces/NFM3.jpg', style='max-width: 30%;'> </img> <p><strong>你是否选择发射武器？</strong></p>","0",""
"","","","","","html-keyboard-response","6","174571","0.0-4.0-0.1","49","1","2022-11-04 11:26:53","ebf9627b049f568eb4bf28942cb89901","14.145.23.230","Mozilla/5.0 (Windows NT 10.0; Win64; x64) AppleWebKit/537.36 (KHTML, like Gecko) Chrome/106.0.0.0 Safari/537.36 Edg/106.0.1370.47","WebKit","Edge","106.0.1370.47","Windows","10.0","null","<div style=""font-size:60px;"">+</div>","null",""
"","","","","","html-button-response","7","181718","0.0-4.0-1.1","49","1","2022-11-04 11:26:53","ebf9627b049f568eb4bf28942cb89901","14.145.23.230","Mozilla/5.0 (Windows NT 10.0; Win64; x64) AppleWebKit/537.36 (KHTML, like Gecko) Chrome/106.0.0.0 Safari/537.36 Edg/106.0.1370.47","WebKit","Edge","106.0.1370.47","Windows","10.0","7144","<p>作为军队的指挥官，你可以选择发射导弹杀死 <strong>7名</strong> 敌国士兵，但会炸毁附近的 <strong>1棵</strong> 敌国树木。</p> <p>树木的照片如下图所示。</p> <p></p> <img src='stimuli/trees/2.png', style='max-width: 30%;'> </img> <p><strong>你是否选择发射武器？</strong></p>","0",""
"","","","","","html-keyboard-response","8","182721","0.0-4.0-0.2","49","1","2022-11-04 11:26:53","ebf9627b049f568eb4bf28942cb89901","14.145.23.230","Mozilla/5.0 (Windows NT 10.0; Win64; x64) AppleWebKit/537.36 (KHTML, like Gecko) Chrome/106.0.0.0 Safari/537.36 Edg/106.0.1370.47","WebKit","Edge","106.0.1370.47","Windows","10.0","null","<div style=""font-size:60px;"">+</div>","null",""
"","","","","","html-button-response","9","186669","0.0-4.0-1.2","49","1","2022-11-04 11:26:53","ebf9627b049f568eb4bf28942cb89901","14.145.23.230","Mozilla/5.0 (Windows NT 10.0; Win64; x64) AppleWebKit/537.36 (KHTML, like Gecko) Chrome/106.0.0.0 Safari/537.36 Edg/106.0.1370.47","WebKit","Edge","106.0.1370.47","Windows","10.0","3947","<p>作为军队的指挥官，你可以选择发射导弹杀死 <strong>4名</strong> 敌国士兵，但会炸毁附近的 <strong>1棵</strong> 敌国树木。</p> <p>树木的照片如下图所示。</p> <p></p> <img src='stimuli/trees/1.png', style='max-width: 30%;'> </img> <p><strong>你是否选择发射武器？</strong></p>","0",""
"","","","","","html-keyboard-response","10","187674","0.0-4.0-0.3","49","1","2022-11-04 11:26:53","ebf9627b049f568eb4bf28942cb89901","14.145.23.230","Mozilla/5.0 (Windows NT 10.0; Win64; x64) AppleWebKit/537.36 (KHTML, like Gecko) Chrome/106.0.0.0 Safari/537.36 Edg/106.0.1370.47","WebKit","Edge","106.0.1370.47","Windows","10.0","null","<div style=""font-size:60px;"">+</div>","null",""
"","","","","","html-button-response","11","237249","0.0-4.0-1.3","49","1","2022-11-04 11:26:53","ebf9627b049f568eb4bf28942cb89901","14.145.23.230","Mozilla/5.0 (Windows NT 10.0; Win64; x64) AppleWebKit/537.36 (KHTML, like Gecko) Chrome/106.0.0.0 Safari/537.36 Edg/106.0.1370.47","WebKit","Edge","106.0.1370.47","Windows","10.0","49573","<p>作为军队的指挥官，你可以选择发射导弹杀死 <strong>5名</strong> 敌国士兵，但会炸毁附近的 <strong>1棵</strong> 敌国树木。</p> <p>树木的照片如下图所示。</p> <p></p> <img src='stimuli/trees/2.png', style='max-width: 30%;'> </img> <p><strong>你是否选择发射武器？</strong></p>","0",""
"","","","","","html-keyboard-response","12","238251","0.0-4.0-0.4","49","1","2022-11-04 11:26:53","ebf9627b049f568eb4bf28942cb89901","14.145.23.230","Mozilla/5.0 (Windows NT 10.0; Win64; x64) AppleWebKit/537.36 (KHTML, like Gecko) Chrome/106.0.0.0 Safari/537.36 Edg/106.0.1370.47","WebKit","Edge","106.0.1370.47","Windows","10.0","null","<div style=""font-size:60px;"">+</div>","null",""
"","","","","","html-button-response","13","247145","0.0-4.0-1.4","49","1","2022-11-04 11:26:53","ebf9627b049f568eb4bf28942cb89901","14.145.23.230","Mozilla/5.0 (Windows NT 10.0; Win64; x64) AppleWebKit/537.36 (KHTML, like Gecko) Chrome/106.0.0.0 Safari/537.36 Edg/106.0.1370.47","WebKit","Edge","106.0.1370.47","Windows","10.0","8891","<p>作为军队的指挥官，你可以选择发射导弹杀死 <strong>6名</strong> 敌国士兵，但会炸毁附近的 <strong>1棵</strong> 敌国树木。</p> <p>树木的照片如下图所示。</p> <p></p> <img src='stimuli/trees/5.png', style='max-width: 30%;'> </img> <p><strong>你是否选择发射武器？</strong></p>","0",""
"","","","","","html-keyboard-response","14","248148","0.0-4.0-0.5","49","1","2022-11-04 11:26:53","ebf9627b049f568eb4bf28942cb89901","14.145.23.230","Mozilla/5.0 (Windows NT 10.0; Win64; x64) AppleWebKit/537.36 (KHTML, like Gecko) Chrome/106.0.0.0 Safari/537.36 Edg/106.0.1370.47","WebKit","Edge","106.0.1370.47","Windows","10.0","null","<div style=""font-size:60px;"">+</div>","null",""
"","","","","","html-button-response","15","250267","0.0-4.0-1.5","49","1","2022-11-04 11:26:53","ebf9627b049f568eb4bf28942cb89901","14.145.23.230","Mozilla/5.0 (Windows NT 10.0; Win64; x64) AppleWebKit/537.36 (KHTML, like Gecko) Chrome/106.0.0.0 Safari/537.36 Edg/106.0.1370.47","WebKit","Edge","106.0.1370.47","Windows","10.0","2116","<p>作为军队的指挥官，你可以选择发射导弹杀死 <strong>10名</strong> 敌国士兵，但会炸毁附近的 <strong>1棵</strong> 敌国树木。</p> <p>树木的照片如下图所示。</p> <p></p> <img src='stimuli/trees/6.png', style='max-width: 30%;'> </img> <p><strong>你是否选择发射武器？</strong></p>","0",""
"","","","","","html-keyboard-response","16","251270","0.0-4.0-0.6","49","1","2022-11-04 11:26:53","ebf9627b049f568eb4bf28942cb89901","14.145.23.230","Mozilla/5.0 (Windows NT 10.0; Win64; x64) AppleWebKit/537.36 (KHTML, like Gecko) Chrome/106.0.0.0 Safari/537.36 Edg/106.0.1370.47","WebKit","Edge","106.0.1370.47","Windows","10.0","null","<div style=""font-size:60px;"">+</div>","null",""
"","","","","","html-button-response","17","255351","0.0-4.0-1.6","49","1","2022-11-04 11:26:53","ebf9627b049f568eb4bf28942cb89901","14.145.23.230","Mozilla/5.0 (Windows NT 10.0; Win64; x64) AppleWebKit/537.36 (KHTML, like Gecko) Chrome/106.0.0.0 Safari/537.36 Edg/106.0.1370.47","WebKit","Edge","106.0.1370.47","Windows","10.0","4078","<p>作为军队的指挥官，你可以选择发射导弹杀死 <strong>2名</strong> 敌国士兵，但会误杀附近的 <strong>1名</strong> 敌国平民。</p> <p>平民照片如下图所示。</p> <p></p> <img src='stimuli/faces/NFF7.jpg', style='max-width: 30%;'> </img> <p><strong>你是否选择发射武器？</strong></p>","1",""
"","","","","","html-keyboard-response","18","256368","0.0-4.0-0.7","49","1","2022-11-04 11:26:53","ebf9627b049f568eb4bf28942cb89901","14.145.23.230","Mozilla/5.0 (Windows NT 10.0; Win64; x64) AppleWebKit/537.36 (KHTML, like Gecko) Chrome/106.0.0.0 Safari/537.36 Edg/106.0.1370.47","WebKit","Edge","106.0.1370.47","Windows","10.0","null","<div style=""font-size:60px;"">+</div>","null",""
"","","","","","html-button-response","19","273351","0.0-4.0-1.7","49","1","2022-11-04 11:26:53","ebf9627b049f568eb4bf28942cb89901","14.145.23.230","Mozilla/5.0 (Windows NT 10.0; Win64; x64) AppleWebKit/537.36 (KHTML, like Gecko) Chrome/106.0.0.0 Safari/537.36 Edg/106.0.1370.47","WebKit","Edge","106.0.1370.47","Windows","10.0","16979","<p>作为军队的指挥官，你可以选择发射导弹杀死 <strong>6名</strong> 敌国士兵，但会误杀附近的 <strong>1名</strong> 敌国平民。</p> <p>平民照片如下图所示。</p> <p></p> <img src='stimuli/faces/NFM6.jpg', style='max-width: 30%;'> </img> <p><strong>你是否选择发射武器？</strong></p>","1",""
"","","","","","html-keyboard-response","20","274358","0.0-4.0-0.8","49","1","2022-11-04 11:26:53","ebf9627b049f568eb4bf28942cb89901","14.145.23.230","Mozilla/5.0 (Windows NT 10.0; Win64; x64) AppleWebKit/537.36 (KHTML, like Gecko) Chrome/106.0.0.0 Safari/537.36 Edg/106.0.1370.47","WebKit","Edge","106.0.1370.47","Windows","10.0","null","<div style=""font-size:60px;"">+</div>","null",""
"","","","","","html-button-response","21","279163","0.0-4.0-1.8","49","1","2022-11-04 11:26:53","ebf9627b049f568eb4bf28942cb89901","14.145.23.230","Mozilla/5.0 (Windows NT 10.0; Win64; x64) AppleWebKit/537.36 (KHTML, like Gecko) Chrome/106.0.0.0 Safari/537.36 Edg/106.0.1370.47","WebKit","Edge","106.0.1370.47","Windows","10.0","4801","<p>作为军队的指挥官，你可以选择发射导弹杀死 <strong>3名</strong> 敌国士兵，但会误杀附近的 <strong>1名</strong> 敌国平民。</p> <p>平民照片如下图所示。</p> <p></p> <img src='stimuli/faces/NFM7.jpg', style='max-width: 30%;'> </img> <p><strong>你是否选择发射武器？</strong></p>","1",""
"","","","","","html-keyboard-response","22","280172","0.0-4.0-0.9","49","1","2022-11-04 11:26:53","ebf9627b049f568eb4bf28942cb89901","14.145.23.230","Mozilla/5.0 (Windows NT 10.0; Win64; x64) AppleWebKit/537.36 (KHTML, like Gecko) Chrome/106.0.0.0 Safari/537.36 Edg/106.0.1370.47","WebKit","Edge","106.0.1370.47","Windows","10.0","null","<div style=""font-size:60px;"">+</div>","null",""
"","","","","","html-button-response","23","282131","0.0-4.0-1.9","49","1","2022-11-04 11:26:53","ebf9627b049f568eb4bf28942cb89901","14.145.23.230","Mozilla/5.0 (Windows NT 10.0; Win64; x64) AppleWebKit/537.36 (KHTML, like Gecko) Chrome/106.0.0.0 Safari/537.36 Edg/106.0.1370.47","WebKit","Edge","106.0.1370.47","Windows","10.0","1956","<p>作为军队的指挥官，你可以选择发射导弹杀死 <strong>8名</strong> 敌国士兵，但会炸毁附近的 <strong>1棵</strong> 敌国树木。</p> <p>树木的照片如下图所示。</p> <p></p> <img src='stimuli/trees/13.png', style='max-width: 30%;'> </img> <p><strong>你是否选择发射武器？</strong></p>","0",""
"","","","","","html-keyboard-response","24","283134","0.0-4.0-0.10","49","1","2022-11-04 11:26:53","ebf9627b049f568eb4bf28942cb89901","14.145.23.230","Mozilla/5.0 (Windows NT 10.0; Win64; x64) AppleWebKit/537.36 (KHTML, like Gecko) Chrome/106.0.0.0 Safari/537.36 Edg/106.0.1370.47","WebKit","Edge","106.0.1370.47","Windows","10.0","null","<div style=""font-size:60px;"">+</div>","null",""
"","","","","","html-button-response","25","284806","0.0-4.0-1.10","49","1","2022-11-04 11:26:53","ebf9627b049f568eb4bf28942cb89901","14.145.23.230","Mozilla/5.0 (Windows NT 10.0; Win64; x64) AppleWebKit/537.36 (KHTML, like Gecko) Chrome/106.0.0.0 Safari/537.36 Edg/106.0.1370.47","WebKit","Edge","106.0.1370.47","Windows","10.0","1668","<p>作为军队的指挥官，你可以选择发射导弹杀死 <strong>8名</strong> 敌国士兵，但会误杀附近的 <strong>1名</strong> 敌国平民。</p> <p>平民照片如下图所示。</p> <p></p> <img src='stimuli/faces/NFF4.jpg', style='max-width: 30%;'> </img> <p><strong>你是否选择发射武器？</strong></p>","1",""
"","","","","","html-keyboard-response","26","285810","0.0-4.0-0.11","49","1","2022-11-04 11:26:53","ebf9627b049f568eb4bf28942cb89901","14.145.23.230","Mozilla/5.0 (Windows NT 10.0; Win64; x64) AppleWebKit/537.36 (KHTML, like Gecko) Chrome/106.0.0.0 Safari/537.36 Edg/106.0.1370.47","WebKit","Edge","106.0.1370.47","Windows","10.0","null","<div style=""font-size:60px;"">+</div>","null",""
"","","","","","html-button-response","27","288447","0.0-4.0-1.11","49","1","2022-11-04 11:26:53","ebf9627b049f568eb4bf28942cb89901","14.145.23.230","Mozilla/5.0 (Windows NT 10.0; Win64; x64) AppleWebKit/537.36 (KHTML, like Gecko) Chrome/106.0.0.0 Safari/537.36 Edg/106.0.1370.47","WebKit","Edge","106.0.1370.47","Windows","10.0","2634","<p>作为军队的指挥官，你可以选择发射导弹杀死 <strong>1名</strong> 敌国士兵，但会炸毁附近的 <strong>1棵</strong> 敌国树木。</p> <p>树木的照片如下图所示。</p> <p></p> <img src='stimuli/trees/16.png', style='max-width: 30%;'> </img> <p><strong>你是否选择发射武器？</strong></p>","0",""
"","","","","","html-keyboard-response","28","289450","0.0-4.0-0.12","49","1","2022-11-04 11:26:53","ebf9627b049f568eb4bf28942cb89901","14.145.23.230","Mozilla/5.0 (Windows NT 10.0; Win64; x64) AppleWebKit/537.36 (KHTML, like Gecko) Chrome/106.0.0.0 Safari/537.36 Edg/106.0.1370.47","WebKit","Edge","106.0.1370.47","Windows","10.0","null","<div style=""font-size:60px;"">+</div>","null",""
"","","","","","html-button-response","29","292378","0.0-4.0-1.12","49","1","2022-11-04 11:26:53","ebf9627b049f568eb4bf28942cb89901","14.145.23.230","Mozilla/5.0 (Windows NT 10.0; Win64; x64) AppleWebKit/537.36 (KHTML, like Gecko) Chrome/106.0.0.0 Safari/537.36 Edg/106.0.1370.47","WebKit","Edge","106.0.1370.47","Windows","10.0","2924","<p>作为军队的指挥官，你可以选择发射导弹杀死 <strong>4名</strong> 敌国士兵，但会误杀附近的 <strong>1名</strong> 敌国平民。</p> <p>平民照片如下图所示。</p> <p></p> <img src='stimuli/faces/NFF6.jpg', style='max-width: 30%;'> </img> <p><strong>你是否选择发射武器？</strong></p>","0",""
"","","","","","html-keyboard-response","30","293393","0.0-4.0-0.13","49","1","2022-11-04 11:26:53","ebf9627b049f568eb4bf28942cb89901","14.145.23.230","Mozilla/5.0 (Windows NT 10.0; Win64; x64) AppleWebKit/537.36 (KHTML, like Gecko) Chrome/106.0.0.0 Safari/537.36 Edg/106.0.1370.47","WebKit","Edge","106.0.1370.47","Windows","10.0","null","<div style=""font-size:60px;"">+</div>","null",""
"","","","","","html-button-response","31","295706","0.0-4.0-1.13","49","1","2022-11-04 11:26:53","ebf9627b049f568eb4bf28942cb89901","14.145.23.230","Mozilla/5.0 (Windows NT 10.0; Win64; x64) AppleWebKit/537.36 (KHTML, like Gecko) Chrome/106.0.0.0 Safari/537.36 Edg/106.0.1370.47","WebKit","Edge","106.0.1370.47","Windows","10.0","2310","<p>作为军队的指挥官，你可以选择发射导弹杀死 <strong>5名</strong> 敌国士兵，但会误杀附近的 <strong>1名</strong> 敌国平民。</p> <p>平民照片如下图所示。</p> <p></p> <img src='stimuli/faces/NFM4.jpg', style='max-width: 30%;'> </img> <p><strong>你是否选择发射武器？</strong></p>","1",""
"","","","","","html-keyboard-response","32","296709","0.0-4.0-0.14","49","1","2022-11-04 11:26:53","ebf9627b049f568eb4bf28942cb89901","14.145.23.230","Mozilla/5.0 (Windows NT 10.0; Win64; x64) AppleWebKit/537.36 (KHTML, like Gecko) Chrome/106.0.0.0 Safari/537.36 Edg/106.0.1370.47","WebKit","Edge","106.0.1370.47","Windows","10.0","null","<div style=""font-size:60px;"">+</div>","null",""
"","","","","","html-button-response","33","298198","0.0-4.0-1.14","49","1","2022-11-04 11:26:53","ebf9627b049f568eb4bf28942cb89901","14.145.23.230","Mozilla/5.0 (Windows NT 10.0; Win64; x64) AppleWebKit/537.36 (KHTML, like Gecko) Chrome/106.0.0.0 Safari/537.36 Edg/106.0.1370.47","WebKit","Edge","106.0.1370.47","Windows","10.0","1485","<p>作为军队的指挥官，你可以选择发射导弹杀死 <strong>3名</strong> 敌国士兵，但会误杀附近的 <strong>1名</strong> 敌国平民。</p> <p>平民照片如下图所示。</p> <p></p> <img src='stimuli/faces/NFM8.jpg', style='max-width: 30%;'> </img> <p><strong>你是否选择发射武器？</strong></p>","1",""
"","","","","","html-keyboard-response","34","299200","0.0-4.0-0.15","49","1","2022-11-04 11:26:53","ebf9627b049f568eb4bf28942cb89901","14.145.23.230","Mozilla/5.0 (Windows NT 10.0; Win64; x64) AppleWebKit/537.36 (KHTML, like Gecko) Chrome/106.0.0.0 Safari/537.36 Edg/106.0.1370.47","WebKit","Edge","106.0.1370.47","Windows","10.0","null","<div style=""font-size:60px;"">+</div>","null",""
"","","","","","html-button-response","35","300325","0.0-4.0-1.15","49","1","2022-11-04 11:26:53","ebf9627b049f568eb4bf28942cb89901","14.145.23.230","Mozilla/5.0 (Windows NT 10.0; Win64; x64) AppleWebKit/537.36 (KHTML, like Gecko) Chrome/106.0.0.0 Safari/537.36 Edg/106.0.1370.47","WebKit","Edge","106.0.1370.47","Windows","10.0","1123","<p>作为军队的指挥官，你可以选择发射导弹杀死 <strong>3名</strong> 敌国士兵，但会炸毁附近的 <strong>1棵</strong> 敌国树木。</p> <p>树木的照片如下图所示。</p> <p></p> <img src='stimuli/trees/7.png', style='max-width: 30%;'> </img> <p><strong>你是否选择发射武器？</strong></p>","0",""
"","","","","","html-keyboard-response","36","301337","0.0-4.0-0.16","49","1","2022-11-04 11:26:53","ebf9627b049f568eb4bf28942cb89901","14.145.23.230","Mozilla/5.0 (Windows NT 10.0; Win64; x64) AppleWebKit/537.36 (KHTML, like Gecko) Chrome/106.0.0.0 Safari/537.36 Edg/106.0.1370.47","WebKit","Edge","106.0.1370.47","Windows","10.0","null","<div style=""font-size:60px;"">+</div>","null",""
"","","","","","html-button-response","37","302561","0.0-4.0-1.16","49","1","2022-11-04 11:26:53","ebf9627b049f568eb4bf28942cb89901","14.145.23.230","Mozilla/5.0 (Windows NT 10.0; Win64; x64) AppleWebKit/537.36 (KHTML, like Gecko) Chrome/106.0.0.0 Safari/537.36 Edg/106.0.1370.47","WebKit","Edge","106.0.1370.47","Windows","10.0","1220","<p>作为军队的指挥官，你可以选择发射导弹杀死 <strong>2名</strong> 敌国士兵，但会误杀附近的 <strong>1名</strong> 敌国平民。</p> <p>平民照片如下图所示。</p> <p></p> <img src='stimuli/faces/NFF4.jpg', style='max-width: 30%;'> </img> <p><strong>你是否选择发射武器？</strong></p>","1",""
"","","","","","html-keyboard-response","38","303563","0.0-4.0-0.17","49","1","2022-11-04 11:26:53","ebf9627b049f568eb4bf28942cb89901","14.145.23.230","Mozilla/5.0 (Windows NT 10.0; Win64; x64) AppleWebKit/537.36 (KHTML, like Gecko) Chrome/106.0.0.0 Safari/537.36 Edg/106.0.1370.47","WebKit","Edge","106.0.1370.47","Windows","10.0","null","<div style=""font-size:60px;"">+</div>","null",""
"","","","","","html-button-response","39","304553","0.0-4.0-1.17","49","1","2022-11-04 11:26:53","ebf9627b049f568eb4bf28942cb89901","14.145.23.230","Mozilla/5.0 (Windows NT 10.0; Win64; x64) AppleWebKit/537.36 (KHTML, like Gecko) Chrome/106.0.0.0 Safari/537.36 Edg/106.0.1370.47","WebKit","Edge","106.0.1370.47","Windows","10.0","987","<p>作为军队的指挥官，你可以选择发射导弹杀死 <strong>1名</strong> 敌国士兵，但会误杀附近的 <strong>1名</strong> 敌国平民。</p> <p>平民照片如下图所示。</p> <p></p> <img src='stimuli/faces/NFF2.jpg', style='max-width: 30%;'> </img> <p><strong>你是否选择发射武器？</strong></p>","1",""
"","","","","","html-keyboard-response","40","305557","0.0-4.0-0.18","49","1","2022-11-04 11:26:53","ebf9627b049f568eb4bf28942cb89901","14.145.23.230","Mozilla/5.0 (Windows NT 10.0; Win64; x64) AppleWebKit/537.36 (KHTML, like Gecko) Chrome/106.0.0.0 Safari/537.36 Edg/106.0.1370.47","WebKit","Edge","106.0.1370.47","Windows","10.0","null","<div style=""font-size:60px;"">+</div>","null",""
"","","","","","html-button-response","41","307298","0.0-4.0-1.18","49","1","2022-11-04 11:26:53","ebf9627b049f568eb4bf28942cb89901","14.145.23.230","Mozilla/5.0 (Windows NT 10.0; Win64; x64) AppleWebKit/537.36 (KHTML, like Gecko) Chrome/106.0.0.0 Safari/537.36 Edg/106.0.1370.47","WebKit","Edge","106.0.1370.47","Windows","10.0","1736","<p>作为军队的指挥官，你可以选择发射导弹杀死 <strong>5名</strong> 敌国士兵，但会炸毁附近的 <strong>1棵</strong> 敌国树木。</p> <p>树木的照片如下图所示。</p> <p></p> <img src='stimuli/trees/11.png', style='max-width: 30%;'> </img> <p><strong>你是否选择发射武器？</strong></p>","1",""
"","","","","","html-keyboard-response","42","308314","0.0-4.0-0.19","49","1","2022-11-04 11:26:53","ebf9627b049f568eb4bf28942cb89901","14.145.23.230","Mozilla/5.0 (Windows NT 10.0; Win64; x64) AppleWebKit/537.36 (KHTML, like Gecko) Chrome/106.0.0.0 Safari/537.36 Edg/106.0.1370.47","WebKit","Edge","106.0.1370.47","Windows","10.0","null","<div style=""font-size:60px;"">+</div>","null",""
"","","","","","html-button-response","43","309273","0.0-4.0-1.19","49","1","2022-11-04 11:26:53","ebf9627b049f568eb4bf28942cb89901","14.145.23.230","Mozilla/5.0 (Windows NT 10.0; Win64; x64) AppleWebKit/537.36 (KHTML, like Gecko) Chrome/106.0.0.0 Safari/537.36 Edg/106.0.1370.47","WebKit","Edge","106.0.1370.47","Windows","10.0","956","<p>作为军队的指挥官，你可以选择发射导弹杀死 <strong>7名</strong> 敌国士兵，但会误杀附近的 <strong>1名</strong> 敌国平民。</p> <p>平民照片如下图所示。</p> <p></p> <img src='stimuli/faces/NFF5.jpg', style='max-width: 30%;'> </img> <p><strong>你是否选择发射武器？</strong></p>","0",""
"","","","","","html-keyboard-response","44","310286","0.0-4.0-0.20","49","1","2022-11-04 11:26:53","ebf9627b049f568eb4bf28942cb89901","14.145.23.230","Mozilla/5.0 (Windows NT 10.0; Win64; x64) AppleWebKit/537.36 (KHTML, like Gecko) Chrome/106.0.0.0 Safari/537.36 Edg/106.0.1370.47","WebKit","Edge","106.0.1370.47","Windows","10.0","null","<div style=""font-size:60px;"">+</div>","null",""
"","","","","","html-button-response","45","312656","0.0-4.0-1.20","49","1","2022-11-04 11:26:53","ebf9627b049f568eb4bf28942cb89901","14.145.23.230","Mozilla/5.0 (Windows NT 10.0; Win64; x64) AppleWebKit/537.36 (KHTML, like Gecko) Chrome/106.0.0.0 Safari/537.36 Edg/106.0.1370.47","WebKit","Edge","106.0.1370.47","Windows","10.0","2367","<p>作为军队的指挥官，你可以选择发射导弹杀死 <strong>8名</strong> 敌国士兵，但会炸毁附近的 <strong>1棵</strong> 敌国树木。</p> <p>树木的照片如下图所示。</p> <p></p> <img src='stimuli/trees/7.png', style='max-width: 30%;'> </img> <p><strong>你是否选择发射武器？</strong></p>","0",""
"","","","","","html-keyboard-response","46","313660","0.0-4.0-0.21","49","1","2022-11-04 11:26:53","ebf9627b049f568eb4bf28942cb89901","14.145.23.230","Mozilla/5.0 (Windows NT 10.0; Win64; x64) AppleWebKit/537.36 (KHTML, like Gecko) Chrome/106.0.0.0 Safari/537.36 Edg/106.0.1370.47","WebKit","Edge","106.0.1370.47","Windows","10.0","null","<div style=""font-size:60px;"">+</div>","null",""
"","","","","","html-button-response","47","314821","0.0-4.0-1.21","49","1","2022-11-04 11:26:53","ebf9627b049f568eb4bf28942cb89901","14.145.23.230","Mozilla/5.0 (Windows NT 10.0; Win64; x64) AppleWebKit/537.36 (KHTML, like Gecko) Chrome/106.0.0.0 Safari/537.36 Edg/106.0.1370.47","WebKit","Edge","106.0.1370.47","Windows","10.0","1159","<p>作为军队的指挥官，你可以选择发射导弹杀死 <strong>3名</strong> 敌国士兵，但会炸毁附近的 <strong>1棵</strong> 敌国树木。</p> <p>树木的照片如下图所示。</p> <p></p> <img src='stimuli/trees/14.png', style='max-width: 30%;'> </img> <p><strong>你是否选择发射武器？</strong></p>","0",""
"","","","","","html-keyboard-response","48","315823","0.0-4.0-0.22","49","1","2022-11-04 11:26:53","ebf9627b049f568eb4bf28942cb89901","14.145.23.230","Mozilla/5.0 (Windows NT 10.0; Win64; x64) AppleWebKit/537.36 (KHTML, like Gecko) Chrome/106.0.0.0 Safari/537.36 Edg/106.0.1370.47","WebKit","Edge","106.0.1370.47","Windows","10.0","null","<div style=""font-size:60px;"">+</div>","null",""
"","","","","","html-button-response","49","319755","0.0-4.0-1.22","49","1","2022-11-04 11:26:53","ebf9627b049f568eb4bf28942cb89901","14.145.23.230","Mozilla/5.0 (Windows NT 10.0; Win64; x64) AppleWebKit/537.36 (KHTML, like Gecko) Chrome/106.0.0.0 Safari/537.36 Edg/106.0.1370.47","WebKit","Edge","106.0.1370.47","Windows","10.0","3929","<p>作为军队的指挥官，你可以选择发射导弹杀死 <strong>6名</strong> 敌国士兵，但会误杀附近的 <strong>1名</strong> 敌国平民。</p> <p>平民照片如下图所示。</p> <p></p> <img src='stimuli/faces/NFF8.jpg', style='max-width: 30%;'> </img> <p><strong>你是否选择发射武器？</strong></p>","0",""
"","","","","","html-keyboard-response","50","320759","0.0-4.0-0.23","49","1","2022-11-04 11:26:53","ebf9627b049f568eb4bf28942cb89901","14.145.23.230","Mozilla/5.0 (Windows NT 10.0; Win64; x64) AppleWebKit/537.36 (KHTML, like Gecko) Chrome/106.0.0.0 Safari/537.36 Edg/106.0.1370.47","WebKit","Edge","106.0.1370.47","Windows","10.0","null","<div style=""font-size:60px;"">+</div>","null",""
"","","","","","html-button-response","51","323261","0.0-4.0-1.23","49","1","2022-11-04 11:26:53","ebf9627b049f568eb4bf28942cb89901","14.145.23.230","Mozilla/5.0 (Windows NT 10.0; Win64; x64) AppleWebKit/537.36 (KHTML, like Gecko) Chrome/106.0.0.0 Safari/537.36 Edg/106.0.1370.47","WebKit","Edge","106.0.1370.47","Windows","10.0","2499","<p>作为军队的指挥官，你可以选择发射导弹杀死 <strong>4名</strong> 敌国士兵，但会炸毁附近的 <strong>1棵</strong> 敌国树木。</p> <p>树木的照片如下图所示。</p> <p></p> <img src='stimuli/trees/5.png', style='max-width: 30%;'> </img> <p><strong>你是否选择发射武器？</strong></p>","0",""
"","","","","","html-keyboard-response","52","324263","0.0-4.0-0.24","49","1","2022-11-04 11:26:53","ebf9627b049f568eb4bf28942cb89901","14.145.23.230","Mozilla/5.0 (Windows NT 10.0; Win64; x64) AppleWebKit/537.36 (KHTML, like Gecko) Chrome/106.0.0.0 Safari/537.36 Edg/106.0.1370.47","WebKit","Edge","106.0.1370.47","Windows","10.0","null","<div style=""font-size:60px;"">+</div>","null",""
"","","","","","html-button-response","53","326431","0.0-4.0-1.24","49","1","2022-11-04 11:26:53","ebf9627b049f568eb4bf28942cb89901","14.145.23.230","Mozilla/5.0 (Windows NT 10.0; Win64; x64) AppleWebKit/537.36 (KHTML, like Gecko) Chrome/106.0.0.0 Safari/537.36 Edg/106.0.1370.47","WebKit","Edge","106.0.1370.47","Windows","10.0","2165","<p>作为军队的指挥官，你可以选择发射导弹杀死 <strong>4名</strong> 敌国士兵，但会误杀附近的 <strong>1名</strong> 敌国平民。</p> <p>平民照片如下图所示。</p> <p></p> <img src='stimuli/faces/NFM5.jpg', style='max-width: 30%;'> </img> <p><strong>你是否选择发射武器？</strong></p>","1",""
"","","","","","html-keyboard-response","54","327448","0.0-4.0-0.25","49","1","2022-11-04 11:26:53","ebf9627b049f568eb4bf28942cb89901","14.145.23.230","Mozilla/5.0 (Windows NT 10.0; Win64; x64) AppleWebKit/537.36 (KHTML, like Gecko) Chrome/106.0.0.0 Safari/537.36 Edg/106.0.1370.47","WebKit","Edge","106.0.1370.47","Windows","10.0","null","<div style=""font-size:60px;"">+</div>","null",""
"","","","","","html-button-response","55","329461","0.0-4.0-1.25","49","1","2022-11-04 11:26:53","ebf9627b049f568eb4bf28942cb89901","14.145.23.230","Mozilla/5.0 (Windows NT 10.0; Win64; x64) AppleWebKit/537.36 (KHTML, like Gecko) Chrome/106.0.0.0 Safari/537.36 Edg/106.0.1370.47","WebKit","Edge","106.0.1370.47","Windows","10.0","2010","<p>作为军队的指挥官，你可以选择发射导弹杀死 <strong>8名</strong> 敌国士兵，但会误杀附近的 <strong>1名</strong> 敌国平民。</p> <p>平民照片如下图所示。</p> <p></p> <img src='stimuli/faces/NFF2.jpg', style='max-width: 30%;'> </img> <p><strong>你是否选择发射武器？</strong></p>","1",""
"","","","","","html-keyboard-response","56","330470","0.0-4.0-0.26","49","1","2022-11-04 11:26:53","ebf9627b049f568eb4bf28942cb89901","14.145.23.230","Mozilla/5.0 (Windows NT 10.0; Win64; x64) AppleWebKit/537.36 (KHTML, like Gecko) Chrome/106.0.0.0 Safari/537.36 Edg/106.0.1370.47","WebKit","Edge","106.0.1370.47","Windows","10.0","null","<div style=""font-size:60px;"">+</div>","null",""
"","","","","","html-button-response","57","331654","0.0-4.0-1.26","49","1","2022-11-04 11:26:53","ebf9627b049f568eb4bf28942cb89901","14.145.23.230","Mozilla/5.0 (Windows NT 10.0; Win64; x64) AppleWebKit/537.36 (KHTML, like Gecko) Chrome/106.0.0.0 Safari/537.36 Edg/106.0.1370.47","WebKit","Edge","106.0.1370.47","Windows","10.0","1180","<p>作为军队的指挥官，你可以选择发射导弹杀死 <strong>8名</strong> 敌国士兵，但会炸毁附近的 <strong>1棵</strong> 敌国树木。</p> <p>树木的照片如下图所示。</p> <p></p> <img src='stimuli/trees/1.png', style='max-width: 30%;'> </img> <p><strong>你是否选择发射武器？</strong></p>","0",""
"","","","","","html-keyboard-response","58","332657","0.0-4.0-0.27","49","1","2022-11-04 11:26:53","ebf9627b049f568eb4bf28942cb89901","14.145.23.230","Mozilla/5.0 (Windows NT 10.0; Win64; x64) AppleWebKit/537.36 (KHTML, like Gecko) Chrome/106.0.0.0 Safari/537.36 Edg/106.0.1370.47","WebKit","Edge","106.0.1370.47","Windows","10.0","null","<div style=""font-size:60px;"">+</div>","null",""
"","","","","","html-button-response","59","334541","0.0-4.0-1.27","49","1","2022-11-04 11:26:53","ebf9627b049f568eb4bf28942cb89901","14.145.23.230","Mozilla/5.0 (Windows NT 10.0; Win64; x64) AppleWebKit/537.36 (KHTML, like Gecko) Chrome/106.0.0.0 Safari/537.36 Edg/106.0.1370.47","WebKit","Edge","106.0.1370.47","Windows","10.0","1881","<p>作为军队的指挥官，你可以选择发射导弹杀死 <strong>1名</strong> 敌国士兵，但会误杀附近的 <strong>1名</strong> 敌国平民。</p> <p>平民照片如下图所示。</p> <p></p> <img src='stimuli/faces/NFF8.jpg', style='max-width: 30%;'> </img> <p><strong>你是否选择发射武器？</strong></p>","0",""
"","","","","","html-keyboard-response","60","335552","0.0-4.0-0.28","49","1","2022-11-04 11:26:53","ebf9627b049f568eb4bf28942cb89901","14.145.23.230","Mozilla/5.0 (Windows NT 10.0; Win64; x64) AppleWebKit/537.36 (KHTML, like Gecko) Chrome/106.0.0.0 Safari/537.36 Edg/106.0.1370.47","WebKit","Edge","106.0.1370.47","Windows","10.0","null","<div style=""font-size:60px;"">+</div>","null",""
"","","","","","html-button-response","61","337351","0.0-4.0-1.28","49","1","2022-11-04 11:26:53","ebf9627b049f568eb4bf28942cb89901","14.145.23.230","Mozilla/5.0 (Windows NT 10.0; Win64; x64) AppleWebKit/537.36 (KHTML, like Gecko) Chrome/106.0.0.0 Safari/537.36 Edg/106.0.1370.47","WebKit","Edge","106.0.1370.47","Windows","10.0","1795","<p>作为军队的指挥官，你可以选择发射导弹杀死 <strong>2名</strong> 敌国士兵，但会误杀附近的 <strong>1名</strong> 敌国平民。</p> <p>平民照片如下图所示。</p> <p></p> <img src='stimuli/faces/NFM1.jpg', style='max-width: 30%;'> </img> <p><strong>你是否选择发射武器？</strong></p>","1",""
"","","","","","html-keyboard-response","62","338363","0.0-4.0-0.29","49","1","2022-11-04 11:26:53","ebf9627b049f568eb4bf28942cb89901","14.145.23.230","Mozilla/5.0 (Windows NT 10.0; Win64; x64) AppleWebKit/537.36 (KHTML, like Gecko) Chrome/106.0.0.0 Safari/537.36 Edg/106.0.1370.47","WebKit","Edge","106.0.1370.47","Windows","10.0","null","<div style=""font-size:60px;"">+</div>","null",""
"","","","","","html-button-response","63","339971","0.0-4.0-1.29","49","1","2022-11-04 11:26:53","ebf9627b049f568eb4bf28942cb89901","14.145.23.230","Mozilla/5.0 (Windows NT 10.0; Win64; x64) AppleWebKit/537.36 (KHTML, like Gecko) Chrome/106.0.0.0 Safari/537.36 Edg/106.0.1370.47","WebKit","Edge","106.0.1370.47","Windows","10.0","1603","<p>作为军队的指挥官，你可以选择发射导弹杀死 <strong>8名</strong> 敌国士兵，但会炸毁附近的 <strong>1棵</strong> 敌国树木。</p> <p>树木的照片如下图所示。</p> <p></p> <img src='stimuli/trees/3.png', style='max-width: 30%;'> </img> <p><strong>你是否选择发射武器？</strong></p>","0",""
"","","","","","html-keyboard-response","64","340981","0.0-4.0-0.30","49","1","2022-11-04 11:26:53","ebf9627b049f568eb4bf28942cb89901","14.145.23.230","Mozilla/5.0 (Windows NT 10.0; Win64; x64) AppleWebKit/537.36 (KHTML, like Gecko) Chrome/106.0.0.0 Safari/537.36 Edg/106.0.1370.47","WebKit","Edge","106.0.1370.47","Windows","10.0","null","<div style=""font-size:60px;"">+</div>","null",""
"","","","","","html-button-response","65","343140","0.0-4.0-1.30","49","1","2022-11-04 11:26:53","ebf9627b049f568eb4bf28942cb89901","14.145.23.230","Mozilla/5.0 (Windows NT 10.0; Win64; x64) AppleWebKit/537.36 (KHTML, like Gecko) Chrome/106.0.0.0 Safari/537.36 Edg/106.0.1370.47","WebKit","Edge","106.0.1370.47","Windows","10.0","2155","<p>作为军队的指挥官，你可以选择发射导弹杀死 <strong>5名</strong> 敌国士兵，但会炸毁附近的 <strong>1棵</strong> 敌国树木。</p> <p>树木的照片如下图所示。</p> <p></p> <img src='stimuli/trees/8.png', style='max-width: 30%;'> </img> <p><strong>你是否选择发射武器？</strong></p>","0",""
"","","","","","html-keyboard-response","66","344144","0.0-4.0-0.31","49","1","2022-11-04 11:26:53","ebf9627b049f568eb4bf28942cb89901","14.145.23.230","Mozilla/5.0 (Windows NT 10.0; Win64; x64) AppleWebKit/537.36 (KHTML, like Gecko) Chrome/106.0.0.0 Safari/537.36 Edg/106.0.1370.47","WebKit","Edge","106.0.1370.47","Windows","10.0","null","<div style=""font-size:60px;"">+</div>","null",""
"","","","","","html-button-response","67","345503","0.0-4.0-1.31","49","1","2022-11-04 11:26:53","ebf9627b049f568eb4bf28942cb89901","14.145.23.230","Mozilla/5.0 (Windows NT 10.0; Win64; x64) AppleWebKit/537.36 (KHTML, like Gecko) Chrome/106.0.0.0 Safari/537.36 Edg/106.0.1370.47","WebKit","Edge","106.0.1370.47","Windows","10.0","1357","<p>作为军队的指挥官，你可以选择发射导弹杀死 <strong>8名</strong> 敌国士兵，但会误杀附近的 <strong>1名</strong> 敌国平民。</p> <p>平民照片如下图所示。</p> <p></p> <img src='stimuli/faces/NFF6.jpg', style='max-width: 30%;'> </img> <p><strong>你是否选择发射武器？</strong></p>","1",""
"","","","","","html-keyboard-response","68","346510","0.0-4.0-0.32","49","1","2022-11-04 11:26:53","ebf9627b049f568eb4bf28942cb89901","14.145.23.230","Mozilla/5.0 (Windows NT 10.0; Win64; x64) AppleWebKit/537.36 (KHTML, like Gecko) Chrome/106.0.0.0 Safari/537.36 Edg/106.0.1370.47","WebKit","Edge","106.0.1370.47","Windows","10.0","null","<div style=""font-size:60px;"">+</div>","null",""
"","","","","","html-button-response","69","347523","0.0-4.0-1.32","49","1","2022-11-04 11:26:53","ebf9627b049f568eb4bf28942cb89901","14.145.23.230","Mozilla/5.0 (Windows NT 10.0; Win64; x64) AppleWebKit/537.36 (KHTML, like Gecko) Chrome/106.0.0.0 Safari/537.36 Edg/106.0.1370.47","WebKit","Edge","106.0.1370.47","Windows","10.0","1008","<p>作为军队的指挥官，你可以选择发射导弹杀死 <strong>9名</strong> 敌国士兵，但会误杀附近的 <strong>1名</strong> 敌国平民。</p> <p>平民照片如下图所示。</p> <p></p> <img src='stimuli/faces/NFM5.jpg', style='max-width: 30%;'> </img> <p><strong>你是否选择发射武器？</strong></p>","1",""
"","","","","","html-keyboard-response","70","348540","0.0-4.0-0.33","49","1","2022-11-04 11:26:53","ebf9627b049f568eb4bf28942cb89901","14.145.23.230","Mozilla/5.0 (Windows NT 10.0; Win64; x64) AppleWebKit/537.36 (KHTML, like Gecko) Chrome/106.0.0.0 Safari/537.36 Edg/106.0.1370.47","WebKit","Edge","106.0.1370.47","Windows","10.0","null","<div style=""font-size:60px;"">+</div>","null",""
"","","","","","html-button-response","71","350246","0.0-4.0-1.33","49","1","2022-11-04 11:26:53","ebf9627b049f568eb4bf28942cb89901","14.145.23.230","Mozilla/5.0 (Windows NT 10.0; Win64; x64) AppleWebKit/537.36 (KHTML, like Gecko) Chrome/106.0.0.0 Safari/537.36 Edg/106.0.1370.47","WebKit","Edge","106.0.1370.47","Windows","10.0","1702","<p>作为军队的指挥官，你可以选择发射导弹杀死 <strong>1名</strong> 敌国士兵，但会炸毁附近的 <strong>1棵</strong> 敌国树木。</p> <p>树木的照片如下图所示。</p> <p></p> <img src='stimuli/trees/13.png', style='max-width: 30%;'> </img> <p><strong>你是否选择发射武器？</strong></p>","0",""
"","","","","","html-keyboard-response","72","351249","0.0-4.0-0.34","49","1","2022-11-04 11:26:53","ebf9627b049f568eb4bf28942cb89901","14.145.23.230","Mozilla/5.0 (Windows NT 10.0; Win64; x64) AppleWebKit/537.36 (KHTML, like Gecko) Chrome/106.0.0.0 Safari/537.36 Edg/106.0.1370.47","WebKit","Edge","106.0.1370.47","Windows","10.0","null","<div style=""font-size:60px;"">+</div>","null",""
"","","","","","html-button-response","73","353039","0.0-4.0-1.34","49","1","2022-11-04 11:26:53","ebf9627b049f568eb4bf28942cb89901","14.145.23.230","Mozilla/5.0 (Windows NT 10.0; Win64; x64) AppleWebKit/537.36 (KHTML, like Gecko) Chrome/106.0.0.0 Safari/537.36 Edg/106.0.1370.47","WebKit","Edge","106.0.1370.47","Windows","10.0","1786","<p>作为军队的指挥官，你可以选择发射导弹杀死 <strong>3名</strong> 敌国士兵，但会误杀附近的 <strong>1名</strong> 敌国平民。</p> <p>平民照片如下图所示。</p> <p></p> <img src='stimuli/faces/NFM2.jpg', style='max-width: 30%;'> </img> <p><strong>你是否选择发射武器？</strong></p>","1",""
"","","","","","html-keyboard-response","74","354054","0.0-4.0-0.35","49","1","2022-11-04 11:26:53","ebf9627b049f568eb4bf28942cb89901","14.145.23.230","Mozilla/5.0 (Windows NT 10.0; Win64; x64) AppleWebKit/537.36 (KHTML, like Gecko) Chrome/106.0.0.0 Safari/537.36 Edg/106.0.1370.47","WebKit","Edge","106.0.1370.47","Windows","10.0","null","<div style=""font-size:60px;"">+</div>","null",""
"","","","","","html-button-response","75","355373","0.0-4.0-1.35","49","1","2022-11-04 11:26:53","ebf9627b049f568eb4bf28942cb89901","14.145.23.230","Mozilla/5.0 (Windows NT 10.0; Win64; x64) AppleWebKit/537.36 (KHTML, like Gecko) Chrome/106.0.0.0 Safari/537.36 Edg/106.0.1370.47","WebKit","Edge","106.0.1370.47","Windows","10.0","1314","<p>作为军队的指挥官，你可以选择发射导弹杀死 <strong>2名</strong> 敌国士兵，但会炸毁附近的 <strong>1棵</strong> 敌国树木。</p> <p>树木的照片如下图所示。</p> <p></p> <img src='stimuli/trees/15.png', style='max-width: 30%;'> </img> <p><strong>你是否选择发射武器？</strong></p>","0",""
"","","","","","html-keyboard-response","76","356381","0.0-4.0-0.36","49","1","2022-11-04 11:26:53","ebf9627b049f568eb4bf28942cb89901","14.145.23.230","Mozilla/5.0 (Windows NT 10.0; Win64; x64) AppleWebKit/537.36 (KHTML, like Gecko) Chrome/106.0.0.0 Safari/537.36 Edg/106.0.1370.47","WebKit","Edge","106.0.1370.47","Windows","10.0","null","<div style=""font-size:60px;"">+</div>","null",""
"","","","","","html-button-response","77","359705","0.0-4.0-1.36","49","1","2022-11-04 11:26:53","ebf9627b049f568eb4bf28942cb89901","14.145.23.230","Mozilla/5.0 (Windows NT 10.0; Win64; x64) AppleWebKit/537.36 (KHTML, like Gecko) Chrome/106.0.0.0 Safari/537.36 Edg/106.0.1370.47","WebKit","Edge","106.0.1370.47","Windows","10.0","3319","<p>作为军队的指挥官，你可以选择发射导弹杀死 <strong>8名</strong> 敌国士兵，但会炸毁附近的 <strong>1棵</strong> 敌国树木。</p> <p>树木的照片如下图所示。</p> <p></p> <img src='stimuli/trees/12.png', style='max-width: 30%;'> </img> <p><strong>你是否选择发射武器？</strong></p>","0",""
"","","","","","html-keyboard-response","78","360714","0.0-4.0-0.37","49","1","2022-11-04 11:26:53","ebf9627b049f568eb4bf28942cb89901","14.145.23.230","Mozilla/5.0 (Windows NT 10.0; Win64; x64) AppleWebKit/537.36 (KHTML, like Gecko) Chrome/106.0.0.0 Safari/537.36 Edg/106.0.1370.47","WebKit","Edge","106.0.1370.47","Windows","10.0","null","<div style=""font-size:60px;"">+</div>","null",""
"","","","","","html-button-response","79","362637","0.0-4.0-1.37","49","1","2022-11-04 11:26:53","ebf9627b049f568eb4bf28942cb89901","14.145.23.230","Mozilla/5.0 (Windows NT 10.0; Win64; x64) AppleWebKit/537.36 (KHTML, like Gecko) Chrome/106.0.0.0 Safari/537.36 Edg/106.0.1370.47","WebKit","Edge","106.0.1370.47","Windows","10.0","1919","<p>作为军队的指挥官，你可以选择发射导弹杀死 <strong>10名</strong> 敌国士兵，但会误杀附近的 <strong>1名</strong> 敌国平民。</p> <p>平民照片如下图所示。</p> <p></p> <img src='stimuli/faces/NFM1.jpg', style='max-width: 30%;'> </img> <p><strong>你是否选择发射武器？</strong></p>","1",""
"","","","","","html-keyboard-response","80","363643","0.0-4.0-0.38","49","1","2022-11-04 11:26:53","ebf9627b049f568eb4bf28942cb89901","14.145.23.230","Mozilla/5.0 (Windows NT 10.0; Win64; x64) AppleWebKit/537.36 (KHTML, like Gecko) Chrome/106.0.0.0 Safari/537.36 Edg/106.0.1370.47","WebKit","Edge","106.0.1370.47","Windows","10.0","null","<div style=""font-size:60px;"">+</div>","null",""
"","","","","","html-button-response","81","365683","0.0-4.0-1.38","49","1","2022-11-04 11:26:53","ebf9627b049f568eb4bf28942cb89901","14.145.23.230","Mozilla/5.0 (Windows NT 10.0; Win64; x64) AppleWebKit/537.36 (KHTML, like Gecko) Chrome/106.0.0.0 Safari/537.36 Edg/106.0.1370.47","WebKit","Edge","106.0.1370.47","Windows","10.0","2036","<p>作为军队的指挥官，你可以选择发射导弹杀死 <strong>7名</strong> 敌国士兵，但会误杀附近的 <strong>1名</strong> 敌国平民。</p> <p>平民照片如下图所示。</p> <p></p> <img src='stimuli/faces/NFF3.jpg', style='max-width: 30%;'> </img> <p><strong>你是否选择发射武器？</strong></p>","1",""
"","","","","","html-keyboard-response","82","366692","0.0-4.0-0.39","49","1","2022-11-04 11:26:53","ebf9627b049f568eb4bf28942cb89901","14.145.23.230","Mozilla/5.0 (Windows NT 10.0; Win64; x64) AppleWebKit/537.36 (KHTML, like Gecko) Chrome/106.0.0.0 Safari/537.36 Edg/106.0.1370.47","WebKit","Edge","106.0.1370.47","Windows","10.0","null","<div style=""font-size:60px;"">+</div>","null",""
"","","","","","html-button-response","83","368147","0.0-4.0-1.39","49","1","2022-11-04 11:26:53","ebf9627b049f568eb4bf28942cb89901","14.145.23.230","Mozilla/5.0 (Windows NT 10.0; Win64; x64) AppleWebKit/537.36 (KHTML, like Gecko) Chrome/106.0.0.0 Safari/537.36 Edg/106.0.1370.47","WebKit","Edge","106.0.1370.47","Windows","10.0","1451","<p>作为军队的指挥官，你可以选择发射导弹杀死 <strong>1名</strong> 敌国士兵，但会误杀附近的 <strong>1名</strong> 敌国平民。</p> <p>平民照片如下图所示。</p> <p></p> <img src='stimuli/faces/NFF5.jpg', style='max-width: 30%;'> </img> <p><strong>你是否选择发射武器？</strong></p>","1",""
"","","","","","html-keyboard-response","84","369151","0.0-4.0-0.40","49","1","2022-11-04 11:26:53","ebf9627b049f568eb4bf28942cb89901","14.145.23.230","Mozilla/5.0 (Windows NT 10.0; Win64; x64) AppleWebKit/537.36 (KHTML, like Gecko) Chrome/106.0.0.0 Safari/537.36 Edg/106.0.1370.47","WebKit","Edge","106.0.1370.47","Windows","10.0","null","<div style=""font-size:60px;"">+</div>","null",""
"","","","","","html-button-response","85","370137","0.0-4.0-1.40","49","1","2022-11-04 11:26:53","ebf9627b049f568eb4bf28942cb89901","14.145.23.230","Mozilla/5.0 (Windows NT 10.0; Win64; x64) AppleWebKit/537.36 (KHTML, like Gecko) Chrome/106.0.0.0 Safari/537.36 Edg/106.0.1370.47","WebKit","Edge","106.0.1370.47","Windows","10.0","981","<p>作为军队的指挥官，你可以选择发射导弹杀死 <strong>4名</strong> 敌国士兵，但会炸毁附近的 <strong>1棵</strong> 敌国树木。</p> <p>树木的照片如下图所示。</p> <p></p> <img src='stimuli/trees/10.png', style='max-width: 30%;'> </img> <p><strong>你是否选择发射武器？</strong></p>","0",""
"","","","","","html-keyboard-response","86","371145","0.0-4.0-0.41","49","1","2022-11-04 11:26:53","ebf9627b049f568eb4bf28942cb89901","14.145.23.230","Mozilla/5.0 (Windows NT 10.0; Win64; x64) AppleWebKit/537.36 (KHTML, like Gecko) Chrome/106.0.0.0 Safari/537.36 Edg/106.0.1370.47","WebKit","Edge","106.0.1370.47","Windows","10.0","null","<div style=""font-size:60px;"">+</div>","null",""
"","","","","","html-button-response","87","373088","0.0-4.0-1.41","49","1","2022-11-04 11:26:53","ebf9627b049f568eb4bf28942cb89901","14.145.23.230","Mozilla/5.0 (Windows NT 10.0; Win64; x64) AppleWebKit/537.36 (KHTML, like Gecko) Chrome/106.0.0.0 Safari/537.36 Edg/106.0.1370.47","WebKit","Edge","106.0.1370.47","Windows","10.0","1938","<p>作为军队的指挥官，你可以选择发射导弹杀死 <strong>6名</strong> 敌国士兵，但会误杀附近的 <strong>1名</strong> 敌国平民。</p> <p>平民照片如下图所示。</p> <p></p> <img src='stimuli/faces/NFM7.jpg', style='max-width: 30%;'> </img> <p><strong>你是否选择发射武器？</strong></p>","1",""
"","","","","","html-keyboard-response","88","374104","0.0-4.0-0.42","49","1","2022-11-04 11:26:53","ebf9627b049f568eb4bf28942cb89901","14.145.23.230","Mozilla/5.0 (Windows NT 10.0; Win64; x64) AppleWebKit/537.36 (KHTML, like Gecko) Chrome/106.0.0.0 Safari/537.36 Edg/106.0.1370.47","WebKit","Edge","106.0.1370.47","Windows","10.0","null","<div style=""font-size:60px;"">+</div>","null",""
"","","","","","html-button-response","89","375452","0.0-4.0-1.42","49","1","2022-11-04 11:26:53","ebf9627b049f568eb4bf28942cb89901","14.145.23.230","Mozilla/5.0 (Windows NT 10.0; Win64; x64) AppleWebKit/537.36 (KHTML, like Gecko) Chrome/106.0.0.0 Safari/537.36 Edg/106.0.1370.47","WebKit","Edge","106.0.1370.47","Windows","10.0","1344","<p>作为军队的指挥官，你可以选择发射导弹杀死 <strong>2名</strong> 敌国士兵，但会炸毁附近的 <strong>1棵</strong> 敌国树木。</p> <p>树木的照片如下图所示。</p> <p></p> <img src='stimuli/trees/12.png', style='max-width: 30%;'> </img> <p><strong>你是否选择发射武器？</strong></p>","0",""
"","","","","","html-keyboard-response","90","376469","0.0-4.0-0.43","49","1","2022-11-04 11:26:53","ebf9627b049f568eb4bf28942cb89901","14.145.23.230","Mozilla/5.0 (Windows NT 10.0; Win64; x64) AppleWebKit/537.36 (KHTML, like Gecko) Chrome/106.0.0.0 Safari/537.36 Edg/106.0.1370.47","WebKit","Edge","106.0.1370.47","Windows","10.0","null","<div style=""font-size:60px;"">+</div>","null",""
"","","","","","html-button-response","91","378352","0.0-4.0-1.43","49","1","2022-11-04 11:26:53","ebf9627b049f568eb4bf28942cb89901","14.145.23.230","Mozilla/5.0 (Windows NT 10.0; Win64; x64) AppleWebKit/537.36 (KHTML, like Gecko) Chrome/106.0.0.0 Safari/537.36 Edg/106.0.1370.47","WebKit","Edge","106.0.1370.47","Windows","10.0","1879","<p>作为军队的指挥官，你可以选择发射导弹杀死 <strong>5名</strong> 敌国士兵，但会误杀附近的 <strong>1名</strong> 敌国平民。</p> <p>平民照片如下图所示。</p> <p></p> <img src='stimuli/faces/NFF1.jpg', style='max-width: 30%;'> </img> <p><strong>你是否选择发射武器？</strong></p>","1",""
"","","","","","html-keyboard-response","92","379358","0.0-4.0-0.44","49","1","2022-11-04 11:26:53","ebf9627b049f568eb4bf28942cb89901","14.145.23.230","Mozilla/5.0 (Windows NT 10.0; Win64; x64) AppleWebKit/537.36 (KHTML, like Gecko) Chrome/106.0.0.0 Safari/537.36 Edg/106.0.1370.47","WebKit","Edge","106.0.1370.47","Windows","10.0","null","<div style=""font-size:60px;"">+</div>","null",""
"","","","","","html-button-response","93","380613","0.0-4.0-1.44","49","1","2022-11-04 11:26:53","ebf9627b049f568eb4bf28942cb89901","14.145.23.230","Mozilla/5.0 (Windows NT 10.0; Win64; x64) AppleWebKit/537.36 (KHTML, like Gecko) Chrome/106.0.0.0 Safari/537.36 Edg/106.0.1370.47","WebKit","Edge","106.0.1370.47","Windows","10.0","1250","<p>作为军队的指挥官，你可以选择发射导弹杀死 <strong>10名</strong> 敌国士兵，但会炸毁附近的 <strong>1棵</strong> 敌国树木。</p> <p>树木的照片如下图所示。</p> <p></p> <img src='stimuli/trees/10.png', style='max-width: 30%;'> </img> <p><strong>你是否选择发射武器？</strong></p>","1",""
"","","","","","html-keyboard-response","94","381628","0.0-4.0-0.45","49","1","2022-11-04 11:26:53","ebf9627b049f568eb4bf28942cb89901","14.145.23.230","Mozilla/5.0 (Windows NT 10.0; Win64; x64) AppleWebKit/537.36 (KHTML, like Gecko) Chrome/106.0.0.0 Safari/537.36 Edg/106.0.1370.47","WebKit","Edge","106.0.1370.47","Windows","10.0","null","<div style=""font-size:60px;"">+</div>","null",""
"","","","","","html-button-response","95","386608","0.0-4.0-1.45","49","1","2022-11-04 11:26:53","ebf9627b049f568eb4bf28942cb89901","14.145.23.230","Mozilla/5.0 (Windows NT 10.0; Win64; x64) AppleWebKit/537.36 (KHTML, like Gecko) Chrome/106.0.0.0 Safari/537.36 Edg/106.0.1370.47","WebKit","Edge","106.0.1370.47","Windows","10.0","4975","<p>作为军队的指挥官，你可以选择发射导弹杀死 <strong>1名</strong> 敌国士兵，但会炸毁附近的 <strong>1棵</strong> 敌国树木。</p> <p>树木的照片如下图所示。</p> <p></p> <img src='stimuli/trees/9.png', style='max-width: 30%;'> </img> <p><strong>你是否选择发射武器？</strong></p>","0",""
"","","","","","html-keyboard-response","96","387613","0.0-4.0-0.46","49","1","2022-11-04 11:26:53","ebf9627b049f568eb4bf28942cb89901","14.145.23.230","Mozilla/5.0 (Windows NT 10.0; Win64; x64) AppleWebKit/537.36 (KHTML, like Gecko) Chrome/106.0.0.0 Safari/537.36 Edg/106.0.1370.47","WebKit","Edge","106.0.1370.47","Windows","10.0","null","<div style=""font-size:60px;"">+</div>","null",""
"","","","","","html-button-response","97","389331","0.0-4.0-1.46","49","1","2022-11-04 11:26:53","ebf9627b049f568eb4bf28942cb89901","14.145.23.230","Mozilla/5.0 (Windows NT 10.0; Win64; x64) AppleWebKit/537.36 (KHTML, like Gecko) Chrome/106.0.0.0 Safari/537.36 Edg/106.0.1370.47","WebKit","Edge","106.0.1370.47","Windows","10.0","1713","<p>作为军队的指挥官，你可以选择发射导弹杀死 <strong>9名</strong> 敌国士兵，但会误杀附近的 <strong>1名</strong> 敌国平民。</p> <p>平民照片如下图所示。</p> <p></p> <img src='stimuli/faces/NFM3.jpg', style='max-width: 30%;'> </img> <p><strong>你是否选择发射武器？</strong></p>","1",""
"","","","","","html-keyboard-response","98","390348","0.0-4.0-0.47","49","1","2022-11-04 11:26:53","ebf9627b049f568eb4bf28942cb89901","14.145.23.230","Mozilla/5.0 (Windows NT 10.0; Win64; x64) AppleWebKit/537.36 (KHTML, like Gecko) Chrome/106.0.0.0 Safari/537.36 Edg/106.0.1370.47","WebKit","Edge","106.0.1370.47","Windows","10.0","null","<div style=""font-size:60px;"">+</div>","null",""
"","","","","","html-button-response","99","391816","0.0-4.0-1.47","49","1","2022-11-04 11:26:53","ebf9627b049f568eb4bf28942cb89901","14.145.23.230","Mozilla/5.0 (Windows NT 10.0; Win64; x64) AppleWebKit/537.36 (KHTML, like Gecko) Chrome/106.0.0.0 Safari/537.36 Edg/106.0.1370.47","WebKit","Edge","106.0.1370.47","Windows","10.0","1463","<p>作为军队的指挥官，你可以选择发射导弹杀死 <strong>3名</strong> 敌国士兵，但会炸毁附近的 <strong>1棵</strong> 敌国树木。</p> <p>树木的照片如下图所示。</p> <p></p> <img src='stimuli/trees/6.png', style='max-width: 30%;'> </img> <p><strong>你是否选择发射武器？</strong></p>","0",""
"","","","","","html-keyboard-response","100","392821","0.0-4.0-0.48","49","1","2022-11-04 11:26:53","ebf9627b049f568eb4bf28942cb89901","14.145.23.230","Mozilla/5.0 (Windows NT 10.0; Win64; x64) AppleWebKit/537.36 (KHTML, like Gecko) Chrome/106.0.0.0 Safari/537.36 Edg/106.0.1370.47","WebKit","Edge","106.0.1370.47","Windows","10.0","null","<div style=""font-size:60px;"">+</div>","null",""
"","","","","","html-button-response","101","395470","0.0-4.0-1.48","49","1","2022-11-04 11:26:53","ebf9627b049f568eb4bf28942cb89901","14.145.23.230","Mozilla/5.0 (Windows NT 10.0; Win64; x64) AppleWebKit/537.36 (KHTML, like Gecko) Chrome/106.0.0.0 Safari/537.36 Edg/106.0.1370.47","WebKit","Edge","106.0.1370.47","Windows","10.0","2644","<p>作为军队的指挥官，你可以选择发射导弹杀死 <strong>7名</strong> 敌国士兵，但会炸毁附近的 <strong>1棵</strong> 敌国树木。</p> <p>树木的照片如下图所示。</p> <p></p> <img src='stimuli/trees/11.png', style='max-width: 30%;'> </img> <p><strong>你是否选择发射武器？</strong></p>","1",""
"","","","","","html-keyboard-response","102","396479","0.0-4.0-0.49","49","1","2022-11-04 11:26:53","ebf9627b049f568eb4bf28942cb89901","14.145.23.230","Mozilla/5.0 (Windows NT 10.0; Win64; x64) AppleWebKit/537.36 (KHTML, like Gecko) Chrome/106.0.0.0 Safari/537.36 Edg/106.0.1370.47","WebKit","Edge","106.0.1370.47","Windows","10.0","null","<div style=""font-size:60px;"">+</div>","null",""
"","","","","","html-button-response","103","397585","0.0-4.0-1.49","49","1","2022-11-04 11:26:53","ebf9627b049f568eb4bf28942cb89901","14.145.23.230","Mozilla/5.0 (Windows NT 10.0; Win64; x64) AppleWebKit/537.36 (KHTML, like Gecko) Chrome/106.0.0.0 Safari/537.36 Edg/106.0.1370.47","WebKit","Edge","106.0.1370.47","Windows","10.0","1101","<p>作为军队的指挥官，你可以选择发射导弹杀死 <strong>9名</strong> 敌国士兵，但会误杀附近的 <strong>1名</strong> 敌国平民。</p> <p>平民照片如下图所示。</p> <p></p> <img src='stimuli/faces/NFF7.jpg', style='max-width: 30%;'> </img> <p><strong>你是否选择发射武器？</strong></p>","1",""
"","","","","","html-keyboard-response","104","398603","0.0-4.0-0.50","49","1","2022-11-04 11:26:53","ebf9627b049f568eb4bf28942cb89901","14.145.23.230","Mozilla/5.0 (Windows NT 10.0; Win64; x64) AppleWebKit/537.36 (KHTML, like Gecko) Chrome/106.0.0.0 Safari/537.36 Edg/106.0.1370.47","WebKit","Edge","106.0.1370.47","Windows","10.0","null","<div style=""font-size:60px;"">+</div>","null",""
"","","","","","html-button-response","105","399834","0.0-4.0-1.50","49","1","2022-11-04 11:26:53","ebf9627b049f568eb4bf28942cb89901","14.145.23.230","Mozilla/5.0 (Windows NT 10.0; Win64; x64) AppleWebKit/537.36 (KHTML, like Gecko) Chrome/106.0.0.0 Safari/537.36 Edg/106.0.1370.47","WebKit","Edge","106.0.1370.47","Windows","10.0","1226","<p>作为军队的指挥官，你可以选择发射导弹杀死 <strong>8名</strong> 敌国士兵，但会炸毁附近的 <strong>1棵</strong> 敌国树木。</p> <p>树木的照片如下图所示。</p> <p></p> <img src='stimuli/trees/14.png', style='max-width: 30%;'> </img> <p><strong>你是否选择发射武器？</strong></p>","0",""
"","","","","","html-keyboard-response","106","400839","0.0-4.0-0.51","49","1","2022-11-04 11:26:53","ebf9627b049f568eb4bf28942cb89901","14.145.23.230","Mozilla/5.0 (Windows NT 10.0; Win64; x64) AppleWebKit/537.36 (KHTML, like Gecko) Chrome/106.0.0.0 Safari/537.36 Edg/106.0.1370.47","WebKit","Edge","106.0.1370.47","Windows","10.0","null","<div style=""font-size:60px;"">+</div>","null",""
"","","","","","html-button-response","107","402800","0.0-4.0-1.51","49","1","2022-11-04 11:26:53","ebf9627b049f568eb4bf28942cb89901","14.145.23.230","Mozilla/5.0 (Windows NT 10.0; Win64; x64) AppleWebKit/537.36 (KHTML, like Gecko) Chrome/106.0.0.0 Safari/537.36 Edg/106.0.1370.47","WebKit","Edge","106.0.1370.47","Windows","10.0","1958","<p>作为军队的指挥官，你可以选择发射导弹杀死 <strong>6名</strong> 敌国士兵，但会误杀附近的 <strong>1名</strong> 敌国平民。</p> <p>平民照片如下图所示。</p> <p></p> <img src='stimuli/faces/NFM8.jpg', style='max-width: 30%;'> </img> <p><strong>你是否选择发射武器？</strong></p>","1",""
"","","","","","html-keyboard-response","108","403814","0.0-4.0-0.52","49","1","2022-11-04 11:26:53","ebf9627b049f568eb4bf28942cb89901","14.145.23.230","Mozilla/5.0 (Windows NT 10.0; Win64; x64) AppleWebKit/537.36 (KHTML, like Gecko) Chrome/106.0.0.0 Safari/537.36 Edg/106.0.1370.47","WebKit","Edge","106.0.1370.47","Windows","10.0","null","<div style=""font-size:60px;"">+</div>","null",""
"","","","","","html-button-response","109","405469","0.0-4.0-1.52","49","1","2022-11-04 11:26:53","ebf9627b049f568eb4bf28942cb89901","14.145.23.230","Mozilla/5.0 (Windows NT 10.0; Win64; x64) AppleWebKit/537.36 (KHTML, like Gecko) Chrome/106.0.0.0 Safari/537.36 Edg/106.0.1370.47","WebKit","Edge","106.0.1370.47","Windows","10.0","1649","<p>作为军队的指挥官，你可以选择发射导弹杀死 <strong>6名</strong> 敌国士兵，但会炸毁附近的 <strong>1棵</strong> 敌国树木。</p> <p>树木的照片如下图所示。</p> <p></p> <img src='stimuli/trees/16.png', style='max-width: 30%;'> </img> <p><strong>你是否选择发射武器？</strong></p>","0",""
"","","","","","html-keyboard-response","110","406478","0.0-4.0-0.53","49","1","2022-11-04 11:26:53","ebf9627b049f568eb4bf28942cb89901","14.145.23.230","Mozilla/5.0 (Windows NT 10.0; Win64; x64) AppleWebKit/537.36 (KHTML, like Gecko) Chrome/106.0.0.0 Safari/537.36 Edg/106.0.1370.47","WebKit","Edge","106.0.1370.47","Windows","10.0","null","<div style=""font-size:60px;"">+</div>","null",""
"","","","","","html-button-response","111","408247","0.0-4.0-1.53","49","1","2022-11-04 11:26:53","ebf9627b049f568eb4bf28942cb89901","14.145.23.230","Mozilla/5.0 (Windows NT 10.0; Win64; x64) AppleWebKit/537.36 (KHTML, like Gecko) Chrome/106.0.0.0 Safari/537.36 Edg/106.0.1370.47","WebKit","Edge","106.0.1370.47","Windows","10.0","1763","<p>作为军队的指挥官，你可以选择发射导弹杀死 <strong>8名</strong> 敌国士兵，但会误杀附近的 <strong>1名</strong> 敌国平民。</p> <p>平民照片如下图所示。</p> <p></p> <img src='stimuli/faces/NFM4.jpg', style='max-width: 30%;'> </img> <p><strong>你是否选择发射武器？</strong></p>","1",""
"","","","","","html-keyboard-response","112","409251","0.0-4.0-0.54","49","1","2022-11-04 11:26:53","ebf9627b049f568eb4bf28942cb89901","14.145.23.230","Mozilla/5.0 (Windows NT 10.0; Win64; x64) AppleWebKit/537.36 (KHTML, like Gecko) Chrome/106.0.0.0 Safari/537.36 Edg/106.0.1370.47","WebKit","Edge","106.0.1370.47","Windows","10.0","null","<div style=""font-size:60px;"">+</div>","null",""
"","","","","","html-button-response","113","410451","0.0-4.0-1.54","49","1","2022-11-04 11:26:53","ebf9627b049f568eb4bf28942cb89901","14.145.23.230","Mozilla/5.0 (Windows NT 10.0; Win64; x64) AppleWebKit/537.36 (KHTML, like Gecko) Chrome/106.0.0.0 Safari/537.36 Edg/106.0.1370.47","WebKit","Edge","106.0.1370.47","Windows","10.0","1195","<p>作为军队的指挥官，你可以选择发射导弹杀死 <strong>6名</strong> 敌国士兵，但会炸毁附近的 <strong>1棵</strong> 敌国树木。</p> <p>树木的照片如下图所示。</p> <p></p> <img src='stimuli/trees/8.png', style='max-width: 30%;'> </img> <p><strong>你是否选择发射武器？</strong></p>","0",""
"","","","","","html-keyboard-response","114","411469","0.0-4.0-0.55","49","1","2022-11-04 11:26:53","ebf9627b049f568eb4bf28942cb89901","14.145.23.230","Mozilla/5.0 (Windows NT 10.0; Win64; x64) AppleWebKit/537.36 (KHTML, like Gecko) Chrome/106.0.0.0 Safari/537.36 Edg/106.0.1370.47","WebKit","Edge","106.0.1370.47","Windows","10.0","null","<div style=""font-size:60px;"">+</div>","null",""
"","","","","","html-button-response","115","413051","0.0-4.0-1.55","49","1","2022-11-04 11:26:53","ebf9627b049f568eb4bf28942cb89901","14.145.23.230","Mozilla/5.0 (Windows NT 10.0; Win64; x64) AppleWebKit/537.36 (KHTML, like Gecko) Chrome/106.0.0.0 Safari/537.36 Edg/106.0.1370.47","WebKit","Edge","106.0.1370.47","Windows","10.0","1577","<p>作为军队的指挥官，你可以选择发射导弹杀死 <strong>4名</strong> 敌国士兵，但会误杀附近的 <strong>1名</strong> 敌国平民。</p> <p>平民照片如下图所示。</p> <p></p> <img src='stimuli/faces/NFF3.jpg', style='max-width: 30%;'> </img> <p><strong>你是否选择发射武器？</strong></p>","1",""
"","","","","","html-keyboard-response","116","414056","0.0-4.0-0.56","49","1","2022-11-04 11:26:53","ebf9627b049f568eb4bf28942cb89901","14.145.23.230","Mozilla/5.0 (Windows NT 10.0; Win64; x64) AppleWebKit/537.36 (KHTML, like Gecko) Chrome/106.0.0.0 Safari/537.36 Edg/106.0.1370.47","WebKit","Edge","106.0.1370.47","Windows","10.0","null","<div style=""font-size:60px;"">+</div>","null",""
"","","","","","html-button-response","117","415353","0.0-4.0-1.56","49","1","2022-11-04 11:26:53","ebf9627b049f568eb4bf28942cb89901","14.145.23.230","Mozilla/5.0 (Windows NT 10.0; Win64; x64) AppleWebKit/537.36 (KHTML, like Gecko) Chrome/106.0.0.0 Safari/537.36 Edg/106.0.1370.47","WebKit","Edge","106.0.1370.47","Windows","10.0","1291","<p>作为军队的指挥官，你可以选择发射导弹杀死 <strong>1名</strong> 敌国士兵，但会炸毁附近的 <strong>1棵</strong> 敌国树木。</p> <p>树木的照片如下图所示。</p> <p></p> <img src='stimuli/trees/3.png', style='max-width: 30%;'> </img> <p><strong>你是否选择发射武器？</strong></p>","0",""
"","","","","","html-keyboard-response","118","416372","0.0-4.0-0.57","49","1","2022-11-04 11:26:53","ebf9627b049f568eb4bf28942cb89901","14.145.23.230","Mozilla/5.0 (Windows NT 10.0; Win64; x64) AppleWebKit/537.36 (KHTML, like Gecko) Chrome/106.0.0.0 Safari/537.36 Edg/106.0.1370.47","WebKit","Edge","106.0.1370.47","Windows","10.0","null","<div style=""font-size:60px;"">+</div>","null",""
"","","","","","html-button-response","119","418644","0.0-4.0-1.57","49","1","2022-11-04 11:26:53","ebf9627b049f568eb4bf28942cb89901","14.145.23.230","Mozilla/5.0 (Windows NT 10.0; Win64; x64) AppleWebKit/537.36 (KHTML, like Gecko) Chrome/106.0.0.0 Safari/537.36 Edg/106.0.1370.47","WebKit","Edge","106.0.1370.47","Windows","10.0","2266","<p>作为军队的指挥官，你可以选择发射导弹杀死 <strong>10名</strong> 敌国士兵，但会炸毁附近的 <strong>1棵</strong> 敌国树木。</p> <p>树木的照片如下图所示。</p> <p></p> <img src='stimuli/trees/4.png', style='max-width: 30%;'> </img> <p><strong>你是否选择发射武器？</strong></p>","0",""
"","","","","","html-keyboard-response","120","419663","0.0-4.0-0.58","49","1","2022-11-04 11:26:53","ebf9627b049f568eb4bf28942cb89901","14.145.23.230","Mozilla/5.0 (Windows NT 10.0; Win64; x64) AppleWebKit/537.36 (KHTML, like Gecko) Chrome/106.0.0.0 Safari/537.36 Edg/106.0.1370.47","WebKit","Edge","106.0.1370.47","Windows","10.0","null","<div style=""font-size:60px;"">+</div>","null",""
"","","","","","html-button-response","121","422512","0.0-4.0-1.58","49","1","2022-11-04 11:26:53","ebf9627b049f568eb4bf28942cb89901","14.145.23.230","Mozilla/5.0 (Windows NT 10.0; Win64; x64) AppleWebKit/537.36 (KHTML, like Gecko) Chrome/106.0.0.0 Safari/537.36 Edg/106.0.1370.47","WebKit","Edge","106.0.1370.47","Windows","10.0","2842","<p>作为军队的指挥官，你可以选择发射导弹杀死 <strong>7名</strong> 敌国士兵，但会误杀附近的 <strong>1名</strong> 敌国平民。</p> <p>平民照片如下图所示。</p> <p></p> <img src='stimuli/faces/NFF1.jpg', style='max-width: 30%;'> </img> <p><strong>你是否选择发射武器？</strong></p>","1",""
"","","","","","html-keyboard-response","122","423528","0.0-4.0-0.59","49","1","2022-11-04 11:26:53","ebf9627b049f568eb4bf28942cb89901","14.145.23.230","Mozilla/5.0 (Windows NT 10.0; Win64; x64) AppleWebKit/537.36 (KHTML, like Gecko) Chrome/106.0.0.0 Safari/537.36 Edg/106.0.1370.47","WebKit","Edge","106.0.1370.47","Windows","10.0","null","<div style=""font-size:60px;"">+</div>","null",""
"","","","","","html-button-response","123","425323","0.0-4.0-1.59","49","1","2022-11-04 11:26:53","ebf9627b049f568eb4bf28942cb89901","14.145.23.230","Mozilla/5.0 (Windows NT 10.0; Win64; x64) AppleWebKit/537.36 (KHTML, like Gecko) Chrome/106.0.0.0 Safari/537.36 Edg/106.0.1370.47","WebKit","Edge","106.0.1370.47","Windows","10.0","1790","<p>作为军队的指挥官，你可以选择发射导弹杀死 <strong>6名</strong> 敌国士兵，但会炸毁附近的 <strong>1棵</strong> 敌国树木。</p> <p>树木的照片如下图所示。</p> <p></p> <img src='stimuli/trees/9.png', style='max-width: 30%;'> </img> <p><strong>你是否选择发射武器？</strong></p>","0",""
"","","","","","html-keyboard-response","124","426333","0.0-4.0-0.60","49","1","2022-11-04 11:26:53","ebf9627b049f568eb4bf28942cb89901","14.145.23.230","Mozilla/5.0 (Windows NT 10.0; Win64; x64) AppleWebKit/537.36 (KHTML, like Gecko) Chrome/106.0.0.0 Safari/537.36 Edg/106.0.1370.47","WebKit","Edge","106.0.1370.47","Windows","10.0","null","<div style=""font-size:60px;"">+</div>","null",""
"","","","","","html-button-response","125","428247","0.0-4.0-1.60","49","1","2022-11-04 11:26:53","ebf9627b049f568eb4bf28942cb89901","14.145.23.230","Mozilla/5.0 (Windows NT 10.0; Win64; x64) AppleWebKit/537.36 (KHTML, like Gecko) Chrome/106.0.0.0 Safari/537.36 Edg/106.0.1370.47","WebKit","Edge","106.0.1370.47","Windows","10.0","1908","<p>作为军队的指挥官，你可以选择发射导弹杀死 <strong>3名</strong> 敌国士兵，但会误杀附近的 <strong>1名</strong> 敌国平民。</p> <p>平民照片如下图所示。</p> <p></p> <img src='stimuli/faces/NFM6.jpg', style='max-width: 30%;'> </img> <p><strong>你是否选择发射武器？</strong></p>","1",""
"","","","","","html-keyboard-response","126","429257","0.0-4.0-0.61","49","1","2022-11-04 11:26:53","ebf9627b049f568eb4bf28942cb89901","14.145.23.230","Mozilla/5.0 (Windows NT 10.0; Win64; x64) AppleWebKit/537.36 (KHTML, like Gecko) Chrome/106.0.0.0 Safari/537.36 Edg/106.0.1370.47","WebKit","Edge","106.0.1370.47","Windows","10.0","null","<div style=""font-size:60px;"">+</div>","null",""
"","","","","","html-button-response","127","431925","0.0-4.0-1.61","49","1","2022-11-04 11:26:53","ebf9627b049f568eb4bf28942cb89901","14.145.23.230","Mozilla/5.0 (Windows NT 10.0; Win64; x64) AppleWebKit/537.36 (KHTML, like Gecko) Chrome/106.0.0.0 Safari/537.36 Edg/106.0.1370.47","WebKit","Edge","106.0.1370.47","Windows","10.0","2663","<p>作为军队的指挥官，你可以选择发射导弹杀死 <strong>6名</strong> 敌国士兵，但会炸毁附近的 <strong>1棵</strong> 敌国树木。</p> <p>树木的照片如下图所示。</p> <p></p> <img src='stimuli/trees/15.png', style='max-width: 30%;'> </img> <p><strong>你是否选择发射武器？</strong></p>","0",""
"","","","","","html-keyboard-response","128","432939","0.0-4.0-0.62","49","1","2022-11-04 11:26:53","ebf9627b049f568eb4bf28942cb89901","14.145.23.230","Mozilla/5.0 (Windows NT 10.0; Win64; x64) AppleWebKit/537.36 (KHTML, like Gecko) Chrome/106.0.0.0 Safari/537.36 Edg/106.0.1370.47","WebKit","Edge","106.0.1370.47","Windows","10.0","null","<div style=""font-size:60px;"">+</div>","null",""
"","","","","","html-button-response","129","434614","0.0-4.0-1.62","49","1","2022-11-04 11:26:53","ebf9627b049f568eb4bf28942cb89901","14.145.23.230","Mozilla/5.0 (Windows NT 10.0; Win64; x64) AppleWebKit/537.36 (KHTML, like Gecko) Chrome/106.0.0.0 Safari/537.36 Edg/106.0.1370.47","WebKit","Edge","106.0.1370.47","Windows","10.0","1670","<p>作为军队的指挥官，你可以选择发射导弹杀死 <strong>4名</strong> 敌国士兵，但会炸毁附近的 <strong>1棵</strong> 敌国树木。</p> <p>树木的照片如下图所示。</p> <p></p> <img src='stimuli/trees/4.png', style='max-width: 30%;'> </img> <p><strong>你是否选择发射武器？</strong></p>","1",""
"","","","","","html-keyboard-response","130","435633","0.0-4.0-0.63","49","1","2022-11-04 11:26:53","ebf9627b049f568eb4bf28942cb89901","14.145.23.230","Mozilla/5.0 (Windows NT 10.0; Win64; x64) AppleWebKit/537.36 (KHTML, like Gecko) Chrome/106.0.0.0 Safari/537.36 Edg/106.0.1370.47","WebKit","Edge","106.0.1370.47","Windows","10.0","null","<div style=""font-size:60px;"">+</div>","null",""
"","","","","","html-button-response","131","437708","0.0-4.0-1.63","49","1","2022-11-04 11:26:53","ebf9627b049f568eb4bf28942cb89901","14.145.23.230","Mozilla/5.0 (Windows NT 10.0; Win64; x64) AppleWebKit/537.36 (KHTML, like Gecko) Chrome/106.0.0.0 Safari/537.36 Edg/106.0.1370.47","WebKit","Edge","106.0.1370.47","Windows","10.0","2069","<p>作为军队的指挥官，你可以选择发射导弹杀死 <strong>8名</strong> 敌国士兵，但会误杀附近的 <strong>1名</strong> 敌国平民。</p> <p>平民照片如下图所示。</p> <p></p> <img src='stimuli/faces/NFM2.jpg', style='max-width: 30%;'> </img> <p><strong>你是否选择发射武器？</strong></p>","1",""
"","","","","","survey-multi-choice","132","460584","0.0-5.0","49","1","2022-11-04 11:26:53","ebf9627b049f568eb4bf28942cb89901","14.145.23.230","Mozilla/5.0 (Windows NT 10.0; Win64; x64) AppleWebKit/537.36 (KHTML, like Gecko) Chrome/106.0.0.0 Safari/537.36 Edg/106.0.1370.47","WebKit","Edge","106.0.1370.47","Windows","10.0","22868","","{""Attention1"":""""}","[0]"
"","","","","","html-button-response","133","479968","0.0-6.0","49","1","2022-11-04 11:26:53","ebf9627b049f568eb4bf28942cb89901","14.145.23.230","Mozilla/5.0 (Windows NT 10.0; Win64; x64) AppleWebKit/537.36 (KHTML, like Gecko) Chrome/106.0.0.0 Safari/537.36 Edg/106.0.1370.47","WebKit","Edge","106.0.1370.47","Windows","10.0","19376","<p style=""font-size:20px;font-weight:bold;"">恭喜！</p><p>你已经完成了实验的第一部分。</p><p>请休息放松一下，然后进入第二部分。</p><p>这部分大约需要10分钟。</p>","0",""
"","","","","","survey-text","134","612422","0.0-7.0","49","1","2022-11-04 11:26:53","ebf9627b049f568eb4bf28942cb89901","14.145.23.230","Mozilla/5.0 (Windows NT 10.0; Win64; x64) AppleWebKit/537.36 (KHTML, like Gecko) Chrome/106.0.0.0 Safari/537.36 Edg/106.0.1370.47","WebKit","Edge","106.0.1370.47","Windows","10.0","131440","","{""Age"":""22"",""Nation"":""中国"",""Born"":""广东江门"",""Live"":""广东江门"",""Ethnic"":""汉"",""Alipay"":""13822324096""}",""
"","","","","","survey-multi-choice","135","650790","0.0-8.0","49","1","2022-11-04 11:26:53","ebf9627b049f568eb4bf28942cb89901","14.145.23.230","Mozilla/5.0 (Windows NT 10.0; Win64; x64) AppleWebKit/537.36 (KHTML, like Gecko) Chrome/106.0.0.0 Safari/537.36 Edg/106.0.1370.47","WebKit","Edge","106.0.1370.47","Windows","10.0","38361","","{""Gender"":""女"",""Education"":""本科毕业"",""Income"":""￥35,000-￥69,999"",""Children"":""0"",""Race"":""亚洲人""}","[0,1,2,3,4]"
"","","","","","survey-multi-select","136","658425","0.0-9.0","49","1","2022-11-04 11:26:53","ebf9627b049f568eb4bf28942cb89901","14.145.23.230","Mozilla/5.0 (Windows NT 10.0; Win64; x64) AppleWebKit/537.36 (KHTML, like Gecko) Chrome/106.0.0.0 Safari/537.36 Edg/106.0.1370.47","WebKit","Edge","106.0.1370.47","Windows","10.0","7621","","{""Marriage"":[""未婚""],""Religion"":[""无宗教信仰""]}","[0,1]"
"","","","","","survey-multi-choice","137","666377","0.0-10.0","49","1","2022-11-04 11:26:53","ebf9627b049f568eb4bf28942cb89901","14.145.23.230","Mozilla/5.0 (Windows NT 10.0; Win64; x64) AppleWebKit/537.36 (KHTML, like Gecko) Chrome/106.0.0.0 Safari/537.36 Edg/106.0.1370.47","WebKit","Edge","106.0.1370.47","Windows","10.0","7940","","{""SES"":""5""}","[0]"
"","","","","","html-button-response","138","668671","0.0-11.0","49","1","2022-11-04 11:26:53","ebf9627b049f568eb4bf28942cb89901","14.145.23.230","Mozilla/5.0 (Windows NT 10.0; Win64; x64) AppleWebKit/537.36 (KHTML, like Gecko) Chrome/106.0.0.0 Safari/537.36 Edg/106.0.1370.47","WebKit","Edge","106.0.1370.47","Windows","10.0","2282","<p><strong>请判断下列陈述在多大程度上可以形容你？</p><p> (1 = ""和我一点都不像"" to 5 = ""非常像我"".)</strong></p>","0",""
"","","","","","survey-likert","139","719240","0.0-12.0","49","1","2022-11-04 11:26:53","ebf9627b049f568eb4bf28942cb89901","14.145.23.230","Mozilla/5.0 (Windows NT 10.0; Win64; x64) AppleWebKit/537.36 (KHTML, like Gecko) Chrome/106.0.0.0 Safari/537.36 Edg/106.0.1370.47","WebKit","Edge","106.0.1370.47","Windows","10.0","50561","","{""Aggression1"":0,""Aggression2"":3,""Aggression3"":4,""Aggression4"":1,""Aggression5"":3,""Aggression6"":4,""Aggression7"":1,""Aggression8"":0,""Aggression9"":1}","[0,1,2,3,4,5,6,7,8]"
"","","","","","html-button-response","140","724713","0.0-13.0","49","1","2022-11-04 11:26:53","ebf9627b049f568eb4bf28942cb89901","14.145.23.230","Mozilla/5.0 (Windows NT 10.0; Win64; x64) AppleWebKit/537.36 (KHTML, like Gecko) Chrome/106.0.0.0 Safari/537.36 Edg/106.0.1370.47","WebKit","Edge","106.0.1370.47","Windows","10.0","5465","<p><strong>请判断你在多大程度上同意下列陈述。</strong></p>","0",""
"","","","","","survey-likert","141","807343","0.0-14.0","49","1","2022-11-04 11:26:53","ebf9627b049f568eb4bf28942cb89901","14.145.23.230","Mozilla/5.0 (Windows NT 10.0; Win64; x64) AppleWebKit/537.36 (KHTML, like Gecko) Chrome/106.0.0.0 Safari/537.36 Edg/106.0.1370.47","WebKit","Edge","106.0.1370.47","Windows","10.0","82619","","{""scale28"":4,""scale2"":1,""scale13"":3,""scale21"":4,""scale17"":1,""scale7"":3,""scale16"":1,""scale1"":0,""scale11"":4,""scale12"":3,""scale5"":1,""scale25"":4,""scale19"":3,""scale15"":1,""scale14"":3,""scale9"":0,""scale27"":1,""scale23"":0,""scale20"":1,""scale26"":0,""scale22"":1,""scale4"":4,""scale24"":0,""scale18"":3,""scale6"":1,""scale10"":0,""scale3"":1,""scale8"":4}","[27,1,12,20,16,6,15,0,10,11,4,24,18,14,13,8,26,22,19,25,21,3,23,17,5,9,2,7]"
"","","","","","html-button-response","142","808657","0.0-15.0","49","1","2022-11-04 11:26:53","ebf9627b049f568eb4bf28942cb89901","14.145.23.230","Mozilla/5.0 (Windows NT 10.0; Win64; x64) AppleWebKit/537.36 (KHTML, like Gecko) Chrome/106.0.0.0 Safari/537.36 Edg/106.0.1370.47","WebKit","Edge","106.0.1370.47","Windows","10.0","1304","<p><strong>请判断你在多大程度上同意下列陈述。</strong></p>","0",""
"","","","","","survey-likert","143","848135","0.0-16.0","49","1","2022-11-04 11:26:53","ebf9627b049f568eb4bf28942cb89901","14.145.23.230","Mozilla/5.0 (Windows NT 10.0; Win64; x64) AppleWebKit/537.36 (KHTML, like Gecko) Chrome/106.0.0.0 Safari/537.36 Edg/106.0.1370.47","WebKit","Edge","106.0.1370.47","Windows","10.0","39469","","{""sdo16"":1,""sdo8"":0,""sdo3"":5,""sdo15"":6,""sdo7"":2,""sdo11"":4,""sdo10"":5,""sdo1"":1,""sdo6"":2,""sdo4"":1,""sdo5"":2,""sdo9"":5,""sdo14"":6,""sdo2"":1,""sdo12"":5,""sdo13"":6}","[15,7,2,14,6,10,9,0,5,3,4,8,13,1,11,12]"
"","","","","","html-button-response","144","855160","0.0-17.0","49","1","2022-11-04 11:26:53","ebf9627b049f568eb4bf28942cb89901","14.145.23.230","Mozilla/5.0 (Windows NT 10.0; Win64; x64) AppleWebKit/537.36 (KHTML, like Gecko) Chrome/106.0.0.0 Safari/537.36 Edg/106.0.1370.47","WebKit","Edge","106.0.1370.47","Windows","10.0","7017","<p><strong>请判断你在多大程度上同意下列陈述。</strong></p>","0",""
"","","","","","survey-likert","145","901970","0.0-18.0","49","1","2022-11-04 11:26:53","ebf9627b049f568eb4bf28942cb89901","14.145.23.230","Mozilla/5.0 (Windows NT 10.0; Win64; x64) AppleWebKit/537.36 (KHTML, like Gecko) Chrome/106.0.0.0 Safari/537.36 Edg/106.0.1370.47","WebKit","Edge","106.0.1370.47","Windows","10.0","46803","","{""caring1"":4,""liking1"":1,""caring2"":3,""protection1"":4,""liking2"":1,""caring3"":3,""protection2"":1,""liking3"":0,""protection3"":4,""caring4"":3,""liking4"":0,""protection4"":4,""caring5"":3,""liking5"":4,""protection5"":3}","[0,1,2,3,4,5,6,7,8,9,10,11,12,13,14]"
"","","","","","html-button-response","146","941651","0.0-19.0","49","1","2022-11-04 11:26:53","ebf9627b049f568eb4bf28942cb89901","14.145.23.230","Mozilla/5.0 (Windows NT 10.0; Win64; x64) AppleWebKit/537.36 (KHTML, like Gecko) Chrome/106.0.0.0 Safari/537.36 Edg/106.0.1370.47","WebKit","Edge","106.0.1370.47","Windows","10.0","39672","<p><strong>请判断下列场景中你的内心感受有多柔软。</strong></p>","0",""
"","","","","","survey-likert","147","975573","0.0-20.0","49","1","2022-11-04 11:26:53","ebf9627b049f568eb4bf28942cb89901","14.145.23.230","Mozilla/5.0 (Windows NT 10.0; Win64; x64) AppleWebKit/537.36 (KHTML, like Gecko) Chrome/106.0.0.0 Safari/537.36 Edg/106.0.1370.47","WebKit","Edge","106.0.1370.47","Windows","10.0","33912","","{""tenderness-positive1"":4,""tenderness-negative1"":3,""tenderness-negative2"":1,""tenderness-positive2"":4,""tenderness-positive3"":3,""tenderness-negative3"":1,""tenderness-positive4"":4,""tendereness-negative4"":0,""tendernness-negative5"":1,""tenderness-positive5"":4}","[0,1,2,3,4,5,6,7,8,9]"
"","","","","","survey-multi-choice","148","1011380","0.0-21.0","49","1","2022-11-04 11:26:53","ebf9627b049f568eb4bf28942cb89901","14.145.23.230","Mozilla/5.0 (Windows NT 10.0; Win64; x64) AppleWebKit/537.36 (KHTML, like Gecko) Chrome/106.0.0.0 Safari/537.36 Edg/106.0.1370.47","WebKit","Edge","106.0.1370.47","Windows","10.0","35794","","{""Attention2"":""其他""}","[0]"
"","","","","","html-button-response","149","1012350","0.0-22.0","49","1","2022-11-04 11:26:53","ebf9627b049f568eb4bf28942cb89901","14.145.23.230","Mozilla/5.0 (Windows NT 10.0; Win64; x64) AppleWebKit/537.36 (KHTML, like Gecko) Chrome/106.0.0.0 Safari/537.36 Edg/106.0.1370.47","WebKit","Edge","106.0.1370.47","Windows","10.0","960","<p><strong>请判断你在多大程度上同意下列陈述。</strong></p>","0",""
"","","","","","survey-likert","150","1113866","0.0-23.0","49","1","2022-11-04 11:26:53","ebf9627b049f568eb4bf28942cb89901","14.145.23.230","Mozilla/5.0 (Windows NT 10.0; Win64; x64) AppleWebKit/537.36 (KHTML, like Gecko) Chrome/106.0.0.0 Safari/537.36 Edg/106.0.1370.47","WebKit","Edge","106.0.1370.47","Windows","10.0","101505","","{""Patri7"":4,""Nation5"":1,""Patri8"":3,""Nation2"":4,""Nation6"":3,""Nation4"":4,""Patri3"":3,""Patri9"":1,""Patri12"":0,""Patri2"":3,""Nation3"":1,""Patri6"":0,""Patri1"":4,""Patri4"":3,""Patri11"":0,""Nation7"":4,""Patri10"":0,""Nation1"":4,""Nation8"":1,""Patri5"":4}","[6,16,7,13,17,15,2,8,11,1,14,5,0,3,10,18,9,12,19,4]"
"","","","","","html-button-response","151","1115012","0.0-24.0","49","1","2022-11-04 11:26:53","ebf9627b049f568eb4bf28942cb89901","14.145.23.230","Mozilla/5.0 (Windows NT 10.0; Win64; x64) AppleWebKit/537.36 (KHTML, like Gecko) Chrome/106.0.0.0 Safari/537.36 Edg/106.0.1370.47","WebKit","Edge","106.0.1370.47","Windows","10.0","1137","<p><strong>请判断你在多大程度上同意下列陈述。</strong></p>","0",""
"","","","","","survey-likert","152","1233890","0.0-25.0","49","1","2022-11-04 11:26:53","ebf9627b049f568eb4bf28942cb89901","14.145.23.230","Mozilla/5.0 (Windows NT 10.0; Win64; x64) AppleWebKit/537.36 (KHTML, like Gecko) Chrome/106.0.0.0 Safari/537.36 Edg/106.0.1370.47","WebKit","Edge","106.0.1370.47","Windows","10.0","118868","","{""hi1"":1,""vi4"":2,""vi1"":0,""vc4"":8,""vc2"":6,""vi3"":7,""hi2"":1,""vc1"":8,""vi2"":0,""vc3"":6,""hc1"":8,""hi3"":1,""hc3"":6,""hi4"":6,""Robot"":6,""hc4"":8,""hc2"":5}","[0,8,4,16,14,6,1,13,5,15,9,2,11,3,7,12,10]"
"","","","","","survey-text","153","1313112","0.0-26.0","49","1","2022-11-04 11:26:53","ebf9627b049f568eb4bf28942cb89901","14.145.23.230","Mozilla/5.0 (Windows NT 10.0; Win64; x64) AppleWebKit/537.36 (KHTML, like Gecko) Chrome/106.0.0.0 Safari/537.36 Edg/106.0.1370.47","WebKit","Edge","106.0.1370.47","Windows","10.0","79179","","{""Comments"":""我觉得实验需要牺牲一名平民挺残忍的，世界和平才是最重要的，所以选择牺牲自然，保护生命""}",""
"","","","","","html-button-response","154","1314118","0.0-27.0","49","1","2022-11-04 11:26:53","ebf9627b049f568eb4bf28942cb89901","14.145.23.230","Mozilla/5.0 (Windows NT 10.0; Win64; x64) AppleWebKit/537.36 (KHTML, like Gecko) Chrome/106.0.0.0 Safari/537.36 Edg/106.0.1370.47","WebKit","Edge","106.0.1370.47","Windows","10.0","998","<strong><p>恭喜你完成了实验！</p><p>感谢您的参与。</p></strong>","0",""
