"success","timeout","failed_images","failed_audio","failed_video","trial_type","trial_index","time_elapsed","internal_node_id","run_id","condition","recorded_at","source_code_version","ip","user_agent","device","browser","browser_version","platform","platform_version","rt","stimulus","response","question_order"
"true","false","[]","[]","[]","preload","0","179","0.0-0.0","54","1","2022-11-05 07:12:44","ebf9627b049f568eb4bf28942cb89901","36.155.12.171","Mozilla/5.0 (Windows NT 10.0; Win64; x64) AppleWebKit/537.36 (KHTML, like Gecko) Chrome/107.0.0.0 Safari/537.36 Edg/107.0.1418.26","WebKit","Edge","107.0.1418.26","Windows","10.0","","","",""
"true","","","","","fullscreen","1","2192","0.0-1.0","54","1","2022-11-05 07:12:44","ebf9627b049f568eb4bf28942cb89901","36.155.12.171","Mozilla/5.0 (Windows NT 10.0; Win64; x64) AppleWebKit/537.36 (KHTML, like Gecko) Chrome/107.0.0.0 Safari/537.36 Edg/107.0.1418.26","WebKit","Edge","107.0.1418.26","Windows","10.0","","","",""
"","","","","","html-button-response","2","36525","0.0-2.0","54","1","2022-11-05 07:12:44","ebf9627b049f568eb4bf28942cb89901","36.155.12.171","Mozilla/5.0 (Windows NT 10.0; Win64; x64) AppleWebKit/537.36 (KHTML, like Gecko) Chrome/107.0.0.0 Safari/537.36 Edg/107.0.1418.26","WebKit","Edge","107.0.1418.26","Windows","10.0","34331","<p style=""font-size:20px;font-weight:bold;"">实验知情同意书</p><p style=""text-align:left;""><strong>实验名称：</strong>社会冲突研究</p><p style=""text-align:left;""><strong>主要研究者：</strong>韩晓春副教授（北京师范大学心理学部）</p><p style=""text-align:left;""><strong>联系方式：</strong>发送邮件至xiaochun.han@bnu.edu.cn</p><p style=""text-align:left;""><strong>研究目的：</strong>研究旨在了解人类面对群体冲突时的决策方式，以及相关的心理学特质。实验调查大约需要20分钟。</p><p style=""text-align:left;""><strong>实验流程：</strong>实验包含两部分。第一部分呈现一系列群体冲突场景，请你决定如何对这些冲突进行反应，大约需要10分钟完成。第二部分包含一系列人口统计学信息收集和心理学问卷，大约需要10分钟完成。</p><p style=""text-align:left;""><strong>参加及退出规则：</strong>参加本实验完全取决于您的个人意愿。在参与过程中，您可以随时退出，并且不用承担任何后果。</p><p style=""text-align:left;""><strong>隐私：</strong>本实验完全匿名进行，不会收集您的姓名或其他能够识别您身份的信息。实验中收集的作答仅用作科学研究使用，可能会在学术期刊/书籍上发表，或者用于教学，您的数据未来可能会和其他研究者或实验室分享，但您的个人身份不会被识别。</p><p style=""text-align:left;""><strong>实验报酬：</strong>实验完成后，您将获得15元人民币报酬，以感谢您的时间和努力。调查问卷中包含几道题目用以测验您作答时的认真度。只有完成全部实验，并且正确回答认真度测验的被试才能获得实验报酬。实验报酬将通过支付宝转账发放。</p><p style=""text-align:left;font-size:20px;""><strong>如果您同意以上实验知情同意书的内容，请点击'同意并且开始实验'按钮；否则请关闭浏览器界面，退出实验。</strong></p>","0",""
"","","","","","html-button-response","3","99685","0.0-3.0","54","1","2022-11-05 07:12:44","ebf9627b049f568eb4bf28942cb89901","36.155.12.171","Mozilla/5.0 (Windows NT 10.0; Win64; x64) AppleWebKit/537.36 (KHTML, like Gecko) Chrome/107.0.0.0 Safari/537.36 Edg/107.0.1418.26","WebKit","Edge","107.0.1418.26","Windows","10.0","63158","<p ><strong>实验任务一：</strong></p><p>请想象你的国家与另一个国家发生了军事冲突。</p><p>你是国家军队的指挥官，你将如何在冲突中进行决策。</p><p>具体来说，作为军队指挥官，请你决定是否发射导弹进行打击。</p><p>接下来，你会面对一系列场景，请仔细阅读每个场景，然后进行决策。</p><p>这部分实验任务大约需要10分钟。</p><p><strong>实验过程中，请集中注意力。</strong></p>","0",""
"","","","","","html-keyboard-response","4","100687","0.0-4.0-0.0","54","1","2022-11-05 07:12:44","ebf9627b049f568eb4bf28942cb89901","36.155.12.171","Mozilla/5.0 (Windows NT 10.0; Win64; x64) AppleWebKit/537.36 (KHTML, like Gecko) Chrome/107.0.0.0 Safari/537.36 Edg/107.0.1418.26","WebKit","Edge","107.0.1418.26","Windows","10.0","null","<div style=""font-size:60px;"">+</div>","null",""
"","","","","","html-button-response","5","104253","0.0-4.0-1.0","54","1","2022-11-05 07:12:44","ebf9627b049f568eb4bf28942cb89901","36.155.12.171","Mozilla/5.0 (Windows NT 10.0; Win64; x64) AppleWebKit/537.36 (KHTML, like Gecko) Chrome/107.0.0.0 Safari/537.36 Edg/107.0.1418.26","WebKit","Edge","107.0.1418.26","Windows","10.0","3564","<p>作为军队的指挥官，你可以选择发射导弹杀死 <strong>6名</strong> 敌国士兵，但会炸毁附近的 <strong>1棵</strong> 敌国树木。</p> <p>树木的照片如下图所示。</p> <p></p> <img src='stimuli/trees/11.png', style='max-width: 30%;'> </img> <p><strong>你是否选择发射武器？</strong></p>","0",""
"","","","","","html-keyboard-response","6","105266","0.0-4.0-0.1","54","1","2022-11-05 07:12:44","ebf9627b049f568eb4bf28942cb89901","36.155.12.171","Mozilla/5.0 (Windows NT 10.0; Win64; x64) AppleWebKit/537.36 (KHTML, like Gecko) Chrome/107.0.0.0 Safari/537.36 Edg/107.0.1418.26","WebKit","Edge","107.0.1418.26","Windows","10.0","null","<div style=""font-size:60px;"">+</div>","null",""
"","","","","","html-button-response","7","105798","0.0-4.0-1.1","54","1","2022-11-05 07:12:44","ebf9627b049f568eb4bf28942cb89901","36.155.12.171","Mozilla/5.0 (Windows NT 10.0; Win64; x64) AppleWebKit/537.36 (KHTML, like Gecko) Chrome/107.0.0.0 Safari/537.36 Edg/107.0.1418.26","WebKit","Edge","107.0.1418.26","Windows","10.0","531","<p>作为军队的指挥官，你可以选择发射导弹杀死 <strong>9名</strong> 敌国士兵，但会炸毁附近的 <strong>1棵</strong> 敌国树木。</p> <p>树木的照片如下图所示。</p> <p></p> <img src='stimuli/trees/1.png', style='max-width: 30%;'> </img> <p><strong>你是否选择发射武器？</strong></p>","0",""
"","","","","","html-keyboard-response","8","106815","0.0-4.0-0.2","54","1","2022-11-05 07:12:44","ebf9627b049f568eb4bf28942cb89901","36.155.12.171","Mozilla/5.0 (Windows NT 10.0; Win64; x64) AppleWebKit/537.36 (KHTML, like Gecko) Chrome/107.0.0.0 Safari/537.36 Edg/107.0.1418.26","WebKit","Edge","107.0.1418.26","Windows","10.0","null","<div style=""font-size:60px;"">+</div>","null",""
"","","","","","html-button-response","9","112253","0.0-4.0-1.2","54","1","2022-11-05 07:12:44","ebf9627b049f568eb4bf28942cb89901","36.155.12.171","Mozilla/5.0 (Windows NT 10.0; Win64; x64) AppleWebKit/537.36 (KHTML, like Gecko) Chrome/107.0.0.0 Safari/537.36 Edg/107.0.1418.26","WebKit","Edge","107.0.1418.26","Windows","10.0","5437","<p>作为军队的指挥官，你可以选择发射导弹杀死 <strong>6名</strong> 敌国士兵，但会误杀附近的 <strong>1名</strong> 敌国平民。</p> <p>平民照片如下图所示。</p> <p></p> <img src='stimuli/faces/NFM1.jpg', style='max-width: 30%;'> </img> <p><strong>你是否选择发射武器？</strong></p>","0",""
"","","","","","html-keyboard-response","10","113265","0.0-4.0-0.3","54","1","2022-11-05 07:12:44","ebf9627b049f568eb4bf28942cb89901","36.155.12.171","Mozilla/5.0 (Windows NT 10.0; Win64; x64) AppleWebKit/537.36 (KHTML, like Gecko) Chrome/107.0.0.0 Safari/537.36 Edg/107.0.1418.26","WebKit","Edge","107.0.1418.26","Windows","10.0","null","<div style=""font-size:60px;"">+</div>","null",""
"","","","","","html-button-response","11","114092","0.0-4.0-1.3","54","1","2022-11-05 07:12:44","ebf9627b049f568eb4bf28942cb89901","36.155.12.171","Mozilla/5.0 (Windows NT 10.0; Win64; x64) AppleWebKit/537.36 (KHTML, like Gecko) Chrome/107.0.0.0 Safari/537.36 Edg/107.0.1418.26","WebKit","Edge","107.0.1418.26","Windows","10.0","826","<p>作为军队的指挥官，你可以选择发射导弹杀死 <strong>4名</strong> 敌国士兵，但会炸毁附近的 <strong>1棵</strong> 敌国树木。</p> <p>树木的照片如下图所示。</p> <p></p> <img src='stimuli/trees/15.png', style='max-width: 30%;'> </img> <p><strong>你是否选择发射武器？</strong></p>","0",""
"","","","","","html-keyboard-response","12","115104","0.0-4.0-0.4","54","1","2022-11-05 07:12:44","ebf9627b049f568eb4bf28942cb89901","36.155.12.171","Mozilla/5.0 (Windows NT 10.0; Win64; x64) AppleWebKit/537.36 (KHTML, like Gecko) Chrome/107.0.0.0 Safari/537.36 Edg/107.0.1418.26","WebKit","Edge","107.0.1418.26","Windows","10.0","null","<div style=""font-size:60px;"">+</div>","null",""
"","","","","","html-button-response","13","117104","0.0-4.0-1.4","54","1","2022-11-05 07:12:44","ebf9627b049f568eb4bf28942cb89901","36.155.12.171","Mozilla/5.0 (Windows NT 10.0; Win64; x64) AppleWebKit/537.36 (KHTML, like Gecko) Chrome/107.0.0.0 Safari/537.36 Edg/107.0.1418.26","WebKit","Edge","107.0.1418.26","Windows","10.0","1999","<p>作为军队的指挥官，你可以选择发射导弹杀死 <strong>2名</strong> 敌国士兵，但会误杀附近的 <strong>1名</strong> 敌国平民。</p> <p>平民照片如下图所示。</p> <p></p> <img src='stimuli/faces/NFM1.jpg', style='max-width: 30%;'> </img> <p><strong>你是否选择发射武器？</strong></p>","1",""
"","","","","","html-keyboard-response","14","118120","0.0-4.0-0.5","54","1","2022-11-05 07:12:44","ebf9627b049f568eb4bf28942cb89901","36.155.12.171","Mozilla/5.0 (Windows NT 10.0; Win64; x64) AppleWebKit/537.36 (KHTML, like Gecko) Chrome/107.0.0.0 Safari/537.36 Edg/107.0.1418.26","WebKit","Edge","107.0.1418.26","Windows","10.0","null","<div style=""font-size:60px;"">+</div>","null",""
"","","","","","html-button-response","15","120006","0.0-4.0-1.5","54","1","2022-11-05 07:12:44","ebf9627b049f568eb4bf28942cb89901","36.155.12.171","Mozilla/5.0 (Windows NT 10.0; Win64; x64) AppleWebKit/537.36 (KHTML, like Gecko) Chrome/107.0.0.0 Safari/537.36 Edg/107.0.1418.26","WebKit","Edge","107.0.1418.26","Windows","10.0","1885","<p>作为军队的指挥官，你可以选择发射导弹杀死 <strong>9名</strong> 敌国士兵，但会误杀附近的 <strong>1名</strong> 敌国平民。</p> <p>平民照片如下图所示。</p> <p></p> <img src='stimuli/faces/NFF7.jpg', style='max-width: 30%;'> </img> <p><strong>你是否选择发射武器？</strong></p>","0",""
"","","","","","html-keyboard-response","16","121016","0.0-4.0-0.6","54","1","2022-11-05 07:12:44","ebf9627b049f568eb4bf28942cb89901","36.155.12.171","Mozilla/5.0 (Windows NT 10.0; Win64; x64) AppleWebKit/537.36 (KHTML, like Gecko) Chrome/107.0.0.0 Safari/537.36 Edg/107.0.1418.26","WebKit","Edge","107.0.1418.26","Windows","10.0","null","<div style=""font-size:60px;"">+</div>","null",""
"","","","","","html-button-response","17","122781","0.0-4.0-1.6","54","1","2022-11-05 07:12:44","ebf9627b049f568eb4bf28942cb89901","36.155.12.171","Mozilla/5.0 (Windows NT 10.0; Win64; x64) AppleWebKit/537.36 (KHTML, like Gecko) Chrome/107.0.0.0 Safari/537.36 Edg/107.0.1418.26","WebKit","Edge","107.0.1418.26","Windows","10.0","1763","<p>作为军队的指挥官，你可以选择发射导弹杀死 <strong>2名</strong> 敌国士兵，但会误杀附近的 <strong>1名</strong> 敌国平民。</p> <p>平民照片如下图所示。</p> <p></p> <img src='stimuli/faces/NFF4.jpg', style='max-width: 30%;'> </img> <p><strong>你是否选择发射武器？</strong></p>","1",""
"","","","","","html-keyboard-response","18","123784","0.0-4.0-0.7","54","1","2022-11-05 07:12:44","ebf9627b049f568eb4bf28942cb89901","36.155.12.171","Mozilla/5.0 (Windows NT 10.0; Win64; x64) AppleWebKit/537.36 (KHTML, like Gecko) Chrome/107.0.0.0 Safari/537.36 Edg/107.0.1418.26","WebKit","Edge","107.0.1418.26","Windows","10.0","null","<div style=""font-size:60px;"">+</div>","null",""
"","","","","","html-button-response","19","124596","0.0-4.0-1.7","54","1","2022-11-05 07:12:44","ebf9627b049f568eb4bf28942cb89901","36.155.12.171","Mozilla/5.0 (Windows NT 10.0; Win64; x64) AppleWebKit/537.36 (KHTML, like Gecko) Chrome/107.0.0.0 Safari/537.36 Edg/107.0.1418.26","WebKit","Edge","107.0.1418.26","Windows","10.0","811","<p>作为军队的指挥官，你可以选择发射导弹杀死 <strong>7名</strong> 敌国士兵，但会炸毁附近的 <strong>1棵</strong> 敌国树木。</p> <p>树木的照片如下图所示。</p> <p></p> <img src='stimuli/trees/7.png', style='max-width: 30%;'> </img> <p><strong>你是否选择发射武器？</strong></p>","0",""
"","","","","","html-keyboard-response","20","125607","0.0-4.0-0.8","54","1","2022-11-05 07:12:44","ebf9627b049f568eb4bf28942cb89901","36.155.12.171","Mozilla/5.0 (Windows NT 10.0; Win64; x64) AppleWebKit/537.36 (KHTML, like Gecko) Chrome/107.0.0.0 Safari/537.36 Edg/107.0.1418.26","WebKit","Edge","107.0.1418.26","Windows","10.0","null","<div style=""font-size:60px;"">+</div>","null",""
"","","","","","html-button-response","21","127261","0.0-4.0-1.8","54","1","2022-11-05 07:12:44","ebf9627b049f568eb4bf28942cb89901","36.155.12.171","Mozilla/5.0 (Windows NT 10.0; Win64; x64) AppleWebKit/537.36 (KHTML, like Gecko) Chrome/107.0.0.0 Safari/537.36 Edg/107.0.1418.26","WebKit","Edge","107.0.1418.26","Windows","10.0","1652","<p>作为军队的指挥官，你可以选择发射导弹杀死 <strong>5名</strong> 敌国士兵，但会误杀附近的 <strong>1名</strong> 敌国平民。</p> <p>平民照片如下图所示。</p> <p></p> <img src='stimuli/faces/NFM2.jpg', style='max-width: 30%;'> </img> <p><strong>你是否选择发射武器？</strong></p>","1",""
"","","","","","html-keyboard-response","22","128264","0.0-4.0-0.9","54","1","2022-11-05 07:12:44","ebf9627b049f568eb4bf28942cb89901","36.155.12.171","Mozilla/5.0 (Windows NT 10.0; Win64; x64) AppleWebKit/537.36 (KHTML, like Gecko) Chrome/107.0.0.0 Safari/537.36 Edg/107.0.1418.26","WebKit","Edge","107.0.1418.26","Windows","10.0","null","<div style=""font-size:60px;"">+</div>","null",""
"","","","","","html-button-response","23","129716","0.0-4.0-1.9","54","1","2022-11-05 07:12:44","ebf9627b049f568eb4bf28942cb89901","36.155.12.171","Mozilla/5.0 (Windows NT 10.0; Win64; x64) AppleWebKit/537.36 (KHTML, like Gecko) Chrome/107.0.0.0 Safari/537.36 Edg/107.0.1418.26","WebKit","Edge","107.0.1418.26","Windows","10.0","1451","<p>作为军队的指挥官，你可以选择发射导弹杀死 <strong>3名</strong> 敌国士兵，但会误杀附近的 <strong>1名</strong> 敌国平民。</p> <p>平民照片如下图所示。</p> <p></p> <img src='stimuli/faces/NFF2.jpg', style='max-width: 30%;'> </img> <p><strong>你是否选择发射武器？</strong></p>","1",""
"","","","","","html-keyboard-response","24","130719","0.0-4.0-0.10","54","1","2022-11-05 07:12:44","ebf9627b049f568eb4bf28942cb89901","36.155.12.171","Mozilla/5.0 (Windows NT 10.0; Win64; x64) AppleWebKit/537.36 (KHTML, like Gecko) Chrome/107.0.0.0 Safari/537.36 Edg/107.0.1418.26","WebKit","Edge","107.0.1418.26","Windows","10.0","null","<div style=""font-size:60px;"">+</div>","null",""
"","","","","","html-button-response","25","132782","0.0-4.0-1.10","54","1","2022-11-05 07:12:44","ebf9627b049f568eb4bf28942cb89901","36.155.12.171","Mozilla/5.0 (Windows NT 10.0; Win64; x64) AppleWebKit/537.36 (KHTML, like Gecko) Chrome/107.0.0.0 Safari/537.36 Edg/107.0.1418.26","WebKit","Edge","107.0.1418.26","Windows","10.0","2062","<p>作为军队的指挥官，你可以选择发射导弹杀死 <strong>9名</strong> 敌国士兵，但会误杀附近的 <strong>1名</strong> 敌国平民。</p> <p>平民照片如下图所示。</p> <p></p> <img src='stimuli/faces/NFF8.jpg', style='max-width: 30%;'> </img> <p><strong>你是否选择发射武器？</strong></p>","0",""
"","","","","","html-keyboard-response","26","133800","0.0-4.0-0.11","54","1","2022-11-05 07:12:44","ebf9627b049f568eb4bf28942cb89901","36.155.12.171","Mozilla/5.0 (Windows NT 10.0; Win64; x64) AppleWebKit/537.36 (KHTML, like Gecko) Chrome/107.0.0.0 Safari/537.36 Edg/107.0.1418.26","WebKit","Edge","107.0.1418.26","Windows","10.0","null","<div style=""font-size:60px;"">+</div>","null",""
"","","","","","html-button-response","27","134549","0.0-4.0-1.11","54","1","2022-11-05 07:12:44","ebf9627b049f568eb4bf28942cb89901","36.155.12.171","Mozilla/5.0 (Windows NT 10.0; Win64; x64) AppleWebKit/537.36 (KHTML, like Gecko) Chrome/107.0.0.0 Safari/537.36 Edg/107.0.1418.26","WebKit","Edge","107.0.1418.26","Windows","10.0","747","<p>作为军队的指挥官，你可以选择发射导弹杀死 <strong>2名</strong> 敌国士兵，但会炸毁附近的 <strong>1棵</strong> 敌国树木。</p> <p>树木的照片如下图所示。</p> <p></p> <img src='stimuli/trees/1.png', style='max-width: 30%;'> </img> <p><strong>你是否选择发射武器？</strong></p>","0",""
"","","","","","html-keyboard-response","28","135554","0.0-4.0-0.12","54","1","2022-11-05 07:12:44","ebf9627b049f568eb4bf28942cb89901","36.155.12.171","Mozilla/5.0 (Windows NT 10.0; Win64; x64) AppleWebKit/537.36 (KHTML, like Gecko) Chrome/107.0.0.0 Safari/537.36 Edg/107.0.1418.26","WebKit","Edge","107.0.1418.26","Windows","10.0","null","<div style=""font-size:60px;"">+</div>","null",""
"","","","","","html-button-response","29","136932","0.0-4.0-1.12","54","1","2022-11-05 07:12:44","ebf9627b049f568eb4bf28942cb89901","36.155.12.171","Mozilla/5.0 (Windows NT 10.0; Win64; x64) AppleWebKit/537.36 (KHTML, like Gecko) Chrome/107.0.0.0 Safari/537.36 Edg/107.0.1418.26","WebKit","Edge","107.0.1418.26","Windows","10.0","1377","<p>作为军队的指挥官，你可以选择发射导弹杀死 <strong>2名</strong> 敌国士兵，但会误杀附近的 <strong>1名</strong> 敌国平民。</p> <p>平民照片如下图所示。</p> <p></p> <img src='stimuli/faces/NFM6.jpg', style='max-width: 30%;'> </img> <p><strong>你是否选择发射武器？</strong></p>","1",""
"","","","","","html-keyboard-response","30","137936","0.0-4.0-0.13","54","1","2022-11-05 07:12:44","ebf9627b049f568eb4bf28942cb89901","36.155.12.171","Mozilla/5.0 (Windows NT 10.0; Win64; x64) AppleWebKit/537.36 (KHTML, like Gecko) Chrome/107.0.0.0 Safari/537.36 Edg/107.0.1418.26","WebKit","Edge","107.0.1418.26","Windows","10.0","null","<div style=""font-size:60px;"">+</div>","null",""
"","","","","","html-button-response","31","139373","0.0-4.0-1.13","54","1","2022-11-05 07:12:44","ebf9627b049f568eb4bf28942cb89901","36.155.12.171","Mozilla/5.0 (Windows NT 10.0; Win64; x64) AppleWebKit/537.36 (KHTML, like Gecko) Chrome/107.0.0.0 Safari/537.36 Edg/107.0.1418.26","WebKit","Edge","107.0.1418.26","Windows","10.0","1432","<p>作为军队的指挥官，你可以选择发射导弹杀死 <strong>1名</strong> 敌国士兵，但会炸毁附近的 <strong>1棵</strong> 敌国树木。</p> <p>树木的照片如下图所示。</p> <p></p> <img src='stimuli/trees/9.png', style='max-width: 30%;'> </img> <p><strong>你是否选择发射武器？</strong></p>","0",""
"","","","","","html-keyboard-response","32","140376","0.0-4.0-0.14","54","1","2022-11-05 07:12:44","ebf9627b049f568eb4bf28942cb89901","36.155.12.171","Mozilla/5.0 (Windows NT 10.0; Win64; x64) AppleWebKit/537.36 (KHTML, like Gecko) Chrome/107.0.0.0 Safari/537.36 Edg/107.0.1418.26","WebKit","Edge","107.0.1418.26","Windows","10.0","null","<div style=""font-size:60px;"">+</div>","null",""
"","","","","","html-button-response","33","141902","0.0-4.0-1.14","54","1","2022-11-05 07:12:44","ebf9627b049f568eb4bf28942cb89901","36.155.12.171","Mozilla/5.0 (Windows NT 10.0; Win64; x64) AppleWebKit/537.36 (KHTML, like Gecko) Chrome/107.0.0.0 Safari/537.36 Edg/107.0.1418.26","WebKit","Edge","107.0.1418.26","Windows","10.0","1521","<p>作为军队的指挥官，你可以选择发射导弹杀死 <strong>10名</strong> 敌国士兵，但会炸毁附近的 <strong>1棵</strong> 敌国树木。</p> <p>树木的照片如下图所示。</p> <p></p> <img src='stimuli/trees/9.png', style='max-width: 30%;'> </img> <p><strong>你是否选择发射武器？</strong></p>","0",""
"","","","","","html-keyboard-response","34","142905","0.0-4.0-0.15","54","1","2022-11-05 07:12:44","ebf9627b049f568eb4bf28942cb89901","36.155.12.171","Mozilla/5.0 (Windows NT 10.0; Win64; x64) AppleWebKit/537.36 (KHTML, like Gecko) Chrome/107.0.0.0 Safari/537.36 Edg/107.0.1418.26","WebKit","Edge","107.0.1418.26","Windows","10.0","null","<div style=""font-size:60px;"">+</div>","null",""
"","","","","","html-button-response","35","143998","0.0-4.0-1.15","54","1","2022-11-05 07:12:44","ebf9627b049f568eb4bf28942cb89901","36.155.12.171","Mozilla/5.0 (Windows NT 10.0; Win64; x64) AppleWebKit/537.36 (KHTML, like Gecko) Chrome/107.0.0.0 Safari/537.36 Edg/107.0.1418.26","WebKit","Edge","107.0.1418.26","Windows","10.0","1090","<p>作为军队的指挥官，你可以选择发射导弹杀死 <strong>1名</strong> 敌国士兵，但会炸毁附近的 <strong>1棵</strong> 敌国树木。</p> <p>树木的照片如下图所示。</p> <p></p> <img src='stimuli/trees/10.png', style='max-width: 30%;'> </img> <p><strong>你是否选择发射武器？</strong></p>","0",""
"","","","","","html-keyboard-response","36","145010","0.0-4.0-0.16","54","1","2022-11-05 07:12:44","ebf9627b049f568eb4bf28942cb89901","36.155.12.171","Mozilla/5.0 (Windows NT 10.0; Win64; x64) AppleWebKit/537.36 (KHTML, like Gecko) Chrome/107.0.0.0 Safari/537.36 Edg/107.0.1418.26","WebKit","Edge","107.0.1418.26","Windows","10.0","null","<div style=""font-size:60px;"">+</div>","null",""
"","","","","","html-button-response","37","146388","0.0-4.0-1.16","54","1","2022-11-05 07:12:44","ebf9627b049f568eb4bf28942cb89901","36.155.12.171","Mozilla/5.0 (Windows NT 10.0; Win64; x64) AppleWebKit/537.36 (KHTML, like Gecko) Chrome/107.0.0.0 Safari/537.36 Edg/107.0.1418.26","WebKit","Edge","107.0.1418.26","Windows","10.0","1372","<p>作为军队的指挥官，你可以选择发射导弹杀死 <strong>7名</strong> 敌国士兵，但会误杀附近的 <strong>1名</strong> 敌国平民。</p> <p>平民照片如下图所示。</p> <p></p> <img src='stimuli/faces/NFM8.jpg', style='max-width: 30%;'> </img> <p><strong>你是否选择发射武器？</strong></p>","0",""
"","","","","","html-keyboard-response","38","147393","0.0-4.0-0.17","54","1","2022-11-05 07:12:44","ebf9627b049f568eb4bf28942cb89901","36.155.12.171","Mozilla/5.0 (Windows NT 10.0; Win64; x64) AppleWebKit/537.36 (KHTML, like Gecko) Chrome/107.0.0.0 Safari/537.36 Edg/107.0.1418.26","WebKit","Edge","107.0.1418.26","Windows","10.0","null","<div style=""font-size:60px;"">+</div>","null",""
"","","","","","html-button-response","39","149077","0.0-4.0-1.17","54","1","2022-11-05 07:12:44","ebf9627b049f568eb4bf28942cb89901","36.155.12.171","Mozilla/5.0 (Windows NT 10.0; Win64; x64) AppleWebKit/537.36 (KHTML, like Gecko) Chrome/107.0.0.0 Safari/537.36 Edg/107.0.1418.26","WebKit","Edge","107.0.1418.26","Windows","10.0","1682","<p>作为军队的指挥官，你可以选择发射导弹杀死 <strong>4名</strong> 敌国士兵，但会误杀附近的 <strong>1名</strong> 敌国平民。</p> <p>平民照片如下图所示。</p> <p></p> <img src='stimuli/faces/NFM3.jpg', style='max-width: 30%;'> </img> <p><strong>你是否选择发射武器？</strong></p>","1",""
"","","","","","html-keyboard-response","40","150080","0.0-4.0-0.18","54","1","2022-11-05 07:12:44","ebf9627b049f568eb4bf28942cb89901","36.155.12.171","Mozilla/5.0 (Windows NT 10.0; Win64; x64) AppleWebKit/537.36 (KHTML, like Gecko) Chrome/107.0.0.0 Safari/537.36 Edg/107.0.1418.26","WebKit","Edge","107.0.1418.26","Windows","10.0","null","<div style=""font-size:60px;"">+</div>","null",""
"","","","","","html-button-response","41","151796","0.0-4.0-1.18","54","1","2022-11-05 07:12:44","ebf9627b049f568eb4bf28942cb89901","36.155.12.171","Mozilla/5.0 (Windows NT 10.0; Win64; x64) AppleWebKit/537.36 (KHTML, like Gecko) Chrome/107.0.0.0 Safari/537.36 Edg/107.0.1418.26","WebKit","Edge","107.0.1418.26","Windows","10.0","1714","<p>作为军队的指挥官，你可以选择发射导弹杀死 <strong>10名</strong> 敌国士兵，但会炸毁附近的 <strong>1棵</strong> 敌国树木。</p> <p>树木的照片如下图所示。</p> <p></p> <img src='stimuli/trees/12.png', style='max-width: 30%;'> </img> <p><strong>你是否选择发射武器？</strong></p>","0",""
"","","","","","html-keyboard-response","42","152803","0.0-4.0-0.19","54","1","2022-11-05 07:12:44","ebf9627b049f568eb4bf28942cb89901","36.155.12.171","Mozilla/5.0 (Windows NT 10.0; Win64; x64) AppleWebKit/537.36 (KHTML, like Gecko) Chrome/107.0.0.0 Safari/537.36 Edg/107.0.1418.26","WebKit","Edge","107.0.1418.26","Windows","10.0","null","<div style=""font-size:60px;"">+</div>","null",""
"","","","","","html-button-response","43","154308","0.0-4.0-1.19","54","1","2022-11-05 07:12:44","ebf9627b049f568eb4bf28942cb89901","36.155.12.171","Mozilla/5.0 (Windows NT 10.0; Win64; x64) AppleWebKit/537.36 (KHTML, like Gecko) Chrome/107.0.0.0 Safari/537.36 Edg/107.0.1418.26","WebKit","Edge","107.0.1418.26","Windows","10.0","1503","<p>作为军队的指挥官，你可以选择发射导弹杀死 <strong>6名</strong> 敌国士兵，但会炸毁附近的 <strong>1棵</strong> 敌国树木。</p> <p>树木的照片如下图所示。</p> <p></p> <img src='stimuli/trees/15.png', style='max-width: 30%;'> </img> <p><strong>你是否选择发射武器？</strong></p>","0",""
"","","","","","html-keyboard-response","44","155311","0.0-4.0-0.20","54","1","2022-11-05 07:12:44","ebf9627b049f568eb4bf28942cb89901","36.155.12.171","Mozilla/5.0 (Windows NT 10.0; Win64; x64) AppleWebKit/537.36 (KHTML, like Gecko) Chrome/107.0.0.0 Safari/537.36 Edg/107.0.1418.26","WebKit","Edge","107.0.1418.26","Windows","10.0","null","<div style=""font-size:60px;"">+</div>","null",""
"","","","","","html-button-response","45","157021","0.0-4.0-1.20","54","1","2022-11-05 07:12:44","ebf9627b049f568eb4bf28942cb89901","36.155.12.171","Mozilla/5.0 (Windows NT 10.0; Win64; x64) AppleWebKit/537.36 (KHTML, like Gecko) Chrome/107.0.0.0 Safari/537.36 Edg/107.0.1418.26","WebKit","Edge","107.0.1418.26","Windows","10.0","1707","<p>作为军队的指挥官，你可以选择发射导弹杀死 <strong>2名</strong> 敌国士兵，但会误杀附近的 <strong>1名</strong> 敌国平民。</p> <p>平民照片如下图所示。</p> <p></p> <img src='stimuli/faces/NFF3.jpg', style='max-width: 30%;'> </img> <p><strong>你是否选择发射武器？</strong></p>","1",""
"","","","","","html-keyboard-response","46","158034","0.0-4.0-0.21","54","1","2022-11-05 07:12:44","ebf9627b049f568eb4bf28942cb89901","36.155.12.171","Mozilla/5.0 (Windows NT 10.0; Win64; x64) AppleWebKit/537.36 (KHTML, like Gecko) Chrome/107.0.0.0 Safari/537.36 Edg/107.0.1418.26","WebKit","Edge","107.0.1418.26","Windows","10.0","null","<div style=""font-size:60px;"">+</div>","null",""
"","","","","","html-button-response","47","159844","0.0-4.0-1.21","54","1","2022-11-05 07:12:44","ebf9627b049f568eb4bf28942cb89901","36.155.12.171","Mozilla/5.0 (Windows NT 10.0; Win64; x64) AppleWebKit/537.36 (KHTML, like Gecko) Chrome/107.0.0.0 Safari/537.36 Edg/107.0.1418.26","WebKit","Edge","107.0.1418.26","Windows","10.0","1808","<p>作为军队的指挥官，你可以选择发射导弹杀死 <strong>7名</strong> 敌国士兵，但会误杀附近的 <strong>1名</strong> 敌国平民。</p> <p>平民照片如下图所示。</p> <p></p> <img src='stimuli/faces/NFF6.jpg', style='max-width: 30%;'> </img> <p><strong>你是否选择发射武器？</strong></p>","0",""
"","","","","","html-keyboard-response","48","160851","0.0-4.0-0.22","54","1","2022-11-05 07:12:44","ebf9627b049f568eb4bf28942cb89901","36.155.12.171","Mozilla/5.0 (Windows NT 10.0; Win64; x64) AppleWebKit/537.36 (KHTML, like Gecko) Chrome/107.0.0.0 Safari/537.36 Edg/107.0.1418.26","WebKit","Edge","107.0.1418.26","Windows","10.0","null","<div style=""font-size:60px;"">+</div>","null",""
"","","","","","html-button-response","49","161572","0.0-4.0-1.22","54","1","2022-11-05 07:12:44","ebf9627b049f568eb4bf28942cb89901","36.155.12.171","Mozilla/5.0 (Windows NT 10.0; Win64; x64) AppleWebKit/537.36 (KHTML, like Gecko) Chrome/107.0.0.0 Safari/537.36 Edg/107.0.1418.26","WebKit","Edge","107.0.1418.26","Windows","10.0","716","<p>作为军队的指挥官，你可以选择发射导弹杀死 <strong>10名</strong> 敌国士兵，但会炸毁附近的 <strong>1棵</strong> 敌国树木。</p> <p>树木的照片如下图所示。</p> <p></p> <img src='stimuli/trees/13.png', style='max-width: 30%;'> </img> <p><strong>你是否选择发射武器？</strong></p>","0",""
"","","","","","html-keyboard-response","50","162576","0.0-4.0-0.23","54","1","2022-11-05 07:12:44","ebf9627b049f568eb4bf28942cb89901","36.155.12.171","Mozilla/5.0 (Windows NT 10.0; Win64; x64) AppleWebKit/537.36 (KHTML, like Gecko) Chrome/107.0.0.0 Safari/537.36 Edg/107.0.1418.26","WebKit","Edge","107.0.1418.26","Windows","10.0","null","<div style=""font-size:60px;"">+</div>","null",""
"","","","","","html-button-response","51","181533","0.0-4.0-1.23","54","1","2022-11-05 07:12:44","ebf9627b049f568eb4bf28942cb89901","36.155.12.171","Mozilla/5.0 (Windows NT 10.0; Win64; x64) AppleWebKit/537.36 (KHTML, like Gecko) Chrome/107.0.0.0 Safari/537.36 Edg/107.0.1418.26","WebKit","Edge","107.0.1418.26","Windows","10.0","18955","<p>作为军队的指挥官，你可以选择发射导弹杀死 <strong>10名</strong> 敌国士兵，但会误杀附近的 <strong>1名</strong> 敌国平民。</p> <p>平民照片如下图所示。</p> <p></p> <img src='stimuli/faces/NFF4.jpg', style='max-width: 30%;'> </img> <p><strong>你是否选择发射武器？</strong></p>","0",""
"","","","","","html-keyboard-response","52","182544","0.0-4.0-0.24","54","1","2022-11-05 07:12:44","ebf9627b049f568eb4bf28942cb89901","36.155.12.171","Mozilla/5.0 (Windows NT 10.0; Win64; x64) AppleWebKit/537.36 (KHTML, like Gecko) Chrome/107.0.0.0 Safari/537.36 Edg/107.0.1418.26","WebKit","Edge","107.0.1418.26","Windows","10.0","null","<div style=""font-size:60px;"">+</div>","null",""
"","","","","","html-button-response","53","185749","0.0-4.0-1.24","54","1","2022-11-05 07:12:44","ebf9627b049f568eb4bf28942cb89901","36.155.12.171","Mozilla/5.0 (Windows NT 10.0; Win64; x64) AppleWebKit/537.36 (KHTML, like Gecko) Chrome/107.0.0.0 Safari/537.36 Edg/107.0.1418.26","WebKit","Edge","107.0.1418.26","Windows","10.0","3202","<p>作为军队的指挥官，你可以选择发射导弹杀死 <strong>3名</strong> 敌国士兵，但会误杀附近的 <strong>1名</strong> 敌国平民。</p> <p>平民照片如下图所示。</p> <p></p> <img src='stimuli/faces/NFF6.jpg', style='max-width: 30%;'> </img> <p><strong>你是否选择发射武器？</strong></p>","1",""
"","","","","","html-keyboard-response","54","186762","0.0-4.0-0.25","54","1","2022-11-05 07:12:44","ebf9627b049f568eb4bf28942cb89901","36.155.12.171","Mozilla/5.0 (Windows NT 10.0; Win64; x64) AppleWebKit/537.36 (KHTML, like Gecko) Chrome/107.0.0.0 Safari/537.36 Edg/107.0.1418.26","WebKit","Edge","107.0.1418.26","Windows","10.0","null","<div style=""font-size:60px;"">+</div>","null",""
"","","","","","html-button-response","55","189014","0.0-4.0-1.25","54","1","2022-11-05 07:12:44","ebf9627b049f568eb4bf28942cb89901","36.155.12.171","Mozilla/5.0 (Windows NT 10.0; Win64; x64) AppleWebKit/537.36 (KHTML, like Gecko) Chrome/107.0.0.0 Safari/537.36 Edg/107.0.1418.26","WebKit","Edge","107.0.1418.26","Windows","10.0","2250","<p>作为军队的指挥官，你可以选择发射导弹杀死 <strong>4名</strong> 敌国士兵，但会误杀附近的 <strong>1名</strong> 敌国平民。</p> <p>平民照片如下图所示。</p> <p></p> <img src='stimuli/faces/NFF7.jpg', style='max-width: 30%;'> </img> <p><strong>你是否选择发射武器？</strong></p>","1",""
"","","","","","html-keyboard-response","56","190026","0.0-4.0-0.26","54","1","2022-11-05 07:12:44","ebf9627b049f568eb4bf28942cb89901","36.155.12.171","Mozilla/5.0 (Windows NT 10.0; Win64; x64) AppleWebKit/537.36 (KHTML, like Gecko) Chrome/107.0.0.0 Safari/537.36 Edg/107.0.1418.26","WebKit","Edge","107.0.1418.26","Windows","10.0","null","<div style=""font-size:60px;"">+</div>","null",""
"","","","","","html-button-response","57","193117","0.0-4.0-1.26","54","1","2022-11-05 07:12:44","ebf9627b049f568eb4bf28942cb89901","36.155.12.171","Mozilla/5.0 (Windows NT 10.0; Win64; x64) AppleWebKit/537.36 (KHTML, like Gecko) Chrome/107.0.0.0 Safari/537.36 Edg/107.0.1418.26","WebKit","Edge","107.0.1418.26","Windows","10.0","3089","<p>作为军队的指挥官，你可以选择发射导弹杀死 <strong>1名</strong> 敌国士兵，但会炸毁附近的 <strong>1棵</strong> 敌国树木。</p> <p>树木的照片如下图所示。</p> <p></p> <img src='stimuli/trees/5.png', style='max-width: 30%;'> </img> <p><strong>你是否选择发射武器？</strong></p>","0",""
"","","","","","html-keyboard-response","58","194120","0.0-4.0-0.27","54","1","2022-11-05 07:12:44","ebf9627b049f568eb4bf28942cb89901","36.155.12.171","Mozilla/5.0 (Windows NT 10.0; Win64; x64) AppleWebKit/537.36 (KHTML, like Gecko) Chrome/107.0.0.0 Safari/537.36 Edg/107.0.1418.26","WebKit","Edge","107.0.1418.26","Windows","10.0","null","<div style=""font-size:60px;"">+</div>","null",""
"","","","","","html-button-response","59","202428","0.0-4.0-1.27","54","1","2022-11-05 07:12:44","ebf9627b049f568eb4bf28942cb89901","36.155.12.171","Mozilla/5.0 (Windows NT 10.0; Win64; x64) AppleWebKit/537.36 (KHTML, like Gecko) Chrome/107.0.0.0 Safari/537.36 Edg/107.0.1418.26","WebKit","Edge","107.0.1418.26","Windows","10.0","8305","<p>作为军队的指挥官，你可以选择发射导弹杀死 <strong>9名</strong> 敌国士兵，但会误杀附近的 <strong>1名</strong> 敌国平民。</p> <p>平民照片如下图所示。</p> <p></p> <img src='stimuli/faces/NFF5.jpg', style='max-width: 30%;'> </img> <p><strong>你是否选择发射武器？</strong></p>","0",""
"","","","","","html-keyboard-response","60","203443","0.0-4.0-0.28","54","1","2022-11-05 07:12:44","ebf9627b049f568eb4bf28942cb89901","36.155.12.171","Mozilla/5.0 (Windows NT 10.0; Win64; x64) AppleWebKit/537.36 (KHTML, like Gecko) Chrome/107.0.0.0 Safari/537.36 Edg/107.0.1418.26","WebKit","Edge","107.0.1418.26","Windows","10.0","null","<div style=""font-size:60px;"">+</div>","null",""
"","","","","","html-button-response","61","205653","0.0-4.0-1.28","54","1","2022-11-05 07:12:44","ebf9627b049f568eb4bf28942cb89901","36.155.12.171","Mozilla/5.0 (Windows NT 10.0; Win64; x64) AppleWebKit/537.36 (KHTML, like Gecko) Chrome/107.0.0.0 Safari/537.36 Edg/107.0.1418.26","WebKit","Edge","107.0.1418.26","Windows","10.0","2207","<p>作为军队的指挥官，你可以选择发射导弹杀死 <strong>1名</strong> 敌国士兵，但会误杀附近的 <strong>1名</strong> 敌国平民。</p> <p>平民照片如下图所示。</p> <p></p> <img src='stimuli/faces/NFM5.jpg', style='max-width: 30%;'> </img> <p><strong>你是否选择发射武器？</strong></p>","1",""
"","","","","","html-keyboard-response","62","206666","0.0-4.0-0.29","54","1","2022-11-05 07:12:44","ebf9627b049f568eb4bf28942cb89901","36.155.12.171","Mozilla/5.0 (Windows NT 10.0; Win64; x64) AppleWebKit/537.36 (KHTML, like Gecko) Chrome/107.0.0.0 Safari/537.36 Edg/107.0.1418.26","WebKit","Edge","107.0.1418.26","Windows","10.0","null","<div style=""font-size:60px;"">+</div>","null",""
"","","","","","html-button-response","63","208141","0.0-4.0-1.29","54","1","2022-11-05 07:12:44","ebf9627b049f568eb4bf28942cb89901","36.155.12.171","Mozilla/5.0 (Windows NT 10.0; Win64; x64) AppleWebKit/537.36 (KHTML, like Gecko) Chrome/107.0.0.0 Safari/537.36 Edg/107.0.1418.26","WebKit","Edge","107.0.1418.26","Windows","10.0","1473","<p>作为军队的指挥官，你可以选择发射导弹杀死 <strong>6名</strong> 敌国士兵，但会误杀附近的 <strong>1名</strong> 敌国平民。</p> <p>平民照片如下图所示。</p> <p></p> <img src='stimuli/faces/NFM4.jpg', style='max-width: 30%;'> </img> <p><strong>你是否选择发射武器？</strong></p>","0",""
"","","","","","html-keyboard-response","64","209155","0.0-4.0-0.30","54","1","2022-11-05 07:12:44","ebf9627b049f568eb4bf28942cb89901","36.155.12.171","Mozilla/5.0 (Windows NT 10.0; Win64; x64) AppleWebKit/537.36 (KHTML, like Gecko) Chrome/107.0.0.0 Safari/537.36 Edg/107.0.1418.26","WebKit","Edge","107.0.1418.26","Windows","10.0","null","<div style=""font-size:60px;"">+</div>","null",""
"","","","","","html-button-response","65","209733","0.0-4.0-1.30","54","1","2022-11-05 07:12:44","ebf9627b049f568eb4bf28942cb89901","36.155.12.171","Mozilla/5.0 (Windows NT 10.0; Win64; x64) AppleWebKit/537.36 (KHTML, like Gecko) Chrome/107.0.0.0 Safari/537.36 Edg/107.0.1418.26","WebKit","Edge","107.0.1418.26","Windows","10.0","572","<p>作为军队的指挥官，你可以选择发射导弹杀死 <strong>7名</strong> 敌国士兵，但会误杀附近的 <strong>1名</strong> 敌国平民。</p> <p>平民照片如下图所示。</p> <p></p> <img src='stimuli/faces/NFM6.jpg', style='max-width: 30%;'> </img> <p><strong>你是否选择发射武器？</strong></p>","0",""
"","","","","","html-keyboard-response","66","210740","0.0-4.0-0.31","54","1","2022-11-05 07:12:44","ebf9627b049f568eb4bf28942cb89901","36.155.12.171","Mozilla/5.0 (Windows NT 10.0; Win64; x64) AppleWebKit/537.36 (KHTML, like Gecko) Chrome/107.0.0.0 Safari/537.36 Edg/107.0.1418.26","WebKit","Edge","107.0.1418.26","Windows","10.0","null","<div style=""font-size:60px;"">+</div>","null",""
"","","","","","html-button-response","67","212148","0.0-4.0-1.31","54","1","2022-11-05 07:12:44","ebf9627b049f568eb4bf28942cb89901","36.155.12.171","Mozilla/5.0 (Windows NT 10.0; Win64; x64) AppleWebKit/537.36 (KHTML, like Gecko) Chrome/107.0.0.0 Safari/537.36 Edg/107.0.1418.26","WebKit","Edge","107.0.1418.26","Windows","10.0","1406","<p>作为军队的指挥官，你可以选择发射导弹杀死 <strong>5名</strong> 敌国士兵，但会炸毁附近的 <strong>1棵</strong> 敌国树木。</p> <p>树木的照片如下图所示。</p> <p></p> <img src='stimuli/trees/4.png', style='max-width: 30%;'> </img> <p><strong>你是否选择发射武器？</strong></p>","0",""
"","","","","","html-keyboard-response","68","213160","0.0-4.0-0.32","54","1","2022-11-05 07:12:44","ebf9627b049f568eb4bf28942cb89901","36.155.12.171","Mozilla/5.0 (Windows NT 10.0; Win64; x64) AppleWebKit/537.36 (KHTML, like Gecko) Chrome/107.0.0.0 Safari/537.36 Edg/107.0.1418.26","WebKit","Edge","107.0.1418.26","Windows","10.0","null","<div style=""font-size:60px;"">+</div>","null",""
"","","","","","html-button-response","69","214909","0.0-4.0-1.32","54","1","2022-11-05 07:12:44","ebf9627b049f568eb4bf28942cb89901","36.155.12.171","Mozilla/5.0 (Windows NT 10.0; Win64; x64) AppleWebKit/537.36 (KHTML, like Gecko) Chrome/107.0.0.0 Safari/537.36 Edg/107.0.1418.26","WebKit","Edge","107.0.1418.26","Windows","10.0","1746","<p>作为军队的指挥官，你可以选择发射导弹杀死 <strong>1名</strong> 敌国士兵，但会炸毁附近的 <strong>1棵</strong> 敌国树木。</p> <p>树木的照片如下图所示。</p> <p></p> <img src='stimuli/trees/7.png', style='max-width: 30%;'> </img> <p><strong>你是否选择发射武器？</strong></p>","0",""
"","","","","","html-keyboard-response","70","215913","0.0-4.0-0.33","54","1","2022-11-05 07:12:44","ebf9627b049f568eb4bf28942cb89901","36.155.12.171","Mozilla/5.0 (Windows NT 10.0; Win64; x64) AppleWebKit/537.36 (KHTML, like Gecko) Chrome/107.0.0.0 Safari/537.36 Edg/107.0.1418.26","WebKit","Edge","107.0.1418.26","Windows","10.0","null","<div style=""font-size:60px;"">+</div>","null",""
"","","","","","html-button-response","71","216500","0.0-4.0-1.33","54","1","2022-11-05 07:12:44","ebf9627b049f568eb4bf28942cb89901","36.155.12.171","Mozilla/5.0 (Windows NT 10.0; Win64; x64) AppleWebKit/537.36 (KHTML, like Gecko) Chrome/107.0.0.0 Safari/537.36 Edg/107.0.1418.26","WebKit","Edge","107.0.1418.26","Windows","10.0","579","<p>作为军队的指挥官，你可以选择发射导弹杀死 <strong>7名</strong> 敌国士兵，但会炸毁附近的 <strong>1棵</strong> 敌国树木。</p> <p>树木的照片如下图所示。</p> <p></p> <img src='stimuli/trees/3.png', style='max-width: 30%;'> </img> <p><strong>你是否选择发射武器？</strong></p>","0",""
"","","","","","html-keyboard-response","72","217511","0.0-4.0-0.34","54","1","2022-11-05 07:12:44","ebf9627b049f568eb4bf28942cb89901","36.155.12.171","Mozilla/5.0 (Windows NT 10.0; Win64; x64) AppleWebKit/537.36 (KHTML, like Gecko) Chrome/107.0.0.0 Safari/537.36 Edg/107.0.1418.26","WebKit","Edge","107.0.1418.26","Windows","10.0","null","<div style=""font-size:60px;"">+</div>","null",""
"","","","","","html-button-response","73","220404","0.0-4.0-1.34","54","1","2022-11-05 07:12:44","ebf9627b049f568eb4bf28942cb89901","36.155.12.171","Mozilla/5.0 (Windows NT 10.0; Win64; x64) AppleWebKit/537.36 (KHTML, like Gecko) Chrome/107.0.0.0 Safari/537.36 Edg/107.0.1418.26","WebKit","Edge","107.0.1418.26","Windows","10.0","2892","<p>作为军队的指挥官，你可以选择发射导弹杀死 <strong>6名</strong> 敌国士兵，但会炸毁附近的 <strong>1棵</strong> 敌国树木。</p> <p>树木的照片如下图所示。</p> <p></p> <img src='stimuli/trees/10.png', style='max-width: 30%;'> </img> <p><strong>你是否选择发射武器？</strong></p>","0",""
"","","","","","html-keyboard-response","74","221414","0.0-4.0-0.35","54","1","2022-11-05 07:12:44","ebf9627b049f568eb4bf28942cb89901","36.155.12.171","Mozilla/5.0 (Windows NT 10.0; Win64; x64) AppleWebKit/537.36 (KHTML, like Gecko) Chrome/107.0.0.0 Safari/537.36 Edg/107.0.1418.26","WebKit","Edge","107.0.1418.26","Windows","10.0","null","<div style=""font-size:60px;"">+</div>","null",""
"","","","","","html-button-response","75","223781","0.0-4.0-1.35","54","1","2022-11-05 07:12:44","ebf9627b049f568eb4bf28942cb89901","36.155.12.171","Mozilla/5.0 (Windows NT 10.0; Win64; x64) AppleWebKit/537.36 (KHTML, like Gecko) Chrome/107.0.0.0 Safari/537.36 Edg/107.0.1418.26","WebKit","Edge","107.0.1418.26","Windows","10.0","2365","<p>作为军队的指挥官，你可以选择发射导弹杀死 <strong>8名</strong> 敌国士兵，但会误杀附近的 <strong>1名</strong> 敌国平民。</p> <p>平民照片如下图所示。</p> <p></p> <img src='stimuli/faces/NFF1.jpg', style='max-width: 30%;'> </img> <p><strong>你是否选择发射武器？</strong></p>","0",""
"","","","","","html-keyboard-response","76","224787","0.0-4.0-0.36","54","1","2022-11-05 07:12:44","ebf9627b049f568eb4bf28942cb89901","36.155.12.171","Mozilla/5.0 (Windows NT 10.0; Win64; x64) AppleWebKit/537.36 (KHTML, like Gecko) Chrome/107.0.0.0 Safari/537.36 Edg/107.0.1418.26","WebKit","Edge","107.0.1418.26","Windows","10.0","null","<div style=""font-size:60px;"">+</div>","null",""
"","","","","","html-button-response","77","226182","0.0-4.0-1.36","54","1","2022-11-05 07:12:44","ebf9627b049f568eb4bf28942cb89901","36.155.12.171","Mozilla/5.0 (Windows NT 10.0; Win64; x64) AppleWebKit/537.36 (KHTML, like Gecko) Chrome/107.0.0.0 Safari/537.36 Edg/107.0.1418.26","WebKit","Edge","107.0.1418.26","Windows","10.0","1392","<p>作为军队的指挥官，你可以选择发射导弹杀死 <strong>9名</strong> 敌国士兵，但会炸毁附近的 <strong>1棵</strong> 敌国树木。</p> <p>树木的照片如下图所示。</p> <p></p> <img src='stimuli/trees/14.png', style='max-width: 30%;'> </img> <p><strong>你是否选择发射武器？</strong></p>","0",""
"","","","","","html-keyboard-response","78","227205","0.0-4.0-0.37","54","1","2022-11-05 07:12:44","ebf9627b049f568eb4bf28942cb89901","36.155.12.171","Mozilla/5.0 (Windows NT 10.0; Win64; x64) AppleWebKit/537.36 (KHTML, like Gecko) Chrome/107.0.0.0 Safari/537.36 Edg/107.0.1418.26","WebKit","Edge","107.0.1418.26","Windows","10.0","null","<div style=""font-size:60px;"">+</div>","null",""
"","","","","","html-button-response","79","231341","0.0-4.0-1.37","54","1","2022-11-05 07:12:44","ebf9627b049f568eb4bf28942cb89901","36.155.12.171","Mozilla/5.0 (Windows NT 10.0; Win64; x64) AppleWebKit/537.36 (KHTML, like Gecko) Chrome/107.0.0.0 Safari/537.36 Edg/107.0.1418.26","WebKit","Edge","107.0.1418.26","Windows","10.0","4134","<p>作为军队的指挥官，你可以选择发射导弹杀死 <strong>2名</strong> 敌国士兵，但会炸毁附近的 <strong>1棵</strong> 敌国树木。</p> <p>树木的照片如下图所示。</p> <p></p> <img src='stimuli/trees/12.png', style='max-width: 30%;'> </img> <p><strong>你是否选择发射武器？</strong></p>","0",""
"","","","","","html-keyboard-response","80","232350","0.0-4.0-0.38","54","1","2022-11-05 07:12:44","ebf9627b049f568eb4bf28942cb89901","36.155.12.171","Mozilla/5.0 (Windows NT 10.0; Win64; x64) AppleWebKit/537.36 (KHTML, like Gecko) Chrome/107.0.0.0 Safari/537.36 Edg/107.0.1418.26","WebKit","Edge","107.0.1418.26","Windows","10.0","null","<div style=""font-size:60px;"">+</div>","null",""
"","","","","","html-button-response","81","239198","0.0-4.0-1.38","54","1","2022-11-05 07:12:44","ebf9627b049f568eb4bf28942cb89901","36.155.12.171","Mozilla/5.0 (Windows NT 10.0; Win64; x64) AppleWebKit/537.36 (KHTML, like Gecko) Chrome/107.0.0.0 Safari/537.36 Edg/107.0.1418.26","WebKit","Edge","107.0.1418.26","Windows","10.0","6845","<p>作为军队的指挥官，你可以选择发射导弹杀死 <strong>10名</strong> 敌国士兵，但会误杀附近的 <strong>1名</strong> 敌国平民。</p> <p>平民照片如下图所示。</p> <p></p> <img src='stimuli/faces/NFM2.jpg', style='max-width: 30%;'> </img> <p><strong>你是否选择发射武器？</strong></p>","0",""
"","","","","","html-keyboard-response","82","240219","0.0-4.0-0.39","54","1","2022-11-05 07:12:44","ebf9627b049f568eb4bf28942cb89901","36.155.12.171","Mozilla/5.0 (Windows NT 10.0; Win64; x64) AppleWebKit/537.36 (KHTML, like Gecko) Chrome/107.0.0.0 Safari/537.36 Edg/107.0.1418.26","WebKit","Edge","107.0.1418.26","Windows","10.0","null","<div style=""font-size:60px;"">+</div>","null",""
"","","","","","html-button-response","83","243958","0.0-4.0-1.39","54","1","2022-11-05 07:12:44","ebf9627b049f568eb4bf28942cb89901","36.155.12.171","Mozilla/5.0 (Windows NT 10.0; Win64; x64) AppleWebKit/537.36 (KHTML, like Gecko) Chrome/107.0.0.0 Safari/537.36 Edg/107.0.1418.26","WebKit","Edge","107.0.1418.26","Windows","10.0","3737","<p>作为军队的指挥官，你可以选择发射导弹杀死 <strong>7名</strong> 敌国士兵，但会误杀附近的 <strong>1名</strong> 敌国平民。</p> <p>平民照片如下图所示。</p> <p></p> <img src='stimuli/faces/NFM5.jpg', style='max-width: 30%;'> </img> <p><strong>你是否选择发射武器？</strong></p>","0",""
"","","","","","html-keyboard-response","84","244983","0.0-4.0-0.40","54","1","2022-11-05 07:12:44","ebf9627b049f568eb4bf28942cb89901","36.155.12.171","Mozilla/5.0 (Windows NT 10.0; Win64; x64) AppleWebKit/537.36 (KHTML, like Gecko) Chrome/107.0.0.0 Safari/537.36 Edg/107.0.1418.26","WebKit","Edge","107.0.1418.26","Windows","10.0","null","<div style=""font-size:60px;"">+</div>","null",""
"","","","","","html-button-response","85","252204","0.0-4.0-1.40","54","1","2022-11-05 07:12:44","ebf9627b049f568eb4bf28942cb89901","36.155.12.171","Mozilla/5.0 (Windows NT 10.0; Win64; x64) AppleWebKit/537.36 (KHTML, like Gecko) Chrome/107.0.0.0 Safari/537.36 Edg/107.0.1418.26","WebKit","Edge","107.0.1418.26","Windows","10.0","7220","<p>作为军队的指挥官，你可以选择发射导弹杀死 <strong>6名</strong> 敌国士兵，但会炸毁附近的 <strong>1棵</strong> 敌国树木。</p> <p>树木的照片如下图所示。</p> <p></p> <img src='stimuli/trees/5.png', style='max-width: 30%;'> </img> <p><strong>你是否选择发射武器？</strong></p>","0",""
"","","","","","html-keyboard-response","86","253212","0.0-4.0-0.41","54","1","2022-11-05 07:12:44","ebf9627b049f568eb4bf28942cb89901","36.155.12.171","Mozilla/5.0 (Windows NT 10.0; Win64; x64) AppleWebKit/537.36 (KHTML, like Gecko) Chrome/107.0.0.0 Safari/537.36 Edg/107.0.1418.26","WebKit","Edge","107.0.1418.26","Windows","10.0","null","<div style=""font-size:60px;"">+</div>","null",""
"","","","","","html-button-response","87","255668","0.0-4.0-1.41","54","1","2022-11-05 07:12:44","ebf9627b049f568eb4bf28942cb89901","36.155.12.171","Mozilla/5.0 (Windows NT 10.0; Win64; x64) AppleWebKit/537.36 (KHTML, like Gecko) Chrome/107.0.0.0 Safari/537.36 Edg/107.0.1418.26","WebKit","Edge","107.0.1418.26","Windows","10.0","2447","<p>作为军队的指挥官，你可以选择发射导弹杀死 <strong>8名</strong> 敌国士兵，但会炸毁附近的 <strong>1棵</strong> 敌国树木。</p> <p>树木的照片如下图所示。</p> <p></p> <img src='stimuli/trees/6.png', style='max-width: 30%;'> </img> <p><strong>你是否选择发射武器？</strong></p>","0",""
"","","","","","html-keyboard-response","88","256674","0.0-4.0-0.42","54","1","2022-11-05 07:12:44","ebf9627b049f568eb4bf28942cb89901","36.155.12.171","Mozilla/5.0 (Windows NT 10.0; Win64; x64) AppleWebKit/537.36 (KHTML, like Gecko) Chrome/107.0.0.0 Safari/537.36 Edg/107.0.1418.26","WebKit","Edge","107.0.1418.26","Windows","10.0","null","<div style=""font-size:60px;"">+</div>","null",""
"","","","","","html-button-response","89","259132","0.0-4.0-1.42","54","1","2022-11-05 07:12:44","ebf9627b049f568eb4bf28942cb89901","36.155.12.171","Mozilla/5.0 (Windows NT 10.0; Win64; x64) AppleWebKit/537.36 (KHTML, like Gecko) Chrome/107.0.0.0 Safari/537.36 Edg/107.0.1418.26","WebKit","Edge","107.0.1418.26","Windows","10.0","2455","<p>作为军队的指挥官，你可以选择发射导弹杀死 <strong>4名</strong> 敌国士兵，但会炸毁附近的 <strong>1棵</strong> 敌国树木。</p> <p>树木的照片如下图所示。</p> <p></p> <img src='stimuli/trees/13.png', style='max-width: 30%;'> </img> <p><strong>你是否选择发射武器？</strong></p>","0",""
"","","","","","html-keyboard-response","90","260141","0.0-4.0-0.43","54","1","2022-11-05 07:12:44","ebf9627b049f568eb4bf28942cb89901","36.155.12.171","Mozilla/5.0 (Windows NT 10.0; Win64; x64) AppleWebKit/537.36 (KHTML, like Gecko) Chrome/107.0.0.0 Safari/537.36 Edg/107.0.1418.26","WebKit","Edge","107.0.1418.26","Windows","10.0","null","<div style=""font-size:60px;"">+</div>","null",""
"","","","","","html-button-response","91","266084","0.0-4.0-1.43","54","1","2022-11-05 07:12:44","ebf9627b049f568eb4bf28942cb89901","36.155.12.171","Mozilla/5.0 (Windows NT 10.0; Win64; x64) AppleWebKit/537.36 (KHTML, like Gecko) Chrome/107.0.0.0 Safari/537.36 Edg/107.0.1418.26","WebKit","Edge","107.0.1418.26","Windows","10.0","5941","<p>作为军队的指挥官，你可以选择发射导弹杀死 <strong>6名</strong> 敌国士兵，但会炸毁附近的 <strong>1棵</strong> 敌国树木。</p> <p>树木的照片如下图所示。</p> <p></p> <img src='stimuli/trees/8.png', style='max-width: 30%;'> </img> <p><strong>你是否选择发射武器？</strong></p>","0",""
"","","","","","html-keyboard-response","92","267089","0.0-4.0-0.44","54","1","2022-11-05 07:12:44","ebf9627b049f568eb4bf28942cb89901","36.155.12.171","Mozilla/5.0 (Windows NT 10.0; Win64; x64) AppleWebKit/537.36 (KHTML, like Gecko) Chrome/107.0.0.0 Safari/537.36 Edg/107.0.1418.26","WebKit","Edge","107.0.1418.26","Windows","10.0","null","<div style=""font-size:60px;"">+</div>","null",""
"","","","","","html-button-response","93","269460","0.0-4.0-1.44","54","1","2022-11-05 07:12:44","ebf9627b049f568eb4bf28942cb89901","36.155.12.171","Mozilla/5.0 (Windows NT 10.0; Win64; x64) AppleWebKit/537.36 (KHTML, like Gecko) Chrome/107.0.0.0 Safari/537.36 Edg/107.0.1418.26","WebKit","Edge","107.0.1418.26","Windows","10.0","2369","<p>作为军队的指挥官，你可以选择发射导弹杀死 <strong>9名</strong> 敌国士兵，但会炸毁附近的 <strong>1棵</strong> 敌国树木。</p> <p>树木的照片如下图所示。</p> <p></p> <img src='stimuli/trees/2.png', style='max-width: 30%;'> </img> <p><strong>你是否选择发射武器？</strong></p>","0",""
"","","","","","html-keyboard-response","94","270473","0.0-4.0-0.45","54","1","2022-11-05 07:12:44","ebf9627b049f568eb4bf28942cb89901","36.155.12.171","Mozilla/5.0 (Windows NT 10.0; Win64; x64) AppleWebKit/537.36 (KHTML, like Gecko) Chrome/107.0.0.0 Safari/537.36 Edg/107.0.1418.26","WebKit","Edge","107.0.1418.26","Windows","10.0","null","<div style=""font-size:60px;"">+</div>","null",""
"","","","","","html-button-response","95","272398","0.0-4.0-1.45","54","1","2022-11-05 07:12:44","ebf9627b049f568eb4bf28942cb89901","36.155.12.171","Mozilla/5.0 (Windows NT 10.0; Win64; x64) AppleWebKit/537.36 (KHTML, like Gecko) Chrome/107.0.0.0 Safari/537.36 Edg/107.0.1418.26","WebKit","Edge","107.0.1418.26","Windows","10.0","1922","<p>作为军队的指挥官，你可以选择发射导弹杀死 <strong>1名</strong> 敌国士兵，但会炸毁附近的 <strong>1棵</strong> 敌国树木。</p> <p>树木的照片如下图所示。</p> <p></p> <img src='stimuli/trees/16.png', style='max-width: 30%;'> </img> <p><strong>你是否选择发射武器？</strong></p>","0",""
"","","","","","html-keyboard-response","96","273421","0.0-4.0-0.46","54","1","2022-11-05 07:12:44","ebf9627b049f568eb4bf28942cb89901","36.155.12.171","Mozilla/5.0 (Windows NT 10.0; Win64; x64) AppleWebKit/537.36 (KHTML, like Gecko) Chrome/107.0.0.0 Safari/537.36 Edg/107.0.1418.26","WebKit","Edge","107.0.1418.26","Windows","10.0","null","<div style=""font-size:60px;"">+</div>","null",""
"","","","","","html-button-response","97","277204","0.0-4.0-1.46","54","1","2022-11-05 07:12:44","ebf9627b049f568eb4bf28942cb89901","36.155.12.171","Mozilla/5.0 (Windows NT 10.0; Win64; x64) AppleWebKit/537.36 (KHTML, like Gecko) Chrome/107.0.0.0 Safari/537.36 Edg/107.0.1418.26","WebKit","Edge","107.0.1418.26","Windows","10.0","3781","<p>作为军队的指挥官，你可以选择发射导弹杀死 <strong>1名</strong> 敌国士兵，但会炸毁附近的 <strong>1棵</strong> 敌国树木。</p> <p>树木的照片如下图所示。</p> <p></p> <img src='stimuli/trees/8.png', style='max-width: 30%;'> </img> <p><strong>你是否选择发射武器？</strong></p>","0",""
"","","","","","html-keyboard-response","98","278208","0.0-4.0-0.47","54","1","2022-11-05 07:12:44","ebf9627b049f568eb4bf28942cb89901","36.155.12.171","Mozilla/5.0 (Windows NT 10.0; Win64; x64) AppleWebKit/537.36 (KHTML, like Gecko) Chrome/107.0.0.0 Safari/537.36 Edg/107.0.1418.26","WebKit","Edge","107.0.1418.26","Windows","10.0","null","<div style=""font-size:60px;"">+</div>","null",""
"","","","","","html-button-response","99","278845","0.0-4.0-1.47","54","1","2022-11-05 07:12:44","ebf9627b049f568eb4bf28942cb89901","36.155.12.171","Mozilla/5.0 (Windows NT 10.0; Win64; x64) AppleWebKit/537.36 (KHTML, like Gecko) Chrome/107.0.0.0 Safari/537.36 Edg/107.0.1418.26","WebKit","Edge","107.0.1418.26","Windows","10.0","634","<p>作为军队的指挥官，你可以选择发射导弹杀死 <strong>1名</strong> 敌国士兵，但会炸毁附近的 <strong>1棵</strong> 敌国树木。</p> <p>树木的照片如下图所示。</p> <p></p> <img src='stimuli/trees/11.png', style='max-width: 30%;'> </img> <p><strong>你是否选择发射武器？</strong></p>","0",""
"","","","","","html-keyboard-response","100","279865","0.0-4.0-0.48","54","1","2022-11-05 07:12:44","ebf9627b049f568eb4bf28942cb89901","36.155.12.171","Mozilla/5.0 (Windows NT 10.0; Win64; x64) AppleWebKit/537.36 (KHTML, like Gecko) Chrome/107.0.0.0 Safari/537.36 Edg/107.0.1418.26","WebKit","Edge","107.0.1418.26","Windows","10.0","null","<div style=""font-size:60px;"">+</div>","null",""
"","","","","","html-button-response","101","283829","0.0-4.0-1.48","54","1","2022-11-05 07:12:44","ebf9627b049f568eb4bf28942cb89901","36.155.12.171","Mozilla/5.0 (Windows NT 10.0; Win64; x64) AppleWebKit/537.36 (KHTML, like Gecko) Chrome/107.0.0.0 Safari/537.36 Edg/107.0.1418.26","WebKit","Edge","107.0.1418.26","Windows","10.0","3962","<p>作为军队的指挥官，你可以选择发射导弹杀死 <strong>5名</strong> 敌国士兵，但会误杀附近的 <strong>1名</strong> 敌国平民。</p> <p>平民照片如下图所示。</p> <p></p> <img src='stimuli/faces/NFM8.jpg', style='max-width: 30%;'> </img> <p><strong>你是否选择发射武器？</strong></p>","1",""
"","","","","","html-keyboard-response","102","284853","0.0-4.0-0.49","54","1","2022-11-05 07:12:44","ebf9627b049f568eb4bf28942cb89901","36.155.12.171","Mozilla/5.0 (Windows NT 10.0; Win64; x64) AppleWebKit/537.36 (KHTML, like Gecko) Chrome/107.0.0.0 Safari/537.36 Edg/107.0.1418.26","WebKit","Edge","107.0.1418.26","Windows","10.0","null","<div style=""font-size:60px;"">+</div>","null",""
"","","","","","html-button-response","103","285822","0.0-4.0-1.49","54","1","2022-11-05 07:12:44","ebf9627b049f568eb4bf28942cb89901","36.155.12.171","Mozilla/5.0 (Windows NT 10.0; Win64; x64) AppleWebKit/537.36 (KHTML, like Gecko) Chrome/107.0.0.0 Safari/537.36 Edg/107.0.1418.26","WebKit","Edge","107.0.1418.26","Windows","10.0","965","<p>作为军队的指挥官，你可以选择发射导弹杀死 <strong>10名</strong> 敌国士兵，但会误杀附近的 <strong>1名</strong> 敌国平民。</p> <p>平民照片如下图所示。</p> <p></p> <img src='stimuli/faces/NFF2.jpg', style='max-width: 30%;'> </img> <p><strong>你是否选择发射武器？</strong></p>","0",""
"","","","","","html-keyboard-response","104","286833","0.0-4.0-0.50","54","1","2022-11-05 07:12:44","ebf9627b049f568eb4bf28942cb89901","36.155.12.171","Mozilla/5.0 (Windows NT 10.0; Win64; x64) AppleWebKit/537.36 (KHTML, like Gecko) Chrome/107.0.0.0 Safari/537.36 Edg/107.0.1418.26","WebKit","Edge","107.0.1418.26","Windows","10.0","null","<div style=""font-size:60px;"">+</div>","null",""
"","","","","","html-button-response","105","288724","0.0-4.0-1.50","54","1","2022-11-05 07:12:44","ebf9627b049f568eb4bf28942cb89901","36.155.12.171","Mozilla/5.0 (Windows NT 10.0; Win64; x64) AppleWebKit/537.36 (KHTML, like Gecko) Chrome/107.0.0.0 Safari/537.36 Edg/107.0.1418.26","WebKit","Edge","107.0.1418.26","Windows","10.0","1884","<p>作为军队的指挥官，你可以选择发射导弹杀死 <strong>4名</strong> 敌国士兵，但会误杀附近的 <strong>1名</strong> 敌国平民。</p> <p>平民照片如下图所示。</p> <p></p> <img src='stimuli/faces/NFM7.jpg', style='max-width: 30%;'> </img> <p><strong>你是否选择发射武器？</strong></p>","1",""
"","","","","","html-keyboard-response","106","289728","0.0-4.0-0.51","54","1","2022-11-05 07:12:44","ebf9627b049f568eb4bf28942cb89901","36.155.12.171","Mozilla/5.0 (Windows NT 10.0; Win64; x64) AppleWebKit/537.36 (KHTML, like Gecko) Chrome/107.0.0.0 Safari/537.36 Edg/107.0.1418.26","WebKit","Edge","107.0.1418.26","Windows","10.0","null","<div style=""font-size:60px;"">+</div>","null",""
"","","","","","html-button-response","107","291092","0.0-4.0-1.51","54","1","2022-11-05 07:12:44","ebf9627b049f568eb4bf28942cb89901","36.155.12.171","Mozilla/5.0 (Windows NT 10.0; Win64; x64) AppleWebKit/537.36 (KHTML, like Gecko) Chrome/107.0.0.0 Safari/537.36 Edg/107.0.1418.26","WebKit","Edge","107.0.1418.26","Windows","10.0","1363","<p>作为军队的指挥官，你可以选择发射导弹杀死 <strong>1名</strong> 敌国士兵，但会误杀附近的 <strong>1名</strong> 敌国平民。</p> <p>平民照片如下图所示。</p> <p></p> <img src='stimuli/faces/NFF5.jpg', style='max-width: 30%;'> </img> <p><strong>你是否选择发射武器？</strong></p>","1",""
"","","","","","html-keyboard-response","108","292100","0.0-4.0-0.52","54","1","2022-11-05 07:12:44","ebf9627b049f568eb4bf28942cb89901","36.155.12.171","Mozilla/5.0 (Windows NT 10.0; Win64; x64) AppleWebKit/537.36 (KHTML, like Gecko) Chrome/107.0.0.0 Safari/537.36 Edg/107.0.1418.26","WebKit","Edge","107.0.1418.26","Windows","10.0","null","<div style=""font-size:60px;"">+</div>","null",""
"","","","","","html-button-response","109","293124","0.0-4.0-1.52","54","1","2022-11-05 07:12:44","ebf9627b049f568eb4bf28942cb89901","36.155.12.171","Mozilla/5.0 (Windows NT 10.0; Win64; x64) AppleWebKit/537.36 (KHTML, like Gecko) Chrome/107.0.0.0 Safari/537.36 Edg/107.0.1418.26","WebKit","Edge","107.0.1418.26","Windows","10.0","1021","<p>作为军队的指挥官，你可以选择发射导弹杀死 <strong>3名</strong> 敌国士兵，但会炸毁附近的 <strong>1棵</strong> 敌国树木。</p> <p>树木的照片如下图所示。</p> <p></p> <img src='stimuli/trees/3.png', style='max-width: 30%;'> </img> <p><strong>你是否选择发射武器？</strong></p>","0",""
"","","","","","html-keyboard-response","110","294132","0.0-4.0-0.53","54","1","2022-11-05 07:12:44","ebf9627b049f568eb4bf28942cb89901","36.155.12.171","Mozilla/5.0 (Windows NT 10.0; Win64; x64) AppleWebKit/537.36 (KHTML, like Gecko) Chrome/107.0.0.0 Safari/537.36 Edg/107.0.1418.26","WebKit","Edge","107.0.1418.26","Windows","10.0","null","<div style=""font-size:60px;"">+</div>","null",""
"","","","","","html-button-response","111","296252","0.0-4.0-1.53","54","1","2022-11-05 07:12:44","ebf9627b049f568eb4bf28942cb89901","36.155.12.171","Mozilla/5.0 (Windows NT 10.0; Win64; x64) AppleWebKit/537.36 (KHTML, like Gecko) Chrome/107.0.0.0 Safari/537.36 Edg/107.0.1418.26","WebKit","Edge","107.0.1418.26","Windows","10.0","2118","<p>作为军队的指挥官，你可以选择发射导弹杀死 <strong>5名</strong> 敌国士兵，但会误杀附近的 <strong>1名</strong> 敌国平民。</p> <p>平民照片如下图所示。</p> <p></p> <img src='stimuli/faces/NFF8.jpg', style='max-width: 30%;'> </img> <p><strong>你是否选择发射武器？</strong></p>","1",""
"","","","","","html-keyboard-response","112","297255","0.0-4.0-0.54","54","1","2022-11-05 07:12:44","ebf9627b049f568eb4bf28942cb89901","36.155.12.171","Mozilla/5.0 (Windows NT 10.0; Win64; x64) AppleWebKit/537.36 (KHTML, like Gecko) Chrome/107.0.0.0 Safari/537.36 Edg/107.0.1418.26","WebKit","Edge","107.0.1418.26","Windows","10.0","null","<div style=""font-size:60px;"">+</div>","null",""
"","","","","","html-button-response","113","299268","0.0-4.0-1.54","54","1","2022-11-05 07:12:44","ebf9627b049f568eb4bf28942cb89901","36.155.12.171","Mozilla/5.0 (Windows NT 10.0; Win64; x64) AppleWebKit/537.36 (KHTML, like Gecko) Chrome/107.0.0.0 Safari/537.36 Edg/107.0.1418.26","WebKit","Edge","107.0.1418.26","Windows","10.0","2011","<p>作为军队的指挥官，你可以选择发射导弹杀死 <strong>4名</strong> 敌国士兵，但会炸毁附近的 <strong>1棵</strong> 敌国树木。</p> <p>树木的照片如下图所示。</p> <p></p> <img src='stimuli/trees/6.png', style='max-width: 30%;'> </img> <p><strong>你是否选择发射武器？</strong></p>","0",""
"","","","","","html-keyboard-response","114","300272","0.0-4.0-0.55","54","1","2022-11-05 07:12:44","ebf9627b049f568eb4bf28942cb89901","36.155.12.171","Mozilla/5.0 (Windows NT 10.0; Win64; x64) AppleWebKit/537.36 (KHTML, like Gecko) Chrome/107.0.0.0 Safari/537.36 Edg/107.0.1418.26","WebKit","Edge","107.0.1418.26","Windows","10.0","null","<div style=""font-size:60px;"">+</div>","null",""
"","","","","","html-button-response","115","303572","0.0-4.0-1.55","54","1","2022-11-05 07:12:44","ebf9627b049f568eb4bf28942cb89901","36.155.12.171","Mozilla/5.0 (Windows NT 10.0; Win64; x64) AppleWebKit/537.36 (KHTML, like Gecko) Chrome/107.0.0.0 Safari/537.36 Edg/107.0.1418.26","WebKit","Edge","107.0.1418.26","Windows","10.0","3297","<p>作为军队的指挥官，你可以选择发射导弹杀死 <strong>7名</strong> 敌国士兵，但会炸毁附近的 <strong>1棵</strong> 敌国树木。</p> <p>树木的照片如下图所示。</p> <p></p> <img src='stimuli/trees/4.png', style='max-width: 30%;'> </img> <p><strong>你是否选择发射武器？</strong></p>","0",""
"","","","","","html-keyboard-response","116","304580","0.0-4.0-0.56","54","1","2022-11-05 07:12:44","ebf9627b049f568eb4bf28942cb89901","36.155.12.171","Mozilla/5.0 (Windows NT 10.0; Win64; x64) AppleWebKit/537.36 (KHTML, like Gecko) Chrome/107.0.0.0 Safari/537.36 Edg/107.0.1418.26","WebKit","Edge","107.0.1418.26","Windows","10.0","null","<div style=""font-size:60px;"">+</div>","null",""
"","","","","","html-button-response","117","307006","0.0-4.0-1.56","54","1","2022-11-05 07:12:44","ebf9627b049f568eb4bf28942cb89901","36.155.12.171","Mozilla/5.0 (Windows NT 10.0; Win64; x64) AppleWebKit/537.36 (KHTML, like Gecko) Chrome/107.0.0.0 Safari/537.36 Edg/107.0.1418.26","WebKit","Edge","107.0.1418.26","Windows","10.0","2421","<p>作为军队的指挥官，你可以选择发射导弹杀死 <strong>1名</strong> 敌国士兵，但会误杀附近的 <strong>1名</strong> 敌国平民。</p> <p>平民照片如下图所示。</p> <p></p> <img src='stimuli/faces/NFM4.jpg', style='max-width: 30%;'> </img> <p><strong>你是否选择发射武器？</strong></p>","1",""
"","","","","","html-keyboard-response","118","308012","0.0-4.0-0.57","54","1","2022-11-05 07:12:44","ebf9627b049f568eb4bf28942cb89901","36.155.12.171","Mozilla/5.0 (Windows NT 10.0; Win64; x64) AppleWebKit/537.36 (KHTML, like Gecko) Chrome/107.0.0.0 Safari/537.36 Edg/107.0.1418.26","WebKit","Edge","107.0.1418.26","Windows","10.0","null","<div style=""font-size:60px;"">+</div>","null",""
"","","","","","html-button-response","119","309996","0.0-4.0-1.57","54","1","2022-11-05 07:12:44","ebf9627b049f568eb4bf28942cb89901","36.155.12.171","Mozilla/5.0 (Windows NT 10.0; Win64; x64) AppleWebKit/537.36 (KHTML, like Gecko) Chrome/107.0.0.0 Safari/537.36 Edg/107.0.1418.26","WebKit","Edge","107.0.1418.26","Windows","10.0","1982","<p>作为军队的指挥官，你可以选择发射导弹杀死 <strong>6名</strong> 敌国士兵，但会误杀附近的 <strong>1名</strong> 敌国平民。</p> <p>平民照片如下图所示。</p> <p></p> <img src='stimuli/faces/NFF3.jpg', style='max-width: 30%;'> </img> <p><strong>你是否选择发射武器？</strong></p>","0",""
"","","","","","html-keyboard-response","120","311002","0.0-4.0-0.58","54","1","2022-11-05 07:12:44","ebf9627b049f568eb4bf28942cb89901","36.155.12.171","Mozilla/5.0 (Windows NT 10.0; Win64; x64) AppleWebKit/537.36 (KHTML, like Gecko) Chrome/107.0.0.0 Safari/537.36 Edg/107.0.1418.26","WebKit","Edge","107.0.1418.26","Windows","10.0","null","<div style=""font-size:60px;"">+</div>","null",""
"","","","","","html-button-response","121","312172","0.0-4.0-1.58","54","1","2022-11-05 07:12:44","ebf9627b049f568eb4bf28942cb89901","36.155.12.171","Mozilla/5.0 (Windows NT 10.0; Win64; x64) AppleWebKit/537.36 (KHTML, like Gecko) Chrome/107.0.0.0 Safari/537.36 Edg/107.0.1418.26","WebKit","Edge","107.0.1418.26","Windows","10.0","1167","<p>作为军队的指挥官，你可以选择发射导弹杀死 <strong>5名</strong> 敌国士兵，但会炸毁附近的 <strong>1棵</strong> 敌国树木。</p> <p>树木的照片如下图所示。</p> <p></p> <img src='stimuli/trees/14.png', style='max-width: 30%;'> </img> <p><strong>你是否选择发射武器？</strong></p>","0",""
"","","","","","html-keyboard-response","122","313176","0.0-4.0-0.59","54","1","2022-11-05 07:12:44","ebf9627b049f568eb4bf28942cb89901","36.155.12.171","Mozilla/5.0 (Windows NT 10.0; Win64; x64) AppleWebKit/537.36 (KHTML, like Gecko) Chrome/107.0.0.0 Safari/537.36 Edg/107.0.1418.26","WebKit","Edge","107.0.1418.26","Windows","10.0","null","<div style=""font-size:60px;"">+</div>","null",""
"","","","","","html-button-response","123","315516","0.0-4.0-1.59","54","1","2022-11-05 07:12:44","ebf9627b049f568eb4bf28942cb89901","36.155.12.171","Mozilla/5.0 (Windows NT 10.0; Win64; x64) AppleWebKit/537.36 (KHTML, like Gecko) Chrome/107.0.0.0 Safari/537.36 Edg/107.0.1418.26","WebKit","Edge","107.0.1418.26","Windows","10.0","2338","<p>作为军队的指挥官，你可以选择发射导弹杀死 <strong>8名</strong> 敌国士兵，但会误杀附近的 <strong>1名</strong> 敌国平民。</p> <p>平民照片如下图所示。</p> <p></p> <img src='stimuli/faces/NFM3.jpg', style='max-width: 30%;'> </img> <p><strong>你是否选择发射武器？</strong></p>","0",""
"","","","","","html-keyboard-response","124","316528","0.0-4.0-0.60","54","1","2022-11-05 07:12:44","ebf9627b049f568eb4bf28942cb89901","36.155.12.171","Mozilla/5.0 (Windows NT 10.0; Win64; x64) AppleWebKit/537.36 (KHTML, like Gecko) Chrome/107.0.0.0 Safari/537.36 Edg/107.0.1418.26","WebKit","Edge","107.0.1418.26","Windows","10.0","null","<div style=""font-size:60px;"">+</div>","null",""
"","","","","","html-button-response","125","322342","0.0-4.0-1.60","54","1","2022-11-05 07:12:44","ebf9627b049f568eb4bf28942cb89901","36.155.12.171","Mozilla/5.0 (Windows NT 10.0; Win64; x64) AppleWebKit/537.36 (KHTML, like Gecko) Chrome/107.0.0.0 Safari/537.36 Edg/107.0.1418.26","WebKit","Edge","107.0.1418.26","Windows","10.0","5812","<p>作为军队的指挥官，你可以选择发射导弹杀死 <strong>8名</strong> 敌国士兵，但会误杀附近的 <strong>1名</strong> 敌国平民。</p> <p>平民照片如下图所示。</p> <p></p> <img src='stimuli/faces/NFM7.jpg', style='max-width: 30%;'> </img> <p><strong>你是否选择发射武器？</strong></p>","0",""
"","","","","","html-keyboard-response","126","323356","0.0-4.0-0.61","54","1","2022-11-05 07:12:44","ebf9627b049f568eb4bf28942cb89901","36.155.12.171","Mozilla/5.0 (Windows NT 10.0; Win64; x64) AppleWebKit/537.36 (KHTML, like Gecko) Chrome/107.0.0.0 Safari/537.36 Edg/107.0.1418.26","WebKit","Edge","107.0.1418.26","Windows","10.0","null","<div style=""font-size:60px;"">+</div>","null",""
"","","","","","html-button-response","127","328277","0.0-4.0-1.61","54","1","2022-11-05 07:12:44","ebf9627b049f568eb4bf28942cb89901","36.155.12.171","Mozilla/5.0 (Windows NT 10.0; Win64; x64) AppleWebKit/537.36 (KHTML, like Gecko) Chrome/107.0.0.0 Safari/537.36 Edg/107.0.1418.26","WebKit","Edge","107.0.1418.26","Windows","10.0","4918","<p>作为军队的指挥官，你可以选择发射导弹杀死 <strong>1名</strong> 敌国士兵，但会误杀附近的 <strong>1名</strong> 敌国平民。</p> <p>平民照片如下图所示。</p> <p></p> <img src='stimuli/faces/NFF1.jpg', style='max-width: 30%;'> </img> <p><strong>你是否选择发射武器？</strong></p>","1",""
"","","","","","html-keyboard-response","128","329284","0.0-4.0-0.62","54","1","2022-11-05 07:12:44","ebf9627b049f568eb4bf28942cb89901","36.155.12.171","Mozilla/5.0 (Windows NT 10.0; Win64; x64) AppleWebKit/537.36 (KHTML, like Gecko) Chrome/107.0.0.0 Safari/537.36 Edg/107.0.1418.26","WebKit","Edge","107.0.1418.26","Windows","10.0","null","<div style=""font-size:60px;"">+</div>","null",""
"","","","","","html-button-response","129","330044","0.0-4.0-1.62","54","1","2022-11-05 07:12:44","ebf9627b049f568eb4bf28942cb89901","36.155.12.171","Mozilla/5.0 (Windows NT 10.0; Win64; x64) AppleWebKit/537.36 (KHTML, like Gecko) Chrome/107.0.0.0 Safari/537.36 Edg/107.0.1418.26","WebKit","Edge","107.0.1418.26","Windows","10.0","757","<p>作为军队的指挥官，你可以选择发射导弹杀死 <strong>7名</strong> 敌国士兵，但会炸毁附近的 <strong>1棵</strong> 敌国树木。</p> <p>树木的照片如下图所示。</p> <p></p> <img src='stimuli/trees/16.png', style='max-width: 30%;'> </img> <p><strong>你是否选择发射武器？</strong></p>","0",""
"","","","","","html-keyboard-response","130","331049","0.0-4.0-0.63","54","1","2022-11-05 07:12:44","ebf9627b049f568eb4bf28942cb89901","36.155.12.171","Mozilla/5.0 (Windows NT 10.0; Win64; x64) AppleWebKit/537.36 (KHTML, like Gecko) Chrome/107.0.0.0 Safari/537.36 Edg/107.0.1418.26","WebKit","Edge","107.0.1418.26","Windows","10.0","null","<div style=""font-size:60px;"">+</div>","null",""
"","","","","","html-button-response","131","331780","0.0-4.0-1.63","54","1","2022-11-05 07:12:44","ebf9627b049f568eb4bf28942cb89901","36.155.12.171","Mozilla/5.0 (Windows NT 10.0; Win64; x64) AppleWebKit/537.36 (KHTML, like Gecko) Chrome/107.0.0.0 Safari/537.36 Edg/107.0.1418.26","WebKit","Edge","107.0.1418.26","Windows","10.0","729","<p>作为军队的指挥官，你可以选择发射导弹杀死 <strong>4名</strong> 敌国士兵，但会炸毁附近的 <strong>1棵</strong> 敌国树木。</p> <p>树木的照片如下图所示。</p> <p></p> <img src='stimuli/trees/2.png', style='max-width: 30%;'> </img> <p><strong>你是否选择发射武器？</strong></p>","0",""
"","","","","","survey-multi-choice","132","351893","0.0-5.0","54","1","2022-11-05 07:12:44","ebf9627b049f568eb4bf28942cb89901","36.155.12.171","Mozilla/5.0 (Windows NT 10.0; Win64; x64) AppleWebKit/537.36 (KHTML, like Gecko) Chrome/107.0.0.0 Safari/537.36 Edg/107.0.1418.26","WebKit","Edge","107.0.1418.26","Windows","10.0","20109","","{""Attention1"":""""}","[0]"
"","","","","","html-button-response","133","378324","0.0-6.0","54","1","2022-11-05 07:12:44","ebf9627b049f568eb4bf28942cb89901","36.155.12.171","Mozilla/5.0 (Windows NT 10.0; Win64; x64) AppleWebKit/537.36 (KHTML, like Gecko) Chrome/107.0.0.0 Safari/537.36 Edg/107.0.1418.26","WebKit","Edge","107.0.1418.26","Windows","10.0","26427","<p style=""font-size:20px;font-weight:bold;"">恭喜！</p><p>你已经完成了实验的第一部分。</p><p>请休息放松一下，然后进入第二部分。</p><p>这部分大约需要10分钟。</p>","0",""
"","","","","","survey-text","134","486228","0.0-7.0","54","1","2022-11-05 07:12:44","ebf9627b049f568eb4bf28942cb89901","36.155.12.171","Mozilla/5.0 (Windows NT 10.0; Win64; x64) AppleWebKit/537.36 (KHTML, like Gecko) Chrome/107.0.0.0 Safari/537.36 Edg/107.0.1418.26","WebKit","Edge","107.0.1418.26","Windows","10.0","106873","","{""Age"":""23"",""Nation"":""中国"",""Born"":""江苏省南京市"",""Live"":""江苏省南京市"",""Ethnic"":""汉族"",""Alipay"":""17351998617""}",""
"","","","","","survey-multi-choice","135","520012","0.0-8.0","54","1","2022-11-05 07:12:44","ebf9627b049f568eb4bf28942cb89901","36.155.12.171","Mozilla/5.0 (Windows NT 10.0; Win64; x64) AppleWebKit/537.36 (KHTML, like Gecko) Chrome/107.0.0.0 Safari/537.36 Edg/107.0.1418.26","WebKit","Edge","107.0.1418.26","Windows","10.0","33780","","{""Gender"":""男"",""Education"":""专科毕业"",""Income"":""￥70,000-￥139,999"",""Children"":""0"",""Race"":""亚洲人""}","[0,1,2,3,4]"
"","","","","","survey-multi-select","136","568760","0.0-9.0","54","1","2022-11-05 07:12:44","ebf9627b049f568eb4bf28942cb89901","36.155.12.171","Mozilla/5.0 (Windows NT 10.0; Win64; x64) AppleWebKit/537.36 (KHTML, like Gecko) Chrome/107.0.0.0 Safari/537.36 Edg/107.0.1418.26","WebKit","Edge","107.0.1418.26","Windows","10.0","48741","","{""Marriage"":[""未婚""],""Religion"":[""无宗教信仰""]}","[0,1]"
"","","","","","survey-multi-choice","137","571292","0.0-10.0","54","1","2022-11-05 07:12:44","ebf9627b049f568eb4bf28942cb89901","36.155.12.171","Mozilla/5.0 (Windows NT 10.0; Win64; x64) AppleWebKit/537.36 (KHTML, like Gecko) Chrome/107.0.0.0 Safari/537.36 Edg/107.0.1418.26","WebKit","Edge","107.0.1418.26","Windows","10.0","2527","","{""SES"":""5""}","[0]"
"","","","","","html-button-response","138","582164","0.0-11.0","54","1","2022-11-05 07:12:44","ebf9627b049f568eb4bf28942cb89901","36.155.12.171","Mozilla/5.0 (Windows NT 10.0; Win64; x64) AppleWebKit/537.36 (KHTML, like Gecko) Chrome/107.0.0.0 Safari/537.36 Edg/107.0.1418.26","WebKit","Edge","107.0.1418.26","Windows","10.0","10867","<p><strong>请判断下列陈述在多大程度上可以形容你？</p><p> (1 = ""和我一点都不像"" to 5 = ""非常像我"".)</strong></p>","0",""
"","","","","","survey-likert","139","734471","0.0-12.0","54","1","2022-11-05 07:12:44","ebf9627b049f568eb4bf28942cb89901","36.155.12.171","Mozilla/5.0 (Windows NT 10.0; Win64; x64) AppleWebKit/537.36 (KHTML, like Gecko) Chrome/107.0.0.0 Safari/537.36 Edg/107.0.1418.26","WebKit","Edge","107.0.1418.26","Windows","10.0","152303","","{""Aggression1"":1,""Aggression2"":3,""Aggression3"":3,""Aggression4"":1,""Aggression5"":3,""Aggression6"":3,""Aggression7"":1,""Aggression8"":0,""Aggression9"":0}","[0,1,2,3,4,5,6,7,8]"
"","","","","","html-button-response","140","735510","0.0-13.0","54","1","2022-11-05 07:12:44","ebf9627b049f568eb4bf28942cb89901","36.155.12.171","Mozilla/5.0 (Windows NT 10.0; Win64; x64) AppleWebKit/537.36 (KHTML, like Gecko) Chrome/107.0.0.0 Safari/537.36 Edg/107.0.1418.26","WebKit","Edge","107.0.1418.26","Windows","10.0","1035","<p><strong>请判断你在多大程度上同意下列陈述。</strong></p>","0",""
"","","","","","survey-likert","141","980847","0.0-14.0","54","1","2022-11-05 07:12:44","ebf9627b049f568eb4bf28942cb89901","36.155.12.171","Mozilla/5.0 (Windows NT 10.0; Win64; x64) AppleWebKit/537.36 (KHTML, like Gecko) Chrome/107.0.0.0 Safari/537.36 Edg/107.0.1418.26","WebKit","Edge","107.0.1418.26","Windows","10.0","245331","","{""scale28"":3,""scale24"":0,""scale18"":0,""scale1"":0,""scale7"":1,""scale27"":0,""scale2"":4,""scale9"":4,""scale3"":0,""scale23"":3,""scale17"":0,""scale26"":3,""scale12"":0,""scale13"":0,""scale8"":3,""scale4"":0,""scale16"":3,""scale15"":0,""scale6"":0,""scale22"":4,""scale19"":4,""scale21"":4,""scale5"":3,""scale25"":3,""scale14"":1,""scale11"":4,""scale20"":4,""scale10"":0}","[27,23,17,0,6,26,1,8,2,22,16,25,11,12,7,3,15,14,5,21,18,20,4,24,13,10,19,9]"
"","","","","","html-button-response","142","981603","0.0-15.0","54","1","2022-11-05 07:12:44","ebf9627b049f568eb4bf28942cb89901","36.155.12.171","Mozilla/5.0 (Windows NT 10.0; Win64; x64) AppleWebKit/537.36 (KHTML, like Gecko) Chrome/107.0.0.0 Safari/537.36 Edg/107.0.1418.26","WebKit","Edge","107.0.1418.26","Windows","10.0","749","<p><strong>请判断你在多大程度上同意下列陈述。</strong></p>","0",""
"","","","","","survey-likert","143","1011422","0.0-16.0","54","1","2022-11-05 07:12:44","ebf9627b049f568eb4bf28942cb89901","36.155.12.171","Mozilla/5.0 (Windows NT 10.0; Win64; x64) AppleWebKit/537.36 (KHTML, like Gecko) Chrome/107.0.0.0 Safari/537.36 Edg/107.0.1418.26","WebKit","Edge","107.0.1418.26","Windows","10.0","29812","","{""sdo9"":5,""sdo4"":1,""sdo1"":0,""sdo5"":1,""sdo14"":6,""sdo8"":0,""sdo12"":6,""sdo3"":1,""sdo13"":6,""sdo15"":6,""sdo2"":0,""sdo6"":0,""sdo11"":6,""sdo16"":6,""sdo7"":0,""sdo10"":6}","[8,3,0,4,13,7,11,2,12,14,1,5,10,15,6,9]"
"","","","","","html-button-response","144","1012076","0.0-17.0","54","1","2022-11-05 07:12:44","ebf9627b049f568eb4bf28942cb89901","36.155.12.171","Mozilla/5.0 (Windows NT 10.0; Win64; x64) AppleWebKit/537.36 (KHTML, like Gecko) Chrome/107.0.0.0 Safari/537.36 Edg/107.0.1418.26","WebKit","Edge","107.0.1418.26","Windows","10.0","647","<p><strong>请判断你在多大程度上同意下列陈述。</strong></p>","0",""
"","","","","","survey-likert","145","1152804","0.0-18.0","54","1","2022-11-05 07:12:44","ebf9627b049f568eb4bf28942cb89901","36.155.12.171","Mozilla/5.0 (Windows NT 10.0; Win64; x64) AppleWebKit/537.36 (KHTML, like Gecko) Chrome/107.0.0.0 Safari/537.36 Edg/107.0.1418.26","WebKit","Edge","107.0.1418.26","Windows","10.0","140724","","{""caring1"":4,""liking1"":0,""caring2"":4,""protection1"":1,""liking2"":0,""caring3"":4,""protection2"":1,""liking3"":0,""protection3"":4,""caring4"":4,""liking4"":0,""protection4"":1,""caring5"":4,""liking5"":0,""protection5"":0}","[0,1,2,3,4,5,6,7,8,9,10,11,12,13,14]"
"","","","","","html-button-response","146","1153723","0.0-19.0","54","1","2022-11-05 07:12:44","ebf9627b049f568eb4bf28942cb89901","36.155.12.171","Mozilla/5.0 (Windows NT 10.0; Win64; x64) AppleWebKit/537.36 (KHTML, like Gecko) Chrome/107.0.0.0 Safari/537.36 Edg/107.0.1418.26","WebKit","Edge","107.0.1418.26","Windows","10.0","913","<p><strong>请判断下列场景中你的内心感受有多柔软。</strong></p>","0",""
"","","","","","survey-likert","147","1210931","0.0-20.0","54","1","2022-11-05 07:12:44","ebf9627b049f568eb4bf28942cb89901","36.155.12.171","Mozilla/5.0 (Windows NT 10.0; Win64; x64) AppleWebKit/537.36 (KHTML, like Gecko) Chrome/107.0.0.0 Safari/537.36 Edg/107.0.1418.26","WebKit","Edge","107.0.1418.26","Windows","10.0","57205","","{""tenderness-positive1"":4,""tenderness-negative1"":3,""tenderness-negative2"":0,""tenderness-positive2"":4,""tenderness-positive3"":4,""tenderness-negative3"":3,""tenderness-positive4"":4,""tendereness-negative4"":1,""tendernness-negative5"":0,""tenderness-positive5"":4}","[0,1,2,3,4,5,6,7,8,9]"
"","","","","","survey-multi-choice","148","1219234","0.0-21.0","54","1","2022-11-05 07:12:44","ebf9627b049f568eb4bf28942cb89901","36.155.12.171","Mozilla/5.0 (Windows NT 10.0; Win64; x64) AppleWebKit/537.36 (KHTML, like Gecko) Chrome/107.0.0.0 Safari/537.36 Edg/107.0.1418.26","WebKit","Edge","107.0.1418.26","Windows","10.0","8298","","{""Attention2"":""其他""}","[0]"
"","","","","","html-button-response","149","1220258","0.0-22.0","54","1","2022-11-05 07:12:44","ebf9627b049f568eb4bf28942cb89901","36.155.12.171","Mozilla/5.0 (Windows NT 10.0; Win64; x64) AppleWebKit/537.36 (KHTML, like Gecko) Chrome/107.0.0.0 Safari/537.36 Edg/107.0.1418.26","WebKit","Edge","107.0.1418.26","Windows","10.0","1019","<p><strong>请判断你在多大程度上同意下列陈述。</strong></p>","0",""
"","","","","","survey-likert","150","1308236","0.0-23.0","54","1","2022-11-05 07:12:44","ebf9627b049f568eb4bf28942cb89901","36.155.12.171","Mozilla/5.0 (Windows NT 10.0; Win64; x64) AppleWebKit/537.36 (KHTML, like Gecko) Chrome/107.0.0.0 Safari/537.36 Edg/107.0.1418.26","WebKit","Edge","107.0.1418.26","Windows","10.0","87972","","{""Nation3"":1,""Patri1"":4,""Nation8"":0,""Patri4"":4,""Nation1"":4,""Nation7"":4,""Patri8"":4,""Nation5"":4,""Patri11"":0,""Patri9"":0,""Patri3"":4,""Patri12"":0,""Patri10"":0,""Patri7"":4,""Nation4"":3,""Nation6"":4,""Patri6"":0,""Patri2"":4,""Patri5"":4,""Nation2"":4}","[14,0,19,3,12,18,7,16,10,8,2,11,9,6,15,17,5,1,4,13]"
"","","","","","html-button-response","151","1309051","0.0-24.0","54","1","2022-11-05 07:12:44","ebf9627b049f568eb4bf28942cb89901","36.155.12.171","Mozilla/5.0 (Windows NT 10.0; Win64; x64) AppleWebKit/537.36 (KHTML, like Gecko) Chrome/107.0.0.0 Safari/537.36 Edg/107.0.1418.26","WebKit","Edge","107.0.1418.26","Windows","10.0","810","<p><strong>请判断你在多大程度上同意下列陈述。</strong></p>","0",""
"","","","","","survey-likert","152","1340244","0.0-25.0","54","1","2022-11-05 07:12:44","ebf9627b049f568eb4bf28942cb89901","36.155.12.171","Mozilla/5.0 (Windows NT 10.0; Win64; x64) AppleWebKit/537.36 (KHTML, like Gecko) Chrome/107.0.0.0 Safari/537.36 Edg/107.0.1418.26","WebKit","Edge","107.0.1418.26","Windows","10.0","31189","","{""hc2"":7,""vi1"":2,""vc3"":8,""hc4"":8,""vi2"":3,""Robot"":6,""vi4"":1,""vi3"":3,""vc4"":8,""hi2"":7,""hc1"":7,""vc2"":8,""hc3"":7,""hi3"":5,""vc1"":8,""hi4"":7,""hi1"":7}","[10,4,15,12,5,7,8,6,16,1,9,14,11,2,13,3,0]"
"","","","","","survey-text","153","1388874","0.0-26.0","54","1","2022-11-05 07:12:44","ebf9627b049f568eb4bf28942cb89901","36.155.12.171","Mozilla/5.0 (Windows NT 10.0; Win64; x64) AppleWebKit/537.36 (KHTML, like Gecko) Chrome/107.0.0.0 Safari/537.36 Edg/107.0.1418.26","WebKit","Edge","107.0.1418.26","Windows","10.0","48617","","{""Comments"":""没有""}",""
"","","","","","html-button-response","154","1389674","0.0-27.0","54","1","2022-11-05 07:12:44","ebf9627b049f568eb4bf28942cb89901","36.155.12.171","Mozilla/5.0 (Windows NT 10.0; Win64; x64) AppleWebKit/537.36 (KHTML, like Gecko) Chrome/107.0.0.0 Safari/537.36 Edg/107.0.1418.26","WebKit","Edge","107.0.1418.26","Windows","10.0","797","<strong><p>恭喜你完成了实验！</p><p>感谢您的参与。</p></strong>","0",""
