"success","timeout","failed_images","failed_audio","failed_video","trial_type","trial_index","time_elapsed","internal_node_id","run_id","condition","recorded_at","source_code_version","ip","user_agent","device","browser","browser_version","platform","platform_version","rt","stimulus","response","question_order"
"true","false","[]","[]","[]","preload","0","19197","0.0-0.0","7","1","2022-11-03 06:20:45","ebf9627b049f568eb4bf28942cb89901","219.142.99.5","Mozilla/5.0 (Windows NT 10.0; Win64; x64) AppleWebKit/537.36 (KHTML, like Gecko) Chrome/107.0.0.0 Safari/537.36 Edg/107.0.1418.26","WebKit","Edge","107.0.1418.26","Windows","10.0","","","",""
"true","","","","","fullscreen","1","448800","0.0-1.0","7","1","2022-11-03 06:20:45","ebf9627b049f568eb4bf28942cb89901","219.142.99.5","Mozilla/5.0 (Windows NT 10.0; Win64; x64) AppleWebKit/537.36 (KHTML, like Gecko) Chrome/107.0.0.0 Safari/537.36 Edg/107.0.1418.26","WebKit","Edge","107.0.1418.26","Windows","10.0","","","",""
"","","","","","html-button-response","2","459279","0.0-2.0","7","1","2022-11-03 06:20:45","ebf9627b049f568eb4bf28942cb89901","219.142.99.5","Mozilla/5.0 (Windows NT 10.0; Win64; x64) AppleWebKit/537.36 (KHTML, like Gecko) Chrome/107.0.0.0 Safari/537.36 Edg/107.0.1418.26","WebKit","Edge","107.0.1418.26","Windows","10.0","10477","<p style=""font-size:20px;font-weight:bold;"">实验知情同意书</p><p style=""text-align:left;""><strong>实验名称：</strong>社会冲突研究</p><p style=""text-align:left;""><strong>主要研究者：</strong>韩晓春副教授（北京师范大学心理学部）</p><p style=""text-align:left;""><strong>联系方式：</strong>发送邮件至xiaochun.han@bnu.edu.cn</p><p style=""text-align:left;""><strong>研究目的：</strong>研究旨在了解人类面对群体冲突时的决策方式，以及相关的心理学特质。实验调查大约需要20分钟。</p><p style=""text-align:left;""><strong>实验流程：</strong>实验包含两部分。第一部分呈现一系列群体冲突场景，请你决定如何对这些冲突进行反应，大约需要10分钟完成。第二部分包含一系列人口统计学信息收集和心理学问卷，大约需要10分钟完成。</p><p style=""text-align:left;""><strong>参加及退出规则：</strong>参加本实验完全取决于您的个人意愿。在参与过程中，您可以随时退出，并且不用承担任何后果。</p><p style=""text-align:left;""><strong>隐私：</strong>本实验完全匿名进行，不会收集您的姓名或其他能够识别您身份的信息。实验中收集的作答仅用作科学研究使用，可能会在学术期刊/书籍上发表，或者用于教学，您的数据未来可能会和其他研究者或实验室分享，但您的个人身份不会被识别。</p><p style=""text-align:left;""><strong>实验报酬：</strong>实验完成后，您将获得15元人民币报酬，以感谢您的时间和努力。调查问卷中包含几道题目用以测验您作答时的认真度。只有完成全部实验，并且正确回答认真度测验的被试才能获得实验报酬。实验报酬将通过支付宝转账发放。</p><p style=""text-align:left;font-size:20px;""><strong>如果您同意以上实验知情同意书的内容，请点击'同意并且开始实验'按钮；否则请关闭浏览器界面，退出实验。</strong></p>","0",""
"","","","","","html-button-response","3","476543","0.0-3.0","7","1","2022-11-03 06:20:45","ebf9627b049f568eb4bf28942cb89901","219.142.99.5","Mozilla/5.0 (Windows NT 10.0; Win64; x64) AppleWebKit/537.36 (KHTML, like Gecko) Chrome/107.0.0.0 Safari/537.36 Edg/107.0.1418.26","WebKit","Edge","107.0.1418.26","Windows","10.0","17263","<p ><strong>实验任务一：</strong></p><p>请想象你的国家与另一个国家发生了军事冲突。</p><p>你是国家军队的指挥官，你将如何在冲突中进行决策。</p><p>具体来说，作为军队指挥官，请你决定是否发射导弹进行打击。</p><p>接下来，你会面对一系列场景，请仔细阅读每个场景，然后进行决策。</p><p>这部分实验任务大约需要10分钟。</p><p><strong>实验过程中，请集中注意力。</strong></p>","0",""
"","","","","","html-keyboard-response","4","477553","0.0-4.0-0.0","7","1","2022-11-03 06:20:45","ebf9627b049f568eb4bf28942cb89901","219.142.99.5","Mozilla/5.0 (Windows NT 10.0; Win64; x64) AppleWebKit/537.36 (KHTML, like Gecko) Chrome/107.0.0.0 Safari/537.36 Edg/107.0.1418.26","WebKit","Edge","107.0.1418.26","Windows","10.0","null","<div style=""font-size:60px;"">+</div>","null",""
"","","","","","html-button-response","5","485543","0.0-4.0-1.0","7","1","2022-11-03 06:20:45","ebf9627b049f568eb4bf28942cb89901","219.142.99.5","Mozilla/5.0 (Windows NT 10.0; Win64; x64) AppleWebKit/537.36 (KHTML, like Gecko) Chrome/107.0.0.0 Safari/537.36 Edg/107.0.1418.26","WebKit","Edge","107.0.1418.26","Windows","10.0","7989","<p>作为军队的指挥官，你可以选择发射导弹杀死 <strong>1名</strong> 敌国士兵，但会炸毁附近的 <strong>1棵</strong> 敌国树木。</p> <p>树木的照片如下图所示。</p> <p></p> <img src='stimuli/trees/9.png', style='max-width: 30%;'> </img> <p><strong>你是否选择发射武器？</strong></p>","1",""
"","","","","","html-keyboard-response","6","486546","0.0-4.0-0.1","7","1","2022-11-03 06:20:45","ebf9627b049f568eb4bf28942cb89901","219.142.99.5","Mozilla/5.0 (Windows NT 10.0; Win64; x64) AppleWebKit/537.36 (KHTML, like Gecko) Chrome/107.0.0.0 Safari/537.36 Edg/107.0.1418.26","WebKit","Edge","107.0.1418.26","Windows","10.0","null","<div style=""font-size:60px;"">+</div>","null",""
"","","","","","html-button-response","7","490952","0.0-4.0-1.1","7","1","2022-11-03 06:20:45","ebf9627b049f568eb4bf28942cb89901","219.142.99.5","Mozilla/5.0 (Windows NT 10.0; Win64; x64) AppleWebKit/537.36 (KHTML, like Gecko) Chrome/107.0.0.0 Safari/537.36 Edg/107.0.1418.26","WebKit","Edge","107.0.1418.26","Windows","10.0","4404","<p>作为军队的指挥官，你可以选择发射导弹杀死 <strong>10名</strong> 敌国士兵，但会误杀附近的 <strong>1名</strong> 敌国平民。</p> <p>平民照片如下图所示。</p> <p></p> <img src='stimuli/faces/NFF8.jpg', style='max-width: 30%;'> </img> <p><strong>你是否选择发射武器？</strong></p>","1",""
"","","","","","html-keyboard-response","8","491961","0.0-4.0-0.2","7","1","2022-11-03 06:20:45","ebf9627b049f568eb4bf28942cb89901","219.142.99.5","Mozilla/5.0 (Windows NT 10.0; Win64; x64) AppleWebKit/537.36 (KHTML, like Gecko) Chrome/107.0.0.0 Safari/537.36 Edg/107.0.1418.26","WebKit","Edge","107.0.1418.26","Windows","10.0","null","<div style=""font-size:60px;"">+</div>","null",""
"","","","","","html-button-response","9","498898","0.0-4.0-1.2","7","1","2022-11-03 06:20:45","ebf9627b049f568eb4bf28942cb89901","219.142.99.5","Mozilla/5.0 (Windows NT 10.0; Win64; x64) AppleWebKit/537.36 (KHTML, like Gecko) Chrome/107.0.0.0 Safari/537.36 Edg/107.0.1418.26","WebKit","Edge","107.0.1418.26","Windows","10.0","6937","<p>作为军队的指挥官，你可以选择发射导弹杀死 <strong>6名</strong> 敌国士兵，但会炸毁附近的 <strong>1棵</strong> 敌国树木。</p> <p>树木的照片如下图所示。</p> <p></p> <img src='stimuli/trees/3.png', style='max-width: 30%;'> </img> <p><strong>你是否选择发射武器？</strong></p>","0",""
"","","","","","html-keyboard-response","10","499912","0.0-4.0-0.3","7","1","2022-11-03 06:20:45","ebf9627b049f568eb4bf28942cb89901","219.142.99.5","Mozilla/5.0 (Windows NT 10.0; Win64; x64) AppleWebKit/537.36 (KHTML, like Gecko) Chrome/107.0.0.0 Safari/537.36 Edg/107.0.1418.26","WebKit","Edge","107.0.1418.26","Windows","10.0","null","<div style=""font-size:60px;"">+</div>","null",""
"","","","","","html-button-response","11","501795","0.0-4.0-1.3","7","1","2022-11-03 06:20:45","ebf9627b049f568eb4bf28942cb89901","219.142.99.5","Mozilla/5.0 (Windows NT 10.0; Win64; x64) AppleWebKit/537.36 (KHTML, like Gecko) Chrome/107.0.0.0 Safari/537.36 Edg/107.0.1418.26","WebKit","Edge","107.0.1418.26","Windows","10.0","1882","<p>作为军队的指挥官，你可以选择发射导弹杀死 <strong>3名</strong> 敌国士兵，但会炸毁附近的 <strong>1棵</strong> 敌国树木。</p> <p>树木的照片如下图所示。</p> <p></p> <img src='stimuli/trees/7.png', style='max-width: 30%;'> </img> <p><strong>你是否选择发射武器？</strong></p>","1",""
"","","","","","html-keyboard-response","12","502797","0.0-4.0-0.4","7","1","2022-11-03 06:20:45","ebf9627b049f568eb4bf28942cb89901","219.142.99.5","Mozilla/5.0 (Windows NT 10.0; Win64; x64) AppleWebKit/537.36 (KHTML, like Gecko) Chrome/107.0.0.0 Safari/537.36 Edg/107.0.1418.26","WebKit","Edge","107.0.1418.26","Windows","10.0","null","<div style=""font-size:60px;"">+</div>","null",""
"","","","","","html-button-response","13","505512","0.0-4.0-1.4","7","1","2022-11-03 06:20:45","ebf9627b049f568eb4bf28942cb89901","219.142.99.5","Mozilla/5.0 (Windows NT 10.0; Win64; x64) AppleWebKit/537.36 (KHTML, like Gecko) Chrome/107.0.0.0 Safari/537.36 Edg/107.0.1418.26","WebKit","Edge","107.0.1418.26","Windows","10.0","2713","<p>作为军队的指挥官，你可以选择发射导弹杀死 <strong>7名</strong> 敌国士兵，但会误杀附近的 <strong>1名</strong> 敌国平民。</p> <p>平民照片如下图所示。</p> <p></p> <img src='stimuli/faces/NFM8.jpg', style='max-width: 30%;'> </img> <p><strong>你是否选择发射武器？</strong></p>","1",""
"","","","","","html-keyboard-response","14","506523","0.0-4.0-0.5","7","1","2022-11-03 06:20:45","ebf9627b049f568eb4bf28942cb89901","219.142.99.5","Mozilla/5.0 (Windows NT 10.0; Win64; x64) AppleWebKit/537.36 (KHTML, like Gecko) Chrome/107.0.0.0 Safari/537.36 Edg/107.0.1418.26","WebKit","Edge","107.0.1418.26","Windows","10.0","null","<div style=""font-size:60px;"">+</div>","null",""
"","","","","","html-button-response","15","508548","0.0-4.0-1.5","7","1","2022-11-03 06:20:45","ebf9627b049f568eb4bf28942cb89901","219.142.99.5","Mozilla/5.0 (Windows NT 10.0; Win64; x64) AppleWebKit/537.36 (KHTML, like Gecko) Chrome/107.0.0.0 Safari/537.36 Edg/107.0.1418.26","WebKit","Edge","107.0.1418.26","Windows","10.0","2023","<p>作为军队的指挥官，你可以选择发射导弹杀死 <strong>6名</strong> 敌国士兵，但会误杀附近的 <strong>1名</strong> 敌国平民。</p> <p>平民照片如下图所示。</p> <p></p> <img src='stimuli/faces/NFM3.jpg', style='max-width: 30%;'> </img> <p><strong>你是否选择发射武器？</strong></p>","1",""
"","","","","","html-keyboard-response","16","509569","0.0-4.0-0.6","7","1","2022-11-03 06:20:45","ebf9627b049f568eb4bf28942cb89901","219.142.99.5","Mozilla/5.0 (Windows NT 10.0; Win64; x64) AppleWebKit/537.36 (KHTML, like Gecko) Chrome/107.0.0.0 Safari/537.36 Edg/107.0.1418.26","WebKit","Edge","107.0.1418.26","Windows","10.0","null","<div style=""font-size:60px;"">+</div>","null",""
"","","","","","html-button-response","17","512275","0.0-4.0-1.6","7","1","2022-11-03 06:20:45","ebf9627b049f568eb4bf28942cb89901","219.142.99.5","Mozilla/5.0 (Windows NT 10.0; Win64; x64) AppleWebKit/537.36 (KHTML, like Gecko) Chrome/107.0.0.0 Safari/537.36 Edg/107.0.1418.26","WebKit","Edge","107.0.1418.26","Windows","10.0","2705","<p>作为军队的指挥官，你可以选择发射导弹杀死 <strong>7名</strong> 敌国士兵，但会误杀附近的 <strong>1名</strong> 敌国平民。</p> <p>平民照片如下图所示。</p> <p></p> <img src='stimuli/faces/NFM6.jpg', style='max-width: 30%;'> </img> <p><strong>你是否选择发射武器？</strong></p>","1",""
"","","","","","html-keyboard-response","18","513297","0.0-4.0-0.7","7","1","2022-11-03 06:20:45","ebf9627b049f568eb4bf28942cb89901","219.142.99.5","Mozilla/5.0 (Windows NT 10.0; Win64; x64) AppleWebKit/537.36 (KHTML, like Gecko) Chrome/107.0.0.0 Safari/537.36 Edg/107.0.1418.26","WebKit","Edge","107.0.1418.26","Windows","10.0","null","<div style=""font-size:60px;"">+</div>","null",""
"","","","","","html-button-response","19","514448","0.0-4.0-1.7","7","1","2022-11-03 06:20:45","ebf9627b049f568eb4bf28942cb89901","219.142.99.5","Mozilla/5.0 (Windows NT 10.0; Win64; x64) AppleWebKit/537.36 (KHTML, like Gecko) Chrome/107.0.0.0 Safari/537.36 Edg/107.0.1418.26","WebKit","Edge","107.0.1418.26","Windows","10.0","1150","<p>作为军队的指挥官，你可以选择发射导弹杀死 <strong>9名</strong> 敌国士兵，但会误杀附近的 <strong>1名</strong> 敌国平民。</p> <p>平民照片如下图所示。</p> <p></p> <img src='stimuli/faces/NFF5.jpg', style='max-width: 30%;'> </img> <p><strong>你是否选择发射武器？</strong></p>","1",""
"","","","","","html-keyboard-response","20","515454","0.0-4.0-0.8","7","1","2022-11-03 06:20:45","ebf9627b049f568eb4bf28942cb89901","219.142.99.5","Mozilla/5.0 (Windows NT 10.0; Win64; x64) AppleWebKit/537.36 (KHTML, like Gecko) Chrome/107.0.0.0 Safari/537.36 Edg/107.0.1418.26","WebKit","Edge","107.0.1418.26","Windows","10.0","null","<div style=""font-size:60px;"">+</div>","null",""
"","","","","","html-button-response","21","516623","0.0-4.0-1.8","7","1","2022-11-03 06:20:45","ebf9627b049f568eb4bf28942cb89901","219.142.99.5","Mozilla/5.0 (Windows NT 10.0; Win64; x64) AppleWebKit/537.36 (KHTML, like Gecko) Chrome/107.0.0.0 Safari/537.36 Edg/107.0.1418.26","WebKit","Edge","107.0.1418.26","Windows","10.0","1168","<p>作为军队的指挥官，你可以选择发射导弹杀死 <strong>7名</strong> 敌国士兵，但会误杀附近的 <strong>1名</strong> 敌国平民。</p> <p>平民照片如下图所示。</p> <p></p> <img src='stimuli/faces/NFM4.jpg', style='max-width: 30%;'> </img> <p><strong>你是否选择发射武器？</strong></p>","1",""
"","","","","","html-keyboard-response","22","517631","0.0-4.0-0.9","7","1","2022-11-03 06:20:45","ebf9627b049f568eb4bf28942cb89901","219.142.99.5","Mozilla/5.0 (Windows NT 10.0; Win64; x64) AppleWebKit/537.36 (KHTML, like Gecko) Chrome/107.0.0.0 Safari/537.36 Edg/107.0.1418.26","WebKit","Edge","107.0.1418.26","Windows","10.0","null","<div style=""font-size:60px;"">+</div>","null",""
"","","","","","html-button-response","23","518528","0.0-4.0-1.9","7","1","2022-11-03 06:20:45","ebf9627b049f568eb4bf28942cb89901","219.142.99.5","Mozilla/5.0 (Windows NT 10.0; Win64; x64) AppleWebKit/537.36 (KHTML, like Gecko) Chrome/107.0.0.0 Safari/537.36 Edg/107.0.1418.26","WebKit","Edge","107.0.1418.26","Windows","10.0","895","<p>作为军队的指挥官，你可以选择发射导弹杀死 <strong>3名</strong> 敌国士兵，但会误杀附近的 <strong>1名</strong> 敌国平民。</p> <p>平民照片如下图所示。</p> <p></p> <img src='stimuli/faces/NFF6.jpg', style='max-width: 30%;'> </img> <p><strong>你是否选择发射武器？</strong></p>","1",""
"","","","","","html-keyboard-response","24","519544","0.0-4.0-0.10","7","1","2022-11-03 06:20:45","ebf9627b049f568eb4bf28942cb89901","219.142.99.5","Mozilla/5.0 (Windows NT 10.0; Win64; x64) AppleWebKit/537.36 (KHTML, like Gecko) Chrome/107.0.0.0 Safari/537.36 Edg/107.0.1418.26","WebKit","Edge","107.0.1418.26","Windows","10.0","null","<div style=""font-size:60px;"">+</div>","null",""
"","","","","","html-button-response","25","520423","0.0-4.0-1.10","7","1","2022-11-03 06:20:45","ebf9627b049f568eb4bf28942cb89901","219.142.99.5","Mozilla/5.0 (Windows NT 10.0; Win64; x64) AppleWebKit/537.36 (KHTML, like Gecko) Chrome/107.0.0.0 Safari/537.36 Edg/107.0.1418.26","WebKit","Edge","107.0.1418.26","Windows","10.0","878","<p>作为军队的指挥官，你可以选择发射导弹杀死 <strong>3名</strong> 敌国士兵，但会误杀附近的 <strong>1名</strong> 敌国平民。</p> <p>平民照片如下图所示。</p> <p></p> <img src='stimuli/faces/NFM1.jpg', style='max-width: 30%;'> </img> <p><strong>你是否选择发射武器？</strong></p>","1",""
"","","","","","html-keyboard-response","26","521435","0.0-4.0-0.11","7","1","2022-11-03 06:20:45","ebf9627b049f568eb4bf28942cb89901","219.142.99.5","Mozilla/5.0 (Windows NT 10.0; Win64; x64) AppleWebKit/537.36 (KHTML, like Gecko) Chrome/107.0.0.0 Safari/537.36 Edg/107.0.1418.26","WebKit","Edge","107.0.1418.26","Windows","10.0","null","<div style=""font-size:60px;"">+</div>","null",""
"","","","","","html-button-response","27","523572","0.0-4.0-1.11","7","1","2022-11-03 06:20:45","ebf9627b049f568eb4bf28942cb89901","219.142.99.5","Mozilla/5.0 (Windows NT 10.0; Win64; x64) AppleWebKit/537.36 (KHTML, like Gecko) Chrome/107.0.0.0 Safari/537.36 Edg/107.0.1418.26","WebKit","Edge","107.0.1418.26","Windows","10.0","2136","<p>作为军队的指挥官，你可以选择发射导弹杀死 <strong>8名</strong> 敌国士兵，但会误杀附近的 <strong>1名</strong> 敌国平民。</p> <p>平民照片如下图所示。</p> <p></p> <img src='stimuli/faces/NFF3.jpg', style='max-width: 30%;'> </img> <p><strong>你是否选择发射武器？</strong></p>","1",""
"","","","","","html-keyboard-response","28","524574","0.0-4.0-0.12","7","1","2022-11-03 06:20:45","ebf9627b049f568eb4bf28942cb89901","219.142.99.5","Mozilla/5.0 (Windows NT 10.0; Win64; x64) AppleWebKit/537.36 (KHTML, like Gecko) Chrome/107.0.0.0 Safari/537.36 Edg/107.0.1418.26","WebKit","Edge","107.0.1418.26","Windows","10.0","null","<div style=""font-size:60px;"">+</div>","null",""
"","","","","","html-button-response","29","525854","0.0-4.0-1.12","7","1","2022-11-03 06:20:45","ebf9627b049f568eb4bf28942cb89901","219.142.99.5","Mozilla/5.0 (Windows NT 10.0; Win64; x64) AppleWebKit/537.36 (KHTML, like Gecko) Chrome/107.0.0.0 Safari/537.36 Edg/107.0.1418.26","WebKit","Edge","107.0.1418.26","Windows","10.0","1279","<p>作为军队的指挥官，你可以选择发射导弹杀死 <strong>1名</strong> 敌国士兵，但会误杀附近的 <strong>1名</strong> 敌国平民。</p> <p>平民照片如下图所示。</p> <p></p> <img src='stimuli/faces/NFF8.jpg', style='max-width: 30%;'> </img> <p><strong>你是否选择发射武器？</strong></p>","1",""
"","","","","","html-keyboard-response","30","526872","0.0-4.0-0.13","7","1","2022-11-03 06:20:45","ebf9627b049f568eb4bf28942cb89901","219.142.99.5","Mozilla/5.0 (Windows NT 10.0; Win64; x64) AppleWebKit/537.36 (KHTML, like Gecko) Chrome/107.0.0.0 Safari/537.36 Edg/107.0.1418.26","WebKit","Edge","107.0.1418.26","Windows","10.0","null","<div style=""font-size:60px;"">+</div>","null",""
"","","","","","html-button-response","31","527567","0.0-4.0-1.13","7","1","2022-11-03 06:20:45","ebf9627b049f568eb4bf28942cb89901","219.142.99.5","Mozilla/5.0 (Windows NT 10.0; Win64; x64) AppleWebKit/537.36 (KHTML, like Gecko) Chrome/107.0.0.0 Safari/537.36 Edg/107.0.1418.26","WebKit","Edge","107.0.1418.26","Windows","10.0","693","<p>作为军队的指挥官，你可以选择发射导弹杀死 <strong>6名</strong> 敌国士兵，但会误杀附近的 <strong>1名</strong> 敌国平民。</p> <p>平民照片如下图所示。</p> <p></p> <img src='stimuli/faces/NFF7.jpg', style='max-width: 30%;'> </img> <p><strong>你是否选择发射武器？</strong></p>","1",""
"","","","","","html-keyboard-response","32","528579","0.0-4.0-0.14","7","1","2022-11-03 06:20:45","ebf9627b049f568eb4bf28942cb89901","219.142.99.5","Mozilla/5.0 (Windows NT 10.0; Win64; x64) AppleWebKit/537.36 (KHTML, like Gecko) Chrome/107.0.0.0 Safari/537.36 Edg/107.0.1418.26","WebKit","Edge","107.0.1418.26","Windows","10.0","null","<div style=""font-size:60px;"">+</div>","null",""
"","","","","","html-button-response","33","529992","0.0-4.0-1.14","7","1","2022-11-03 06:20:45","ebf9627b049f568eb4bf28942cb89901","219.142.99.5","Mozilla/5.0 (Windows NT 10.0; Win64; x64) AppleWebKit/537.36 (KHTML, like Gecko) Chrome/107.0.0.0 Safari/537.36 Edg/107.0.1418.26","WebKit","Edge","107.0.1418.26","Windows","10.0","1412","<p>作为军队的指挥官，你可以选择发射导弹杀死 <strong>4名</strong> 敌国士兵，但会误杀附近的 <strong>1名</strong> 敌国平民。</p> <p>平民照片如下图所示。</p> <p></p> <img src='stimuli/faces/NFF3.jpg', style='max-width: 30%;'> </img> <p><strong>你是否选择发射武器？</strong></p>","1",""
"","","","","","html-keyboard-response","34","531005","0.0-4.0-0.15","7","1","2022-11-03 06:20:45","ebf9627b049f568eb4bf28942cb89901","219.142.99.5","Mozilla/5.0 (Windows NT 10.0; Win64; x64) AppleWebKit/537.36 (KHTML, like Gecko) Chrome/107.0.0.0 Safari/537.36 Edg/107.0.1418.26","WebKit","Edge","107.0.1418.26","Windows","10.0","null","<div style=""font-size:60px;"">+</div>","null",""
"","","","","","html-button-response","35","531992","0.0-4.0-1.15","7","1","2022-11-03 06:20:45","ebf9627b049f568eb4bf28942cb89901","219.142.99.5","Mozilla/5.0 (Windows NT 10.0; Win64; x64) AppleWebKit/537.36 (KHTML, like Gecko) Chrome/107.0.0.0 Safari/537.36 Edg/107.0.1418.26","WebKit","Edge","107.0.1418.26","Windows","10.0","986","<p>作为军队的指挥官，你可以选择发射导弹杀死 <strong>7名</strong> 敌国士兵，但会误杀附近的 <strong>1名</strong> 敌国平民。</p> <p>平民照片如下图所示。</p> <p></p> <img src='stimuli/faces/NFF4.jpg', style='max-width: 30%;'> </img> <p><strong>你是否选择发射武器？</strong></p>","1",""
"","","","","","html-keyboard-response","36","533000","0.0-4.0-0.16","7","1","2022-11-03 06:20:45","ebf9627b049f568eb4bf28942cb89901","219.142.99.5","Mozilla/5.0 (Windows NT 10.0; Win64; x64) AppleWebKit/537.36 (KHTML, like Gecko) Chrome/107.0.0.0 Safari/537.36 Edg/107.0.1418.26","WebKit","Edge","107.0.1418.26","Windows","10.0","null","<div style=""font-size:60px;"">+</div>","null",""
"","","","","","html-button-response","37","536248","0.0-4.0-1.16","7","1","2022-11-03 06:20:45","ebf9627b049f568eb4bf28942cb89901","219.142.99.5","Mozilla/5.0 (Windows NT 10.0; Win64; x64) AppleWebKit/537.36 (KHTML, like Gecko) Chrome/107.0.0.0 Safari/537.36 Edg/107.0.1418.26","WebKit","Edge","107.0.1418.26","Windows","10.0","3247","<p>作为军队的指挥官，你可以选择发射导弹杀死 <strong>10名</strong> 敌国士兵，但会炸毁附近的 <strong>1棵</strong> 敌国树木。</p> <p>树木的照片如下图所示。</p> <p></p> <img src='stimuli/trees/1.png', style='max-width: 30%;'> </img> <p><strong>你是否选择发射武器？</strong></p>","0",""
"","","","","","html-keyboard-response","38","537264","0.0-4.0-0.17","7","1","2022-11-03 06:20:45","ebf9627b049f568eb4bf28942cb89901","219.142.99.5","Mozilla/5.0 (Windows NT 10.0; Win64; x64) AppleWebKit/537.36 (KHTML, like Gecko) Chrome/107.0.0.0 Safari/537.36 Edg/107.0.1418.26","WebKit","Edge","107.0.1418.26","Windows","10.0","null","<div style=""font-size:60px;"">+</div>","null",""
"","","","","","html-button-response","39","539240","0.0-4.0-1.17","7","1","2022-11-03 06:20:45","ebf9627b049f568eb4bf28942cb89901","219.142.99.5","Mozilla/5.0 (Windows NT 10.0; Win64; x64) AppleWebKit/537.36 (KHTML, like Gecko) Chrome/107.0.0.0 Safari/537.36 Edg/107.0.1418.26","WebKit","Edge","107.0.1418.26","Windows","10.0","1974","<p>作为军队的指挥官，你可以选择发射导弹杀死 <strong>4名</strong> 敌国士兵，但会炸毁附近的 <strong>1棵</strong> 敌国树木。</p> <p>树木的照片如下图所示。</p> <p></p> <img src='stimuli/trees/5.png', style='max-width: 30%;'> </img> <p><strong>你是否选择发射武器？</strong></p>","1",""
"","","","","","html-keyboard-response","40","540254","0.0-4.0-0.18","7","1","2022-11-03 06:20:45","ebf9627b049f568eb4bf28942cb89901","219.142.99.5","Mozilla/5.0 (Windows NT 10.0; Win64; x64) AppleWebKit/537.36 (KHTML, like Gecko) Chrome/107.0.0.0 Safari/537.36 Edg/107.0.1418.26","WebKit","Edge","107.0.1418.26","Windows","10.0","null","<div style=""font-size:60px;"">+</div>","null",""
"","","","","","html-button-response","41","541351","0.0-4.0-1.18","7","1","2022-11-03 06:20:45","ebf9627b049f568eb4bf28942cb89901","219.142.99.5","Mozilla/5.0 (Windows NT 10.0; Win64; x64) AppleWebKit/537.36 (KHTML, like Gecko) Chrome/107.0.0.0 Safari/537.36 Edg/107.0.1418.26","WebKit","Edge","107.0.1418.26","Windows","10.0","1096","<p>作为军队的指挥官，你可以选择发射导弹杀死 <strong>5名</strong> 敌国士兵，但会误杀附近的 <strong>1名</strong> 敌国平民。</p> <p>平民照片如下图所示。</p> <p></p> <img src='stimuli/faces/NFF2.jpg', style='max-width: 30%;'> </img> <p><strong>你是否选择发射武器？</strong></p>","1",""
"","","","","","html-keyboard-response","42","542366","0.0-4.0-0.19","7","1","2022-11-03 06:20:45","ebf9627b049f568eb4bf28942cb89901","219.142.99.5","Mozilla/5.0 (Windows NT 10.0; Win64; x64) AppleWebKit/537.36 (KHTML, like Gecko) Chrome/107.0.0.0 Safari/537.36 Edg/107.0.1418.26","WebKit","Edge","107.0.1418.26","Windows","10.0","null","<div style=""font-size:60px;"">+</div>","null",""
"","","","","","html-button-response","43","542959","0.0-4.0-1.19","7","1","2022-11-03 06:20:45","ebf9627b049f568eb4bf28942cb89901","219.142.99.5","Mozilla/5.0 (Windows NT 10.0; Win64; x64) AppleWebKit/537.36 (KHTML, like Gecko) Chrome/107.0.0.0 Safari/537.36 Edg/107.0.1418.26","WebKit","Edge","107.0.1418.26","Windows","10.0","592","<p>作为军队的指挥官，你可以选择发射导弹杀死 <strong>5名</strong> 敌国士兵，但会误杀附近的 <strong>1名</strong> 敌国平民。</p> <p>平民照片如下图所示。</p> <p></p> <img src='stimuli/faces/NFM7.jpg', style='max-width: 30%;'> </img> <p><strong>你是否选择发射武器？</strong></p>","1",""
"","","","","","html-keyboard-response","44","543967","0.0-4.0-0.20","7","1","2022-11-03 06:20:45","ebf9627b049f568eb4bf28942cb89901","219.142.99.5","Mozilla/5.0 (Windows NT 10.0; Win64; x64) AppleWebKit/537.36 (KHTML, like Gecko) Chrome/107.0.0.0 Safari/537.36 Edg/107.0.1418.26","WebKit","Edge","107.0.1418.26","Windows","10.0","null","<div style=""font-size:60px;"">+</div>","null",""
"","","","","","html-button-response","45","545067","0.0-4.0-1.20","7","1","2022-11-03 06:20:45","ebf9627b049f568eb4bf28942cb89901","219.142.99.5","Mozilla/5.0 (Windows NT 10.0; Win64; x64) AppleWebKit/537.36 (KHTML, like Gecko) Chrome/107.0.0.0 Safari/537.36 Edg/107.0.1418.26","WebKit","Edge","107.0.1418.26","Windows","10.0","1099","<p>作为军队的指挥官，你可以选择发射导弹杀死 <strong>2名</strong> 敌国士兵，但会炸毁附近的 <strong>1棵</strong> 敌国树木。</p> <p>树木的照片如下图所示。</p> <p></p> <img src='stimuli/trees/8.png', style='max-width: 30%;'> </img> <p><strong>你是否选择发射武器？</strong></p>","1",""
"","","","","","html-keyboard-response","46","546079","0.0-4.0-0.21","7","1","2022-11-03 06:20:45","ebf9627b049f568eb4bf28942cb89901","219.142.99.5","Mozilla/5.0 (Windows NT 10.0; Win64; x64) AppleWebKit/537.36 (KHTML, like Gecko) Chrome/107.0.0.0 Safari/537.36 Edg/107.0.1418.26","WebKit","Edge","107.0.1418.26","Windows","10.0","null","<div style=""font-size:60px;"">+</div>","null",""
"","","","","","html-button-response","47","547176","0.0-4.0-1.21","7","1","2022-11-03 06:20:45","ebf9627b049f568eb4bf28942cb89901","219.142.99.5","Mozilla/5.0 (Windows NT 10.0; Win64; x64) AppleWebKit/537.36 (KHTML, like Gecko) Chrome/107.0.0.0 Safari/537.36 Edg/107.0.1418.26","WebKit","Edge","107.0.1418.26","Windows","10.0","1095","<p>作为军队的指挥官，你可以选择发射导弹杀死 <strong>1名</strong> 敌国士兵，但会炸毁附近的 <strong>1棵</strong> 敌国树木。</p> <p>树木的照片如下图所示。</p> <p></p> <img src='stimuli/trees/11.png', style='max-width: 30%;'> </img> <p><strong>你是否选择发射武器？</strong></p>","1",""
"","","","","","html-keyboard-response","48","548180","0.0-4.0-0.22","7","1","2022-11-03 06:20:45","ebf9627b049f568eb4bf28942cb89901","219.142.99.5","Mozilla/5.0 (Windows NT 10.0; Win64; x64) AppleWebKit/537.36 (KHTML, like Gecko) Chrome/107.0.0.0 Safari/537.36 Edg/107.0.1418.26","WebKit","Edge","107.0.1418.26","Windows","10.0","null","<div style=""font-size:60px;"">+</div>","null",""
"","","","","","html-button-response","49","549992","0.0-4.0-1.22","7","1","2022-11-03 06:20:45","ebf9627b049f568eb4bf28942cb89901","219.142.99.5","Mozilla/5.0 (Windows NT 10.0; Win64; x64) AppleWebKit/537.36 (KHTML, like Gecko) Chrome/107.0.0.0 Safari/537.36 Edg/107.0.1418.26","WebKit","Edge","107.0.1418.26","Windows","10.0","1810","<p>作为军队的指挥官，你可以选择发射导弹杀死 <strong>7名</strong> 敌国士兵，但会炸毁附近的 <strong>1棵</strong> 敌国树木。</p> <p>树木的照片如下图所示。</p> <p></p> <img src='stimuli/trees/14.png', style='max-width: 30%;'> </img> <p><strong>你是否选择发射武器？</strong></p>","0",""
"","","","","","html-keyboard-response","50","550999","0.0-4.0-0.23","7","1","2022-11-03 06:20:45","ebf9627b049f568eb4bf28942cb89901","219.142.99.5","Mozilla/5.0 (Windows NT 10.0; Win64; x64) AppleWebKit/537.36 (KHTML, like Gecko) Chrome/107.0.0.0 Safari/537.36 Edg/107.0.1418.26","WebKit","Edge","107.0.1418.26","Windows","10.0","null","<div style=""font-size:60px;"">+</div>","null",""
"","","","","","html-button-response","51","552013","0.0-4.0-1.23","7","1","2022-11-03 06:20:45","ebf9627b049f568eb4bf28942cb89901","219.142.99.5","Mozilla/5.0 (Windows NT 10.0; Win64; x64) AppleWebKit/537.36 (KHTML, like Gecko) Chrome/107.0.0.0 Safari/537.36 Edg/107.0.1418.26","WebKit","Edge","107.0.1418.26","Windows","10.0","1012","<p>作为军队的指挥官，你可以选择发射导弹杀死 <strong>2名</strong> 敌国士兵，但会误杀附近的 <strong>1名</strong> 敌国平民。</p> <p>平民照片如下图所示。</p> <p></p> <img src='stimuli/faces/NFF4.jpg', style='max-width: 30%;'> </img> <p><strong>你是否选择发射武器？</strong></p>","1",""
"","","","","","html-keyboard-response","52","553029","0.0-4.0-0.24","7","1","2022-11-03 06:20:45","ebf9627b049f568eb4bf28942cb89901","219.142.99.5","Mozilla/5.0 (Windows NT 10.0; Win64; x64) AppleWebKit/537.36 (KHTML, like Gecko) Chrome/107.0.0.0 Safari/537.36 Edg/107.0.1418.26","WebKit","Edge","107.0.1418.26","Windows","10.0","null","<div style=""font-size:60px;"">+</div>","null",""
"","","","","","html-button-response","53","553655","0.0-4.0-1.24","7","1","2022-11-03 06:20:45","ebf9627b049f568eb4bf28942cb89901","219.142.99.5","Mozilla/5.0 (Windows NT 10.0; Win64; x64) AppleWebKit/537.36 (KHTML, like Gecko) Chrome/107.0.0.0 Safari/537.36 Edg/107.0.1418.26","WebKit","Edge","107.0.1418.26","Windows","10.0","624","<p>作为军队的指挥官，你可以选择发射导弹杀死 <strong>1名</strong> 敌国士兵，但会炸毁附近的 <strong>1棵</strong> 敌国树木。</p> <p>树木的照片如下图所示。</p> <p></p> <img src='stimuli/trees/16.png', style='max-width: 30%;'> </img> <p><strong>你是否选择发射武器？</strong></p>","1",""
"","","","","","html-keyboard-response","54","554673","0.0-4.0-0.25","7","1","2022-11-03 06:20:45","ebf9627b049f568eb4bf28942cb89901","219.142.99.5","Mozilla/5.0 (Windows NT 10.0; Win64; x64) AppleWebKit/537.36 (KHTML, like Gecko) Chrome/107.0.0.0 Safari/537.36 Edg/107.0.1418.26","WebKit","Edge","107.0.1418.26","Windows","10.0","null","<div style=""font-size:60px;"">+</div>","null",""
"","","","","","html-button-response","55","555704","0.0-4.0-1.25","7","1","2022-11-03 06:20:45","ebf9627b049f568eb4bf28942cb89901","219.142.99.5","Mozilla/5.0 (Windows NT 10.0; Win64; x64) AppleWebKit/537.36 (KHTML, like Gecko) Chrome/107.0.0.0 Safari/537.36 Edg/107.0.1418.26","WebKit","Edge","107.0.1418.26","Windows","10.0","1029","<p>作为军队的指挥官，你可以选择发射导弹杀死 <strong>4名</strong> 敌国士兵，但会炸毁附近的 <strong>1棵</strong> 敌国树木。</p> <p>树木的照片如下图所示。</p> <p></p> <img src='stimuli/trees/1.png', style='max-width: 30%;'> </img> <p><strong>你是否选择发射武器？</strong></p>","1",""
"","","","","","html-keyboard-response","56","556709","0.0-4.0-0.26","7","1","2022-11-03 06:20:45","ebf9627b049f568eb4bf28942cb89901","219.142.99.5","Mozilla/5.0 (Windows NT 10.0; Win64; x64) AppleWebKit/537.36 (KHTML, like Gecko) Chrome/107.0.0.0 Safari/537.36 Edg/107.0.1418.26","WebKit","Edge","107.0.1418.26","Windows","10.0","null","<div style=""font-size:60px;"">+</div>","null",""
"","","","","","html-button-response","57","558344","0.0-4.0-1.26","7","1","2022-11-03 06:20:45","ebf9627b049f568eb4bf28942cb89901","219.142.99.5","Mozilla/5.0 (Windows NT 10.0; Win64; x64) AppleWebKit/537.36 (KHTML, like Gecko) Chrome/107.0.0.0 Safari/537.36 Edg/107.0.1418.26","WebKit","Edge","107.0.1418.26","Windows","10.0","1634","<p>作为军队的指挥官，你可以选择发射导弹杀死 <strong>7名</strong> 敌国士兵，但会炸毁附近的 <strong>1棵</strong> 敌国树木。</p> <p>树木的照片如下图所示。</p> <p></p> <img src='stimuli/trees/5.png', style='max-width: 30%;'> </img> <p><strong>你是否选择发射武器？</strong></p>","0",""
"","","","","","html-keyboard-response","58","559347","0.0-4.0-0.27","7","1","2022-11-03 06:20:45","ebf9627b049f568eb4bf28942cb89901","219.142.99.5","Mozilla/5.0 (Windows NT 10.0; Win64; x64) AppleWebKit/537.36 (KHTML, like Gecko) Chrome/107.0.0.0 Safari/537.36 Edg/107.0.1418.26","WebKit","Edge","107.0.1418.26","Windows","10.0","null","<div style=""font-size:60px;"">+</div>","null",""
"","","","","","html-button-response","59","560343","0.0-4.0-1.27","7","1","2022-11-03 06:20:45","ebf9627b049f568eb4bf28942cb89901","219.142.99.5","Mozilla/5.0 (Windows NT 10.0; Win64; x64) AppleWebKit/537.36 (KHTML, like Gecko) Chrome/107.0.0.0 Safari/537.36 Edg/107.0.1418.26","WebKit","Edge","107.0.1418.26","Windows","10.0","994","<p>作为军队的指挥官，你可以选择发射导弹杀死 <strong>1名</strong> 敌国士兵，但会炸毁附近的 <strong>1棵</strong> 敌国树木。</p> <p>树木的照片如下图所示。</p> <p></p> <img src='stimuli/trees/6.png', style='max-width: 30%;'> </img> <p><strong>你是否选择发射武器？</strong></p>","1",""
"","","","","","html-keyboard-response","60","561356","0.0-4.0-0.28","7","1","2022-11-03 06:20:45","ebf9627b049f568eb4bf28942cb89901","219.142.99.5","Mozilla/5.0 (Windows NT 10.0; Win64; x64) AppleWebKit/537.36 (KHTML, like Gecko) Chrome/107.0.0.0 Safari/537.36 Edg/107.0.1418.26","WebKit","Edge","107.0.1418.26","Windows","10.0","null","<div style=""font-size:60px;"">+</div>","null",""
"","","","","","html-button-response","61","562187","0.0-4.0-1.28","7","1","2022-11-03 06:20:45","ebf9627b049f568eb4bf28942cb89901","219.142.99.5","Mozilla/5.0 (Windows NT 10.0; Win64; x64) AppleWebKit/537.36 (KHTML, like Gecko) Chrome/107.0.0.0 Safari/537.36 Edg/107.0.1418.26","WebKit","Edge","107.0.1418.26","Windows","10.0","830","<p>作为军队的指挥官，你可以选择发射导弹杀死 <strong>2名</strong> 敌国士兵，但会误杀附近的 <strong>1名</strong> 敌国平民。</p> <p>平民照片如下图所示。</p> <p></p> <img src='stimuli/faces/NFF1.jpg', style='max-width: 30%;'> </img> <p><strong>你是否选择发射武器？</strong></p>","1",""
"","","","","","html-keyboard-response","62","563208","0.0-4.0-0.29","7","1","2022-11-03 06:20:45","ebf9627b049f568eb4bf28942cb89901","219.142.99.5","Mozilla/5.0 (Windows NT 10.0; Win64; x64) AppleWebKit/537.36 (KHTML, like Gecko) Chrome/107.0.0.0 Safari/537.36 Edg/107.0.1418.26","WebKit","Edge","107.0.1418.26","Windows","10.0","null","<div style=""font-size:60px;"">+</div>","null",""
"","","","","","html-button-response","63","564599","0.0-4.0-1.29","7","1","2022-11-03 06:20:45","ebf9627b049f568eb4bf28942cb89901","219.142.99.5","Mozilla/5.0 (Windows NT 10.0; Win64; x64) AppleWebKit/537.36 (KHTML, like Gecko) Chrome/107.0.0.0 Safari/537.36 Edg/107.0.1418.26","WebKit","Edge","107.0.1418.26","Windows","10.0","1390","<p>作为军队的指挥官，你可以选择发射导弹杀死 <strong>7名</strong> 敌国士兵，但会炸毁附近的 <strong>1棵</strong> 敌国树木。</p> <p>树木的照片如下图所示。</p> <p></p> <img src='stimuli/trees/4.png', style='max-width: 30%;'> </img> <p><strong>你是否选择发射武器？</strong></p>","0",""
"","","","","","html-keyboard-response","64","565603","0.0-4.0-0.30","7","1","2022-11-03 06:20:45","ebf9627b049f568eb4bf28942cb89901","219.142.99.5","Mozilla/5.0 (Windows NT 10.0; Win64; x64) AppleWebKit/537.36 (KHTML, like Gecko) Chrome/107.0.0.0 Safari/537.36 Edg/107.0.1418.26","WebKit","Edge","107.0.1418.26","Windows","10.0","null","<div style=""font-size:60px;"">+</div>","null",""
"","","","","","html-button-response","65","566567","0.0-4.0-1.30","7","1","2022-11-03 06:20:45","ebf9627b049f568eb4bf28942cb89901","219.142.99.5","Mozilla/5.0 (Windows NT 10.0; Win64; x64) AppleWebKit/537.36 (KHTML, like Gecko) Chrome/107.0.0.0 Safari/537.36 Edg/107.0.1418.26","WebKit","Edge","107.0.1418.26","Windows","10.0","962","<p>作为军队的指挥官，你可以选择发射导弹杀死 <strong>2名</strong> 敌国士兵，但会误杀附近的 <strong>1名</strong> 敌国平民。</p> <p>平民照片如下图所示。</p> <p></p> <img src='stimuli/faces/NFF5.jpg', style='max-width: 30%;'> </img> <p><strong>你是否选择发射武器？</strong></p>","1",""
"","","","","","html-keyboard-response","66","567579","0.0-4.0-0.31","7","1","2022-11-03 06:20:45","ebf9627b049f568eb4bf28942cb89901","219.142.99.5","Mozilla/5.0 (Windows NT 10.0; Win64; x64) AppleWebKit/537.36 (KHTML, like Gecko) Chrome/107.0.0.0 Safari/537.36 Edg/107.0.1418.26","WebKit","Edge","107.0.1418.26","Windows","10.0","null","<div style=""font-size:60px;"">+</div>","null",""
"","","","","","html-button-response","67","569283","0.0-4.0-1.31","7","1","2022-11-03 06:20:45","ebf9627b049f568eb4bf28942cb89901","219.142.99.5","Mozilla/5.0 (Windows NT 10.0; Win64; x64) AppleWebKit/537.36 (KHTML, like Gecko) Chrome/107.0.0.0 Safari/537.36 Edg/107.0.1418.26","WebKit","Edge","107.0.1418.26","Windows","10.0","1702","<p>作为军队的指挥官，你可以选择发射导弹杀死 <strong>7名</strong> 敌国士兵，但会误杀附近的 <strong>1名</strong> 敌国平民。</p> <p>平民照片如下图所示。</p> <p></p> <img src='stimuli/faces/NFF1.jpg', style='max-width: 30%;'> </img> <p><strong>你是否选择发射武器？</strong></p>","1",""
"","","","","","html-keyboard-response","68","570290","0.0-4.0-0.32","7","1","2022-11-03 06:20:45","ebf9627b049f568eb4bf28942cb89901","219.142.99.5","Mozilla/5.0 (Windows NT 10.0; Win64; x64) AppleWebKit/537.36 (KHTML, like Gecko) Chrome/107.0.0.0 Safari/537.36 Edg/107.0.1418.26","WebKit","Edge","107.0.1418.26","Windows","10.0","null","<div style=""font-size:60px;"">+</div>","null",""
"","","","","","html-button-response","69","570896","0.0-4.0-1.32","7","1","2022-11-03 06:20:45","ebf9627b049f568eb4bf28942cb89901","219.142.99.5","Mozilla/5.0 (Windows NT 10.0; Win64; x64) AppleWebKit/537.36 (KHTML, like Gecko) Chrome/107.0.0.0 Safari/537.36 Edg/107.0.1418.26","WebKit","Edge","107.0.1418.26","Windows","10.0","604","<p>作为军队的指挥官，你可以选择发射导弹杀死 <strong>1名</strong> 敌国士兵，但会误杀附近的 <strong>1名</strong> 敌国平民。</p> <p>平民照片如下图所示。</p> <p></p> <img src='stimuli/faces/NFM3.jpg', style='max-width: 30%;'> </img> <p><strong>你是否选择发射武器？</strong></p>","1",""
"","","","","","html-keyboard-response","70","571903","0.0-4.0-0.33","7","1","2022-11-03 06:20:45","ebf9627b049f568eb4bf28942cb89901","219.142.99.5","Mozilla/5.0 (Windows NT 10.0; Win64; x64) AppleWebKit/537.36 (KHTML, like Gecko) Chrome/107.0.0.0 Safari/537.36 Edg/107.0.1418.26","WebKit","Edge","107.0.1418.26","Windows","10.0","null","<div style=""font-size:60px;"">+</div>","null",""
"","","","","","html-button-response","71","573252","0.0-4.0-1.33","7","1","2022-11-03 06:20:45","ebf9627b049f568eb4bf28942cb89901","219.142.99.5","Mozilla/5.0 (Windows NT 10.0; Win64; x64) AppleWebKit/537.36 (KHTML, like Gecko) Chrome/107.0.0.0 Safari/537.36 Edg/107.0.1418.26","WebKit","Edge","107.0.1418.26","Windows","10.0","1347","<p>作为军队的指挥官，你可以选择发射导弹杀死 <strong>8名</strong> 敌国士兵，但会炸毁附近的 <strong>1棵</strong> 敌国树木。</p> <p>树木的照片如下图所示。</p> <p></p> <img src='stimuli/trees/2.png', style='max-width: 30%;'> </img> <p><strong>你是否选择发射武器？</strong></p>","0",""
"","","","","","html-keyboard-response","72","574260","0.0-4.0-0.34","7","1","2022-11-03 06:20:45","ebf9627b049f568eb4bf28942cb89901","219.142.99.5","Mozilla/5.0 (Windows NT 10.0; Win64; x64) AppleWebKit/537.36 (KHTML, like Gecko) Chrome/107.0.0.0 Safari/537.36 Edg/107.0.1418.26","WebKit","Edge","107.0.1418.26","Windows","10.0","null","<div style=""font-size:60px;"">+</div>","null",""
"","","","","","html-button-response","73","575656","0.0-4.0-1.34","7","1","2022-11-03 06:20:45","ebf9627b049f568eb4bf28942cb89901","219.142.99.5","Mozilla/5.0 (Windows NT 10.0; Win64; x64) AppleWebKit/537.36 (KHTML, like Gecko) Chrome/107.0.0.0 Safari/537.36 Edg/107.0.1418.26","WebKit","Edge","107.0.1418.26","Windows","10.0","1393","<p>作为军队的指挥官，你可以选择发射导弹杀死 <strong>6名</strong> 敌国士兵，但会炸毁附近的 <strong>1棵</strong> 敌国树木。</p> <p>树木的照片如下图所示。</p> <p></p> <img src='stimuli/trees/9.png', style='max-width: 30%;'> </img> <p><strong>你是否选择发射武器？</strong></p>","0",""
"","","","","","html-keyboard-response","74","576672","0.0-4.0-0.35","7","1","2022-11-03 06:20:45","ebf9627b049f568eb4bf28942cb89901","219.142.99.5","Mozilla/5.0 (Windows NT 10.0; Win64; x64) AppleWebKit/537.36 (KHTML, like Gecko) Chrome/107.0.0.0 Safari/537.36 Edg/107.0.1418.26","WebKit","Edge","107.0.1418.26","Windows","10.0","null","<div style=""font-size:60px;"">+</div>","null",""
"","","","","","html-button-response","75","577368","0.0-4.0-1.35","7","1","2022-11-03 06:20:45","ebf9627b049f568eb4bf28942cb89901","219.142.99.5","Mozilla/5.0 (Windows NT 10.0; Win64; x64) AppleWebKit/537.36 (KHTML, like Gecko) Chrome/107.0.0.0 Safari/537.36 Edg/107.0.1418.26","WebKit","Edge","107.0.1418.26","Windows","10.0","694","<p>作为军队的指挥官，你可以选择发射导弹杀死 <strong>10名</strong> 敌国士兵，但会炸毁附近的 <strong>1棵</strong> 敌国树木。</p> <p>树木的照片如下图所示。</p> <p></p> <img src='stimuli/trees/10.png', style='max-width: 30%;'> </img> <p><strong>你是否选择发射武器？</strong></p>","0",""
"","","","","","html-keyboard-response","76","578381","0.0-4.0-0.36","7","1","2022-11-03 06:20:45","ebf9627b049f568eb4bf28942cb89901","219.142.99.5","Mozilla/5.0 (Windows NT 10.0; Win64; x64) AppleWebKit/537.36 (KHTML, like Gecko) Chrome/107.0.0.0 Safari/537.36 Edg/107.0.1418.26","WebKit","Edge","107.0.1418.26","Windows","10.0","null","<div style=""font-size:60px;"">+</div>","null",""
"","","","","","html-button-response","77","579592","0.0-4.0-1.36","7","1","2022-11-03 06:20:45","ebf9627b049f568eb4bf28942cb89901","219.142.99.5","Mozilla/5.0 (Windows NT 10.0; Win64; x64) AppleWebKit/537.36 (KHTML, like Gecko) Chrome/107.0.0.0 Safari/537.36 Edg/107.0.1418.26","WebKit","Edge","107.0.1418.26","Windows","10.0","1209","<p>作为军队的指挥官，你可以选择发射导弹杀死 <strong>6名</strong> 敌国士兵，但会炸毁附近的 <strong>1棵</strong> 敌国树木。</p> <p>树木的照片如下图所示。</p> <p></p> <img src='stimuli/trees/15.png', style='max-width: 30%;'> </img> <p><strong>你是否选择发射武器？</strong></p>","0",""
"","","","","","html-keyboard-response","78","580606","0.0-4.0-0.37","7","1","2022-11-03 06:20:45","ebf9627b049f568eb4bf28942cb89901","219.142.99.5","Mozilla/5.0 (Windows NT 10.0; Win64; x64) AppleWebKit/537.36 (KHTML, like Gecko) Chrome/107.0.0.0 Safari/537.36 Edg/107.0.1418.26","WebKit","Edge","107.0.1418.26","Windows","10.0","null","<div style=""font-size:60px;"">+</div>","null",""
"","","","","","html-button-response","79","582107","0.0-4.0-1.37","7","1","2022-11-03 06:20:45","ebf9627b049f568eb4bf28942cb89901","219.142.99.5","Mozilla/5.0 (Windows NT 10.0; Win64; x64) AppleWebKit/537.36 (KHTML, like Gecko) Chrome/107.0.0.0 Safari/537.36 Edg/107.0.1418.26","WebKit","Edge","107.0.1418.26","Windows","10.0","1500","<p>作为军队的指挥官，你可以选择发射导弹杀死 <strong>5名</strong> 敌国士兵，但会误杀附近的 <strong>1名</strong> 敌国平民。</p> <p>平民照片如下图所示。</p> <p></p> <img src='stimuli/faces/NFM5.jpg', style='max-width: 30%;'> </img> <p><strong>你是否选择发射武器？</strong></p>","1",""
"","","","","","html-keyboard-response","80","583124","0.0-4.0-0.38","7","1","2022-11-03 06:20:45","ebf9627b049f568eb4bf28942cb89901","219.142.99.5","Mozilla/5.0 (Windows NT 10.0; Win64; x64) AppleWebKit/537.36 (KHTML, like Gecko) Chrome/107.0.0.0 Safari/537.36 Edg/107.0.1418.26","WebKit","Edge","107.0.1418.26","Windows","10.0","null","<div style=""font-size:60px;"">+</div>","null",""
"","","","","","html-button-response","81","584225","0.0-4.0-1.38","7","1","2022-11-03 06:20:45","ebf9627b049f568eb4bf28942cb89901","219.142.99.5","Mozilla/5.0 (Windows NT 10.0; Win64; x64) AppleWebKit/537.36 (KHTML, like Gecko) Chrome/107.0.0.0 Safari/537.36 Edg/107.0.1418.26","WebKit","Edge","107.0.1418.26","Windows","10.0","1099","<p>作为军队的指挥官，你可以选择发射导弹杀死 <strong>2名</strong> 敌国士兵，但会炸毁附近的 <strong>1棵</strong> 敌国树木。</p> <p>树木的照片如下图所示。</p> <p></p> <img src='stimuli/trees/13.png', style='max-width: 30%;'> </img> <p><strong>你是否选择发射武器？</strong></p>","1",""
"","","","","","html-keyboard-response","82","585246","0.0-4.0-0.39","7","1","2022-11-03 06:20:45","ebf9627b049f568eb4bf28942cb89901","219.142.99.5","Mozilla/5.0 (Windows NT 10.0; Win64; x64) AppleWebKit/537.36 (KHTML, like Gecko) Chrome/107.0.0.0 Safari/537.36 Edg/107.0.1418.26","WebKit","Edge","107.0.1418.26","Windows","10.0","null","<div style=""font-size:60px;"">+</div>","null",""
"","","","","","html-button-response","83","585968","0.0-4.0-1.39","7","1","2022-11-03 06:20:45","ebf9627b049f568eb4bf28942cb89901","219.142.99.5","Mozilla/5.0 (Windows NT 10.0; Win64; x64) AppleWebKit/537.36 (KHTML, like Gecko) Chrome/107.0.0.0 Safari/537.36 Edg/107.0.1418.26","WebKit","Edge","107.0.1418.26","Windows","10.0","721","<p>作为军队的指挥官，你可以选择发射导弹杀死 <strong>5名</strong> 敌国士兵，但会误杀附近的 <strong>1名</strong> 敌国平民。</p> <p>平民照片如下图所示。</p> <p></p> <img src='stimuli/faces/NFM2.jpg', style='max-width: 30%;'> </img> <p><strong>你是否选择发射武器？</strong></p>","1",""
"","","","","","html-keyboard-response","84","586982","0.0-4.0-0.40","7","1","2022-11-03 06:20:45","ebf9627b049f568eb4bf28942cb89901","219.142.99.5","Mozilla/5.0 (Windows NT 10.0; Win64; x64) AppleWebKit/537.36 (KHTML, like Gecko) Chrome/107.0.0.0 Safari/537.36 Edg/107.0.1418.26","WebKit","Edge","107.0.1418.26","Windows","10.0","null","<div style=""font-size:60px;"">+</div>","null",""
"","","","","","html-button-response","85","588184","0.0-4.0-1.40","7","1","2022-11-03 06:20:45","ebf9627b049f568eb4bf28942cb89901","219.142.99.5","Mozilla/5.0 (Windows NT 10.0; Win64; x64) AppleWebKit/537.36 (KHTML, like Gecko) Chrome/107.0.0.0 Safari/537.36 Edg/107.0.1418.26","WebKit","Edge","107.0.1418.26","Windows","10.0","1200","<p>作为军队的指挥官，你可以选择发射导弹杀死 <strong>8名</strong> 敌国士兵，但会误杀附近的 <strong>1名</strong> 敌国平民。</p> <p>平民照片如下图所示。</p> <p></p> <img src='stimuli/faces/NFM5.jpg', style='max-width: 30%;'> </img> <p><strong>你是否选择发射武器？</strong></p>","1",""
"","","","","","html-keyboard-response","86","589201","0.0-4.0-0.41","7","1","2022-11-03 06:20:45","ebf9627b049f568eb4bf28942cb89901","219.142.99.5","Mozilla/5.0 (Windows NT 10.0; Win64; x64) AppleWebKit/537.36 (KHTML, like Gecko) Chrome/107.0.0.0 Safari/537.36 Edg/107.0.1418.26","WebKit","Edge","107.0.1418.26","Windows","10.0","null","<div style=""font-size:60px;"">+</div>","null",""
"","","","","","html-button-response","87","589848","0.0-4.0-1.41","7","1","2022-11-03 06:20:45","ebf9627b049f568eb4bf28942cb89901","219.142.99.5","Mozilla/5.0 (Windows NT 10.0; Win64; x64) AppleWebKit/537.36 (KHTML, like Gecko) Chrome/107.0.0.0 Safari/537.36 Edg/107.0.1418.26","WebKit","Edge","107.0.1418.26","Windows","10.0","645","<p>作为军队的指挥官，你可以选择发射导弹杀死 <strong>9名</strong> 敌国士兵，但会误杀附近的 <strong>1名</strong> 敌国平民。</p> <p>平民照片如下图所示。</p> <p></p> <img src='stimuli/faces/NFM7.jpg', style='max-width: 30%;'> </img> <p><strong>你是否选择发射武器？</strong></p>","1",""
"","","","","","html-keyboard-response","88","590851","0.0-4.0-0.42","7","1","2022-11-03 06:20:45","ebf9627b049f568eb4bf28942cb89901","219.142.99.5","Mozilla/5.0 (Windows NT 10.0; Win64; x64) AppleWebKit/537.36 (KHTML, like Gecko) Chrome/107.0.0.0 Safari/537.36 Edg/107.0.1418.26","WebKit","Edge","107.0.1418.26","Windows","10.0","null","<div style=""font-size:60px;"">+</div>","null",""
"","","","","","html-button-response","89","591455","0.0-4.0-1.42","7","1","2022-11-03 06:20:45","ebf9627b049f568eb4bf28942cb89901","219.142.99.5","Mozilla/5.0 (Windows NT 10.0; Win64; x64) AppleWebKit/537.36 (KHTML, like Gecko) Chrome/107.0.0.0 Safari/537.36 Edg/107.0.1418.26","WebKit","Edge","107.0.1418.26","Windows","10.0","602","<p>作为军队的指挥官，你可以选择发射导弹杀死 <strong>1名</strong> 敌国士兵，但会误杀附近的 <strong>1名</strong> 敌国平民。</p> <p>平民照片如下图所示。</p> <p></p> <img src='stimuli/faces/NFM4.jpg', style='max-width: 30%;'> </img> <p><strong>你是否选择发射武器？</strong></p>","1",""
"","","","","","html-keyboard-response","90","592467","0.0-4.0-0.43","7","1","2022-11-03 06:20:45","ebf9627b049f568eb4bf28942cb89901","219.142.99.5","Mozilla/5.0 (Windows NT 10.0; Win64; x64) AppleWebKit/537.36 (KHTML, like Gecko) Chrome/107.0.0.0 Safari/537.36 Edg/107.0.1418.26","WebKit","Edge","107.0.1418.26","Windows","10.0","null","<div style=""font-size:60px;"">+</div>","null",""
"","","","","","html-button-response","91","593776","0.0-4.0-1.43","7","1","2022-11-03 06:20:45","ebf9627b049f568eb4bf28942cb89901","219.142.99.5","Mozilla/5.0 (Windows NT 10.0; Win64; x64) AppleWebKit/537.36 (KHTML, like Gecko) Chrome/107.0.0.0 Safari/537.36 Edg/107.0.1418.26","WebKit","Edge","107.0.1418.26","Windows","10.0","1307","<p>作为军队的指挥官，你可以选择发射导弹杀死 <strong>7名</strong> 敌国士兵，但会炸毁附近的 <strong>1棵</strong> 敌国树木。</p> <p>树木的照片如下图所示。</p> <p></p> <img src='stimuli/trees/16.png', style='max-width: 30%;'> </img> <p><strong>你是否选择发射武器？</strong></p>","0",""
"","","","","","html-keyboard-response","92","594784","0.0-4.0-0.44","7","1","2022-11-03 06:20:45","ebf9627b049f568eb4bf28942cb89901","219.142.99.5","Mozilla/5.0 (Windows NT 10.0; Win64; x64) AppleWebKit/537.36 (KHTML, like Gecko) Chrome/107.0.0.0 Safari/537.36 Edg/107.0.1418.26","WebKit","Edge","107.0.1418.26","Windows","10.0","null","<div style=""font-size:60px;"">+</div>","null",""
"","","","","","html-button-response","93","595544","0.0-4.0-1.44","7","1","2022-11-03 06:20:45","ebf9627b049f568eb4bf28942cb89901","219.142.99.5","Mozilla/5.0 (Windows NT 10.0; Win64; x64) AppleWebKit/537.36 (KHTML, like Gecko) Chrome/107.0.0.0 Safari/537.36 Edg/107.0.1418.26","WebKit","Edge","107.0.1418.26","Windows","10.0","758","<p>作为军队的指挥官，你可以选择发射导弹杀死 <strong>8名</strong> 敌国士兵，但会炸毁附近的 <strong>1棵</strong> 敌国树木。</p> <p>树木的照片如下图所示。</p> <p></p> <img src='stimuli/trees/13.png', style='max-width: 30%;'> </img> <p><strong>你是否选择发射武器？</strong></p>","0",""
"","","","","","html-keyboard-response","94","596556","0.0-4.0-0.45","7","1","2022-11-03 06:20:45","ebf9627b049f568eb4bf28942cb89901","219.142.99.5","Mozilla/5.0 (Windows NT 10.0; Win64; x64) AppleWebKit/537.36 (KHTML, like Gecko) Chrome/107.0.0.0 Safari/537.36 Edg/107.0.1418.26","WebKit","Edge","107.0.1418.26","Windows","10.0","null","<div style=""font-size:60px;"">+</div>","null",""
"","","","","","html-button-response","95","597412","0.0-4.0-1.45","7","1","2022-11-03 06:20:45","ebf9627b049f568eb4bf28942cb89901","219.142.99.5","Mozilla/5.0 (Windows NT 10.0; Win64; x64) AppleWebKit/537.36 (KHTML, like Gecko) Chrome/107.0.0.0 Safari/537.36 Edg/107.0.1418.26","WebKit","Edge","107.0.1418.26","Windows","10.0","854","<p>作为军队的指挥官，你可以选择发射导弹杀死 <strong>9名</strong> 敌国士兵，但会炸毁附近的 <strong>1棵</strong> 敌国树木。</p> <p>树木的照片如下图所示。</p> <p></p> <img src='stimuli/trees/12.png', style='max-width: 30%;'> </img> <p><strong>你是否选择发射武器？</strong></p>","0",""
"","","","","","html-keyboard-response","96","598420","0.0-4.0-0.46","7","1","2022-11-03 06:20:45","ebf9627b049f568eb4bf28942cb89901","219.142.99.5","Mozilla/5.0 (Windows NT 10.0; Win64; x64) AppleWebKit/537.36 (KHTML, like Gecko) Chrome/107.0.0.0 Safari/537.36 Edg/107.0.1418.26","WebKit","Edge","107.0.1418.26","Windows","10.0","null","<div style=""font-size:60px;"">+</div>","null",""
"","","","","","html-button-response","97","600576","0.0-4.0-1.46","7","1","2022-11-03 06:20:45","ebf9627b049f568eb4bf28942cb89901","219.142.99.5","Mozilla/5.0 (Windows NT 10.0; Win64; x64) AppleWebKit/537.36 (KHTML, like Gecko) Chrome/107.0.0.0 Safari/537.36 Edg/107.0.1418.26","WebKit","Edge","107.0.1418.26","Windows","10.0","2153","<p>作为军队的指挥官，你可以选择发射导弹杀死 <strong>5名</strong> 敌国士兵，但会炸毁附近的 <strong>1棵</strong> 敌国树木。</p> <p>树木的照片如下图所示。</p> <p></p> <img src='stimuli/trees/3.png', style='max-width: 30%;'> </img> <p><strong>你是否选择发射武器？</strong></p>","0",""
"","","","","","html-keyboard-response","98","601578","0.0-4.0-0.47","7","1","2022-11-03 06:20:45","ebf9627b049f568eb4bf28942cb89901","219.142.99.5","Mozilla/5.0 (Windows NT 10.0; Win64; x64) AppleWebKit/537.36 (KHTML, like Gecko) Chrome/107.0.0.0 Safari/537.36 Edg/107.0.1418.26","WebKit","Edge","107.0.1418.26","Windows","10.0","null","<div style=""font-size:60px;"">+</div>","null",""
"","","","","","html-button-response","99","602376","0.0-4.0-1.47","7","1","2022-11-03 06:20:45","ebf9627b049f568eb4bf28942cb89901","219.142.99.5","Mozilla/5.0 (Windows NT 10.0; Win64; x64) AppleWebKit/537.36 (KHTML, like Gecko) Chrome/107.0.0.0 Safari/537.36 Edg/107.0.1418.26","WebKit","Edge","107.0.1418.26","Windows","10.0","796","<p>作为军队的指挥官，你可以选择发射导弹杀死 <strong>5名</strong> 敌国士兵，但会炸毁附近的 <strong>1棵</strong> 敌国树木。</p> <p>树木的照片如下图所示。</p> <p></p> <img src='stimuli/trees/15.png', style='max-width: 30%;'> </img> <p><strong>你是否选择发射武器？</strong></p>","0",""
"","","","","","html-keyboard-response","100","603383","0.0-4.0-0.48","7","1","2022-11-03 06:20:45","ebf9627b049f568eb4bf28942cb89901","219.142.99.5","Mozilla/5.0 (Windows NT 10.0; Win64; x64) AppleWebKit/537.36 (KHTML, like Gecko) Chrome/107.0.0.0 Safari/537.36 Edg/107.0.1418.26","WebKit","Edge","107.0.1418.26","Windows","10.0","null","<div style=""font-size:60px;"">+</div>","null",""
"","","","","","html-button-response","101","604300","0.0-4.0-1.48","7","1","2022-11-03 06:20:45","ebf9627b049f568eb4bf28942cb89901","219.142.99.5","Mozilla/5.0 (Windows NT 10.0; Win64; x64) AppleWebKit/537.36 (KHTML, like Gecko) Chrome/107.0.0.0 Safari/537.36 Edg/107.0.1418.26","WebKit","Edge","107.0.1418.26","Windows","10.0","916","<p>作为军队的指挥官，你可以选择发射导弹杀死 <strong>6名</strong> 敌国士兵，但会误杀附近的 <strong>1名</strong> 敌国平民。</p> <p>平民照片如下图所示。</p> <p></p> <img src='stimuli/faces/NFF6.jpg', style='max-width: 30%;'> </img> <p><strong>你是否选择发射武器？</strong></p>","1",""
"","","","","","html-keyboard-response","102","605310","0.0-4.0-0.49","7","1","2022-11-03 06:20:45","ebf9627b049f568eb4bf28942cb89901","219.142.99.5","Mozilla/5.0 (Windows NT 10.0; Win64; x64) AppleWebKit/537.36 (KHTML, like Gecko) Chrome/107.0.0.0 Safari/537.36 Edg/107.0.1418.26","WebKit","Edge","107.0.1418.26","Windows","10.0","null","<div style=""font-size:60px;"">+</div>","null",""
"","","","","","html-button-response","103","606524","0.0-4.0-1.49","7","1","2022-11-03 06:20:45","ebf9627b049f568eb4bf28942cb89901","219.142.99.5","Mozilla/5.0 (Windows NT 10.0; Win64; x64) AppleWebKit/537.36 (KHTML, like Gecko) Chrome/107.0.0.0 Safari/537.36 Edg/107.0.1418.26","WebKit","Edge","107.0.1418.26","Windows","10.0","1212","<p>作为军队的指挥官，你可以选择发射导弹杀死 <strong>6名</strong> 敌国士兵，但会炸毁附近的 <strong>1棵</strong> 敌国树木。</p> <p>树木的照片如下图所示。</p> <p></p> <img src='stimuli/trees/6.png', style='max-width: 30%;'> </img> <p><strong>你是否选择发射武器？</strong></p>","0",""
"","","","","","html-keyboard-response","104","607536","0.0-4.0-0.50","7","1","2022-11-03 06:20:45","ebf9627b049f568eb4bf28942cb89901","219.142.99.5","Mozilla/5.0 (Windows NT 10.0; Win64; x64) AppleWebKit/537.36 (KHTML, like Gecko) Chrome/107.0.0.0 Safari/537.36 Edg/107.0.1418.26","WebKit","Edge","107.0.1418.26","Windows","10.0","null","<div style=""font-size:60px;"">+</div>","null",""
"","","","","","html-button-response","105","608876","0.0-4.0-1.50","7","1","2022-11-03 06:20:45","ebf9627b049f568eb4bf28942cb89901","219.142.99.5","Mozilla/5.0 (Windows NT 10.0; Win64; x64) AppleWebKit/537.36 (KHTML, like Gecko) Chrome/107.0.0.0 Safari/537.36 Edg/107.0.1418.26","WebKit","Edge","107.0.1418.26","Windows","10.0","1338","<p>作为军队的指挥官，你可以选择发射导弹杀死 <strong>4名</strong> 敌国士兵，但会炸毁附近的 <strong>1棵</strong> 敌国树木。</p> <p>树木的照片如下图所示。</p> <p></p> <img src='stimuli/trees/12.png', style='max-width: 30%;'> </img> <p><strong>你是否选择发射武器？</strong></p>","1",""
"","","","","","html-keyboard-response","106","609896","0.0-4.0-0.51","7","1","2022-11-03 06:20:45","ebf9627b049f568eb4bf28942cb89901","219.142.99.5","Mozilla/5.0 (Windows NT 10.0; Win64; x64) AppleWebKit/537.36 (KHTML, like Gecko) Chrome/107.0.0.0 Safari/537.36 Edg/107.0.1418.26","WebKit","Edge","107.0.1418.26","Windows","10.0","null","<div style=""font-size:60px;"">+</div>","null",""
"","","","","","html-button-response","107","612212","0.0-4.0-1.51","7","1","2022-11-03 06:20:45","ebf9627b049f568eb4bf28942cb89901","219.142.99.5","Mozilla/5.0 (Windows NT 10.0; Win64; x64) AppleWebKit/537.36 (KHTML, like Gecko) Chrome/107.0.0.0 Safari/537.36 Edg/107.0.1418.26","WebKit","Edge","107.0.1418.26","Windows","10.0","2314","<p>作为军队的指挥官，你可以选择发射导弹杀死 <strong>5名</strong> 敌国士兵，但会炸毁附近的 <strong>1棵</strong> 敌国树木。</p> <p>树木的照片如下图所示。</p> <p></p> <img src='stimuli/trees/2.png', style='max-width: 30%;'> </img> <p><strong>你是否选择发射武器？</strong></p>","0",""
"","","","","","html-keyboard-response","108","613220","0.0-4.0-0.52","7","1","2022-11-03 06:20:45","ebf9627b049f568eb4bf28942cb89901","219.142.99.5","Mozilla/5.0 (Windows NT 10.0; Win64; x64) AppleWebKit/537.36 (KHTML, like Gecko) Chrome/107.0.0.0 Safari/537.36 Edg/107.0.1418.26","WebKit","Edge","107.0.1418.26","Windows","10.0","null","<div style=""font-size:60px;"">+</div>","null",""
"","","","","","html-button-response","109","616028","0.0-4.0-1.52","7","1","2022-11-03 06:20:45","ebf9627b049f568eb4bf28942cb89901","219.142.99.5","Mozilla/5.0 (Windows NT 10.0; Win64; x64) AppleWebKit/537.36 (KHTML, like Gecko) Chrome/107.0.0.0 Safari/537.36 Edg/107.0.1418.26","WebKit","Edge","107.0.1418.26","Windows","10.0","2806","<p>作为军队的指挥官，你可以选择发射导弹杀死 <strong>10名</strong> 敌国士兵，但会误杀附近的 <strong>1名</strong> 敌国平民。</p> <p>平民照片如下图所示。</p> <p></p> <img src='stimuli/faces/NFM2.jpg', style='max-width: 30%;'> </img> <p><strong>你是否选择发射武器？</strong></p>","1",""
"","","","","","html-keyboard-response","110","617037","0.0-4.0-0.53","7","1","2022-11-03 06:20:45","ebf9627b049f568eb4bf28942cb89901","219.142.99.5","Mozilla/5.0 (Windows NT 10.0; Win64; x64) AppleWebKit/537.36 (KHTML, like Gecko) Chrome/107.0.0.0 Safari/537.36 Edg/107.0.1418.26","WebKit","Edge","107.0.1418.26","Windows","10.0","null","<div style=""font-size:60px;"">+</div>","null",""
"","","","","","html-button-response","111","618512","0.0-4.0-1.53","7","1","2022-11-03 06:20:45","ebf9627b049f568eb4bf28942cb89901","219.142.99.5","Mozilla/5.0 (Windows NT 10.0; Win64; x64) AppleWebKit/537.36 (KHTML, like Gecko) Chrome/107.0.0.0 Safari/537.36 Edg/107.0.1418.26","WebKit","Edge","107.0.1418.26","Windows","10.0","1473","<p>作为军队的指挥官，你可以选择发射导弹杀死 <strong>5名</strong> 敌国士兵，但会炸毁附近的 <strong>1棵</strong> 敌国树木。</p> <p>树木的照片如下图所示。</p> <p></p> <img src='stimuli/trees/10.png', style='max-width: 30%;'> </img> <p><strong>你是否选择发射武器？</strong></p>","0",""
"","","","","","html-keyboard-response","112","619526","0.0-4.0-0.54","7","1","2022-11-03 06:20:45","ebf9627b049f568eb4bf28942cb89901","219.142.99.5","Mozilla/5.0 (Windows NT 10.0; Win64; x64) AppleWebKit/537.36 (KHTML, like Gecko) Chrome/107.0.0.0 Safari/537.36 Edg/107.0.1418.26","WebKit","Edge","107.0.1418.26","Windows","10.0","null","<div style=""font-size:60px;"">+</div>","null",""
"","","","","","html-button-response","113","620223","0.0-4.0-1.54","7","1","2022-11-03 06:20:45","ebf9627b049f568eb4bf28942cb89901","219.142.99.5","Mozilla/5.0 (Windows NT 10.0; Win64; x64) AppleWebKit/537.36 (KHTML, like Gecko) Chrome/107.0.0.0 Safari/537.36 Edg/107.0.1418.26","WebKit","Edge","107.0.1418.26","Windows","10.0","695","<p>作为军队的指挥官，你可以选择发射导弹杀死 <strong>5名</strong> 敌国士兵，但会炸毁附近的 <strong>1棵</strong> 敌国树木。</p> <p>树木的照片如下图所示。</p> <p></p> <img src='stimuli/trees/4.png', style='max-width: 30%;'> </img> <p><strong>你是否选择发射武器？</strong></p>","0",""
"","","","","","html-keyboard-response","114","621235","0.0-4.0-0.55","7","1","2022-11-03 06:20:45","ebf9627b049f568eb4bf28942cb89901","219.142.99.5","Mozilla/5.0 (Windows NT 10.0; Win64; x64) AppleWebKit/537.36 (KHTML, like Gecko) Chrome/107.0.0.0 Safari/537.36 Edg/107.0.1418.26","WebKit","Edge","107.0.1418.26","Windows","10.0","null","<div style=""font-size:60px;"">+</div>","null",""
"","","","","","html-button-response","115","622016","0.0-4.0-1.55","7","1","2022-11-03 06:20:45","ebf9627b049f568eb4bf28942cb89901","219.142.99.5","Mozilla/5.0 (Windows NT 10.0; Win64; x64) AppleWebKit/537.36 (KHTML, like Gecko) Chrome/107.0.0.0 Safari/537.36 Edg/107.0.1418.26","WebKit","Edge","107.0.1418.26","Windows","10.0","779","<p>作为军队的指挥官，你可以选择发射导弹杀死 <strong>6名</strong> 敌国士兵，但会炸毁附近的 <strong>1棵</strong> 敌国树木。</p> <p>树木的照片如下图所示。</p> <p></p> <img src='stimuli/trees/7.png', style='max-width: 30%;'> </img> <p><strong>你是否选择发射武器？</strong></p>","0",""
"","","","","","html-keyboard-response","116","623026","0.0-4.0-0.56","7","1","2022-11-03 06:20:45","ebf9627b049f568eb4bf28942cb89901","219.142.99.5","Mozilla/5.0 (Windows NT 10.0; Win64; x64) AppleWebKit/537.36 (KHTML, like Gecko) Chrome/107.0.0.0 Safari/537.36 Edg/107.0.1418.26","WebKit","Edge","107.0.1418.26","Windows","10.0","null","<div style=""font-size:60px;"">+</div>","null",""
"","","","","","html-button-response","117","624300","0.0-4.0-1.56","7","1","2022-11-03 06:20:45","ebf9627b049f568eb4bf28942cb89901","219.142.99.5","Mozilla/5.0 (Windows NT 10.0; Win64; x64) AppleWebKit/537.36 (KHTML, like Gecko) Chrome/107.0.0.0 Safari/537.36 Edg/107.0.1418.26","WebKit","Edge","107.0.1418.26","Windows","10.0","1272","<p>作为军队的指挥官，你可以选择发射导弹杀死 <strong>8名</strong> 敌国士兵，但会误杀附近的 <strong>1名</strong> 敌国平民。</p> <p>平民照片如下图所示。</p> <p></p> <img src='stimuli/faces/NFM1.jpg', style='max-width: 30%;'> </img> <p><strong>你是否选择发射武器？</strong></p>","1",""
"","","","","","html-keyboard-response","118","625310","0.0-4.0-0.57","7","1","2022-11-03 06:20:45","ebf9627b049f568eb4bf28942cb89901","219.142.99.5","Mozilla/5.0 (Windows NT 10.0; Win64; x64) AppleWebKit/537.36 (KHTML, like Gecko) Chrome/107.0.0.0 Safari/537.36 Edg/107.0.1418.26","WebKit","Edge","107.0.1418.26","Windows","10.0","null","<div style=""font-size:60px;"">+</div>","null",""
"","","","","","html-button-response","119","626025","0.0-4.0-1.57","7","1","2022-11-03 06:20:45","ebf9627b049f568eb4bf28942cb89901","219.142.99.5","Mozilla/5.0 (Windows NT 10.0; Win64; x64) AppleWebKit/537.36 (KHTML, like Gecko) Chrome/107.0.0.0 Safari/537.36 Edg/107.0.1418.26","WebKit","Edge","107.0.1418.26","Windows","10.0","713","<p>作为军队的指挥官，你可以选择发射导弹杀死 <strong>4名</strong> 敌国士兵，但会误杀附近的 <strong>1名</strong> 敌国平民。</p> <p>平民照片如下图所示。</p> <p></p> <img src='stimuli/faces/NFF7.jpg', style='max-width: 30%;'> </img> <p><strong>你是否选择发射武器？</strong></p>","1",""
"","","","","","html-keyboard-response","120","627047","0.0-4.0-0.58","7","1","2022-11-03 06:20:45","ebf9627b049f568eb4bf28942cb89901","219.142.99.5","Mozilla/5.0 (Windows NT 10.0; Win64; x64) AppleWebKit/537.36 (KHTML, like Gecko) Chrome/107.0.0.0 Safari/537.36 Edg/107.0.1418.26","WebKit","Edge","107.0.1418.26","Windows","10.0","null","<div style=""font-size:60px;"">+</div>","null",""
"","","","","","html-button-response","121","628064","0.0-4.0-1.58","7","1","2022-11-03 06:20:45","ebf9627b049f568eb4bf28942cb89901","219.142.99.5","Mozilla/5.0 (Windows NT 10.0; Win64; x64) AppleWebKit/537.36 (KHTML, like Gecko) Chrome/107.0.0.0 Safari/537.36 Edg/107.0.1418.26","WebKit","Edge","107.0.1418.26","Windows","10.0","1016","<p>作为军队的指挥官，你可以选择发射导弹杀死 <strong>10名</strong> 敌国士兵，但会误杀附近的 <strong>1名</strong> 敌国平民。</p> <p>平民照片如下图所示。</p> <p></p> <img src='stimuli/faces/NFF2.jpg', style='max-width: 30%;'> </img> <p><strong>你是否选择发射武器？</strong></p>","1",""
"","","","","","html-keyboard-response","122","629085","0.0-4.0-0.59","7","1","2022-11-03 06:20:45","ebf9627b049f568eb4bf28942cb89901","219.142.99.5","Mozilla/5.0 (Windows NT 10.0; Win64; x64) AppleWebKit/537.36 (KHTML, like Gecko) Chrome/107.0.0.0 Safari/537.36 Edg/107.0.1418.26","WebKit","Edge","107.0.1418.26","Windows","10.0","null","<div style=""font-size:60px;"">+</div>","null",""
"","","","","","html-button-response","123","630445","0.0-4.0-1.59","7","1","2022-11-03 06:20:45","ebf9627b049f568eb4bf28942cb89901","219.142.99.5","Mozilla/5.0 (Windows NT 10.0; Win64; x64) AppleWebKit/537.36 (KHTML, like Gecko) Chrome/107.0.0.0 Safari/537.36 Edg/107.0.1418.26","WebKit","Edge","107.0.1418.26","Windows","10.0","1358","<p>作为军队的指挥官，你可以选择发射导弹杀死 <strong>9名</strong> 敌国士兵，但会炸毁附近的 <strong>1棵</strong> 敌国树木。</p> <p>树木的照片如下图所示。</p> <p></p> <img src='stimuli/trees/11.png', style='max-width: 30%;'> </img> <p><strong>你是否选择发射武器？</strong></p>","0",""
"","","","","","html-keyboard-response","124","631456","0.0-4.0-0.60","7","1","2022-11-03 06:20:45","ebf9627b049f568eb4bf28942cb89901","219.142.99.5","Mozilla/5.0 (Windows NT 10.0; Win64; x64) AppleWebKit/537.36 (KHTML, like Gecko) Chrome/107.0.0.0 Safari/537.36 Edg/107.0.1418.26","WebKit","Edge","107.0.1418.26","Windows","10.0","null","<div style=""font-size:60px;"">+</div>","null",""
"","","","","","html-button-response","125","632679","0.0-4.0-1.60","7","1","2022-11-03 06:20:45","ebf9627b049f568eb4bf28942cb89901","219.142.99.5","Mozilla/5.0 (Windows NT 10.0; Win64; x64) AppleWebKit/537.36 (KHTML, like Gecko) Chrome/107.0.0.0 Safari/537.36 Edg/107.0.1418.26","WebKit","Edge","107.0.1418.26","Windows","10.0","1221","<p>作为军队的指挥官，你可以选择发射导弹杀死 <strong>6名</strong> 敌国士兵，但会炸毁附近的 <strong>1棵</strong> 敌国树木。</p> <p>树木的照片如下图所示。</p> <p></p> <img src='stimuli/trees/8.png', style='max-width: 30%;'> </img> <p><strong>你是否选择发射武器？</strong></p>","0",""
"","","","","","html-keyboard-response","126","633697","0.0-4.0-0.61","7","1","2022-11-03 06:20:45","ebf9627b049f568eb4bf28942cb89901","219.142.99.5","Mozilla/5.0 (Windows NT 10.0; Win64; x64) AppleWebKit/537.36 (KHTML, like Gecko) Chrome/107.0.0.0 Safari/537.36 Edg/107.0.1418.26","WebKit","Edge","107.0.1418.26","Windows","10.0","null","<div style=""font-size:60px;"">+</div>","null",""
"","","","","","html-button-response","127","636228","0.0-4.0-1.61","7","1","2022-11-03 06:20:45","ebf9627b049f568eb4bf28942cb89901","219.142.99.5","Mozilla/5.0 (Windows NT 10.0; Win64; x64) AppleWebKit/537.36 (KHTML, like Gecko) Chrome/107.0.0.0 Safari/537.36 Edg/107.0.1418.26","WebKit","Edge","107.0.1418.26","Windows","10.0","2530","<p>作为军队的指挥官，你可以选择发射导弹杀死 <strong>4名</strong> 敌国士兵，但会炸毁附近的 <strong>1棵</strong> 敌国树木。</p> <p>树木的照片如下图所示。</p> <p></p> <img src='stimuli/trees/14.png', style='max-width: 30%;'> </img> <p><strong>你是否选择发射武器？</strong></p>","1",""
"","","","","","html-keyboard-response","128","637240","0.0-4.0-0.62","7","1","2022-11-03 06:20:45","ebf9627b049f568eb4bf28942cb89901","219.142.99.5","Mozilla/5.0 (Windows NT 10.0; Win64; x64) AppleWebKit/537.36 (KHTML, like Gecko) Chrome/107.0.0.0 Safari/537.36 Edg/107.0.1418.26","WebKit","Edge","107.0.1418.26","Windows","10.0","null","<div style=""font-size:60px;"">+</div>","null",""
"","","","","","html-button-response","129","638103","0.0-4.0-1.62","7","1","2022-11-03 06:20:45","ebf9627b049f568eb4bf28942cb89901","219.142.99.5","Mozilla/5.0 (Windows NT 10.0; Win64; x64) AppleWebKit/537.36 (KHTML, like Gecko) Chrome/107.0.0.0 Safari/537.36 Edg/107.0.1418.26","WebKit","Edge","107.0.1418.26","Windows","10.0","861","<p>作为军队的指挥官，你可以选择发射导弹杀死 <strong>2名</strong> 敌国士兵，但会误杀附近的 <strong>1名</strong> 敌国平民。</p> <p>平民照片如下图所示。</p> <p></p> <img src='stimuli/faces/NFM8.jpg', style='max-width: 30%;'> </img> <p><strong>你是否选择发射武器？</strong></p>","1",""
"","","","","","html-keyboard-response","130","639116","0.0-4.0-0.63","7","1","2022-11-03 06:20:45","ebf9627b049f568eb4bf28942cb89901","219.142.99.5","Mozilla/5.0 (Windows NT 10.0; Win64; x64) AppleWebKit/537.36 (KHTML, like Gecko) Chrome/107.0.0.0 Safari/537.36 Edg/107.0.1418.26","WebKit","Edge","107.0.1418.26","Windows","10.0","null","<div style=""font-size:60px;"">+</div>","null",""
"","","","","","html-button-response","131","639924","0.0-4.0-1.63","7","1","2022-11-03 06:20:45","ebf9627b049f568eb4bf28942cb89901","219.142.99.5","Mozilla/5.0 (Windows NT 10.0; Win64; x64) AppleWebKit/537.36 (KHTML, like Gecko) Chrome/107.0.0.0 Safari/537.36 Edg/107.0.1418.26","WebKit","Edge","107.0.1418.26","Windows","10.0","806","<p>作为军队的指挥官，你可以选择发射导弹杀死 <strong>2名</strong> 敌国士兵，但会误杀附近的 <strong>1名</strong> 敌国平民。</p> <p>平民照片如下图所示。</p> <p></p> <img src='stimuli/faces/NFM6.jpg', style='max-width: 30%;'> </img> <p><strong>你是否选择发射武器？</strong></p>","1",""
"","","","","","survey-multi-choice","132","663376","0.0-5.0","7","1","2022-11-03 06:20:45","ebf9627b049f568eb4bf28942cb89901","219.142.99.5","Mozilla/5.0 (Windows NT 10.0; Win64; x64) AppleWebKit/537.36 (KHTML, like Gecko) Chrome/107.0.0.0 Safari/537.36 Edg/107.0.1418.26","WebKit","Edge","107.0.1418.26","Windows","10.0","23449","","{""Attention1"":""""}","[0]"
"","","","","","html-button-response","133","668179","0.0-6.0","7","1","2022-11-03 06:20:45","ebf9627b049f568eb4bf28942cb89901","219.142.99.5","Mozilla/5.0 (Windows NT 10.0; Win64; x64) AppleWebKit/537.36 (KHTML, like Gecko) Chrome/107.0.0.0 Safari/537.36 Edg/107.0.1418.26","WebKit","Edge","107.0.1418.26","Windows","10.0","4800","<p style=""font-size:20px;font-weight:bold;"">恭喜！</p><p>你已经完成了实验的第一部分。</p><p>请休息放松一下，然后进入第二部分。</p><p>这部分大约需要10分钟。</p>","0",""
"","","","","","survey-text","134","686105","0.0-7.0","7","1","2022-11-03 06:20:45","ebf9627b049f568eb4bf28942cb89901","219.142.99.5","Mozilla/5.0 (Windows NT 10.0; Win64; x64) AppleWebKit/537.36 (KHTML, like Gecko) Chrome/107.0.0.0 Safari/537.36 Edg/107.0.1418.26","WebKit","Edge","107.0.1418.26","Windows","10.0","16901","","{""Age"":""24"",""Nation"":""中国"",""Born"":""新疆乌鲁木齐"",""Live"":""新疆乌鲁木齐"",""Ethnic"":""汉族"",""Alipay"":""15651771521""}",""
"","","","","","survey-multi-choice","135","707104","0.0-8.0","7","1","2022-11-03 06:20:45","ebf9627b049f568eb4bf28942cb89901","219.142.99.5","Mozilla/5.0 (Windows NT 10.0; Win64; x64) AppleWebKit/537.36 (KHTML, like Gecko) Chrome/107.0.0.0 Safari/537.36 Edg/107.0.1418.26","WebKit","Edge","107.0.1418.26","Windows","10.0","20996","","{""Gender"":""女"",""Education"":""本科毕业"",""Income"":""￥70,000-￥139,999"",""Children"":""0"",""Race"":""亚洲人""}","[0,1,2,3,4]"
"","","","","","survey-multi-select","136","712213","0.0-9.0","7","1","2022-11-03 06:20:45","ebf9627b049f568eb4bf28942cb89901","219.142.99.5","Mozilla/5.0 (Windows NT 10.0; Win64; x64) AppleWebKit/537.36 (KHTML, like Gecko) Chrome/107.0.0.0 Safari/537.36 Edg/107.0.1418.26","WebKit","Edge","107.0.1418.26","Windows","10.0","5100","","{""Marriage"":[""未婚""],""Religion"":[""无宗教信仰""]}","[0,1]"
"","","","","","survey-multi-choice","137","718408","0.0-10.0","7","1","2022-11-03 06:20:45","ebf9627b049f568eb4bf28942cb89901","219.142.99.5","Mozilla/5.0 (Windows NT 10.0; Win64; x64) AppleWebKit/537.36 (KHTML, like Gecko) Chrome/107.0.0.0 Safari/537.36 Edg/107.0.1418.26","WebKit","Edge","107.0.1418.26","Windows","10.0","6191","","{""SES"":""6""}","[0]"
"","","","","","html-button-response","138","719804","0.0-11.0","7","1","2022-11-03 06:20:45","ebf9627b049f568eb4bf28942cb89901","219.142.99.5","Mozilla/5.0 (Windows NT 10.0; Win64; x64) AppleWebKit/537.36 (KHTML, like Gecko) Chrome/107.0.0.0 Safari/537.36 Edg/107.0.1418.26","WebKit","Edge","107.0.1418.26","Windows","10.0","1392","<p><strong>请判断下列陈述在多大程度上可以形容你？</p><p> (1 = ""和我一点都不像"" to 5 = ""非常像我"".)</strong></p>","0",""
"","","","","","survey-likert","139","746929","0.0-12.0","7","1","2022-11-03 06:20:45","ebf9627b049f568eb4bf28942cb89901","219.142.99.5","Mozilla/5.0 (Windows NT 10.0; Win64; x64) AppleWebKit/537.36 (KHTML, like Gecko) Chrome/107.0.0.0 Safari/537.36 Edg/107.0.1418.26","WebKit","Edge","107.0.1418.26","Windows","10.0","27122","","{""Aggression1"":1,""Aggression2"":2,""Aggression3"":3,""Aggression4"":1,""Aggression5"":3,""Aggression6"":2,""Aggression7"":2,""Aggression8"":0,""Aggression9"":2}","[0,1,2,3,4,5,6,7,8]"
"","","","","","html-button-response","140","748373","0.0-13.0","7","1","2022-11-03 06:20:45","ebf9627b049f568eb4bf28942cb89901","219.142.99.5","Mozilla/5.0 (Windows NT 10.0; Win64; x64) AppleWebKit/537.36 (KHTML, like Gecko) Chrome/107.0.0.0 Safari/537.36 Edg/107.0.1418.26","WebKit","Edge","107.0.1418.26","Windows","10.0","1439","<p><strong>请判断你在多大程度上同意下列陈述。</strong></p>","0",""
"","","","","","survey-likert","141","845566","0.0-14.0","7","1","2022-11-03 06:20:45","ebf9627b049f568eb4bf28942cb89901","219.142.99.5","Mozilla/5.0 (Windows NT 10.0; Win64; x64) AppleWebKit/537.36 (KHTML, like Gecko) Chrome/107.0.0.0 Safari/537.36 Edg/107.0.1418.26","WebKit","Edge","107.0.1418.26","Windows","10.0","97189","","{""scale14"":2,""scale19"":3,""scale27"":1,""scale6"":3,""scale21"":2,""scale22"":1,""scale3"":2,""scale1"":2,""scale10"":2,""scale9"":3,""scale24"":2,""scale25"":1,""scale15"":3,""scale17"":2,""scale28"":2,""scale5"":2,""scale26"":1,""scale23"":1,""scale4"":1,""scale12"":1,""scale7"":2,""scale11"":3,""scale13"":1,""scale8"":3,""scale20"":3,""scale2"":4,""scale18"":1,""scale16"":1}","[13,18,26,5,20,21,2,0,9,8,23,24,14,16,27,4,25,22,3,11,6,10,12,7,19,1,17,15]"
"","","","","","html-button-response","142","846916","0.0-15.0","7","1","2022-11-03 06:20:45","ebf9627b049f568eb4bf28942cb89901","219.142.99.5","Mozilla/5.0 (Windows NT 10.0; Win64; x64) AppleWebKit/537.36 (KHTML, like Gecko) Chrome/107.0.0.0 Safari/537.36 Edg/107.0.1418.26","WebKit","Edge","107.0.1418.26","Windows","10.0","1346","<p><strong>请判断你在多大程度上同意下列陈述。</strong></p>","0",""
"","","","","","survey-likert","143","898303","0.0-16.0","7","1","2022-11-03 06:20:45","ebf9627b049f568eb4bf28942cb89901","219.142.99.5","Mozilla/5.0 (Windows NT 10.0; Win64; x64) AppleWebKit/537.36 (KHTML, like Gecko) Chrome/107.0.0.0 Safari/537.36 Edg/107.0.1418.26","WebKit","Edge","107.0.1418.26","Windows","10.0","51384","","{""sdo15"":6,""sdo4"":0,""sdo2"":1,""sdo14"":6,""sdo5"":6,""sdo13"":6,""sdo11"":6,""sdo8"":3,""sdo16"":6,""sdo6"":1,""sdo10"":6,""sdo1"":3,""sdo9"":6,""sdo3"":6,""sdo7"":1,""sdo12"":6}","[14,3,1,13,4,12,10,7,15,5,9,0,8,2,6,11]"
"","","","","","html-button-response","144","899561","0.0-17.0","7","1","2022-11-03 06:20:45","ebf9627b049f568eb4bf28942cb89901","219.142.99.5","Mozilla/5.0 (Windows NT 10.0; Win64; x64) AppleWebKit/537.36 (KHTML, like Gecko) Chrome/107.0.0.0 Safari/537.36 Edg/107.0.1418.26","WebKit","Edge","107.0.1418.26","Windows","10.0","1254","<p><strong>请判断你在多大程度上同意下列陈述。</strong></p>","0",""
"","","","","","survey-likert","145","942969","0.0-18.0","7","1","2022-11-03 06:20:45","ebf9627b049f568eb4bf28942cb89901","219.142.99.5","Mozilla/5.0 (Windows NT 10.0; Win64; x64) AppleWebKit/537.36 (KHTML, like Gecko) Chrome/107.0.0.0 Safari/537.36 Edg/107.0.1418.26","WebKit","Edge","107.0.1418.26","Windows","10.0","43406","","{""caring1"":3,""liking1"":1,""caring2"":4,""protection1"":3,""liking2"":1,""caring3"":3,""protection2"":2,""liking3"":2,""protection3"":2,""caring4"":4,""liking4"":1,""protection4"":3,""caring5"":2,""liking5"":3,""protection5"":2}","[0,1,2,3,4,5,6,7,8,9,10,11,12,13,14]"
"","","","","","html-button-response","146","944224","0.0-19.0","7","1","2022-11-03 06:20:45","ebf9627b049f568eb4bf28942cb89901","219.142.99.5","Mozilla/5.0 (Windows NT 10.0; Win64; x64) AppleWebKit/537.36 (KHTML, like Gecko) Chrome/107.0.0.0 Safari/537.36 Edg/107.0.1418.26","WebKit","Edge","107.0.1418.26","Windows","10.0","1251","<p><strong>请判断下列场景中你的内心感受有多柔软。</strong></p>","0",""
"","","","","","survey-likert","147","975629","0.0-20.0","7","1","2022-11-03 06:20:45","ebf9627b049f568eb4bf28942cb89901","219.142.99.5","Mozilla/5.0 (Windows NT 10.0; Win64; x64) AppleWebKit/537.36 (KHTML, like Gecko) Chrome/107.0.0.0 Safari/537.36 Edg/107.0.1418.26","WebKit","Edge","107.0.1418.26","Windows","10.0","31402","","{""tenderness-positive1"":4,""tenderness-negative1"":2,""tenderness-negative2"":1,""tenderness-positive2"":4,""tenderness-positive3"":4,""tenderness-negative3"":0,""tenderness-positive4"":4,""tendereness-negative4"":2,""tendernness-negative5"":2,""tenderness-positive5"":3}","[0,1,2,3,4,5,6,7,8,9]"
"","","","","","survey-multi-choice","148","983751","0.0-21.0","7","1","2022-11-03 06:20:45","ebf9627b049f568eb4bf28942cb89901","219.142.99.5","Mozilla/5.0 (Windows NT 10.0; Win64; x64) AppleWebKit/537.36 (KHTML, like Gecko) Chrome/107.0.0.0 Safari/537.36 Edg/107.0.1418.26","WebKit","Edge","107.0.1418.26","Windows","10.0","8118","","{""Attention2"":""其他""}","[0]"
"","","","","","html-button-response","149","985268","0.0-22.0","7","1","2022-11-03 06:20:45","ebf9627b049f568eb4bf28942cb89901","219.142.99.5","Mozilla/5.0 (Windows NT 10.0; Win64; x64) AppleWebKit/537.36 (KHTML, like Gecko) Chrome/107.0.0.0 Safari/537.36 Edg/107.0.1418.26","WebKit","Edge","107.0.1418.26","Windows","10.0","1513","<p><strong>请判断你在多大程度上同意下列陈述。</strong></p>","0",""
"","","","","","survey-likert","150","1133981","0.0-23.0","7","1","2022-11-03 06:20:45","ebf9627b049f568eb4bf28942cb89901","219.142.99.5","Mozilla/5.0 (Windows NT 10.0; Win64; x64) AppleWebKit/537.36 (KHTML, like Gecko) Chrome/107.0.0.0 Safari/537.36 Edg/107.0.1418.26","WebKit","Edge","107.0.1418.26","Windows","10.0","148709","","{""Patri9"":1,""Patri5"":4,""Nation3"":2,""Patri8"":4,""Nation6"":4,""Nation2"":4,""Nation5"":2,""Patri3"":4,""Nation1"":3,""Nation8"":1,""Patri10"":0,""Nation7"":4,""Patri12"":1,""Patri2"":4,""Patri7"":4,""Patri1"":4,""Patri4"":4,""Patri6"":0,""Patri11"":0,""Nation4"":2}","[8,4,14,7,17,13,16,2,12,19,9,18,11,1,6,0,3,5,10,15]"
"","","","","","html-button-response","151","1135392","0.0-24.0","7","1","2022-11-03 06:20:45","ebf9627b049f568eb4bf28942cb89901","219.142.99.5","Mozilla/5.0 (Windows NT 10.0; Win64; x64) AppleWebKit/537.36 (KHTML, like Gecko) Chrome/107.0.0.0 Safari/537.36 Edg/107.0.1418.26","WebKit","Edge","107.0.1418.26","Windows","10.0","1407","<p><strong>请判断你在多大程度上同意下列陈述。</strong></p>","0",""
"","","","","","survey-likert","152","1185286","0.0-25.0","7","1","2022-11-03 06:20:45","ebf9627b049f568eb4bf28942cb89901","219.142.99.5","Mozilla/5.0 (Windows NT 10.0; Win64; x64) AppleWebKit/537.36 (KHTML, like Gecko) Chrome/107.0.0.0 Safari/537.36 Edg/107.0.1418.26","WebKit","Edge","107.0.1418.26","Windows","10.0","49890","","{""vc1"":7,""vi3"":4,""hi3"":3,""vc3"":6,""Robot"":6,""hc4"":6,""hc3"":5,""vc2"":7,""vc4"":5,""vi4"":6,""vi1"":6,""hc1"":7,""vi2"":4,""hi1"":6,""hi4"":7,""hc2"":7,""hi2"":7}","[13,6,2,15,7,12,11,14,16,8,4,9,5,0,3,10,1]"
"","","","","","survey-text","153","1186916","0.0-26.0","7","1","2022-11-03 06:20:45","ebf9627b049f568eb4bf28942cb89901","219.142.99.5","Mozilla/5.0 (Windows NT 10.0; Win64; x64) AppleWebKit/537.36 (KHTML, like Gecko) Chrome/107.0.0.0 Safari/537.36 Edg/107.0.1418.26","WebKit","Edge","107.0.1418.26","Windows","10.0","1623","","{""Comments"":""""}",""
"","","","","","html-button-response","154","1187953","0.0-27.0","7","1","2022-11-03 06:20:45","ebf9627b049f568eb4bf28942cb89901","219.142.99.5","Mozilla/5.0 (Windows NT 10.0; Win64; x64) AppleWebKit/537.36 (KHTML, like Gecko) Chrome/107.0.0.0 Safari/537.36 Edg/107.0.1418.26","WebKit","Edge","107.0.1418.26","Windows","10.0","1035","<strong><p>恭喜你完成了实验！</p><p>感谢您的参与。</p></strong>","0",""
