"success","timeout","failed_images","failed_audio","failed_video","trial_type","trial_index","time_elapsed","internal_node_id","run_id","condition","recorded_at","source_code_version","ip","user_agent","device","browser","browser_version","platform","platform_version","rt","stimulus","response","question_order"
"true","false","[]","[]","[]","preload","0","2817","0.0-0.0","9","1","2022-11-03 06:27:40","ebf9627b049f568eb4bf28942cb89901","218.87.100.10","Mozilla/5.0 (Windows NT 10.0; Win64; x64) AppleWebKit/537.36 (KHTML, like Gecko) Chrome/100.0.4896.88 Safari/537.36","WebKit","Chrome","100.0.4896.88","Windows","10.0","","","",""
"true","","","","","fullscreen","1","17524","0.0-1.0","9","1","2022-11-03 06:27:40","ebf9627b049f568eb4bf28942cb89901","218.87.100.10","Mozilla/5.0 (Windows NT 10.0; Win64; x64) AppleWebKit/537.36 (KHTML, like Gecko) Chrome/100.0.4896.88 Safari/537.36","WebKit","Chrome","100.0.4896.88","Windows","10.0","","","",""
"","","","","","html-button-response","2","130675","0.0-2.0","9","1","2022-11-03 06:27:40","ebf9627b049f568eb4bf28942cb89901","218.87.100.10","Mozilla/5.0 (Windows NT 10.0; Win64; x64) AppleWebKit/537.36 (KHTML, like Gecko) Chrome/100.0.4896.88 Safari/537.36","WebKit","Chrome","100.0.4896.88","Windows","10.0","113150","<p style=""font-size:20px;font-weight:bold;"">实验知情同意书</p><p style=""text-align:left;""><strong>实验名称：</strong>社会冲突研究</p><p style=""text-align:left;""><strong>主要研究者：</strong>韩晓春副教授（北京师范大学心理学部）</p><p style=""text-align:left;""><strong>联系方式：</strong>发送邮件至xiaochun.han@bnu.edu.cn</p><p style=""text-align:left;""><strong>研究目的：</strong>研究旨在了解人类面对群体冲突时的决策方式，以及相关的心理学特质。实验调查大约需要20分钟。</p><p style=""text-align:left;""><strong>实验流程：</strong>实验包含两部分。第一部分呈现一系列群体冲突场景，请你决定如何对这些冲突进行反应，大约需要10分钟完成。第二部分包含一系列人口统计学信息收集和心理学问卷，大约需要10分钟完成。</p><p style=""text-align:left;""><strong>参加及退出规则：</strong>参加本实验完全取决于您的个人意愿。在参与过程中，您可以随时退出，并且不用承担任何后果。</p><p style=""text-align:left;""><strong>隐私：</strong>本实验完全匿名进行，不会收集您的姓名或其他能够识别您身份的信息。实验中收集的作答仅用作科学研究使用，可能会在学术期刊/书籍上发表，或者用于教学，您的数据未来可能会和其他研究者或实验室分享，但您的个人身份不会被识别。</p><p style=""text-align:left;""><strong>实验报酬：</strong>实验完成后，您将获得15元人民币报酬，以感谢您的时间和努力。调查问卷中包含几道题目用以测验您作答时的认真度。只有完成全部实验，并且正确回答认真度测验的被试才能获得实验报酬。实验报酬将通过支付宝转账发放。</p><p style=""text-align:left;font-size:20px;""><strong>如果您同意以上实验知情同意书的内容，请点击'同意并且开始实验'按钮；否则请关闭浏览器界面，退出实验。</strong></p>","0",""
"","","","","","html-button-response","3","146122","0.0-3.0","9","1","2022-11-03 06:27:40","ebf9627b049f568eb4bf28942cb89901","218.87.100.10","Mozilla/5.0 (Windows NT 10.0; Win64; x64) AppleWebKit/537.36 (KHTML, like Gecko) Chrome/100.0.4896.88 Safari/537.36","WebKit","Chrome","100.0.4896.88","Windows","10.0","15446","<p ><strong>实验任务一：</strong></p><p>请想象你的国家与另一个国家发生了军事冲突。</p><p>你是国家军队的指挥官，你将如何在冲突中进行决策。</p><p>具体来说，作为军队指挥官，请你决定是否发射导弹进行打击。</p><p>接下来，你会面对一系列场景，请仔细阅读每个场景，然后进行决策。</p><p>这部分实验任务大约需要10分钟。</p><p><strong>实验过程中，请集中注意力。</strong></p>","0",""
"","","","","","html-keyboard-response","4","147124","0.0-4.0-0.0","9","1","2022-11-03 06:27:40","ebf9627b049f568eb4bf28942cb89901","218.87.100.10","Mozilla/5.0 (Windows NT 10.0; Win64; x64) AppleWebKit/537.36 (KHTML, like Gecko) Chrome/100.0.4896.88 Safari/537.36","WebKit","Chrome","100.0.4896.88","Windows","10.0","null","<div style=""font-size:60px;"">+</div>","null",""
"","","","","","html-button-response","5","152467","0.0-4.0-1.0","9","1","2022-11-03 06:27:40","ebf9627b049f568eb4bf28942cb89901","218.87.100.10","Mozilla/5.0 (Windows NT 10.0; Win64; x64) AppleWebKit/537.36 (KHTML, like Gecko) Chrome/100.0.4896.88 Safari/537.36","WebKit","Chrome","100.0.4896.88","Windows","10.0","5338","<p>作为军队的指挥官，你可以选择发射导弹杀死 <strong>1名</strong> 敌国士兵，但会炸毁附近的 <strong>1棵</strong> 敌国树木。</p> <p>树木的照片如下图所示。</p> <p></p> <img src='stimuli/trees/7.png', style='max-width: 30%;'> </img> <p><strong>你是否选择发射武器？</strong></p>","0",""
"","","","","","html-keyboard-response","6","153481","0.0-4.0-0.1","9","1","2022-11-03 06:27:40","ebf9627b049f568eb4bf28942cb89901","218.87.100.10","Mozilla/5.0 (Windows NT 10.0; Win64; x64) AppleWebKit/537.36 (KHTML, like Gecko) Chrome/100.0.4896.88 Safari/537.36","WebKit","Chrome","100.0.4896.88","Windows","10.0","null","<div style=""font-size:60px;"">+</div>","null",""
"","","","","","html-button-response","7","158691","0.0-4.0-1.1","9","1","2022-11-03 06:27:40","ebf9627b049f568eb4bf28942cb89901","218.87.100.10","Mozilla/5.0 (Windows NT 10.0; Win64; x64) AppleWebKit/537.36 (KHTML, like Gecko) Chrome/100.0.4896.88 Safari/537.36","WebKit","Chrome","100.0.4896.88","Windows","10.0","5207","<p>作为军队的指挥官，你可以选择发射导弹杀死 <strong>10名</strong> 敌国士兵，但会误杀附近的 <strong>1名</strong> 敌国平民。</p> <p>平民照片如下图所示。</p> <p></p> <img src='stimuli/faces/NFM5.jpg', style='max-width: 30%;'> </img> <p><strong>你是否选择发射武器？</strong></p>","0",""
"","","","","","html-keyboard-response","8","159703","0.0-4.0-0.2","9","1","2022-11-03 06:27:40","ebf9627b049f568eb4bf28942cb89901","218.87.100.10","Mozilla/5.0 (Windows NT 10.0; Win64; x64) AppleWebKit/537.36 (KHTML, like Gecko) Chrome/100.0.4896.88 Safari/537.36","WebKit","Chrome","100.0.4896.88","Windows","10.0","null","<div style=""font-size:60px;"">+</div>","null",""
"","","","","","html-button-response","9","164475","0.0-4.0-1.2","9","1","2022-11-03 06:27:40","ebf9627b049f568eb4bf28942cb89901","218.87.100.10","Mozilla/5.0 (Windows NT 10.0; Win64; x64) AppleWebKit/537.36 (KHTML, like Gecko) Chrome/100.0.4896.88 Safari/537.36","WebKit","Chrome","100.0.4896.88","Windows","10.0","4769","<p>作为军队的指挥官，你可以选择发射导弹杀死 <strong>7名</strong> 敌国士兵，但会炸毁附近的 <strong>1棵</strong> 敌国树木。</p> <p>树木的照片如下图所示。</p> <p></p> <img src='stimuli/trees/6.png', style='max-width: 30%;'> </img> <p><strong>你是否选择发射武器？</strong></p>","0",""
"","","","","","html-keyboard-response","10","165486","0.0-4.0-0.3","9","1","2022-11-03 06:27:40","ebf9627b049f568eb4bf28942cb89901","218.87.100.10","Mozilla/5.0 (Windows NT 10.0; Win64; x64) AppleWebKit/537.36 (KHTML, like Gecko) Chrome/100.0.4896.88 Safari/537.36","WebKit","Chrome","100.0.4896.88","Windows","10.0","null","<div style=""font-size:60px;"">+</div>","null",""
"","","","","","html-button-response","11","167979","0.0-4.0-1.3","9","1","2022-11-03 06:27:40","ebf9627b049f568eb4bf28942cb89901","218.87.100.10","Mozilla/5.0 (Windows NT 10.0; Win64; x64) AppleWebKit/537.36 (KHTML, like Gecko) Chrome/100.0.4896.88 Safari/537.36","WebKit","Chrome","100.0.4896.88","Windows","10.0","2489","<p>作为军队的指挥官，你可以选择发射导弹杀死 <strong>5名</strong> 敌国士兵，但会误杀附近的 <strong>1名</strong> 敌国平民。</p> <p>平民照片如下图所示。</p> <p></p> <img src='stimuli/faces/NFF3.jpg', style='max-width: 30%;'> </img> <p><strong>你是否选择发射武器？</strong></p>","1",""
"","","","","","html-keyboard-response","12","168989","0.0-4.0-0.4","9","1","2022-11-03 06:27:40","ebf9627b049f568eb4bf28942cb89901","218.87.100.10","Mozilla/5.0 (Windows NT 10.0; Win64; x64) AppleWebKit/537.36 (KHTML, like Gecko) Chrome/100.0.4896.88 Safari/537.36","WebKit","Chrome","100.0.4896.88","Windows","10.0","null","<div style=""font-size:60px;"">+</div>","null",""
"","","","","","html-button-response","13","170811","0.0-4.0-1.4","9","1","2022-11-03 06:27:40","ebf9627b049f568eb4bf28942cb89901","218.87.100.10","Mozilla/5.0 (Windows NT 10.0; Win64; x64) AppleWebKit/537.36 (KHTML, like Gecko) Chrome/100.0.4896.88 Safari/537.36","WebKit","Chrome","100.0.4896.88","Windows","10.0","1820","<p>作为军队的指挥官，你可以选择发射导弹杀死 <strong>4名</strong> 敌国士兵，但会误杀附近的 <strong>1名</strong> 敌国平民。</p> <p>平民照片如下图所示。</p> <p></p> <img src='stimuli/faces/NFM5.jpg', style='max-width: 30%;'> </img> <p><strong>你是否选择发射武器？</strong></p>","0",""
"","","","","","html-keyboard-response","14","171819","0.0-4.0-0.5","9","1","2022-11-03 06:27:40","ebf9627b049f568eb4bf28942cb89901","218.87.100.10","Mozilla/5.0 (Windows NT 10.0; Win64; x64) AppleWebKit/537.36 (KHTML, like Gecko) Chrome/100.0.4896.88 Safari/537.36","WebKit","Chrome","100.0.4896.88","Windows","10.0","null","<div style=""font-size:60px;"">+</div>","null",""
"","","","","","html-button-response","15","173899","0.0-4.0-1.5","9","1","2022-11-03 06:27:40","ebf9627b049f568eb4bf28942cb89901","218.87.100.10","Mozilla/5.0 (Windows NT 10.0; Win64; x64) AppleWebKit/537.36 (KHTML, like Gecko) Chrome/100.0.4896.88 Safari/537.36","WebKit","Chrome","100.0.4896.88","Windows","10.0","2075","<p>作为军队的指挥官，你可以选择发射导弹杀死 <strong>6名</strong> 敌国士兵，但会炸毁附近的 <strong>1棵</strong> 敌国树木。</p> <p>树木的照片如下图所示。</p> <p></p> <img src='stimuli/trees/2.png', style='max-width: 30%;'> </img> <p><strong>你是否选择发射武器？</strong></p>","0",""
"","","","","","html-keyboard-response","16","174915","0.0-4.0-0.6","9","1","2022-11-03 06:27:40","ebf9627b049f568eb4bf28942cb89901","218.87.100.10","Mozilla/5.0 (Windows NT 10.0; Win64; x64) AppleWebKit/537.36 (KHTML, like Gecko) Chrome/100.0.4896.88 Safari/537.36","WebKit","Chrome","100.0.4896.88","Windows","10.0","null","<div style=""font-size:60px;"">+</div>","null",""
"","","","","","html-button-response","17","176555","0.0-4.0-1.6","9","1","2022-11-03 06:27:40","ebf9627b049f568eb4bf28942cb89901","218.87.100.10","Mozilla/5.0 (Windows NT 10.0; Win64; x64) AppleWebKit/537.36 (KHTML, like Gecko) Chrome/100.0.4896.88 Safari/537.36","WebKit","Chrome","100.0.4896.88","Windows","10.0","1639","<p>作为军队的指挥官，你可以选择发射导弹杀死 <strong>9名</strong> 敌国士兵，但会误杀附近的 <strong>1名</strong> 敌国平民。</p> <p>平民照片如下图所示。</p> <p></p> <img src='stimuli/faces/NFM6.jpg', style='max-width: 30%;'> </img> <p><strong>你是否选择发射武器？</strong></p>","0",""
"","","","","","html-keyboard-response","18","177560","0.0-4.0-0.7","9","1","2022-11-03 06:27:40","ebf9627b049f568eb4bf28942cb89901","218.87.100.10","Mozilla/5.0 (Windows NT 10.0; Win64; x64) AppleWebKit/537.36 (KHTML, like Gecko) Chrome/100.0.4896.88 Safari/537.36","WebKit","Chrome","100.0.4896.88","Windows","10.0","null","<div style=""font-size:60px;"">+</div>","null",""
"","","","","","html-button-response","19","180155","0.0-4.0-1.7","9","1","2022-11-03 06:27:40","ebf9627b049f568eb4bf28942cb89901","218.87.100.10","Mozilla/5.0 (Windows NT 10.0; Win64; x64) AppleWebKit/537.36 (KHTML, like Gecko) Chrome/100.0.4896.88 Safari/537.36","WebKit","Chrome","100.0.4896.88","Windows","10.0","2591","<p>作为军队的指挥官，你可以选择发射导弹杀死 <strong>2名</strong> 敌国士兵，但会误杀附近的 <strong>1名</strong> 敌国平民。</p> <p>平民照片如下图所示。</p> <p></p> <img src='stimuli/faces/NFM8.jpg', style='max-width: 30%;'> </img> <p><strong>你是否选择发射武器？</strong></p>","0",""
"","","","","","html-keyboard-response","20","181165","0.0-4.0-0.8","9","1","2022-11-03 06:27:40","ebf9627b049f568eb4bf28942cb89901","218.87.100.10","Mozilla/5.0 (Windows NT 10.0; Win64; x64) AppleWebKit/537.36 (KHTML, like Gecko) Chrome/100.0.4896.88 Safari/537.36","WebKit","Chrome","100.0.4896.88","Windows","10.0","null","<div style=""font-size:60px;"">+</div>","null",""
"","","","","","html-button-response","21","183955","0.0-4.0-1.8","9","1","2022-11-03 06:27:40","ebf9627b049f568eb4bf28942cb89901","218.87.100.10","Mozilla/5.0 (Windows NT 10.0; Win64; x64) AppleWebKit/537.36 (KHTML, like Gecko) Chrome/100.0.4896.88 Safari/537.36","WebKit","Chrome","100.0.4896.88","Windows","10.0","2787","<p>作为军队的指挥官，你可以选择发射导弹杀死 <strong>3名</strong> 敌国士兵，但会误杀附近的 <strong>1名</strong> 敌国平民。</p> <p>平民照片如下图所示。</p> <p></p> <img src='stimuli/faces/NFM4.jpg', style='max-width: 30%;'> </img> <p><strong>你是否选择发射武器？</strong></p>","1",""
"","","","","","html-keyboard-response","22","184958","0.0-4.0-0.9","9","1","2022-11-03 06:27:40","ebf9627b049f568eb4bf28942cb89901","218.87.100.10","Mozilla/5.0 (Windows NT 10.0; Win64; x64) AppleWebKit/537.36 (KHTML, like Gecko) Chrome/100.0.4896.88 Safari/537.36","WebKit","Chrome","100.0.4896.88","Windows","10.0","null","<div style=""font-size:60px;"">+</div>","null",""
"","","","","","html-button-response","23","187659","0.0-4.0-1.9","9","1","2022-11-03 06:27:40","ebf9627b049f568eb4bf28942cb89901","218.87.100.10","Mozilla/5.0 (Windows NT 10.0; Win64; x64) AppleWebKit/537.36 (KHTML, like Gecko) Chrome/100.0.4896.88 Safari/537.36","WebKit","Chrome","100.0.4896.88","Windows","10.0","2698","<p>作为军队的指挥官，你可以选择发射导弹杀死 <strong>8名</strong> 敌国士兵，但会炸毁附近的 <strong>1棵</strong> 敌国树木。</p> <p>树木的照片如下图所示。</p> <p></p> <img src='stimuli/trees/10.png', style='max-width: 30%;'> </img> <p><strong>你是否选择发射武器？</strong></p>","0",""
"","","","","","html-keyboard-response","24","188662","0.0-4.0-0.10","9","1","2022-11-03 06:27:40","ebf9627b049f568eb4bf28942cb89901","218.87.100.10","Mozilla/5.0 (Windows NT 10.0; Win64; x64) AppleWebKit/537.36 (KHTML, like Gecko) Chrome/100.0.4896.88 Safari/537.36","WebKit","Chrome","100.0.4896.88","Windows","10.0","null","<div style=""font-size:60px;"">+</div>","null",""
"","","","","","html-button-response","25","189803","0.0-4.0-1.10","9","1","2022-11-03 06:27:40","ebf9627b049f568eb4bf28942cb89901","218.87.100.10","Mozilla/5.0 (Windows NT 10.0; Win64; x64) AppleWebKit/537.36 (KHTML, like Gecko) Chrome/100.0.4896.88 Safari/537.36","WebKit","Chrome","100.0.4896.88","Windows","10.0","1140","<p>作为军队的指挥官，你可以选择发射导弹杀死 <strong>8名</strong> 敌国士兵，但会炸毁附近的 <strong>1棵</strong> 敌国树木。</p> <p>树木的照片如下图所示。</p> <p></p> <img src='stimuli/trees/5.png', style='max-width: 30%;'> </img> <p><strong>你是否选择发射武器？</strong></p>","0",""
"","","","","","html-keyboard-response","26","190820","0.0-4.0-0.11","9","1","2022-11-03 06:27:40","ebf9627b049f568eb4bf28942cb89901","218.87.100.10","Mozilla/5.0 (Windows NT 10.0; Win64; x64) AppleWebKit/537.36 (KHTML, like Gecko) Chrome/100.0.4896.88 Safari/537.36","WebKit","Chrome","100.0.4896.88","Windows","10.0","null","<div style=""font-size:60px;"">+</div>","null",""
"","","","","","html-button-response","27","191851","0.0-4.0-1.11","9","1","2022-11-03 06:27:40","ebf9627b049f568eb4bf28942cb89901","218.87.100.10","Mozilla/5.0 (Windows NT 10.0; Win64; x64) AppleWebKit/537.36 (KHTML, like Gecko) Chrome/100.0.4896.88 Safari/537.36","WebKit","Chrome","100.0.4896.88","Windows","10.0","1028","<p>作为军队的指挥官，你可以选择发射导弹杀死 <strong>2名</strong> 敌国士兵，但会炸毁附近的 <strong>1棵</strong> 敌国树木。</p> <p>树木的照片如下图所示。</p> <p></p> <img src='stimuli/trees/1.png', style='max-width: 30%;'> </img> <p><strong>你是否选择发射武器？</strong></p>","0",""
"","","","","","html-keyboard-response","28","192855","0.0-4.0-0.12","9","1","2022-11-03 06:27:40","ebf9627b049f568eb4bf28942cb89901","218.87.100.10","Mozilla/5.0 (Windows NT 10.0; Win64; x64) AppleWebKit/537.36 (KHTML, like Gecko) Chrome/100.0.4896.88 Safari/537.36","WebKit","Chrome","100.0.4896.88","Windows","10.0","null","<div style=""font-size:60px;"">+</div>","null",""
"","","","","","html-button-response","29","195227","0.0-4.0-1.12","9","1","2022-11-03 06:27:40","ebf9627b049f568eb4bf28942cb89901","218.87.100.10","Mozilla/5.0 (Windows NT 10.0; Win64; x64) AppleWebKit/537.36 (KHTML, like Gecko) Chrome/100.0.4896.88 Safari/537.36","WebKit","Chrome","100.0.4896.88","Windows","10.0","2370","<p>作为军队的指挥官，你可以选择发射导弹杀死 <strong>2名</strong> 敌国士兵，但会炸毁附近的 <strong>1棵</strong> 敌国树木。</p> <p>树木的照片如下图所示。</p> <p></p> <img src='stimuli/trees/3.png', style='max-width: 30%;'> </img> <p><strong>你是否选择发射武器？</strong></p>","0",""
"","","","","","html-keyboard-response","30","196234","0.0-4.0-0.13","9","1","2022-11-03 06:27:40","ebf9627b049f568eb4bf28942cb89901","218.87.100.10","Mozilla/5.0 (Windows NT 10.0; Win64; x64) AppleWebKit/537.36 (KHTML, like Gecko) Chrome/100.0.4896.88 Safari/537.36","WebKit","Chrome","100.0.4896.88","Windows","10.0","null","<div style=""font-size:60px;"">+</div>","null",""
"","","","","","html-button-response","31","200059","0.0-4.0-1.13","9","1","2022-11-03 06:27:40","ebf9627b049f568eb4bf28942cb89901","218.87.100.10","Mozilla/5.0 (Windows NT 10.0; Win64; x64) AppleWebKit/537.36 (KHTML, like Gecko) Chrome/100.0.4896.88 Safari/537.36","WebKit","Chrome","100.0.4896.88","Windows","10.0","3823","<p>作为军队的指挥官，你可以选择发射导弹杀死 <strong>3名</strong> 敌国士兵，但会误杀附近的 <strong>1名</strong> 敌国平民。</p> <p>平民照片如下图所示。</p> <p></p> <img src='stimuli/faces/NFM1.jpg', style='max-width: 30%;'> </img> <p><strong>你是否选择发射武器？</strong></p>","0",""
"","","","","","html-keyboard-response","32","201072","0.0-4.0-0.14","9","1","2022-11-03 06:27:40","ebf9627b049f568eb4bf28942cb89901","218.87.100.10","Mozilla/5.0 (Windows NT 10.0; Win64; x64) AppleWebKit/537.36 (KHTML, like Gecko) Chrome/100.0.4896.88 Safari/537.36","WebKit","Chrome","100.0.4896.88","Windows","10.0","null","<div style=""font-size:60px;"">+</div>","null",""
"","","","","","html-button-response","33","203787","0.0-4.0-1.14","9","1","2022-11-03 06:27:40","ebf9627b049f568eb4bf28942cb89901","218.87.100.10","Mozilla/5.0 (Windows NT 10.0; Win64; x64) AppleWebKit/537.36 (KHTML, like Gecko) Chrome/100.0.4896.88 Safari/537.36","WebKit","Chrome","100.0.4896.88","Windows","10.0","2712","<p>作为军队的指挥官，你可以选择发射导弹杀死 <strong>1名</strong> 敌国士兵，但会误杀附近的 <strong>1名</strong> 敌国平民。</p> <p>平民照片如下图所示。</p> <p></p> <img src='stimuli/faces/NFM2.jpg', style='max-width: 30%;'> </img> <p><strong>你是否选择发射武器？</strong></p>","1",""
"","","","","","html-keyboard-response","34","204792","0.0-4.0-0.15","9","1","2022-11-03 06:27:40","ebf9627b049f568eb4bf28942cb89901","218.87.100.10","Mozilla/5.0 (Windows NT 10.0; Win64; x64) AppleWebKit/537.36 (KHTML, like Gecko) Chrome/100.0.4896.88 Safari/537.36","WebKit","Chrome","100.0.4896.88","Windows","10.0","null","<div style=""font-size:60px;"">+</div>","null",""
"","","","","","html-button-response","35","210803","0.0-4.0-1.15","9","1","2022-11-03 06:27:40","ebf9627b049f568eb4bf28942cb89901","218.87.100.10","Mozilla/5.0 (Windows NT 10.0; Win64; x64) AppleWebKit/537.36 (KHTML, like Gecko) Chrome/100.0.4896.88 Safari/537.36","WebKit","Chrome","100.0.4896.88","Windows","10.0","6010","<p>作为军队的指挥官，你可以选择发射导弹杀死 <strong>2名</strong> 敌国士兵，但会误杀附近的 <strong>1名</strong> 敌国平民。</p> <p>平民照片如下图所示。</p> <p></p> <img src='stimuli/faces/NFF4.jpg', style='max-width: 30%;'> </img> <p><strong>你是否选择发射武器？</strong></p>","1",""
"","","","","","html-keyboard-response","36","211812","0.0-4.0-0.16","9","1","2022-11-03 06:27:40","ebf9627b049f568eb4bf28942cb89901","218.87.100.10","Mozilla/5.0 (Windows NT 10.0; Win64; x64) AppleWebKit/537.36 (KHTML, like Gecko) Chrome/100.0.4896.88 Safari/537.36","WebKit","Chrome","100.0.4896.88","Windows","10.0","null","<div style=""font-size:60px;"">+</div>","null",""
"","","","","","html-button-response","37","219947","0.0-4.0-1.16","9","1","2022-11-03 06:27:40","ebf9627b049f568eb4bf28942cb89901","218.87.100.10","Mozilla/5.0 (Windows NT 10.0; Win64; x64) AppleWebKit/537.36 (KHTML, like Gecko) Chrome/100.0.4896.88 Safari/537.36","WebKit","Chrome","100.0.4896.88","Windows","10.0","8131","<p>作为军队的指挥官，你可以选择发射导弹杀死 <strong>7名</strong> 敌国士兵，但会误杀附近的 <strong>1名</strong> 敌国平民。</p> <p>平民照片如下图所示。</p> <p></p> <img src='stimuli/faces/NFM4.jpg', style='max-width: 30%;'> </img> <p><strong>你是否选择发射武器？</strong></p>","0",""
"","","","","","html-keyboard-response","38","220964","0.0-4.0-0.17","9","1","2022-11-03 06:27:40","ebf9627b049f568eb4bf28942cb89901","218.87.100.10","Mozilla/5.0 (Windows NT 10.0; Win64; x64) AppleWebKit/537.36 (KHTML, like Gecko) Chrome/100.0.4896.88 Safari/537.36","WebKit","Chrome","100.0.4896.88","Windows","10.0","null","<div style=""font-size:60px;"">+</div>","null",""
"","","","","","html-button-response","39","223075","0.0-4.0-1.17","9","1","2022-11-03 06:27:40","ebf9627b049f568eb4bf28942cb89901","218.87.100.10","Mozilla/5.0 (Windows NT 10.0; Win64; x64) AppleWebKit/537.36 (KHTML, like Gecko) Chrome/100.0.4896.88 Safari/537.36","WebKit","Chrome","100.0.4896.88","Windows","10.0","2107","<p>作为军队的指挥官，你可以选择发射导弹杀死 <strong>2名</strong> 敌国士兵，但会炸毁附近的 <strong>1棵</strong> 敌国树木。</p> <p>树木的照片如下图所示。</p> <p></p> <img src='stimuli/trees/6.png', style='max-width: 30%;'> </img> <p><strong>你是否选择发射武器？</strong></p>","0",""
"","","","","","html-keyboard-response","40","224089","0.0-4.0-0.18","9","1","2022-11-03 06:27:40","ebf9627b049f568eb4bf28942cb89901","218.87.100.10","Mozilla/5.0 (Windows NT 10.0; Win64; x64) AppleWebKit/537.36 (KHTML, like Gecko) Chrome/100.0.4896.88 Safari/537.36","WebKit","Chrome","100.0.4896.88","Windows","10.0","null","<div style=""font-size:60px;"">+</div>","null",""
"","","","","","html-button-response","41","226779","0.0-4.0-1.18","9","1","2022-11-03 06:27:40","ebf9627b049f568eb4bf28942cb89901","218.87.100.10","Mozilla/5.0 (Windows NT 10.0; Win64; x64) AppleWebKit/537.36 (KHTML, like Gecko) Chrome/100.0.4896.88 Safari/537.36","WebKit","Chrome","100.0.4896.88","Windows","10.0","2685","<p>作为军队的指挥官，你可以选择发射导弹杀死 <strong>9名</strong> 敌国士兵，但会误杀附近的 <strong>1名</strong> 敌国平民。</p> <p>平民照片如下图所示。</p> <p></p> <img src='stimuli/faces/NFM8.jpg', style='max-width: 30%;'> </img> <p><strong>你是否选择发射武器？</strong></p>","0",""
"","","","","","html-keyboard-response","42","227785","0.0-4.0-0.19","9","1","2022-11-03 06:27:40","ebf9627b049f568eb4bf28942cb89901","218.87.100.10","Mozilla/5.0 (Windows NT 10.0; Win64; x64) AppleWebKit/537.36 (KHTML, like Gecko) Chrome/100.0.4896.88 Safari/537.36","WebKit","Chrome","100.0.4896.88","Windows","10.0","null","<div style=""font-size:60px;"">+</div>","null",""
"","","","","","html-button-response","43","230787","0.0-4.0-1.19","9","1","2022-11-03 06:27:40","ebf9627b049f568eb4bf28942cb89901","218.87.100.10","Mozilla/5.0 (Windows NT 10.0; Win64; x64) AppleWebKit/537.36 (KHTML, like Gecko) Chrome/100.0.4896.88 Safari/537.36","WebKit","Chrome","100.0.4896.88","Windows","10.0","2998","<p>作为军队的指挥官，你可以选择发射导弹杀死 <strong>7名</strong> 敌国士兵，但会误杀附近的 <strong>1名</strong> 敌国平民。</p> <p>平民照片如下图所示。</p> <p></p> <img src='stimuli/faces/NFM7.jpg', style='max-width: 30%;'> </img> <p><strong>你是否选择发射武器？</strong></p>","0",""
"","","","","","html-keyboard-response","44","231792","0.0-4.0-0.20","9","1","2022-11-03 06:27:40","ebf9627b049f568eb4bf28942cb89901","218.87.100.10","Mozilla/5.0 (Windows NT 10.0; Win64; x64) AppleWebKit/537.36 (KHTML, like Gecko) Chrome/100.0.4896.88 Safari/537.36","WebKit","Chrome","100.0.4896.88","Windows","10.0","null","<div style=""font-size:60px;"">+</div>","null",""
"","","","","","html-button-response","45","238451","0.0-4.0-1.20","9","1","2022-11-03 06:27:40","ebf9627b049f568eb4bf28942cb89901","218.87.100.10","Mozilla/5.0 (Windows NT 10.0; Win64; x64) AppleWebKit/537.36 (KHTML, like Gecko) Chrome/100.0.4896.88 Safari/537.36","WebKit","Chrome","100.0.4896.88","Windows","10.0","6654","<p>作为军队的指挥官，你可以选择发射导弹杀死 <strong>5名</strong> 敌国士兵，但会误杀附近的 <strong>1名</strong> 敌国平民。</p> <p>平民照片如下图所示。</p> <p></p> <img src='stimuli/faces/NFF8.jpg', style='max-width: 30%;'> </img> <p><strong>你是否选择发射武器？</strong></p>","0",""
"","","","","","html-keyboard-response","46","239457","0.0-4.0-0.21","9","1","2022-11-03 06:27:40","ebf9627b049f568eb4bf28942cb89901","218.87.100.10","Mozilla/5.0 (Windows NT 10.0; Win64; x64) AppleWebKit/537.36 (KHTML, like Gecko) Chrome/100.0.4896.88 Safari/537.36","WebKit","Chrome","100.0.4896.88","Windows","10.0","null","<div style=""font-size:60px;"">+</div>","null",""
"","","","","","html-button-response","47","255595","0.0-4.0-1.21","9","1","2022-11-03 06:27:40","ebf9627b049f568eb4bf28942cb89901","218.87.100.10","Mozilla/5.0 (Windows NT 10.0; Win64; x64) AppleWebKit/537.36 (KHTML, like Gecko) Chrome/100.0.4896.88 Safari/537.36","WebKit","Chrome","100.0.4896.88","Windows","10.0","16136","<p>作为军队的指挥官，你可以选择发射导弹杀死 <strong>5名</strong> 敌国士兵，但会炸毁附近的 <strong>1棵</strong> 敌国树木。</p> <p>树木的照片如下图所示。</p> <p></p> <img src='stimuli/trees/2.png', style='max-width: 30%;'> </img> <p><strong>你是否选择发射武器？</strong></p>","0",""
"","","","","","html-keyboard-response","48","256611","0.0-4.0-0.22","9","1","2022-11-03 06:27:40","ebf9627b049f568eb4bf28942cb89901","218.87.100.10","Mozilla/5.0 (Windows NT 10.0; Win64; x64) AppleWebKit/537.36 (KHTML, like Gecko) Chrome/100.0.4896.88 Safari/537.36","WebKit","Chrome","100.0.4896.88","Windows","10.0","null","<div style=""font-size:60px;"">+</div>","null",""
"","","","","","html-button-response","49","263899","0.0-4.0-1.22","9","1","2022-11-03 06:27:40","ebf9627b049f568eb4bf28942cb89901","218.87.100.10","Mozilla/5.0 (Windows NT 10.0; Win64; x64) AppleWebKit/537.36 (KHTML, like Gecko) Chrome/100.0.4896.88 Safari/537.36","WebKit","Chrome","100.0.4896.88","Windows","10.0","7282","<p>作为军队的指挥官，你可以选择发射导弹杀死 <strong>3名</strong> 敌国士兵，但会炸毁附近的 <strong>1棵</strong> 敌国树木。</p> <p>树木的照片如下图所示。</p> <p></p> <img src='stimuli/trees/4.png', style='max-width: 30%;'> </img> <p><strong>你是否选择发射武器？</strong></p>","0",""
"","","","","","html-keyboard-response","50","264911","0.0-4.0-0.23","9","1","2022-11-03 06:27:40","ebf9627b049f568eb4bf28942cb89901","218.87.100.10","Mozilla/5.0 (Windows NT 10.0; Win64; x64) AppleWebKit/537.36 (KHTML, like Gecko) Chrome/100.0.4896.88 Safari/537.36","WebKit","Chrome","100.0.4896.88","Windows","10.0","null","<div style=""font-size:60px;"">+</div>","null",""
"","","","","","html-button-response","51","270923","0.0-4.0-1.23","9","1","2022-11-03 06:27:40","ebf9627b049f568eb4bf28942cb89901","218.87.100.10","Mozilla/5.0 (Windows NT 10.0; Win64; x64) AppleWebKit/537.36 (KHTML, like Gecko) Chrome/100.0.4896.88 Safari/537.36","WebKit","Chrome","100.0.4896.88","Windows","10.0","6008","<p>作为军队的指挥官，你可以选择发射导弹杀死 <strong>4名</strong> 敌国士兵，但会误杀附近的 <strong>1名</strong> 敌国平民。</p> <p>平民照片如下图所示。</p> <p></p> <img src='stimuli/faces/NFF7.jpg', style='max-width: 30%;'> </img> <p><strong>你是否选择发射武器？</strong></p>","1",""
"","","","","","html-keyboard-response","52","271931","0.0-4.0-0.24","9","1","2022-11-03 06:27:40","ebf9627b049f568eb4bf28942cb89901","218.87.100.10","Mozilla/5.0 (Windows NT 10.0; Win64; x64) AppleWebKit/537.36 (KHTML, like Gecko) Chrome/100.0.4896.88 Safari/537.36","WebKit","Chrome","100.0.4896.88","Windows","10.0","null","<div style=""font-size:60px;"">+</div>","null",""
"","","","","","html-button-response","53","279595","0.0-4.0-1.24","9","1","2022-11-03 06:27:40","ebf9627b049f568eb4bf28942cb89901","218.87.100.10","Mozilla/5.0 (Windows NT 10.0; Win64; x64) AppleWebKit/537.36 (KHTML, like Gecko) Chrome/100.0.4896.88 Safari/537.36","WebKit","Chrome","100.0.4896.88","Windows","10.0","7659","<p>作为军队的指挥官，你可以选择发射导弹杀死 <strong>1名</strong> 敌国士兵，但会误杀附近的 <strong>1名</strong> 敌国平民。</p> <p>平民照片如下图所示。</p> <p></p> <img src='stimuli/faces/NFM7.jpg', style='max-width: 30%;'> </img> <p><strong>你是否选择发射武器？</strong></p>","0",""
"","","","","","html-keyboard-response","54","280604","0.0-4.0-0.25","9","1","2022-11-03 06:27:40","ebf9627b049f568eb4bf28942cb89901","218.87.100.10","Mozilla/5.0 (Windows NT 10.0; Win64; x64) AppleWebKit/537.36 (KHTML, like Gecko) Chrome/100.0.4896.88 Safari/537.36","WebKit","Chrome","100.0.4896.88","Windows","10.0","null","<div style=""font-size:60px;"">+</div>","null",""
"","","","","","html-button-response","55","286707","0.0-4.0-1.25","9","1","2022-11-03 06:27:40","ebf9627b049f568eb4bf28942cb89901","218.87.100.10","Mozilla/5.0 (Windows NT 10.0; Win64; x64) AppleWebKit/537.36 (KHTML, like Gecko) Chrome/100.0.4896.88 Safari/537.36","WebKit","Chrome","100.0.4896.88","Windows","10.0","6097","<p>作为军队的指挥官，你可以选择发射导弹杀死 <strong>5名</strong> 敌国士兵，但会误杀附近的 <strong>1名</strong> 敌国平民。</p> <p>平民照片如下图所示。</p> <p></p> <img src='stimuli/faces/NFF5.jpg', style='max-width: 30%;'> </img> <p><strong>你是否选择发射武器？</strong></p>","1",""
"","","","","","html-keyboard-response","56","287723","0.0-4.0-0.26","9","1","2022-11-03 06:27:40","ebf9627b049f568eb4bf28942cb89901","218.87.100.10","Mozilla/5.0 (Windows NT 10.0; Win64; x64) AppleWebKit/537.36 (KHTML, like Gecko) Chrome/100.0.4896.88 Safari/537.36","WebKit","Chrome","100.0.4896.88","Windows","10.0","null","<div style=""font-size:60px;"">+</div>","null",""
"","","","","","html-button-response","57","289635","0.0-4.0-1.26","9","1","2022-11-03 06:27:40","ebf9627b049f568eb4bf28942cb89901","218.87.100.10","Mozilla/5.0 (Windows NT 10.0; Win64; x64) AppleWebKit/537.36 (KHTML, like Gecko) Chrome/100.0.4896.88 Safari/537.36","WebKit","Chrome","100.0.4896.88","Windows","10.0","1908","<p>作为军队的指挥官，你可以选择发射导弹杀死 <strong>6名</strong> 敌国士兵，但会误杀附近的 <strong>1名</strong> 敌国平民。</p> <p>平民照片如下图所示。</p> <p></p> <img src='stimuli/faces/NFF1.jpg', style='max-width: 30%;'> </img> <p><strong>你是否选择发射武器？</strong></p>","1",""
"","","","","","html-keyboard-response","58","290637","0.0-4.0-0.27","9","1","2022-11-03 06:27:40","ebf9627b049f568eb4bf28942cb89901","218.87.100.10","Mozilla/5.0 (Windows NT 10.0; Win64; x64) AppleWebKit/537.36 (KHTML, like Gecko) Chrome/100.0.4896.88 Safari/537.36","WebKit","Chrome","100.0.4896.88","Windows","10.0","null","<div style=""font-size:60px;"">+</div>","null",""
"","","","","","html-button-response","59","294139","0.0-4.0-1.27","9","1","2022-11-03 06:27:40","ebf9627b049f568eb4bf28942cb89901","218.87.100.10","Mozilla/5.0 (Windows NT 10.0; Win64; x64) AppleWebKit/537.36 (KHTML, like Gecko) Chrome/100.0.4896.88 Safari/537.36","WebKit","Chrome","100.0.4896.88","Windows","10.0","3497","<p>作为军队的指挥官，你可以选择发射导弹杀死 <strong>1名</strong> 敌国士兵，但会误杀附近的 <strong>1名</strong> 敌国平民。</p> <p>平民照片如下图所示。</p> <p></p> <img src='stimuli/faces/NFF2.jpg', style='max-width: 30%;'> </img> <p><strong>你是否选择发射武器？</strong></p>","1",""
"","","","","","html-keyboard-response","60","295151","0.0-4.0-0.28","9","1","2022-11-03 06:27:40","ebf9627b049f568eb4bf28942cb89901","218.87.100.10","Mozilla/5.0 (Windows NT 10.0; Win64; x64) AppleWebKit/537.36 (KHTML, like Gecko) Chrome/100.0.4896.88 Safari/537.36","WebKit","Chrome","100.0.4896.88","Windows","10.0","null","<div style=""font-size:60px;"">+</div>","null",""
"","","","","","html-button-response","61","296843","0.0-4.0-1.28","9","1","2022-11-03 06:27:40","ebf9627b049f568eb4bf28942cb89901","218.87.100.10","Mozilla/5.0 (Windows NT 10.0; Win64; x64) AppleWebKit/537.36 (KHTML, like Gecko) Chrome/100.0.4896.88 Safari/537.36","WebKit","Chrome","100.0.4896.88","Windows","10.0","1687","<p>作为军队的指挥官，你可以选择发射导弹杀死 <strong>1名</strong> 敌国士兵，但会炸毁附近的 <strong>1棵</strong> 敌国树木。</p> <p>树木的照片如下图所示。</p> <p></p> <img src='stimuli/trees/12.png', style='max-width: 30%;'> </img> <p><strong>你是否选择发射武器？</strong></p>","0",""
"","","","","","html-keyboard-response","62","297858","0.0-4.0-0.29","9","1","2022-11-03 06:27:40","ebf9627b049f568eb4bf28942cb89901","218.87.100.10","Mozilla/5.0 (Windows NT 10.0; Win64; x64) AppleWebKit/537.36 (KHTML, like Gecko) Chrome/100.0.4896.88 Safari/537.36","WebKit","Chrome","100.0.4896.88","Windows","10.0","null","<div style=""font-size:60px;"">+</div>","null",""
"","","","","","html-button-response","63","299995","0.0-4.0-1.29","9","1","2022-11-03 06:27:40","ebf9627b049f568eb4bf28942cb89901","218.87.100.10","Mozilla/5.0 (Windows NT 10.0; Win64; x64) AppleWebKit/537.36 (KHTML, like Gecko) Chrome/100.0.4896.88 Safari/537.36","WebKit","Chrome","100.0.4896.88","Windows","10.0","2135","<p>作为军队的指挥官，你可以选择发射导弹杀死 <strong>2名</strong> 敌国士兵，但会误杀附近的 <strong>1名</strong> 敌国平民。</p> <p>平民照片如下图所示。</p> <p></p> <img src='stimuli/faces/NFF6.jpg', style='max-width: 30%;'> </img> <p><strong>你是否选择发射武器？</strong></p>","1",""
"","","","","","html-keyboard-response","64","301000","0.0-4.0-0.30","9","1","2022-11-03 06:27:40","ebf9627b049f568eb4bf28942cb89901","218.87.100.10","Mozilla/5.0 (Windows NT 10.0; Win64; x64) AppleWebKit/537.36 (KHTML, like Gecko) Chrome/100.0.4896.88 Safari/537.36","WebKit","Chrome","100.0.4896.88","Windows","10.0","null","<div style=""font-size:60px;"">+</div>","null",""
"","","","","","html-button-response","65","303043","0.0-4.0-1.30","9","1","2022-11-03 06:27:40","ebf9627b049f568eb4bf28942cb89901","218.87.100.10","Mozilla/5.0 (Windows NT 10.0; Win64; x64) AppleWebKit/537.36 (KHTML, like Gecko) Chrome/100.0.4896.88 Safari/537.36","WebKit","Chrome","100.0.4896.88","Windows","10.0","2038","<p>作为军队的指挥官，你可以选择发射导弹杀死 <strong>2名</strong> 敌国士兵，但会炸毁附近的 <strong>1棵</strong> 敌国树木。</p> <p>树木的照片如下图所示。</p> <p></p> <img src='stimuli/trees/10.png', style='max-width: 30%;'> </img> <p><strong>你是否选择发射武器？</strong></p>","0",""
"","","","","","html-keyboard-response","66","304051","0.0-4.0-0.31","9","1","2022-11-03 06:27:40","ebf9627b049f568eb4bf28942cb89901","218.87.100.10","Mozilla/5.0 (Windows NT 10.0; Win64; x64) AppleWebKit/537.36 (KHTML, like Gecko) Chrome/100.0.4896.88 Safari/537.36","WebKit","Chrome","100.0.4896.88","Windows","10.0","null","<div style=""font-size:60px;"">+</div>","null",""
"","","","","","html-button-response","67","305403","0.0-4.0-1.31","9","1","2022-11-03 06:27:40","ebf9627b049f568eb4bf28942cb89901","218.87.100.10","Mozilla/5.0 (Windows NT 10.0; Win64; x64) AppleWebKit/537.36 (KHTML, like Gecko) Chrome/100.0.4896.88 Safari/537.36","WebKit","Chrome","100.0.4896.88","Windows","10.0","1347","<p>作为军队的指挥官，你可以选择发射导弹杀死 <strong>2名</strong> 敌国士兵，但会炸毁附近的 <strong>1棵</strong> 敌国树木。</p> <p>树木的照片如下图所示。</p> <p></p> <img src='stimuli/trees/15.png', style='max-width: 30%;'> </img> <p><strong>你是否选择发射武器？</strong></p>","0",""
"","","","","","html-keyboard-response","68","306412","0.0-4.0-0.32","9","1","2022-11-03 06:27:40","ebf9627b049f568eb4bf28942cb89901","218.87.100.10","Mozilla/5.0 (Windows NT 10.0; Win64; x64) AppleWebKit/537.36 (KHTML, like Gecko) Chrome/100.0.4896.88 Safari/537.36","WebKit","Chrome","100.0.4896.88","Windows","10.0","null","<div style=""font-size:60px;"">+</div>","null",""
"","","","","","html-button-response","69","308467","0.0-4.0-1.32","9","1","2022-11-03 06:27:40","ebf9627b049f568eb4bf28942cb89901","218.87.100.10","Mozilla/5.0 (Windows NT 10.0; Win64; x64) AppleWebKit/537.36 (KHTML, like Gecko) Chrome/100.0.4896.88 Safari/537.36","WebKit","Chrome","100.0.4896.88","Windows","10.0","2053","<p>作为军队的指挥官，你可以选择发射导弹杀死 <strong>9名</strong> 敌国士兵，但会炸毁附近的 <strong>1棵</strong> 敌国树木。</p> <p>树木的照片如下图所示。</p> <p></p> <img src='stimuli/trees/8.png', style='max-width: 30%;'> </img> <p><strong>你是否选择发射武器？</strong></p>","0",""
"","","","","","html-keyboard-response","70","309474","0.0-4.0-0.33","9","1","2022-11-03 06:27:40","ebf9627b049f568eb4bf28942cb89901","218.87.100.10","Mozilla/5.0 (Windows NT 10.0; Win64; x64) AppleWebKit/537.36 (KHTML, like Gecko) Chrome/100.0.4896.88 Safari/537.36","WebKit","Chrome","100.0.4896.88","Windows","10.0","null","<div style=""font-size:60px;"">+</div>","null",""
"","","","","","html-button-response","71","312963","0.0-4.0-1.33","9","1","2022-11-03 06:27:40","ebf9627b049f568eb4bf28942cb89901","218.87.100.10","Mozilla/5.0 (Windows NT 10.0; Win64; x64) AppleWebKit/537.36 (KHTML, like Gecko) Chrome/100.0.4896.88 Safari/537.36","WebKit","Chrome","100.0.4896.88","Windows","10.0","3484","<p>作为军队的指挥官，你可以选择发射导弹杀死 <strong>9名</strong> 敌国士兵，但会炸毁附近的 <strong>1棵</strong> 敌国树木。</p> <p>树木的照片如下图所示。</p> <p></p> <img src='stimuli/trees/15.png', style='max-width: 30%;'> </img> <p><strong>你是否选择发射武器？</strong></p>","0",""
"","","","","","html-keyboard-response","72","313980","0.0-4.0-0.34","9","1","2022-11-03 06:27:40","ebf9627b049f568eb4bf28942cb89901","218.87.100.10","Mozilla/5.0 (Windows NT 10.0; Win64; x64) AppleWebKit/537.36 (KHTML, like Gecko) Chrome/100.0.4896.88 Safari/537.36","WebKit","Chrome","100.0.4896.88","Windows","10.0","null","<div style=""font-size:60px;"">+</div>","null",""
"","","","","","html-button-response","73","317803","0.0-4.0-1.34","9","1","2022-11-03 06:27:40","ebf9627b049f568eb4bf28942cb89901","218.87.100.10","Mozilla/5.0 (Windows NT 10.0; Win64; x64) AppleWebKit/537.36 (KHTML, like Gecko) Chrome/100.0.4896.88 Safari/537.36","WebKit","Chrome","100.0.4896.88","Windows","10.0","3817","<p>作为军队的指挥官，你可以选择发射导弹杀死 <strong>6名</strong> 敌国士兵，但会误杀附近的 <strong>1名</strong> 敌国平民。</p> <p>平民照片如下图所示。</p> <p></p> <img src='stimuli/faces/NFM2.jpg', style='max-width: 30%;'> </img> <p><strong>你是否选择发射武器？</strong></p>","0",""
"","","","","","html-keyboard-response","74","318819","0.0-4.0-0.35","9","1","2022-11-03 06:27:40","ebf9627b049f568eb4bf28942cb89901","218.87.100.10","Mozilla/5.0 (Windows NT 10.0; Win64; x64) AppleWebKit/537.36 (KHTML, like Gecko) Chrome/100.0.4896.88 Safari/537.36","WebKit","Chrome","100.0.4896.88","Windows","10.0","null","<div style=""font-size:60px;"">+</div>","null",""
"","","","","","html-button-response","75","320067","0.0-4.0-1.35","9","1","2022-11-03 06:27:40","ebf9627b049f568eb4bf28942cb89901","218.87.100.10","Mozilla/5.0 (Windows NT 10.0; Win64; x64) AppleWebKit/537.36 (KHTML, like Gecko) Chrome/100.0.4896.88 Safari/537.36","WebKit","Chrome","100.0.4896.88","Windows","10.0","1246","<p>作为军队的指挥官，你可以选择发射导弹杀死 <strong>7名</strong> 敌国士兵，但会炸毁附近的 <strong>1棵</strong> 敌国树木。</p> <p>树木的照片如下图所示。</p> <p></p> <img src='stimuli/trees/16.png', style='max-width: 30%;'> </img> <p><strong>你是否选择发射武器？</strong></p>","0",""
"","","","","","html-keyboard-response","76","321069","0.0-4.0-0.36","9","1","2022-11-03 06:27:40","ebf9627b049f568eb4bf28942cb89901","218.87.100.10","Mozilla/5.0 (Windows NT 10.0; Win64; x64) AppleWebKit/537.36 (KHTML, like Gecko) Chrome/100.0.4896.88 Safari/537.36","WebKit","Chrome","100.0.4896.88","Windows","10.0","null","<div style=""font-size:60px;"">+</div>","null",""
"","","","","","html-button-response","77","322891","0.0-4.0-1.36","9","1","2022-11-03 06:27:40","ebf9627b049f568eb4bf28942cb89901","218.87.100.10","Mozilla/5.0 (Windows NT 10.0; Win64; x64) AppleWebKit/537.36 (KHTML, like Gecko) Chrome/100.0.4896.88 Safari/537.36","WebKit","Chrome","100.0.4896.88","Windows","10.0","1820","<p>作为军队的指挥官，你可以选择发射导弹杀死 <strong>7名</strong> 敌国士兵，但会炸毁附近的 <strong>1棵</strong> 敌国树木。</p> <p>树木的照片如下图所示。</p> <p></p> <img src='stimuli/trees/9.png', style='max-width: 30%;'> </img> <p><strong>你是否选择发射武器？</strong></p>","0",""
"","","","","","html-keyboard-response","78","323908","0.0-4.0-0.37","9","1","2022-11-03 06:27:40","ebf9627b049f568eb4bf28942cb89901","218.87.100.10","Mozilla/5.0 (Windows NT 10.0; Win64; x64) AppleWebKit/537.36 (KHTML, like Gecko) Chrome/100.0.4896.88 Safari/537.36","WebKit","Chrome","100.0.4896.88","Windows","10.0","null","<div style=""font-size:60px;"">+</div>","null",""
"","","","","","html-button-response","79","337291","0.0-4.0-1.37","9","1","2022-11-03 06:27:40","ebf9627b049f568eb4bf28942cb89901","218.87.100.10","Mozilla/5.0 (Windows NT 10.0; Win64; x64) AppleWebKit/537.36 (KHTML, like Gecko) Chrome/100.0.4896.88 Safari/537.36","WebKit","Chrome","100.0.4896.88","Windows","10.0","13378","<p>作为军队的指挥官，你可以选择发射导弹杀死 <strong>6名</strong> 敌国士兵，但会炸毁附近的 <strong>1棵</strong> 敌国树木。</p> <p>树木的照片如下图所示。</p> <p></p> <img src='stimuli/trees/11.png', style='max-width: 30%;'> </img> <p><strong>你是否选择发射武器？</strong></p>","0",""
"","","","","","html-keyboard-response","80","338298","0.0-4.0-0.38","9","1","2022-11-03 06:27:40","ebf9627b049f568eb4bf28942cb89901","218.87.100.10","Mozilla/5.0 (Windows NT 10.0; Win64; x64) AppleWebKit/537.36 (KHTML, like Gecko) Chrome/100.0.4896.88 Safari/537.36","WebKit","Chrome","100.0.4896.88","Windows","10.0","null","<div style=""font-size:60px;"">+</div>","null",""
"","","","","","html-button-response","81","345835","0.0-4.0-1.38","9","1","2022-11-03 06:27:40","ebf9627b049f568eb4bf28942cb89901","218.87.100.10","Mozilla/5.0 (Windows NT 10.0; Win64; x64) AppleWebKit/537.36 (KHTML, like Gecko) Chrome/100.0.4896.88 Safari/537.36","WebKit","Chrome","100.0.4896.88","Windows","10.0","7534","<p>作为军队的指挥官，你可以选择发射导弹杀死 <strong>8名</strong> 敌国士兵，但会误杀附近的 <strong>1名</strong> 敌国平民。</p> <p>平民照片如下图所示。</p> <p></p> <img src='stimuli/faces/NFF2.jpg', style='max-width: 30%;'> </img> <p><strong>你是否选择发射武器？</strong></p>","0",""
"","","","","","html-keyboard-response","82","346852","0.0-4.0-0.39","9","1","2022-11-03 06:27:40","ebf9627b049f568eb4bf28942cb89901","218.87.100.10","Mozilla/5.0 (Windows NT 10.0; Win64; x64) AppleWebKit/537.36 (KHTML, like Gecko) Chrome/100.0.4896.88 Safari/537.36","WebKit","Chrome","100.0.4896.88","Windows","10.0","null","<div style=""font-size:60px;"">+</div>","null",""
"","","","","","html-button-response","83","353763","0.0-4.0-1.39","9","1","2022-11-03 06:27:40","ebf9627b049f568eb4bf28942cb89901","218.87.100.10","Mozilla/5.0 (Windows NT 10.0; Win64; x64) AppleWebKit/537.36 (KHTML, like Gecko) Chrome/100.0.4896.88 Safari/537.36","WebKit","Chrome","100.0.4896.88","Windows","10.0","6908","<p>作为军队的指挥官，你可以选择发射导弹杀死 <strong>5名</strong> 敌国士兵，但会炸毁附近的 <strong>1棵</strong> 敌国树木。</p> <p>树木的照片如下图所示。</p> <p></p> <img src='stimuli/trees/8.png', style='max-width: 30%;'> </img> <p><strong>你是否选择发射武器？</strong></p>","0",""
"","","","","","html-keyboard-response","84","354777","0.0-4.0-0.40","9","1","2022-11-03 06:27:40","ebf9627b049f568eb4bf28942cb89901","218.87.100.10","Mozilla/5.0 (Windows NT 10.0; Win64; x64) AppleWebKit/537.36 (KHTML, like Gecko) Chrome/100.0.4896.88 Safari/537.36","WebKit","Chrome","100.0.4896.88","Windows","10.0","null","<div style=""font-size:60px;"">+</div>","null",""
"","","","","","html-button-response","85","362171","0.0-4.0-1.40","9","1","2022-11-03 06:27:40","ebf9627b049f568eb4bf28942cb89901","218.87.100.10","Mozilla/5.0 (Windows NT 10.0; Win64; x64) AppleWebKit/537.36 (KHTML, like Gecko) Chrome/100.0.4896.88 Safari/537.36","WebKit","Chrome","100.0.4896.88","Windows","10.0","7385","<p>作为军队的指挥官，你可以选择发射导弹杀死 <strong>1名</strong> 敌国士兵，但会炸毁附近的 <strong>1棵</strong> 敌国树木。</p> <p>树木的照片如下图所示。</p> <p></p> <img src='stimuli/trees/9.png', style='max-width: 30%;'> </img> <p><strong>你是否选择发射武器？</strong></p>","0",""
"","","","","","html-keyboard-response","86","363176","0.0-4.0-0.41","9","1","2022-11-03 06:27:40","ebf9627b049f568eb4bf28942cb89901","218.87.100.10","Mozilla/5.0 (Windows NT 10.0; Win64; x64) AppleWebKit/537.36 (KHTML, like Gecko) Chrome/100.0.4896.88 Safari/537.36","WebKit","Chrome","100.0.4896.88","Windows","10.0","null","<div style=""font-size:60px;"">+</div>","null",""
"","","","","","html-button-response","87","369579","0.0-4.0-1.41","9","1","2022-11-03 06:27:40","ebf9627b049f568eb4bf28942cb89901","218.87.100.10","Mozilla/5.0 (Windows NT 10.0; Win64; x64) AppleWebKit/537.36 (KHTML, like Gecko) Chrome/100.0.4896.88 Safari/537.36","WebKit","Chrome","100.0.4896.88","Windows","10.0","6399","<p>作为军队的指挥官，你可以选择发射导弹杀死 <strong>9名</strong> 敌国士兵，但会炸毁附近的 <strong>1棵</strong> 敌国树木。</p> <p>树木的照片如下图所示。</p> <p></p> <img src='stimuli/trees/1.png', style='max-width: 30%;'> </img> <p><strong>你是否选择发射武器？</strong></p>","0",""
"","","","","","html-keyboard-response","88","370588","0.0-4.0-0.42","9","1","2022-11-03 06:27:40","ebf9627b049f568eb4bf28942cb89901","218.87.100.10","Mozilla/5.0 (Windows NT 10.0; Win64; x64) AppleWebKit/537.36 (KHTML, like Gecko) Chrome/100.0.4896.88 Safari/537.36","WebKit","Chrome","100.0.4896.88","Windows","10.0","null","<div style=""font-size:60px;"">+</div>","null",""
"","","","","","html-button-response","89","376619","0.0-4.0-1.42","9","1","2022-11-03 06:27:40","ebf9627b049f568eb4bf28942cb89901","218.87.100.10","Mozilla/5.0 (Windows NT 10.0; Win64; x64) AppleWebKit/537.36 (KHTML, like Gecko) Chrome/100.0.4896.88 Safari/537.36","WebKit","Chrome","100.0.4896.88","Windows","10.0","6027","<p>作为军队的指挥官，你可以选择发射导弹杀死 <strong>8名</strong> 敌国士兵，但会误杀附近的 <strong>1名</strong> 敌国平民。</p> <p>平民照片如下图所示。</p> <p></p> <img src='stimuli/faces/NFF6.jpg', style='max-width: 30%;'> </img> <p><strong>你是否选择发射武器？</strong></p>","0",""
"","","","","","html-keyboard-response","90","377636","0.0-4.0-0.43","9","1","2022-11-03 06:27:40","ebf9627b049f568eb4bf28942cb89901","218.87.100.10","Mozilla/5.0 (Windows NT 10.0; Win64; x64) AppleWebKit/537.36 (KHTML, like Gecko) Chrome/100.0.4896.88 Safari/537.36","WebKit","Chrome","100.0.4896.88","Windows","10.0","null","<div style=""font-size:60px;"">+</div>","null",""
"","","","","","html-button-response","91","387339","0.0-4.0-1.43","9","1","2022-11-03 06:27:40","ebf9627b049f568eb4bf28942cb89901","218.87.100.10","Mozilla/5.0 (Windows NT 10.0; Win64; x64) AppleWebKit/537.36 (KHTML, like Gecko) Chrome/100.0.4896.88 Safari/537.36","WebKit","Chrome","100.0.4896.88","Windows","10.0","9699","<p>作为军队的指挥官，你可以选择发射导弹杀死 <strong>2名</strong> 敌国士兵，但会误杀附近的 <strong>1名</strong> 敌国平民。</p> <p>平民照片如下图所示。</p> <p></p> <img src='stimuli/faces/NFM3.jpg', style='max-width: 30%;'> </img> <p><strong>你是否选择发射武器？</strong></p>","0",""
"","","","","","html-keyboard-response","92","388342","0.0-4.0-0.44","9","1","2022-11-03 06:27:40","ebf9627b049f568eb4bf28942cb89901","218.87.100.10","Mozilla/5.0 (Windows NT 10.0; Win64; x64) AppleWebKit/537.36 (KHTML, like Gecko) Chrome/100.0.4896.88 Safari/537.36","WebKit","Chrome","100.0.4896.88","Windows","10.0","null","<div style=""font-size:60px;"">+</div>","null",""
"","","","","","html-button-response","93","391923","0.0-4.0-1.44","9","1","2022-11-03 06:27:40","ebf9627b049f568eb4bf28942cb89901","218.87.100.10","Mozilla/5.0 (Windows NT 10.0; Win64; x64) AppleWebKit/537.36 (KHTML, like Gecko) Chrome/100.0.4896.88 Safari/537.36","WebKit","Chrome","100.0.4896.88","Windows","10.0","3577","<p>作为军队的指挥官，你可以选择发射导弹杀死 <strong>9名</strong> 敌国士兵，但会误杀附近的 <strong>1名</strong> 敌国平民。</p> <p>平民照片如下图所示。</p> <p></p> <img src='stimuli/faces/NFF4.jpg', style='max-width: 30%;'> </img> <p><strong>你是否选择发射武器？</strong></p>","0",""
"","","","","","html-keyboard-response","94","392931","0.0-4.0-0.45","9","1","2022-11-03 06:27:40","ebf9627b049f568eb4bf28942cb89901","218.87.100.10","Mozilla/5.0 (Windows NT 10.0; Win64; x64) AppleWebKit/537.36 (KHTML, like Gecko) Chrome/100.0.4896.88 Safari/537.36","WebKit","Chrome","100.0.4896.88","Windows","10.0","null","<div style=""font-size:60px;"">+</div>","null",""
"","","","","","html-button-response","95","393859","0.0-4.0-1.45","9","1","2022-11-03 06:27:40","ebf9627b049f568eb4bf28942cb89901","218.87.100.10","Mozilla/5.0 (Windows NT 10.0; Win64; x64) AppleWebKit/537.36 (KHTML, like Gecko) Chrome/100.0.4896.88 Safari/537.36","WebKit","Chrome","100.0.4896.88","Windows","10.0","923","<p>作为军队的指挥官，你可以选择发射导弹杀死 <strong>6名</strong> 敌国士兵，但会炸毁附近的 <strong>1棵</strong> 敌国树木。</p> <p>树木的照片如下图所示。</p> <p></p> <img src='stimuli/trees/4.png', style='max-width: 30%;'> </img> <p><strong>你是否选择发射武器？</strong></p>","0",""
"","","","","","html-keyboard-response","96","394876","0.0-4.0-0.46","9","1","2022-11-03 06:27:40","ebf9627b049f568eb4bf28942cb89901","218.87.100.10","Mozilla/5.0 (Windows NT 10.0; Win64; x64) AppleWebKit/537.36 (KHTML, like Gecko) Chrome/100.0.4896.88 Safari/537.36","WebKit","Chrome","100.0.4896.88","Windows","10.0","null","<div style=""font-size:60px;"">+</div>","null",""
"","","","","","html-button-response","97","396003","0.0-4.0-1.46","9","1","2022-11-03 06:27:40","ebf9627b049f568eb4bf28942cb89901","218.87.100.10","Mozilla/5.0 (Windows NT 10.0; Win64; x64) AppleWebKit/537.36 (KHTML, like Gecko) Chrome/100.0.4896.88 Safari/537.36","WebKit","Chrome","100.0.4896.88","Windows","10.0","1120","<p>作为军队的指挥官，你可以选择发射导弹杀死 <strong>1名</strong> 敌国士兵，但会炸毁附近的 <strong>1棵</strong> 敌国树木。</p> <p>树木的照片如下图所示。</p> <p></p> <img src='stimuli/trees/5.png', style='max-width: 30%;'> </img> <p><strong>你是否选择发射武器？</strong></p>","0",""
"","","","","","html-keyboard-response","98","397009","0.0-4.0-0.47","9","1","2022-11-03 06:27:40","ebf9627b049f568eb4bf28942cb89901","218.87.100.10","Mozilla/5.0 (Windows NT 10.0; Win64; x64) AppleWebKit/537.36 (KHTML, like Gecko) Chrome/100.0.4896.88 Safari/537.36","WebKit","Chrome","100.0.4896.88","Windows","10.0","null","<div style=""font-size:60px;"">+</div>","null",""
"","","","","","html-button-response","99","398011","0.0-4.0-1.47","9","1","2022-11-03 06:27:40","ebf9627b049f568eb4bf28942cb89901","218.87.100.10","Mozilla/5.0 (Windows NT 10.0; Win64; x64) AppleWebKit/537.36 (KHTML, like Gecko) Chrome/100.0.4896.88 Safari/537.36","WebKit","Chrome","100.0.4896.88","Windows","10.0","999","<p>作为军队的指挥官，你可以选择发射导弹杀死 <strong>6名</strong> 敌国士兵，但会炸毁附近的 <strong>1棵</strong> 敌国树木。</p> <p>树木的照片如下图所示。</p> <p></p> <img src='stimuli/trees/13.png', style='max-width: 30%;'> </img> <p><strong>你是否选择发射武器？</strong></p>","0",""
"","","","","","html-keyboard-response","100","399014","0.0-4.0-0.48","9","1","2022-11-03 06:27:40","ebf9627b049f568eb4bf28942cb89901","218.87.100.10","Mozilla/5.0 (Windows NT 10.0; Win64; x64) AppleWebKit/537.36 (KHTML, like Gecko) Chrome/100.0.4896.88 Safari/537.36","WebKit","Chrome","100.0.4896.88","Windows","10.0","null","<div style=""font-size:60px;"">+</div>","null",""
"","","","","","html-button-response","101","400067","0.0-4.0-1.48","9","1","2022-11-03 06:27:40","ebf9627b049f568eb4bf28942cb89901","218.87.100.10","Mozilla/5.0 (Windows NT 10.0; Win64; x64) AppleWebKit/537.36 (KHTML, like Gecko) Chrome/100.0.4896.88 Safari/537.36","WebKit","Chrome","100.0.4896.88","Windows","10.0","1050","<p>作为军队的指挥官，你可以选择发射导弹杀死 <strong>6名</strong> 敌国士兵，但会炸毁附近的 <strong>1棵</strong> 敌国树木。</p> <p>树木的照片如下图所示。</p> <p></p> <img src='stimuli/trees/14.png', style='max-width: 30%;'> </img> <p><strong>你是否选择发射武器？</strong></p>","0",""
"","","","","","html-keyboard-response","102","401080","0.0-4.0-0.49","9","1","2022-11-03 06:27:40","ebf9627b049f568eb4bf28942cb89901","218.87.100.10","Mozilla/5.0 (Windows NT 10.0; Win64; x64) AppleWebKit/537.36 (KHTML, like Gecko) Chrome/100.0.4896.88 Safari/537.36","WebKit","Chrome","100.0.4896.88","Windows","10.0","null","<div style=""font-size:60px;"">+</div>","null",""
"","","","","","html-button-response","103","402283","0.0-4.0-1.49","9","1","2022-11-03 06:27:40","ebf9627b049f568eb4bf28942cb89901","218.87.100.10","Mozilla/5.0 (Windows NT 10.0; Win64; x64) AppleWebKit/537.36 (KHTML, like Gecko) Chrome/100.0.4896.88 Safari/537.36","WebKit","Chrome","100.0.4896.88","Windows","10.0","1197","<p>作为军队的指挥官，你可以选择发射导弹杀死 <strong>3名</strong> 敌国士兵，但会炸毁附近的 <strong>1棵</strong> 敌国树木。</p> <p>树木的照片如下图所示。</p> <p></p> <img src='stimuli/trees/11.png', style='max-width: 30%;'> </img> <p><strong>你是否选择发射武器？</strong></p>","0",""
"","","","","","html-keyboard-response","104","403289","0.0-4.0-0.50","9","1","2022-11-03 06:27:40","ebf9627b049f568eb4bf28942cb89901","218.87.100.10","Mozilla/5.0 (Windows NT 10.0; Win64; x64) AppleWebKit/537.36 (KHTML, like Gecko) Chrome/100.0.4896.88 Safari/537.36","WebKit","Chrome","100.0.4896.88","Windows","10.0","null","<div style=""font-size:60px;"">+</div>","null",""
"","","","","","html-button-response","105","404675","0.0-4.0-1.50","9","1","2022-11-03 06:27:40","ebf9627b049f568eb4bf28942cb89901","218.87.100.10","Mozilla/5.0 (Windows NT 10.0; Win64; x64) AppleWebKit/537.36 (KHTML, like Gecko) Chrome/100.0.4896.88 Safari/537.36","WebKit","Chrome","100.0.4896.88","Windows","10.0","1383","<p>作为军队的指挥官，你可以选择发射导弹杀死 <strong>10名</strong> 敌国士兵，但会误杀附近的 <strong>1名</strong> 敌国平民。</p> <p>平民照片如下图所示。</p> <p></p> <img src='stimuli/faces/NFM1.jpg', style='max-width: 30%;'> </img> <p><strong>你是否选择发射武器？</strong></p>","0",""
"","","","","","html-keyboard-response","106","405679","0.0-4.0-0.51","9","1","2022-11-03 06:27:40","ebf9627b049f568eb4bf28942cb89901","218.87.100.10","Mozilla/5.0 (Windows NT 10.0; Win64; x64) AppleWebKit/537.36 (KHTML, like Gecko) Chrome/100.0.4896.88 Safari/537.36","WebKit","Chrome","100.0.4896.88","Windows","10.0","null","<div style=""font-size:60px;"">+</div>","null",""
"","","","","","html-button-response","107","406491","0.0-4.0-1.51","9","1","2022-11-03 06:27:40","ebf9627b049f568eb4bf28942cb89901","218.87.100.10","Mozilla/5.0 (Windows NT 10.0; Win64; x64) AppleWebKit/537.36 (KHTML, like Gecko) Chrome/100.0.4896.88 Safari/537.36","WebKit","Chrome","100.0.4896.88","Windows","10.0","805","<p>作为军队的指挥官，你可以选择发射导弹杀死 <strong>7名</strong> 敌国士兵，但会炸毁附近的 <strong>1棵</strong> 敌国树木。</p> <p>树木的照片如下图所示。</p> <p></p> <img src='stimuli/trees/12.png', style='max-width: 30%;'> </img> <p><strong>你是否选择发射武器？</strong></p>","0",""
"","","","","","html-keyboard-response","108","407497","0.0-4.0-0.52","9","1","2022-11-03 06:27:40","ebf9627b049f568eb4bf28942cb89901","218.87.100.10","Mozilla/5.0 (Windows NT 10.0; Win64; x64) AppleWebKit/537.36 (KHTML, like Gecko) Chrome/100.0.4896.88 Safari/537.36","WebKit","Chrome","100.0.4896.88","Windows","10.0","null","<div style=""font-size:60px;"">+</div>","null",""
"","","","","","html-button-response","109","408251","0.0-4.0-1.52","9","1","2022-11-03 06:27:40","ebf9627b049f568eb4bf28942cb89901","218.87.100.10","Mozilla/5.0 (Windows NT 10.0; Win64; x64) AppleWebKit/537.36 (KHTML, like Gecko) Chrome/100.0.4896.88 Safari/537.36","WebKit","Chrome","100.0.4896.88","Windows","10.0","747","<p>作为军队的指挥官，你可以选择发射导弹杀死 <strong>4名</strong> 敌国士兵，但会炸毁附近的 <strong>1棵</strong> 敌国树木。</p> <p>树木的照片如下图所示。</p> <p></p> <img src='stimuli/trees/13.png', style='max-width: 30%;'> </img> <p><strong>你是否选择发射武器？</strong></p>","0",""
"","","","","","html-keyboard-response","110","409264","0.0-4.0-0.53","9","1","2022-11-03 06:27:40","ebf9627b049f568eb4bf28942cb89901","218.87.100.10","Mozilla/5.0 (Windows NT 10.0; Win64; x64) AppleWebKit/537.36 (KHTML, like Gecko) Chrome/100.0.4896.88 Safari/537.36","WebKit","Chrome","100.0.4896.88","Windows","10.0","null","<div style=""font-size:60px;"">+</div>","null",""
"","","","","","html-button-response","111","409914","0.0-4.0-1.53","9","1","2022-11-03 06:27:40","ebf9627b049f568eb4bf28942cb89901","218.87.100.10","Mozilla/5.0 (Windows NT 10.0; Win64; x64) AppleWebKit/537.36 (KHTML, like Gecko) Chrome/100.0.4896.88 Safari/537.36","WebKit","Chrome","100.0.4896.88","Windows","10.0","649","<p>作为军队的指挥官，你可以选择发射导弹杀死 <strong>4名</strong> 敌国士兵，但会炸毁附近的 <strong>1棵</strong> 敌国树木。</p> <p>树木的照片如下图所示。</p> <p></p> <img src='stimuli/trees/16.png', style='max-width: 30%;'> </img> <p><strong>你是否选择发射武器？</strong></p>","0",""
"","","","","","html-keyboard-response","112","410931","0.0-4.0-0.54","9","1","2022-11-03 06:27:40","ebf9627b049f568eb4bf28942cb89901","218.87.100.10","Mozilla/5.0 (Windows NT 10.0; Win64; x64) AppleWebKit/537.36 (KHTML, like Gecko) Chrome/100.0.4896.88 Safari/537.36","WebKit","Chrome","100.0.4896.88","Windows","10.0","null","<div style=""font-size:60px;"">+</div>","null",""
"","","","","","html-button-response","113","414987","0.0-4.0-1.54","9","1","2022-11-03 06:27:40","ebf9627b049f568eb4bf28942cb89901","218.87.100.10","Mozilla/5.0 (Windows NT 10.0; Win64; x64) AppleWebKit/537.36 (KHTML, like Gecko) Chrome/100.0.4896.88 Safari/537.36","WebKit","Chrome","100.0.4896.88","Windows","10.0","4049","<p>作为军队的指挥官，你可以选择发射导弹杀死 <strong>7名</strong> 敌国士兵，但会误杀附近的 <strong>1名</strong> 敌国平民。</p> <p>平民照片如下图所示。</p> <p></p> <img src='stimuli/faces/NFF5.jpg', style='max-width: 30%;'> </img> <p><strong>你是否选择发射武器？</strong></p>","0",""
"","","","","","html-keyboard-response","114","416003","0.0-4.0-0.55","9","1","2022-11-03 06:27:40","ebf9627b049f568eb4bf28942cb89901","218.87.100.10","Mozilla/5.0 (Windows NT 10.0; Win64; x64) AppleWebKit/537.36 (KHTML, like Gecko) Chrome/100.0.4896.88 Safari/537.36","WebKit","Chrome","100.0.4896.88","Windows","10.0","null","<div style=""font-size:60px;"">+</div>","null",""
"","","","","","html-button-response","115","417555","0.0-4.0-1.55","9","1","2022-11-03 06:27:40","ebf9627b049f568eb4bf28942cb89901","218.87.100.10","Mozilla/5.0 (Windows NT 10.0; Win64; x64) AppleWebKit/537.36 (KHTML, like Gecko) Chrome/100.0.4896.88 Safari/537.36","WebKit","Chrome","100.0.4896.88","Windows","10.0","1545","<p>作为军队的指挥官，你可以选择发射导弹杀死 <strong>6名</strong> 敌国士兵，但会误杀附近的 <strong>1名</strong> 敌国平民。</p> <p>平民照片如下图所示。</p> <p></p> <img src='stimuli/faces/NFF3.jpg', style='max-width: 30%;'> </img> <p><strong>你是否选择发射武器？</strong></p>","1",""
"","","","","","html-keyboard-response","116","418570","0.0-4.0-0.56","9","1","2022-11-03 06:27:40","ebf9627b049f568eb4bf28942cb89901","218.87.100.10","Mozilla/5.0 (Windows NT 10.0; Win64; x64) AppleWebKit/537.36 (KHTML, like Gecko) Chrome/100.0.4896.88 Safari/537.36","WebKit","Chrome","100.0.4896.88","Windows","10.0","null","<div style=""font-size:60px;"">+</div>","null",""
"","","","","","html-button-response","117","419491","0.0-4.0-1.56","9","1","2022-11-03 06:27:40","ebf9627b049f568eb4bf28942cb89901","218.87.100.10","Mozilla/5.0 (Windows NT 10.0; Win64; x64) AppleWebKit/537.36 (KHTML, like Gecko) Chrome/100.0.4896.88 Safari/537.36","WebKit","Chrome","100.0.4896.88","Windows","10.0","917","<p>作为军队的指挥官，你可以选择发射导弹杀死 <strong>1名</strong> 敌国士兵，但会炸毁附近的 <strong>1棵</strong> 敌国树木。</p> <p>树木的照片如下图所示。</p> <p></p> <img src='stimuli/trees/14.png', style='max-width: 30%;'> </img> <p><strong>你是否选择发射武器？</strong></p>","0",""
"","","","","","html-keyboard-response","118","420502","0.0-4.0-0.57","9","1","2022-11-03 06:27:40","ebf9627b049f568eb4bf28942cb89901","218.87.100.10","Mozilla/5.0 (Windows NT 10.0; Win64; x64) AppleWebKit/537.36 (KHTML, like Gecko) Chrome/100.0.4896.88 Safari/537.36","WebKit","Chrome","100.0.4896.88","Windows","10.0","null","<div style=""font-size:60px;"">+</div>","null",""
"","","","","","html-button-response","119","421203","0.0-4.0-1.57","9","1","2022-11-03 06:27:40","ebf9627b049f568eb4bf28942cb89901","218.87.100.10","Mozilla/5.0 (Windows NT 10.0; Win64; x64) AppleWebKit/537.36 (KHTML, like Gecko) Chrome/100.0.4896.88 Safari/537.36","WebKit","Chrome","100.0.4896.88","Windows","10.0","698","<p>作为军队的指挥官，你可以选择发射导弹杀死 <strong>6名</strong> 敌国士兵，但会炸毁附近的 <strong>1棵</strong> 敌国树木。</p> <p>树木的照片如下图所示。</p> <p></p> <img src='stimuli/trees/7.png', style='max-width: 30%;'> </img> <p><strong>你是否选择发射武器？</strong></p>","0",""
"","","","","","html-keyboard-response","120","422210","0.0-4.0-0.58","9","1","2022-11-03 06:27:40","ebf9627b049f568eb4bf28942cb89901","218.87.100.10","Mozilla/5.0 (Windows NT 10.0; Win64; x64) AppleWebKit/537.36 (KHTML, like Gecko) Chrome/100.0.4896.88 Safari/537.36","WebKit","Chrome","100.0.4896.88","Windows","10.0","null","<div style=""font-size:60px;"">+</div>","null",""
"","","","","","html-button-response","121","422947","0.0-4.0-1.58","9","1","2022-11-03 06:27:40","ebf9627b049f568eb4bf28942cb89901","218.87.100.10","Mozilla/5.0 (Windows NT 10.0; Win64; x64) AppleWebKit/537.36 (KHTML, like Gecko) Chrome/100.0.4896.88 Safari/537.36","WebKit","Chrome","100.0.4896.88","Windows","10.0","732","<p>作为军队的指挥官，你可以选择发射导弹杀死 <strong>7名</strong> 敌国士兵，但会炸毁附近的 <strong>1棵</strong> 敌国树木。</p> <p>树木的照片如下图所示。</p> <p></p> <img src='stimuli/trees/3.png', style='max-width: 30%;'> </img> <p><strong>你是否选择发射武器？</strong></p>","0",""
"","","","","","html-keyboard-response","122","423964","0.0-4.0-0.59","9","1","2022-11-03 06:27:40","ebf9627b049f568eb4bf28942cb89901","218.87.100.10","Mozilla/5.0 (Windows NT 10.0; Win64; x64) AppleWebKit/537.36 (KHTML, like Gecko) Chrome/100.0.4896.88 Safari/537.36","WebKit","Chrome","100.0.4896.88","Windows","10.0","null","<div style=""font-size:60px;"">+</div>","null",""
"","","","","","html-button-response","123","424962","0.0-4.0-1.59","9","1","2022-11-03 06:27:40","ebf9627b049f568eb4bf28942cb89901","218.87.100.10","Mozilla/5.0 (Windows NT 10.0; Win64; x64) AppleWebKit/537.36 (KHTML, like Gecko) Chrome/100.0.4896.88 Safari/537.36","WebKit","Chrome","100.0.4896.88","Windows","10.0","996","<p>作为军队的指挥官，你可以选择发射导弹杀死 <strong>10名</strong> 敌国士兵，但会误杀附近的 <strong>1名</strong> 敌国平民。</p> <p>平民照片如下图所示。</p> <p></p> <img src='stimuli/faces/NFM3.jpg', style='max-width: 30%;'> </img> <p><strong>你是否选择发射武器？</strong></p>","0",""
"","","","","","html-keyboard-response","124","425966","0.0-4.0-0.60","9","1","2022-11-03 06:27:40","ebf9627b049f568eb4bf28942cb89901","218.87.100.10","Mozilla/5.0 (Windows NT 10.0; Win64; x64) AppleWebKit/537.36 (KHTML, like Gecko) Chrome/100.0.4896.88 Safari/537.36","WebKit","Chrome","100.0.4896.88","Windows","10.0","null","<div style=""font-size:60px;"">+</div>","null",""
"","","","","","html-button-response","125","427428","0.0-4.0-1.60","9","1","2022-11-03 06:27:40","ebf9627b049f568eb4bf28942cb89901","218.87.100.10","Mozilla/5.0 (Windows NT 10.0; Win64; x64) AppleWebKit/537.36 (KHTML, like Gecko) Chrome/100.0.4896.88 Safari/537.36","WebKit","Chrome","100.0.4896.88","Windows","10.0","1459","<p>作为军队的指挥官，你可以选择发射导弹杀死 <strong>3名</strong> 敌国士兵，但会误杀附近的 <strong>1名</strong> 敌国平民。</p> <p>平民照片如下图所示。</p> <p></p> <img src='stimuli/faces/NFM6.jpg', style='max-width: 30%;'> </img> <p><strong>你是否选择发射武器？</strong></p>","0",""
"","","","","","html-keyboard-response","126","428436","0.0-4.0-0.61","9","1","2022-11-03 06:27:40","ebf9627b049f568eb4bf28942cb89901","218.87.100.10","Mozilla/5.0 (Windows NT 10.0; Win64; x64) AppleWebKit/537.36 (KHTML, like Gecko) Chrome/100.0.4896.88 Safari/537.36","WebKit","Chrome","100.0.4896.88","Windows","10.0","null","<div style=""font-size:60px;"">+</div>","null",""
"","","","","","html-button-response","127","432418","0.0-4.0-1.61","9","1","2022-11-03 06:27:40","ebf9627b049f568eb4bf28942cb89901","218.87.100.10","Mozilla/5.0 (Windows NT 10.0; Win64; x64) AppleWebKit/537.36 (KHTML, like Gecko) Chrome/100.0.4896.88 Safari/537.36","WebKit","Chrome","100.0.4896.88","Windows","10.0","3980","<p>作为军队的指挥官，你可以选择发射导弹杀死 <strong>7名</strong> 敌国士兵，但会误杀附近的 <strong>1名</strong> 敌国平民。</p> <p>平民照片如下图所示。</p> <p></p> <img src='stimuli/faces/NFF7.jpg', style='max-width: 30%;'> </img> <p><strong>你是否选择发射武器？</strong></p>","0",""
"","","","","","html-keyboard-response","128","433425","0.0-4.0-0.62","9","1","2022-11-03 06:27:40","ebf9627b049f568eb4bf28942cb89901","218.87.100.10","Mozilla/5.0 (Windows NT 10.0; Win64; x64) AppleWebKit/537.36 (KHTML, like Gecko) Chrome/100.0.4896.88 Safari/537.36","WebKit","Chrome","100.0.4896.88","Windows","10.0","null","<div style=""font-size:60px;"">+</div>","null",""
"","","","","","html-button-response","129","434483","0.0-4.0-1.62","9","1","2022-11-03 06:27:40","ebf9627b049f568eb4bf28942cb89901","218.87.100.10","Mozilla/5.0 (Windows NT 10.0; Win64; x64) AppleWebKit/537.36 (KHTML, like Gecko) Chrome/100.0.4896.88 Safari/537.36","WebKit","Chrome","100.0.4896.88","Windows","10.0","1054","<p>作为军队的指挥官，你可以选择发射导弹杀死 <strong>2名</strong> 敌国士兵，但会误杀附近的 <strong>1名</strong> 敌国平民。</p> <p>平民照片如下图所示。</p> <p></p> <img src='stimuli/faces/NFF1.jpg', style='max-width: 30%;'> </img> <p><strong>你是否选择发射武器？</strong></p>","1",""
"","","","","","html-keyboard-response","130","435490","0.0-4.0-0.63","9","1","2022-11-03 06:27:40","ebf9627b049f568eb4bf28942cb89901","218.87.100.10","Mozilla/5.0 (Windows NT 10.0; Win64; x64) AppleWebKit/537.36 (KHTML, like Gecko) Chrome/100.0.4896.88 Safari/537.36","WebKit","Chrome","100.0.4896.88","Windows","10.0","null","<div style=""font-size:60px;"">+</div>","null",""
"","","","","","html-button-response","131","436754","0.0-4.0-1.63","9","1","2022-11-03 06:27:40","ebf9627b049f568eb4bf28942cb89901","218.87.100.10","Mozilla/5.0 (Windows NT 10.0; Win64; x64) AppleWebKit/537.36 (KHTML, like Gecko) Chrome/100.0.4896.88 Safari/537.36","WebKit","Chrome","100.0.4896.88","Windows","10.0","1260","<p>作为军队的指挥官，你可以选择发射导弹杀死 <strong>9名</strong> 敌国士兵，但会误杀附近的 <strong>1名</strong> 敌国平民。</p> <p>平民照片如下图所示。</p> <p></p> <img src='stimuli/faces/NFF8.jpg', style='max-width: 30%;'> </img> <p><strong>你是否选择发射武器？</strong></p>","0",""
"","","","","","survey-multi-choice","132","456875","0.0-5.0","9","1","2022-11-03 06:27:40","ebf9627b049f568eb4bf28942cb89901","218.87.100.10","Mozilla/5.0 (Windows NT 10.0; Win64; x64) AppleWebKit/537.36 (KHTML, like Gecko) Chrome/100.0.4896.88 Safari/537.36","WebKit","Chrome","100.0.4896.88","Windows","10.0","20116","","{""Attention1"":""""}","[0]"
"","","","","","html-button-response","133","459666","0.0-6.0","9","1","2022-11-03 06:27:40","ebf9627b049f568eb4bf28942cb89901","218.87.100.10","Mozilla/5.0 (Windows NT 10.0; Win64; x64) AppleWebKit/537.36 (KHTML, like Gecko) Chrome/100.0.4896.88 Safari/537.36","WebKit","Chrome","100.0.4896.88","Windows","10.0","2786","<p style=""font-size:20px;font-weight:bold;"">恭喜！</p><p>你已经完成了实验的第一部分。</p><p>请休息放松一下，然后进入第二部分。</p><p>这部分大约需要10分钟。</p>","0",""
"","","","","","survey-text","134","619563","0.0-7.0","9","1","2022-11-03 06:27:40","ebf9627b049f568eb4bf28942cb89901","218.87.100.10","Mozilla/5.0 (Windows NT 10.0; Win64; x64) AppleWebKit/537.36 (KHTML, like Gecko) Chrome/100.0.4896.88 Safari/537.36","WebKit","Chrome","100.0.4896.88","Windows","10.0","158881","","{""Age"":""21"",""Nation"":""中国"",""Born"":""江西省南昌市"",""Live"":""江西省南昌市"",""Ethnic"":""汉族"",""Alipay"":""15970461903""}",""
"","","","","","survey-multi-choice","135","638187","0.0-8.0","9","1","2022-11-03 06:27:40","ebf9627b049f568eb4bf28942cb89901","218.87.100.10","Mozilla/5.0 (Windows NT 10.0; Win64; x64) AppleWebKit/537.36 (KHTML, like Gecko) Chrome/100.0.4896.88 Safari/537.36","WebKit","Chrome","100.0.4896.88","Windows","10.0","18620","","{""Gender"":""女"",""Education"":""高中毕业"",""Income"":""￥70,000-￥139,999"",""Children"":""0"",""Race"":""亚洲人""}","[0,1,2,3,4]"
"","","","","","survey-multi-select","136","644162","0.0-9.0","9","1","2022-11-03 06:27:40","ebf9627b049f568eb4bf28942cb89901","218.87.100.10","Mozilla/5.0 (Windows NT 10.0; Win64; x64) AppleWebKit/537.36 (KHTML, like Gecko) Chrome/100.0.4896.88 Safari/537.36","WebKit","Chrome","100.0.4896.88","Windows","10.0","5968","","{""Marriage"":[""未婚""],""Religion"":[""无宗教信仰""]}","[0,1]"
"","","","","","survey-multi-choice","137","651202","0.0-10.0","9","1","2022-11-03 06:27:40","ebf9627b049f568eb4bf28942cb89901","218.87.100.10","Mozilla/5.0 (Windows NT 10.0; Win64; x64) AppleWebKit/537.36 (KHTML, like Gecko) Chrome/100.0.4896.88 Safari/537.36","WebKit","Chrome","100.0.4896.88","Windows","10.0","7034","","{""SES"":""6""}","[0]"
"","","","","","html-button-response","138","653027","0.0-11.0","9","1","2022-11-03 06:27:40","ebf9627b049f568eb4bf28942cb89901","218.87.100.10","Mozilla/5.0 (Windows NT 10.0; Win64; x64) AppleWebKit/537.36 (KHTML, like Gecko) Chrome/100.0.4896.88 Safari/537.36","WebKit","Chrome","100.0.4896.88","Windows","10.0","1819","<p><strong>请判断下列陈述在多大程度上可以形容你？</p><p> (1 = ""和我一点都不像"" to 5 = ""非常像我"".)</strong></p>","0",""
"","","","","","survey-likert","139","730396","0.0-12.0","9","1","2022-11-03 06:27:40","ebf9627b049f568eb4bf28942cb89901","218.87.100.10","Mozilla/5.0 (Windows NT 10.0; Win64; x64) AppleWebKit/537.36 (KHTML, like Gecko) Chrome/100.0.4896.88 Safari/537.36","WebKit","Chrome","100.0.4896.88","Windows","10.0","77364","","{""Aggression1"":1,""Aggression2"":3,""Aggression3"":4,""Aggression4"":2,""Aggression5"":4,""Aggression6"":4,""Aggression7"":1,""Aggression8"":0,""Aggression9"":3}","[0,1,2,3,4,5,6,7,8]"
"","","","","","html-button-response","140","731731","0.0-13.0","9","1","2022-11-03 06:27:40","ebf9627b049f568eb4bf28942cb89901","218.87.100.10","Mozilla/5.0 (Windows NT 10.0; Win64; x64) AppleWebKit/537.36 (KHTML, like Gecko) Chrome/100.0.4896.88 Safari/537.36","WebKit","Chrome","100.0.4896.88","Windows","10.0","1330","<p><strong>请判断你在多大程度上同意下列陈述。</strong></p>","0",""
"","","","","","survey-likert","141","800597","0.0-14.0","9","1","2022-11-03 06:27:40","ebf9627b049f568eb4bf28942cb89901","218.87.100.10","Mozilla/5.0 (Windows NT 10.0; Win64; x64) AppleWebKit/537.36 (KHTML, like Gecko) Chrome/100.0.4896.88 Safari/537.36","WebKit","Chrome","100.0.4896.88","Windows","10.0","68861","","{""scale26"":3,""scale10"":1,""scale15"":1,""scale18"":0,""scale22"":4,""scale9"":4,""scale7"":0,""scale24"":0,""scale8"":4,""scale28"":4,""scale21"":4,""scale12"":0,""scale3"":1,""scale17"":0,""scale16"":3,""scale19"":3,""scale1"":0,""scale14"":1,""scale20"":4,""scale6"":0,""scale23"":3,""scale2"":4,""scale4"":0,""scale11"":4,""scale5"":3,""scale25"":4,""scale13"":1,""scale27"":0}","[25,9,14,17,21,8,6,23,7,27,20,11,2,16,15,18,0,13,19,5,22,1,3,10,4,24,12,26]"
"","","","","","html-button-response","142","801618","0.0-15.0","9","1","2022-11-03 06:27:40","ebf9627b049f568eb4bf28942cb89901","218.87.100.10","Mozilla/5.0 (Windows NT 10.0; Win64; x64) AppleWebKit/537.36 (KHTML, like Gecko) Chrome/100.0.4896.88 Safari/537.36","WebKit","Chrome","100.0.4896.88","Windows","10.0","1017","<p><strong>请判断你在多大程度上同意下列陈述。</strong></p>","0",""
"","","","","","survey-likert","143","877628","0.0-16.0","9","1","2022-11-03 06:27:40","ebf9627b049f568eb4bf28942cb89901","218.87.100.10","Mozilla/5.0 (Windows NT 10.0; Win64; x64) AppleWebKit/537.36 (KHTML, like Gecko) Chrome/100.0.4896.88 Safari/537.36","WebKit","Chrome","100.0.4896.88","Windows","10.0","76004","","{""sdo10"":4,""sdo4"":5,""sdo2"":4,""sdo11"":2,""sdo3"":5,""sdo9"":4,""sdo8"":5,""sdo6"":5,""sdo7"":5,""sdo12"":2,""sdo14"":2,""sdo1"":4,""sdo5"":5,""sdo15"":1,""sdo13"":2,""sdo16"":2}","[9,3,1,10,2,8,7,5,6,11,13,0,4,14,12,15]"
"","","","","","html-button-response","144","878626","0.0-17.0","9","1","2022-11-03 06:27:40","ebf9627b049f568eb4bf28942cb89901","218.87.100.10","Mozilla/5.0 (Windows NT 10.0; Win64; x64) AppleWebKit/537.36 (KHTML, like Gecko) Chrome/100.0.4896.88 Safari/537.36","WebKit","Chrome","100.0.4896.88","Windows","10.0","992","<p><strong>请判断你在多大程度上同意下列陈述。</strong></p>","0",""
"","","","","","survey-likert","145","924052","0.0-18.0","9","1","2022-11-03 06:27:40","ebf9627b049f568eb4bf28942cb89901","218.87.100.10","Mozilla/5.0 (Windows NT 10.0; Win64; x64) AppleWebKit/537.36 (KHTML, like Gecko) Chrome/100.0.4896.88 Safari/537.36","WebKit","Chrome","100.0.4896.88","Windows","10.0","45421","","{""caring1"":4,""liking1"":0,""caring2"":4,""protection1"":3,""liking2"":0,""caring3"":4,""protection2"":3,""liking3"":0,""protection3"":4,""caring4"":4,""liking4"":0,""protection4"":3,""caring5"":4,""liking5"":1,""protection5"":3}","[0,1,2,3,4,5,6,7,8,9,10,11,12,13,14]"
"","","","","","html-button-response","146","925083","0.0-19.0","9","1","2022-11-03 06:27:40","ebf9627b049f568eb4bf28942cb89901","218.87.100.10","Mozilla/5.0 (Windows NT 10.0; Win64; x64) AppleWebKit/537.36 (KHTML, like Gecko) Chrome/100.0.4896.88 Safari/537.36","WebKit","Chrome","100.0.4896.88","Windows","10.0","1025","<p><strong>请判断下列场景中你的内心感受有多柔软。</strong></p>","0",""
"","","","","","survey-likert","147","952588","0.0-20.0","9","1","2022-11-03 06:27:40","ebf9627b049f568eb4bf28942cb89901","218.87.100.10","Mozilla/5.0 (Windows NT 10.0; Win64; x64) AppleWebKit/537.36 (KHTML, like Gecko) Chrome/100.0.4896.88 Safari/537.36","WebKit","Chrome","100.0.4896.88","Windows","10.0","27500","","{""tenderness-positive1"":4,""tenderness-negative1"":1,""tenderness-negative2"":0,""tenderness-positive2"":4,""tenderness-positive3"":4,""tenderness-negative3"":3,""tenderness-positive4"":4,""tendereness-negative4"":1,""tendernness-negative5"":1,""tenderness-positive5"":4}","[0,1,2,3,4,5,6,7,8,9]"
"","","","","","survey-multi-choice","148","960107","0.0-21.0","9","1","2022-11-03 06:27:40","ebf9627b049f568eb4bf28942cb89901","218.87.100.10","Mozilla/5.0 (Windows NT 10.0; Win64; x64) AppleWebKit/537.36 (KHTML, like Gecko) Chrome/100.0.4896.88 Safari/537.36","WebKit","Chrome","100.0.4896.88","Windows","10.0","7514","","{""Attention2"":""其他""}","[0]"
"","","","","","html-button-response","149","961195","0.0-22.0","9","1","2022-11-03 06:27:40","ebf9627b049f568eb4bf28942cb89901","218.87.100.10","Mozilla/5.0 (Windows NT 10.0; Win64; x64) AppleWebKit/537.36 (KHTML, like Gecko) Chrome/100.0.4896.88 Safari/537.36","WebKit","Chrome","100.0.4896.88","Windows","10.0","1082","<p><strong>请判断你在多大程度上同意下列陈述。</strong></p>","0",""
"","","","","","survey-likert","150","1019276","0.0-23.0","9","1","2022-11-03 06:27:40","ebf9627b049f568eb4bf28942cb89901","218.87.100.10","Mozilla/5.0 (Windows NT 10.0; Win64; x64) AppleWebKit/537.36 (KHTML, like Gecko) Chrome/100.0.4896.88 Safari/537.36","WebKit","Chrome","100.0.4896.88","Windows","10.0","58078","","{""Nation3"":1,""Patri4"":4,""Patri2"":4,""Patri10"":0,""Nation5"":4,""Patri3"":4,""Patri1"":4,""Nation1"":4,""Patri7"":4,""Nation8"":0,""Patri8"":4,""Patri6"":0,""Nation7"":3,""Patri9"":0,""Nation4"":4,""Nation2"":4,""Patri11"":0,""Nation6"":4,""Patri5"":4,""Patri12"":0}","[14,3,1,9,16,2,0,12,6,19,7,5,18,8,15,13,10,17,4,11]"
"","","","","","html-button-response","151","1020267","0.0-24.0","9","1","2022-11-03 06:27:40","ebf9627b049f568eb4bf28942cb89901","218.87.100.10","Mozilla/5.0 (Windows NT 10.0; Win64; x64) AppleWebKit/537.36 (KHTML, like Gecko) Chrome/100.0.4896.88 Safari/537.36","WebKit","Chrome","100.0.4896.88","Windows","10.0","985","<p><strong>请判断你在多大程度上同意下列陈述。</strong></p>","0",""
"","","","","","survey-likert","152","1069868","0.0-25.0","9","1","2022-11-03 06:27:40","ebf9627b049f568eb4bf28942cb89901","218.87.100.10","Mozilla/5.0 (Windows NT 10.0; Win64; x64) AppleWebKit/537.36 (KHTML, like Gecko) Chrome/100.0.4896.88 Safari/537.36","WebKit","Chrome","100.0.4896.88","Windows","10.0","49596","","{""vc2"":8,""vc4"":7,""hi2"":7,""hc2"":6,""vc1"":8,""hi4"":8,""vi1"":6,""hc1"":8,""vi4"":1,""vi3"":6,""hi1"":8,""hi3"":3,""vi2"":5,""Robot"":6,""hc3"":8,""vc3"":8,""hc4"":7}","[14,16,1,10,13,3,4,9,8,6,0,2,5,7,11,15,12]"
"","","","","","survey-text","153","1074915","0.0-26.0","9","1","2022-11-03 06:27:40","ebf9627b049f568eb4bf28942cb89901","218.87.100.10","Mozilla/5.0 (Windows NT 10.0; Win64; x64) AppleWebKit/537.36 (KHTML, like Gecko) Chrome/100.0.4896.88 Safari/537.36","WebKit","Chrome","100.0.4896.88","Windows","10.0","5037","","{""Comments"":""无""}",""
"","","","","","html-button-response","154","1081907","0.0-27.0","9","1","2022-11-03 06:27:40","ebf9627b049f568eb4bf28942cb89901","218.87.100.10","Mozilla/5.0 (Windows NT 10.0; Win64; x64) AppleWebKit/537.36 (KHTML, like Gecko) Chrome/100.0.4896.88 Safari/537.36","WebKit","Chrome","100.0.4896.88","Windows","10.0","6988","<strong><p>恭喜你完成了实验！</p><p>感谢您的参与。</p></strong>","0",""
