"success","timeout","failed_images","failed_audio","failed_video","trial_type","trial_index","time_elapsed","internal_node_id","run_id","condition","recorded_at","source_code_version","ip","user_agent","device","browser","browser_version","platform","platform_version","rt","stimulus","response","question_order"
"true","false","[]","[]","[]","preload","0","4287","0.0-0.0","110","1","2022-11-13 11:39:00","49aca292d257f58668169b9fbab864ae","219.142.99.14","Mozilla/5.0 (Macintosh; Intel Mac OS X 10_15_6) AppleWebKit/605.1.15 (KHTML, like Gecko) Version/15.6.1 Safari/605.1.15","Macintosh","Safari","15.6.1","OS X","10_15_6","","","",""
"true","","","","","fullscreen","1","7388","0.0-1.0","110","1","2022-11-13 11:39:00","49aca292d257f58668169b9fbab864ae","219.142.99.14","Mozilla/5.0 (Macintosh; Intel Mac OS X 10_15_6) AppleWebKit/605.1.15 (KHTML, like Gecko) Version/15.6.1 Safari/605.1.15","Macintosh","Safari","15.6.1","OS X","10_15_6","","","",""
"","","","","","html-button-response","2","32893","0.0-2.0","110","1","2022-11-13 11:39:00","49aca292d257f58668169b9fbab864ae","219.142.99.14","Mozilla/5.0 (Macintosh; Intel Mac OS X 10_15_6) AppleWebKit/605.1.15 (KHTML, like Gecko) Version/15.6.1 Safari/605.1.15","Macintosh","Safari","15.6.1","OS X","10_15_6","25499","<p style=""font-size:20px;font-weight:bold;"">实验知情同意书</p><p style=""text-align:left;""><strong>实验名称：</strong>社会冲突研究</p><p style=""text-align:left;""><strong>主要研究者：</strong>韩晓春副教授（北京师范大学心理学部）</p><p style=""text-align:left;""><strong>联系方式：</strong>发送邮件至xiaochun.han@bnu.edu.cn</p><p style=""text-align:left;""><strong>研究目的：</strong>研究旨在了解人类面对群体冲突时的决策方式，以及相关的心理学特质。实验调查大约需要20分钟。</p><p style=""text-align:left;""><strong>实验流程：</strong>实验包含两部分。第一部分呈现一系列群体冲突场景，请你决定如何对这些冲突进行反应，大约需要10分钟完成。第二部分包含一系列人口统计学信息收集和心理学问卷，大约需要10分钟完成。</p><p style=""text-align:left;""><strong>参加及退出规则：</strong>参加本实验完全取决于您的个人意愿。在参与过程中，您可以随时退出，并且不用承担任何后果。</p><p style=""text-align:left;""><strong>隐私：</strong>本实验完全匿名进行，不会收集您的姓名或其他能够识别您身份的信息。实验中收集的作答仅用作科学研究使用，可能会在学术期刊/书籍上发表，或者用于教学，您的数据未来可能会和其他研究者或实验室分享，但您的个人身份不会被识别。</p><p style=""text-align:left;""><strong>实验报酬：</strong>实验完成后，您将获得15元人民币报酬，以感谢您的时间和努力。调查问卷中包含几道题目用以测验您作答时的认真度。只有完成全部实验，并且正确回答认真度测验的被试才能获得实验报酬。实验报酬将通过支付宝转账发放。</p><p style=""text-align:left;font-size:20px;""><strong>如果您同意以上实验知情同意书的内容，请点击'同意并且开始实验'按钮；否则请关闭浏览器界面，退出实验。</strong></p>","0",""
"","","","","","html-button-response","3","52183","0.0-3.0","110","1","2022-11-13 11:39:00","49aca292d257f58668169b9fbab864ae","219.142.99.14","Mozilla/5.0 (Macintosh; Intel Mac OS X 10_15_6) AppleWebKit/605.1.15 (KHTML, like Gecko) Version/15.6.1 Safari/605.1.15","Macintosh","Safari","15.6.1","OS X","10_15_6","19281","<p ><strong>实验任务一：</strong></p><p>请想象你的国家与另一个国家发生了军事冲突。</p><p>你是国家军队的指挥官，你将如何在冲突中进行决策。</p><p>具体来说，作为军队指挥官，请你决定是否发射导弹进行打击。</p><p>接下来，你会面对一系列场景，请仔细阅读每个场景，然后进行决策。</p><p>这部分实验任务大约需要10分钟。</p><p><strong>实验过程中，请集中注意力。</strong></p>","0",""
"","","","","","html-keyboard-response","4","53190","0.0-4.0-0.0","110","1","2022-11-13 11:39:00","49aca292d257f58668169b9fbab864ae","219.142.99.14","Mozilla/5.0 (Macintosh; Intel Mac OS X 10_15_6) AppleWebKit/605.1.15 (KHTML, like Gecko) Version/15.6.1 Safari/605.1.15","Macintosh","Safari","15.6.1","OS X","10_15_6","null","<div style=""font-size:60px;"">+</div>","null",""
"","","","","","html-button-response","5","65360","0.0-4.0-1.0","110","1","2022-11-13 11:39:00","49aca292d257f58668169b9fbab864ae","219.142.99.14","Mozilla/5.0 (Macintosh; Intel Mac OS X 10_15_6) AppleWebKit/605.1.15 (KHTML, like Gecko) Version/15.6.1 Safari/605.1.15","Macintosh","Safari","15.6.1","OS X","10_15_6","12163","<p>作为军队的指挥官，你可以选择发射导弹杀死 <strong>8名</strong> 敌国士兵，但会误杀附近的 <strong>1名</strong> 敌国平民。</p> <p>平民照片如下图所示。</p> <p></p> <img src='stimuli/faces/PFM6.jpg', style='max-width: 30%;'> </img> <p><strong>你是否选择发射武器？</strong></p>","1",""
"","","","","","html-keyboard-response","6","66364","0.0-4.0-0.1","110","1","2022-11-13 11:39:00","49aca292d257f58668169b9fbab864ae","219.142.99.14","Mozilla/5.0 (Macintosh; Intel Mac OS X 10_15_6) AppleWebKit/605.1.15 (KHTML, like Gecko) Version/15.6.1 Safari/605.1.15","Macintosh","Safari","15.6.1","OS X","10_15_6","null","<div style=""font-size:60px;"">+</div>","null",""
"","","","","","html-button-response","7","71014","0.0-4.0-1.1","110","1","2022-11-13 11:39:00","49aca292d257f58668169b9fbab864ae","219.142.99.14","Mozilla/5.0 (Macintosh; Intel Mac OS X 10_15_6) AppleWebKit/605.1.15 (KHTML, like Gecko) Version/15.6.1 Safari/605.1.15","Macintosh","Safari","15.6.1","OS X","10_15_6","4644","<p>作为军队的指挥官，你可以选择发射导弹杀死 <strong>4名</strong> 敌国士兵，但会炸毁附近的 <strong>1棵</strong> 敌国树木。</p> <p>树木的照片如下图所示。</p> <p></p> <img src='stimuli/trees/10.png', style='max-width: 30%;'> </img> <p><strong>你是否选择发射武器？</strong></p>","0",""
"","","","","","html-keyboard-response","8","72017","0.0-4.0-0.2","110","1","2022-11-13 11:39:00","49aca292d257f58668169b9fbab864ae","219.142.99.14","Mozilla/5.0 (Macintosh; Intel Mac OS X 10_15_6) AppleWebKit/605.1.15 (KHTML, like Gecko) Version/15.6.1 Safari/605.1.15","Macintosh","Safari","15.6.1","OS X","10_15_6","null","<div style=""font-size:60px;"">+</div>","null",""
"","","","","","html-button-response","9","78279","0.0-4.0-1.2","110","1","2022-11-13 11:39:00","49aca292d257f58668169b9fbab864ae","219.142.99.14","Mozilla/5.0 (Macintosh; Intel Mac OS X 10_15_6) AppleWebKit/605.1.15 (KHTML, like Gecko) Version/15.6.1 Safari/605.1.15","Macintosh","Safari","15.6.1","OS X","10_15_6","6256","<p>作为军队的指挥官，你可以选择发射导弹杀死 <strong>9名</strong> 敌国士兵，但会炸毁附近的 <strong>1棵</strong> 敌国树木。</p> <p>树木的照片如下图所示。</p> <p></p> <img src='stimuli/trees/16.png', style='max-width: 30%;'> </img> <p><strong>你是否选择发射武器？</strong></p>","0",""
"","","","","","html-keyboard-response","10","79282","0.0-4.0-0.3","110","1","2022-11-13 11:39:00","49aca292d257f58668169b9fbab864ae","219.142.99.14","Mozilla/5.0 (Macintosh; Intel Mac OS X 10_15_6) AppleWebKit/605.1.15 (KHTML, like Gecko) Version/15.6.1 Safari/605.1.15","Macintosh","Safari","15.6.1","OS X","10_15_6","null","<div style=""font-size:60px;"">+</div>","null",""
"","","","","","html-button-response","11","83900","0.0-4.0-1.3","110","1","2022-11-13 11:39:00","49aca292d257f58668169b9fbab864ae","219.142.99.14","Mozilla/5.0 (Macintosh; Intel Mac OS X 10_15_6) AppleWebKit/605.1.15 (KHTML, like Gecko) Version/15.6.1 Safari/605.1.15","Macintosh","Safari","15.6.1","OS X","10_15_6","4612","<p>作为军队的指挥官，你可以选择发射导弹杀死 <strong>3名</strong> 敌国士兵，但会炸毁附近的 <strong>1棵</strong> 敌国树木。</p> <p>树木的照片如下图所示。</p> <p></p> <img src='stimuli/trees/7.png', style='max-width: 30%;'> </img> <p><strong>你是否选择发射武器？</strong></p>","0",""
"","","","","","html-keyboard-response","12","84903","0.0-4.0-0.4","110","1","2022-11-13 11:39:00","49aca292d257f58668169b9fbab864ae","219.142.99.14","Mozilla/5.0 (Macintosh; Intel Mac OS X 10_15_6) AppleWebKit/605.1.15 (KHTML, like Gecko) Version/15.6.1 Safari/605.1.15","Macintosh","Safari","15.6.1","OS X","10_15_6","null","<div style=""font-size:60px;"">+</div>","null",""
"","","","","","html-button-response","13","87758","0.0-4.0-1.4","110","1","2022-11-13 11:39:00","49aca292d257f58668169b9fbab864ae","219.142.99.14","Mozilla/5.0 (Macintosh; Intel Mac OS X 10_15_6) AppleWebKit/605.1.15 (KHTML, like Gecko) Version/15.6.1 Safari/605.1.15","Macintosh","Safari","15.6.1","OS X","10_15_6","2850","<p>作为军队的指挥官，你可以选择发射导弹杀死 <strong>6名</strong> 敌国士兵，但会炸毁附近的 <strong>1棵</strong> 敌国树木。</p> <p>树木的照片如下图所示。</p> <p></p> <img src='stimuli/trees/4.png', style='max-width: 30%;'> </img> <p><strong>你是否选择发射武器？</strong></p>","0",""
"","","","","","html-keyboard-response","14","88762","0.0-4.0-0.5","110","1","2022-11-13 11:39:00","49aca292d257f58668169b9fbab864ae","219.142.99.14","Mozilla/5.0 (Macintosh; Intel Mac OS X 10_15_6) AppleWebKit/605.1.15 (KHTML, like Gecko) Version/15.6.1 Safari/605.1.15","Macintosh","Safari","15.6.1","OS X","10_15_6","null","<div style=""font-size:60px;"">+</div>","null",""
"","","","","","html-button-response","15","93557","0.0-4.0-1.5","110","1","2022-11-13 11:39:00","49aca292d257f58668169b9fbab864ae","219.142.99.14","Mozilla/5.0 (Macintosh; Intel Mac OS X 10_15_6) AppleWebKit/605.1.15 (KHTML, like Gecko) Version/15.6.1 Safari/605.1.15","Macintosh","Safari","15.6.1","OS X","10_15_6","4788","<p>作为军队的指挥官，你可以选择发射导弹杀死 <strong>10名</strong> 敌国士兵，但会误杀附近的 <strong>1名</strong> 敌国平民。</p> <p>平民照片如下图所示。</p> <p></p> <img src='stimuli/faces/PFF6.jpg', style='max-width: 30%;'> </img> <p><strong>你是否选择发射武器？</strong></p>","1",""
"","","","","","html-keyboard-response","16","94566","0.0-4.0-0.6","110","1","2022-11-13 11:39:00","49aca292d257f58668169b9fbab864ae","219.142.99.14","Mozilla/5.0 (Macintosh; Intel Mac OS X 10_15_6) AppleWebKit/605.1.15 (KHTML, like Gecko) Version/15.6.1 Safari/605.1.15","Macintosh","Safari","15.6.1","OS X","10_15_6","null","<div style=""font-size:60px;"">+</div>","null",""
"","","","","","html-button-response","17","98620","0.0-4.0-1.6","110","1","2022-11-13 11:39:00","49aca292d257f58668169b9fbab864ae","219.142.99.14","Mozilla/5.0 (Macintosh; Intel Mac OS X 10_15_6) AppleWebKit/605.1.15 (KHTML, like Gecko) Version/15.6.1 Safari/605.1.15","Macintosh","Safari","15.6.1","OS X","10_15_6","4047","<p>作为军队的指挥官，你可以选择发射导弹杀死 <strong>8名</strong> 敌国士兵，但会误杀附近的 <strong>1名</strong> 敌国平民。</p> <p>平民照片如下图所示。</p> <p></p> <img src='stimuli/faces/PFM5.jpg', style='max-width: 30%;'> </img> <p><strong>你是否选择发射武器？</strong></p>","1",""
"","","","","","html-keyboard-response","18","99624","0.0-4.0-0.7","110","1","2022-11-13 11:39:00","49aca292d257f58668169b9fbab864ae","219.142.99.14","Mozilla/5.0 (Macintosh; Intel Mac OS X 10_15_6) AppleWebKit/605.1.15 (KHTML, like Gecko) Version/15.6.1 Safari/605.1.15","Macintosh","Safari","15.6.1","OS X","10_15_6","null","<div style=""font-size:60px;"">+</div>","null",""
"","","","","","html-button-response","19","103352","0.0-4.0-1.7","110","1","2022-11-13 11:39:00","49aca292d257f58668169b9fbab864ae","219.142.99.14","Mozilla/5.0 (Macintosh; Intel Mac OS X 10_15_6) AppleWebKit/605.1.15 (KHTML, like Gecko) Version/15.6.1 Safari/605.1.15","Macintosh","Safari","15.6.1","OS X","10_15_6","3721","<p>作为军队的指挥官，你可以选择发射导弹杀死 <strong>3名</strong> 敌国士兵，但会误杀附近的 <strong>1名</strong> 敌国平民。</p> <p>平民照片如下图所示。</p> <p></p> <img src='stimuli/faces/PFF8.jpg', style='max-width: 30%;'> </img> <p><strong>你是否选择发射武器？</strong></p>","1",""
"","","","","","html-keyboard-response","20","104357","0.0-4.0-0.8","110","1","2022-11-13 11:39:00","49aca292d257f58668169b9fbab864ae","219.142.99.14","Mozilla/5.0 (Macintosh; Intel Mac OS X 10_15_6) AppleWebKit/605.1.15 (KHTML, like Gecko) Version/15.6.1 Safari/605.1.15","Macintosh","Safari","15.6.1","OS X","10_15_6","null","<div style=""font-size:60px;"">+</div>","null",""
"","","","","","html-button-response","21","107580","0.0-4.0-1.8","110","1","2022-11-13 11:39:00","49aca292d257f58668169b9fbab864ae","219.142.99.14","Mozilla/5.0 (Macintosh; Intel Mac OS X 10_15_6) AppleWebKit/605.1.15 (KHTML, like Gecko) Version/15.6.1 Safari/605.1.15","Macintosh","Safari","15.6.1","OS X","10_15_6","3217","<p>作为军队的指挥官，你可以选择发射导弹杀死 <strong>4名</strong> 敌国士兵，但会误杀附近的 <strong>1名</strong> 敌国平民。</p> <p>平民照片如下图所示。</p> <p></p> <img src='stimuli/faces/PFM2.jpg', style='max-width: 30%;'> </img> <p><strong>你是否选择发射武器？</strong></p>","1",""
"","","","","","html-keyboard-response","22","108584","0.0-4.0-0.9","110","1","2022-11-13 11:39:00","49aca292d257f58668169b9fbab864ae","219.142.99.14","Mozilla/5.0 (Macintosh; Intel Mac OS X 10_15_6) AppleWebKit/605.1.15 (KHTML, like Gecko) Version/15.6.1 Safari/605.1.15","Macintosh","Safari","15.6.1","OS X","10_15_6","null","<div style=""font-size:60px;"">+</div>","null",""
"","","","","","html-button-response","23","112444","0.0-4.0-1.9","110","1","2022-11-13 11:39:00","49aca292d257f58668169b9fbab864ae","219.142.99.14","Mozilla/5.0 (Macintosh; Intel Mac OS X 10_15_6) AppleWebKit/605.1.15 (KHTML, like Gecko) Version/15.6.1 Safari/605.1.15","Macintosh","Safari","15.6.1","OS X","10_15_6","3853","<p>作为军队的指挥官，你可以选择发射导弹杀死 <strong>8名</strong> 敌国士兵，但会炸毁附近的 <strong>1棵</strong> 敌国树木。</p> <p>树木的照片如下图所示。</p> <p></p> <img src='stimuli/trees/7.png', style='max-width: 30%;'> </img> <p><strong>你是否选择发射武器？</strong></p>","0",""
"","","","","","html-keyboard-response","24","113448","0.0-4.0-0.10","110","1","2022-11-13 11:39:00","49aca292d257f58668169b9fbab864ae","219.142.99.14","Mozilla/5.0 (Macintosh; Intel Mac OS X 10_15_6) AppleWebKit/605.1.15 (KHTML, like Gecko) Version/15.6.1 Safari/605.1.15","Macintosh","Safari","15.6.1","OS X","10_15_6","null","<div style=""font-size:60px;"">+</div>","null",""
"","","","","","html-button-response","25","115237","0.0-4.0-1.10","110","1","2022-11-13 11:39:00","49aca292d257f58668169b9fbab864ae","219.142.99.14","Mozilla/5.0 (Macintosh; Intel Mac OS X 10_15_6) AppleWebKit/605.1.15 (KHTML, like Gecko) Version/15.6.1 Safari/605.1.15","Macintosh","Safari","15.6.1","OS X","10_15_6","1782","<p>作为军队的指挥官，你可以选择发射导弹杀死 <strong>1名</strong> 敌国士兵，但会炸毁附近的 <strong>1棵</strong> 敌国树木。</p> <p>树木的照片如下图所示。</p> <p></p> <img src='stimuli/trees/4.png', style='max-width: 30%;'> </img> <p><strong>你是否选择发射武器？</strong></p>","0",""
"","","","","","html-keyboard-response","26","116241","0.0-4.0-0.11","110","1","2022-11-13 11:39:00","49aca292d257f58668169b9fbab864ae","219.142.99.14","Mozilla/5.0 (Macintosh; Intel Mac OS X 10_15_6) AppleWebKit/605.1.15 (KHTML, like Gecko) Version/15.6.1 Safari/605.1.15","Macintosh","Safari","15.6.1","OS X","10_15_6","null","<div style=""font-size:60px;"">+</div>","null",""
"","","","","","html-button-response","27","118269","0.0-4.0-1.11","110","1","2022-11-13 11:39:00","49aca292d257f58668169b9fbab864ae","219.142.99.14","Mozilla/5.0 (Macintosh; Intel Mac OS X 10_15_6) AppleWebKit/605.1.15 (KHTML, like Gecko) Version/15.6.1 Safari/605.1.15","Macintosh","Safari","15.6.1","OS X","10_15_6","2022","<p>作为军队的指挥官，你可以选择发射导弹杀死 <strong>5名</strong> 敌国士兵，但会炸毁附近的 <strong>1棵</strong> 敌国树木。</p> <p>树木的照片如下图所示。</p> <p></p> <img src='stimuli/trees/1.png', style='max-width: 30%;'> </img> <p><strong>你是否选择发射武器？</strong></p>","0",""
"","","","","","html-keyboard-response","28","119273","0.0-4.0-0.12","110","1","2022-11-13 11:39:00","49aca292d257f58668169b9fbab864ae","219.142.99.14","Mozilla/5.0 (Macintosh; Intel Mac OS X 10_15_6) AppleWebKit/605.1.15 (KHTML, like Gecko) Version/15.6.1 Safari/605.1.15","Macintosh","Safari","15.6.1","OS X","10_15_6","null","<div style=""font-size:60px;"">+</div>","null",""
"","","","","","html-button-response","29","121460","0.0-4.0-1.12","110","1","2022-11-13 11:39:00","49aca292d257f58668169b9fbab864ae","219.142.99.14","Mozilla/5.0 (Macintosh; Intel Mac OS X 10_15_6) AppleWebKit/605.1.15 (KHTML, like Gecko) Version/15.6.1 Safari/605.1.15","Macintosh","Safari","15.6.1","OS X","10_15_6","2181","<p>作为军队的指挥官，你可以选择发射导弹杀死 <strong>10名</strong> 敌国士兵，但会炸毁附近的 <strong>1棵</strong> 敌国树木。</p> <p>树木的照片如下图所示。</p> <p></p> <img src='stimuli/trees/1.png', style='max-width: 30%;'> </img> <p><strong>你是否选择发射武器？</strong></p>","0",""
"","","","","","html-keyboard-response","30","122464","0.0-4.0-0.13","110","1","2022-11-13 11:39:00","49aca292d257f58668169b9fbab864ae","219.142.99.14","Mozilla/5.0 (Macintosh; Intel Mac OS X 10_15_6) AppleWebKit/605.1.15 (KHTML, like Gecko) Version/15.6.1 Safari/605.1.15","Macintosh","Safari","15.6.1","OS X","10_15_6","null","<div style=""font-size:60px;"">+</div>","null",""
"","","","","","html-button-response","31","129931","0.0-4.0-1.13","110","1","2022-11-13 11:39:00","49aca292d257f58668169b9fbab864ae","219.142.99.14","Mozilla/5.0 (Macintosh; Intel Mac OS X 10_15_6) AppleWebKit/605.1.15 (KHTML, like Gecko) Version/15.6.1 Safari/605.1.15","Macintosh","Safari","15.6.1","OS X","10_15_6","7461","<p>作为军队的指挥官，你可以选择发射导弹杀死 <strong>6名</strong> 敌国士兵，但会误杀附近的 <strong>1名</strong> 敌国平民。</p> <p>平民照片如下图所示。</p> <p></p> <img src='stimuli/faces/PFM7.jpg', style='max-width: 30%;'> </img> <p><strong>你是否选择发射武器？</strong></p>","1",""
"","","","","","html-keyboard-response","32","130935","0.0-4.0-0.14","110","1","2022-11-13 11:39:00","49aca292d257f58668169b9fbab864ae","219.142.99.14","Mozilla/5.0 (Macintosh; Intel Mac OS X 10_15_6) AppleWebKit/605.1.15 (KHTML, like Gecko) Version/15.6.1 Safari/605.1.15","Macintosh","Safari","15.6.1","OS X","10_15_6","null","<div style=""font-size:60px;"">+</div>","null",""
"","","","","","html-button-response","33","133005","0.0-4.0-1.14","110","1","2022-11-13 11:39:00","49aca292d257f58668169b9fbab864ae","219.142.99.14","Mozilla/5.0 (Macintosh; Intel Mac OS X 10_15_6) AppleWebKit/605.1.15 (KHTML, like Gecko) Version/15.6.1 Safari/605.1.15","Macintosh","Safari","15.6.1","OS X","10_15_6","2063","<p>作为军队的指挥官，你可以选择发射导弹杀死 <strong>7名</strong> 敌国士兵，但会炸毁附近的 <strong>1棵</strong> 敌国树木。</p> <p>树木的照片如下图所示。</p> <p></p> <img src='stimuli/trees/5.png', style='max-width: 30%;'> </img> <p><strong>你是否选择发射武器？</strong></p>","0",""
"","","","","","html-keyboard-response","34","134009","0.0-4.0-0.15","110","1","2022-11-13 11:39:00","49aca292d257f58668169b9fbab864ae","219.142.99.14","Mozilla/5.0 (Macintosh; Intel Mac OS X 10_15_6) AppleWebKit/605.1.15 (KHTML, like Gecko) Version/15.6.1 Safari/605.1.15","Macintosh","Safari","15.6.1","OS X","10_15_6","null","<div style=""font-size:60px;"">+</div>","null",""
"","","","","","html-button-response","35","136024","0.0-4.0-1.15","110","1","2022-11-13 11:39:00","49aca292d257f58668169b9fbab864ae","219.142.99.14","Mozilla/5.0 (Macintosh; Intel Mac OS X 10_15_6) AppleWebKit/605.1.15 (KHTML, like Gecko) Version/15.6.1 Safari/605.1.15","Macintosh","Safari","15.6.1","OS X","10_15_6","2008","<p>作为军队的指挥官，你可以选择发射导弹杀死 <strong>2名</strong> 敌国士兵，但会误杀附近的 <strong>1名</strong> 敌国平民。</p> <p>平民照片如下图所示。</p> <p></p> <img src='stimuli/faces/PFF1.jpg', style='max-width: 30%;'> </img> <p><strong>你是否选择发射武器？</strong></p>","1",""
"","","","","","html-keyboard-response","36","137029","0.0-4.0-0.16","110","1","2022-11-13 11:39:00","49aca292d257f58668169b9fbab864ae","219.142.99.14","Mozilla/5.0 (Macintosh; Intel Mac OS X 10_15_6) AppleWebKit/605.1.15 (KHTML, like Gecko) Version/15.6.1 Safari/605.1.15","Macintosh","Safari","15.6.1","OS X","10_15_6","null","<div style=""font-size:60px;"">+</div>","null",""
"","","","","","html-button-response","37","139842","0.0-4.0-1.16","110","1","2022-11-13 11:39:00","49aca292d257f58668169b9fbab864ae","219.142.99.14","Mozilla/5.0 (Macintosh; Intel Mac OS X 10_15_6) AppleWebKit/605.1.15 (KHTML, like Gecko) Version/15.6.1 Safari/605.1.15","Macintosh","Safari","15.6.1","OS X","10_15_6","2806","<p>作为军队的指挥官，你可以选择发射导弹杀死 <strong>1名</strong> 敌国士兵，但会炸毁附近的 <strong>1棵</strong> 敌国树木。</p> <p>树木的照片如下图所示。</p> <p></p> <img src='stimuli/trees/12.png', style='max-width: 30%;'> </img> <p><strong>你是否选择发射武器？</strong></p>","0",""
"","","","","","html-keyboard-response","38","140847","0.0-4.0-0.17","110","1","2022-11-13 11:39:00","49aca292d257f58668169b9fbab864ae","219.142.99.14","Mozilla/5.0 (Macintosh; Intel Mac OS X 10_15_6) AppleWebKit/605.1.15 (KHTML, like Gecko) Version/15.6.1 Safari/605.1.15","Macintosh","Safari","15.6.1","OS X","10_15_6","null","<div style=""font-size:60px;"">+</div>","null",""
"","","","","","html-button-response","39","142384","0.0-4.0-1.17","110","1","2022-11-13 11:39:00","49aca292d257f58668169b9fbab864ae","219.142.99.14","Mozilla/5.0 (Macintosh; Intel Mac OS X 10_15_6) AppleWebKit/605.1.15 (KHTML, like Gecko) Version/15.6.1 Safari/605.1.15","Macintosh","Safari","15.6.1","OS X","10_15_6","1531","<p>作为军队的指挥官，你可以选择发射导弹杀死 <strong>8名</strong> 敌国士兵，但会炸毁附近的 <strong>1棵</strong> 敌国树木。</p> <p>树木的照片如下图所示。</p> <p></p> <img src='stimuli/trees/9.png', style='max-width: 30%;'> </img> <p><strong>你是否选择发射武器？</strong></p>","0",""
"","","","","","html-keyboard-response","40","143388","0.0-4.0-0.18","110","1","2022-11-13 11:39:00","49aca292d257f58668169b9fbab864ae","219.142.99.14","Mozilla/5.0 (Macintosh; Intel Mac OS X 10_15_6) AppleWebKit/605.1.15 (KHTML, like Gecko) Version/15.6.1 Safari/605.1.15","Macintosh","Safari","15.6.1","OS X","10_15_6","null","<div style=""font-size:60px;"">+</div>","null",""
"","","","","","html-button-response","41","147641","0.0-4.0-1.18","110","1","2022-11-13 11:39:00","49aca292d257f58668169b9fbab864ae","219.142.99.14","Mozilla/5.0 (Macintosh; Intel Mac OS X 10_15_6) AppleWebKit/605.1.15 (KHTML, like Gecko) Version/15.6.1 Safari/605.1.15","Macintosh","Safari","15.6.1","OS X","10_15_6","4246","<p>作为军队的指挥官，你可以选择发射导弹杀死 <strong>7名</strong> 敌国士兵，但会误杀附近的 <strong>1名</strong> 敌国平民。</p> <p>平民照片如下图所示。</p> <p></p> <img src='stimuli/faces/PFM8.jpg', style='max-width: 30%;'> </img> <p><strong>你是否选择发射武器？</strong></p>","1",""
"","","","","","html-keyboard-response","42","148645","0.0-4.0-0.19","110","1","2022-11-13 11:39:00","49aca292d257f58668169b9fbab864ae","219.142.99.14","Mozilla/5.0 (Macintosh; Intel Mac OS X 10_15_6) AppleWebKit/605.1.15 (KHTML, like Gecko) Version/15.6.1 Safari/605.1.15","Macintosh","Safari","15.6.1","OS X","10_15_6","null","<div style=""font-size:60px;"">+</div>","null",""
"","","","","","html-button-response","43","150449","0.0-4.0-1.19","110","1","2022-11-13 11:39:00","49aca292d257f58668169b9fbab864ae","219.142.99.14","Mozilla/5.0 (Macintosh; Intel Mac OS X 10_15_6) AppleWebKit/605.1.15 (KHTML, like Gecko) Version/15.6.1 Safari/605.1.15","Macintosh","Safari","15.6.1","OS X","10_15_6","1799","<p>作为军队的指挥官，你可以选择发射导弹杀死 <strong>7名</strong> 敌国士兵，但会炸毁附近的 <strong>1棵</strong> 敌国树木。</p> <p>树木的照片如下图所示。</p> <p></p> <img src='stimuli/trees/3.png', style='max-width: 30%;'> </img> <p><strong>你是否选择发射武器？</strong></p>","0",""
"","","","","","html-keyboard-response","44","151455","0.0-4.0-0.20","110","1","2022-11-13 11:39:00","49aca292d257f58668169b9fbab864ae","219.142.99.14","Mozilla/5.0 (Macintosh; Intel Mac OS X 10_15_6) AppleWebKit/605.1.15 (KHTML, like Gecko) Version/15.6.1 Safari/605.1.15","Macintosh","Safari","15.6.1","OS X","10_15_6","null","<div style=""font-size:60px;"">+</div>","null",""
"","","","","","html-button-response","45","159386","0.0-4.0-1.20","110","1","2022-11-13 11:39:00","49aca292d257f58668169b9fbab864ae","219.142.99.14","Mozilla/5.0 (Macintosh; Intel Mac OS X 10_15_6) AppleWebKit/605.1.15 (KHTML, like Gecko) Version/15.6.1 Safari/605.1.15","Macintosh","Safari","15.6.1","OS X","10_15_6","7924","<p>作为军队的指挥官，你可以选择发射导弹杀死 <strong>1名</strong> 敌国士兵，但会误杀附近的 <strong>1名</strong> 敌国平民。</p> <p>平民照片如下图所示。</p> <p></p> <img src='stimuli/faces/PFM4.jpg', style='max-width: 30%;'> </img> <p><strong>你是否选择发射武器？</strong></p>","1",""
"","","","","","html-keyboard-response","46","160390","0.0-4.0-0.21","110","1","2022-11-13 11:39:00","49aca292d257f58668169b9fbab864ae","219.142.99.14","Mozilla/5.0 (Macintosh; Intel Mac OS X 10_15_6) AppleWebKit/605.1.15 (KHTML, like Gecko) Version/15.6.1 Safari/605.1.15","Macintosh","Safari","15.6.1","OS X","10_15_6","null","<div style=""font-size:60px;"">+</div>","null",""
"","","","","","html-button-response","47","165265","0.0-4.0-1.21","110","1","2022-11-13 11:39:00","49aca292d257f58668169b9fbab864ae","219.142.99.14","Mozilla/5.0 (Macintosh; Intel Mac OS X 10_15_6) AppleWebKit/605.1.15 (KHTML, like Gecko) Version/15.6.1 Safari/605.1.15","Macintosh","Safari","15.6.1","OS X","10_15_6","4868","<p>作为军队的指挥官，你可以选择发射导弹杀死 <strong>6名</strong> 敌国士兵，但会误杀附近的 <strong>1名</strong> 敌国平民。</p> <p>平民照片如下图所示。</p> <p></p> <img src='stimuli/faces/PFM3.jpg', style='max-width: 30%;'> </img> <p><strong>你是否选择发射武器？</strong></p>","1",""
"","","","","","html-keyboard-response","48","166270","0.0-4.0-0.22","110","1","2022-11-13 11:39:00","49aca292d257f58668169b9fbab864ae","219.142.99.14","Mozilla/5.0 (Macintosh; Intel Mac OS X 10_15_6) AppleWebKit/605.1.15 (KHTML, like Gecko) Version/15.6.1 Safari/605.1.15","Macintosh","Safari","15.6.1","OS X","10_15_6","null","<div style=""font-size:60px;"">+</div>","null",""
"","","","","","html-button-response","49","170062","0.0-4.0-1.22","110","1","2022-11-13 11:39:00","49aca292d257f58668169b9fbab864ae","219.142.99.14","Mozilla/5.0 (Macintosh; Intel Mac OS X 10_15_6) AppleWebKit/605.1.15 (KHTML, like Gecko) Version/15.6.1 Safari/605.1.15","Macintosh","Safari","15.6.1","OS X","10_15_6","3785","<p>作为军队的指挥官，你可以选择发射导弹杀死 <strong>1名</strong> 敌国士兵，但会误杀附近的 <strong>1名</strong> 敌国平民。</p> <p>平民照片如下图所示。</p> <p></p> <img src='stimuli/faces/PFM5.jpg', style='max-width: 30%;'> </img> <p><strong>你是否选择发射武器？</strong></p>","1",""
"","","","","","html-keyboard-response","50","171067","0.0-4.0-0.23","110","1","2022-11-13 11:39:00","49aca292d257f58668169b9fbab864ae","219.142.99.14","Mozilla/5.0 (Macintosh; Intel Mac OS X 10_15_6) AppleWebKit/605.1.15 (KHTML, like Gecko) Version/15.6.1 Safari/605.1.15","Macintosh","Safari","15.6.1","OS X","10_15_6","null","<div style=""font-size:60px;"">+</div>","null",""
"","","","","","html-button-response","51","174075","0.0-4.0-1.23","110","1","2022-11-13 11:39:00","49aca292d257f58668169b9fbab864ae","219.142.99.14","Mozilla/5.0 (Macintosh; Intel Mac OS X 10_15_6) AppleWebKit/605.1.15 (KHTML, like Gecko) Version/15.6.1 Safari/605.1.15","Macintosh","Safari","15.6.1","OS X","10_15_6","2996","<p>作为军队的指挥官，你可以选择发射导弹杀死 <strong>5名</strong> 敌国士兵，但会炸毁附近的 <strong>1棵</strong> 敌国树木。</p> <p>树木的照片如下图所示。</p> <p></p> <img src='stimuli/trees/2.png', style='max-width: 30%;'> </img> <p><strong>你是否选择发射武器？</strong></p>","0",""
"","","","","","html-keyboard-response","52","175080","0.0-4.0-0.24","110","1","2022-11-13 11:39:00","49aca292d257f58668169b9fbab864ae","219.142.99.14","Mozilla/5.0 (Macintosh; Intel Mac OS X 10_15_6) AppleWebKit/605.1.15 (KHTML, like Gecko) Version/15.6.1 Safari/605.1.15","Macintosh","Safari","15.6.1","OS X","10_15_6","null","<div style=""font-size:60px;"">+</div>","null",""
"","","","","","html-button-response","53","177713","0.0-4.0-1.24","110","1","2022-11-13 11:39:00","49aca292d257f58668169b9fbab864ae","219.142.99.14","Mozilla/5.0 (Macintosh; Intel Mac OS X 10_15_6) AppleWebKit/605.1.15 (KHTML, like Gecko) Version/15.6.1 Safari/605.1.15","Macintosh","Safari","15.6.1","OS X","10_15_6","2625","<p>作为军队的指挥官，你可以选择发射导弹杀死 <strong>2名</strong> 敌国士兵，但会炸毁附近的 <strong>1棵</strong> 敌国树木。</p> <p>树木的照片如下图所示。</p> <p></p> <img src='stimuli/trees/13.png', style='max-width: 30%;'> </img> <p><strong>你是否选择发射武器？</strong></p>","0",""
"","","","","","html-keyboard-response","54","178719","0.0-4.0-0.25","110","1","2022-11-13 11:39:00","49aca292d257f58668169b9fbab864ae","219.142.99.14","Mozilla/5.0 (Macintosh; Intel Mac OS X 10_15_6) AppleWebKit/605.1.15 (KHTML, like Gecko) Version/15.6.1 Safari/605.1.15","Macintosh","Safari","15.6.1","OS X","10_15_6","null","<div style=""font-size:60px;"">+</div>","null",""
"","","","","","html-button-response","55","184158","0.0-4.0-1.25","110","1","2022-11-13 11:39:00","49aca292d257f58668169b9fbab864ae","219.142.99.14","Mozilla/5.0 (Macintosh; Intel Mac OS X 10_15_6) AppleWebKit/605.1.15 (KHTML, like Gecko) Version/15.6.1 Safari/605.1.15","Macintosh","Safari","15.6.1","OS X","10_15_6","5431","<p>作为军队的指挥官，你可以选择发射导弹杀死 <strong>7名</strong> 敌国士兵，但会误杀附近的 <strong>1名</strong> 敌国平民。</p> <p>平民照片如下图所示。</p> <p></p> <img src='stimuli/faces/PFF1.jpg', style='max-width: 30%;'> </img> <p><strong>你是否选择发射武器？</strong></p>","1",""
"","","","","","html-keyboard-response","56","185163","0.0-4.0-0.26","110","1","2022-11-13 11:39:00","49aca292d257f58668169b9fbab864ae","219.142.99.14","Mozilla/5.0 (Macintosh; Intel Mac OS X 10_15_6) AppleWebKit/605.1.15 (KHTML, like Gecko) Version/15.6.1 Safari/605.1.15","Macintosh","Safari","15.6.1","OS X","10_15_6","null","<div style=""font-size:60px;"">+</div>","null",""
"","","","","","html-button-response","57","187104","0.0-4.0-1.26","110","1","2022-11-13 11:39:00","49aca292d257f58668169b9fbab864ae","219.142.99.14","Mozilla/5.0 (Macintosh; Intel Mac OS X 10_15_6) AppleWebKit/605.1.15 (KHTML, like Gecko) Version/15.6.1 Safari/605.1.15","Macintosh","Safari","15.6.1","OS X","10_15_6","1933","<p>作为军队的指挥官，你可以选择发射导弹杀死 <strong>10名</strong> 敌国士兵，但会炸毁附近的 <strong>1棵</strong> 敌国树木。</p> <p>树木的照片如下图所示。</p> <p></p> <img src='stimuli/trees/11.png', style='max-width: 30%;'> </img> <p><strong>你是否选择发射武器？</strong></p>","0",""
"","","","","","html-keyboard-response","58","188109","0.0-4.0-0.27","110","1","2022-11-13 11:39:00","49aca292d257f58668169b9fbab864ae","219.142.99.14","Mozilla/5.0 (Macintosh; Intel Mac OS X 10_15_6) AppleWebKit/605.1.15 (KHTML, like Gecko) Version/15.6.1 Safari/605.1.15","Macintosh","Safari","15.6.1","OS X","10_15_6","null","<div style=""font-size:60px;"">+</div>","null",""
"","","","","","html-button-response","59","193100","0.0-4.0-1.27","110","1","2022-11-13 11:39:00","49aca292d257f58668169b9fbab864ae","219.142.99.14","Mozilla/5.0 (Macintosh; Intel Mac OS X 10_15_6) AppleWebKit/605.1.15 (KHTML, like Gecko) Version/15.6.1 Safari/605.1.15","Macintosh","Safari","15.6.1","OS X","10_15_6","4979","<p>作为军队的指挥官，你可以选择发射导弹杀死 <strong>10名</strong> 敌国士兵，但会误杀附近的 <strong>1名</strong> 敌国平民。</p> <p>平民照片如下图所示。</p> <p></p> <img src='stimuli/faces/PFM4.jpg', style='max-width: 30%;'> </img> <p><strong>你是否选择发射武器？</strong></p>","1",""
"","","","","","html-keyboard-response","60","194103","0.0-4.0-0.28","110","1","2022-11-13 11:39:00","49aca292d257f58668169b9fbab864ae","219.142.99.14","Mozilla/5.0 (Macintosh; Intel Mac OS X 10_15_6) AppleWebKit/605.1.15 (KHTML, like Gecko) Version/15.6.1 Safari/605.1.15","Macintosh","Safari","15.6.1","OS X","10_15_6","null","<div style=""font-size:60px;"">+</div>","null",""
"","","","","","html-button-response","61","196102","0.0-4.0-1.28","110","1","2022-11-13 11:39:00","49aca292d257f58668169b9fbab864ae","219.142.99.14","Mozilla/5.0 (Macintosh; Intel Mac OS X 10_15_6) AppleWebKit/605.1.15 (KHTML, like Gecko) Version/15.6.1 Safari/605.1.15","Macintosh","Safari","15.6.1","OS X","10_15_6","1991","<p>作为军队的指挥官，你可以选择发射导弹杀死 <strong>3名</strong> 敌国士兵，但会炸毁附近的 <strong>1棵</strong> 敌国树木。</p> <p>树木的照片如下图所示。</p> <p></p> <img src='stimuli/trees/6.png', style='max-width: 30%;'> </img> <p><strong>你是否选择发射武器？</strong></p>","0",""
"","","","","","html-keyboard-response","62","197108","0.0-4.0-0.29","110","1","2022-11-13 11:39:00","49aca292d257f58668169b9fbab864ae","219.142.99.14","Mozilla/5.0 (Macintosh; Intel Mac OS X 10_15_6) AppleWebKit/605.1.15 (KHTML, like Gecko) Version/15.6.1 Safari/605.1.15","Macintosh","Safari","15.6.1","OS X","10_15_6","null","<div style=""font-size:60px;"">+</div>","null",""
"","","","","","html-button-response","63","200587","0.0-4.0-1.29","110","1","2022-11-13 11:39:00","49aca292d257f58668169b9fbab864ae","219.142.99.14","Mozilla/5.0 (Macintosh; Intel Mac OS X 10_15_6) AppleWebKit/605.1.15 (KHTML, like Gecko) Version/15.6.1 Safari/605.1.15","Macintosh","Safari","15.6.1","OS X","10_15_6","3471","<p>作为军队的指挥官，你可以选择发射导弹杀死 <strong>9名</strong> 敌国士兵，但会炸毁附近的 <strong>1棵</strong> 敌国树木。</p> <p>树木的照片如下图所示。</p> <p></p> <img src='stimuli/trees/10.png', style='max-width: 30%;'> </img> <p><strong>你是否选择发射武器？</strong></p>","0",""
"","","","","","html-keyboard-response","64","201593","0.0-4.0-0.30","110","1","2022-11-13 11:39:00","49aca292d257f58668169b9fbab864ae","219.142.99.14","Mozilla/5.0 (Macintosh; Intel Mac OS X 10_15_6) AppleWebKit/605.1.15 (KHTML, like Gecko) Version/15.6.1 Safari/605.1.15","Macintosh","Safari","15.6.1","OS X","10_15_6","null","<div style=""font-size:60px;"">+</div>","null",""
"","","","","","html-button-response","65","204681","0.0-4.0-1.30","110","1","2022-11-13 11:39:00","49aca292d257f58668169b9fbab864ae","219.142.99.14","Mozilla/5.0 (Macintosh; Intel Mac OS X 10_15_6) AppleWebKit/605.1.15 (KHTML, like Gecko) Version/15.6.1 Safari/605.1.15","Macintosh","Safari","15.6.1","OS X","10_15_6","3079","<p>作为军队的指挥官，你可以选择发射导弹杀死 <strong>5名</strong> 敌国士兵，但会炸毁附近的 <strong>1棵</strong> 敌国树木。</p> <p>树木的照片如下图所示。</p> <p></p> <img src='stimuli/trees/8.png', style='max-width: 30%;'> </img> <p><strong>你是否选择发射武器？</strong></p>","0",""
"","","","","","html-keyboard-response","66","205687","0.0-4.0-0.31","110","1","2022-11-13 11:39:00","49aca292d257f58668169b9fbab864ae","219.142.99.14","Mozilla/5.0 (Macintosh; Intel Mac OS X 10_15_6) AppleWebKit/605.1.15 (KHTML, like Gecko) Version/15.6.1 Safari/605.1.15","Macintosh","Safari","15.6.1","OS X","10_15_6","null","<div style=""font-size:60px;"">+</div>","null",""
"","","","","","html-button-response","67","208446","0.0-4.0-1.31","110","1","2022-11-13 11:39:00","49aca292d257f58668169b9fbab864ae","219.142.99.14","Mozilla/5.0 (Macintosh; Intel Mac OS X 10_15_6) AppleWebKit/605.1.15 (KHTML, like Gecko) Version/15.6.1 Safari/605.1.15","Macintosh","Safari","15.6.1","OS X","10_15_6","2746","<p>作为军队的指挥官，你可以选择发射导弹杀死 <strong>3名</strong> 敌国士兵，但会误杀附近的 <strong>1名</strong> 敌国平民。</p> <p>平民照片如下图所示。</p> <p></p> <img src='stimuli/faces/PFF5.jpg', style='max-width: 30%;'> </img> <p><strong>你是否选择发射武器？</strong></p>","1",""
"","","","","","html-keyboard-response","68","209452","0.0-4.0-0.32","110","1","2022-11-13 11:39:00","49aca292d257f58668169b9fbab864ae","219.142.99.14","Mozilla/5.0 (Macintosh; Intel Mac OS X 10_15_6) AppleWebKit/605.1.15 (KHTML, like Gecko) Version/15.6.1 Safari/605.1.15","Macintosh","Safari","15.6.1","OS X","10_15_6","null","<div style=""font-size:60px;"">+</div>","null",""
"","","","","","html-button-response","69","211633","0.0-4.0-1.32","110","1","2022-11-13 11:39:00","49aca292d257f58668169b9fbab864ae","219.142.99.14","Mozilla/5.0 (Macintosh; Intel Mac OS X 10_15_6) AppleWebKit/605.1.15 (KHTML, like Gecko) Version/15.6.1 Safari/605.1.15","Macintosh","Safari","15.6.1","OS X","10_15_6","2167","<p>作为军队的指挥官，你可以选择发射导弹杀死 <strong>2名</strong> 敌国士兵，但会误杀附近的 <strong>1名</strong> 敌国平民。</p> <p>平民照片如下图所示。</p> <p></p> <img src='stimuli/faces/PFF4.jpg', style='max-width: 30%;'> </img> <p><strong>你是否选择发射武器？</strong></p>","1",""
"","","","","","html-keyboard-response","70","212638","0.0-4.0-0.33","110","1","2022-11-13 11:39:00","49aca292d257f58668169b9fbab864ae","219.142.99.14","Mozilla/5.0 (Macintosh; Intel Mac OS X 10_15_6) AppleWebKit/605.1.15 (KHTML, like Gecko) Version/15.6.1 Safari/605.1.15","Macintosh","Safari","15.6.1","OS X","10_15_6","null","<div style=""font-size:60px;"">+</div>","null",""
"","","","","","html-button-response","71","215317","0.0-4.0-1.33","110","1","2022-11-13 11:39:00","49aca292d257f58668169b9fbab864ae","219.142.99.14","Mozilla/5.0 (Macintosh; Intel Mac OS X 10_15_6) AppleWebKit/605.1.15 (KHTML, like Gecko) Version/15.6.1 Safari/605.1.15","Macintosh","Safari","15.6.1","OS X","10_15_6","2672","<p>作为军队的指挥官，你可以选择发射导弹杀死 <strong>4名</strong> 敌国士兵，但会炸毁附近的 <strong>1棵</strong> 敌国树木。</p> <p>树木的照片如下图所示。</p> <p></p> <img src='stimuli/trees/15.png', style='max-width: 30%;'> </img> <p><strong>你是否选择发射武器？</strong></p>","0",""
"","","","","","html-keyboard-response","72","216322","0.0-4.0-0.34","110","1","2022-11-13 11:39:00","49aca292d257f58668169b9fbab864ae","219.142.99.14","Mozilla/5.0 (Macintosh; Intel Mac OS X 10_15_6) AppleWebKit/605.1.15 (KHTML, like Gecko) Version/15.6.1 Safari/605.1.15","Macintosh","Safari","15.6.1","OS X","10_15_6","null","<div style=""font-size:60px;"">+</div>","null",""
"","","","","","html-button-response","73","217965","0.0-4.0-1.34","110","1","2022-11-13 11:39:00","49aca292d257f58668169b9fbab864ae","219.142.99.14","Mozilla/5.0 (Macintosh; Intel Mac OS X 10_15_6) AppleWebKit/605.1.15 (KHTML, like Gecko) Version/15.6.1 Safari/605.1.15","Macintosh","Safari","15.6.1","OS X","10_15_6","1634","<p>作为军队的指挥官，你可以选择发射导弹杀死 <strong>4名</strong> 敌国士兵，但会误杀附近的 <strong>1名</strong> 敌国平民。</p> <p>平民照片如下图所示。</p> <p></p> <img src='stimuli/faces/PFF6.jpg', style='max-width: 30%;'> </img> <p><strong>你是否选择发射武器？</strong></p>","1",""
"","","","","","html-keyboard-response","74","218970","0.0-4.0-0.35","110","1","2022-11-13 11:39:00","49aca292d257f58668169b9fbab864ae","219.142.99.14","Mozilla/5.0 (Macintosh; Intel Mac OS X 10_15_6) AppleWebKit/605.1.15 (KHTML, like Gecko) Version/15.6.1 Safari/605.1.15","Macintosh","Safari","15.6.1","OS X","10_15_6","null","<div style=""font-size:60px;"">+</div>","null",""
"","","","","","html-button-response","75","220837","0.0-4.0-1.35","110","1","2022-11-13 11:39:00","49aca292d257f58668169b9fbab864ae","219.142.99.14","Mozilla/5.0 (Macintosh; Intel Mac OS X 10_15_6) AppleWebKit/605.1.15 (KHTML, like Gecko) Version/15.6.1 Safari/605.1.15","Macintosh","Safari","15.6.1","OS X","10_15_6","1858","<p>作为军队的指挥官，你可以选择发射导弹杀死 <strong>4名</strong> 敌国士兵，但会误杀附近的 <strong>1名</strong> 敌国平民。</p> <p>平民照片如下图所示。</p> <p></p> <img src='stimuli/faces/PFM7.jpg', style='max-width: 30%;'> </img> <p><strong>你是否选择发射武器？</strong></p>","1",""
"","","","","","html-keyboard-response","76","221840","0.0-4.0-0.36","110","1","2022-11-13 11:39:00","49aca292d257f58668169b9fbab864ae","219.142.99.14","Mozilla/5.0 (Macintosh; Intel Mac OS X 10_15_6) AppleWebKit/605.1.15 (KHTML, like Gecko) Version/15.6.1 Safari/605.1.15","Macintosh","Safari","15.6.1","OS X","10_15_6","null","<div style=""font-size:60px;"">+</div>","null",""
"","","","","","html-button-response","77","230823","0.0-4.0-1.36","110","1","2022-11-13 11:39:00","49aca292d257f58668169b9fbab864ae","219.142.99.14","Mozilla/5.0 (Macintosh; Intel Mac OS X 10_15_6) AppleWebKit/605.1.15 (KHTML, like Gecko) Version/15.6.1 Safari/605.1.15","Macintosh","Safari","15.6.1","OS X","10_15_6","8971","<p>作为军队的指挥官，你可以选择发射导弹杀死 <strong>6名</strong> 敌国士兵，但会炸毁附近的 <strong>1棵</strong> 敌国树木。</p> <p>树木的照片如下图所示。</p> <p></p> <img src='stimuli/trees/2.png', style='max-width: 30%;'> </img> <p><strong>你是否选择发射武器？</strong></p>","0",""
"","","","","","html-keyboard-response","78","231829","0.0-4.0-0.37","110","1","2022-11-13 11:39:00","49aca292d257f58668169b9fbab864ae","219.142.99.14","Mozilla/5.0 (Macintosh; Intel Mac OS X 10_15_6) AppleWebKit/605.1.15 (KHTML, like Gecko) Version/15.6.1 Safari/605.1.15","Macintosh","Safari","15.6.1","OS X","10_15_6","null","<div style=""font-size:60px;"">+</div>","null",""
"","","","","","html-button-response","79","234208","0.0-4.0-1.37","110","1","2022-11-13 11:39:00","49aca292d257f58668169b9fbab864ae","219.142.99.14","Mozilla/5.0 (Macintosh; Intel Mac OS X 10_15_6) AppleWebKit/605.1.15 (KHTML, like Gecko) Version/15.6.1 Safari/605.1.15","Macintosh","Safari","15.6.1","OS X","10_15_6","2368","<p>作为军队的指挥官，你可以选择发射导弹杀死 <strong>3名</strong> 敌国士兵，但会炸毁附近的 <strong>1棵</strong> 敌国树木。</p> <p>树木的照片如下图所示。</p> <p></p> <img src='stimuli/trees/14.png', style='max-width: 30%;'> </img> <p><strong>你是否选择发射武器？</strong></p>","0",""
"","","","","","html-keyboard-response","80","235213","0.0-4.0-0.38","110","1","2022-11-13 11:39:00","49aca292d257f58668169b9fbab864ae","219.142.99.14","Mozilla/5.0 (Macintosh; Intel Mac OS X 10_15_6) AppleWebKit/605.1.15 (KHTML, like Gecko) Version/15.6.1 Safari/605.1.15","Macintosh","Safari","15.6.1","OS X","10_15_6","null","<div style=""font-size:60px;"">+</div>","null",""
"","","","","","html-button-response","81","237639","0.0-4.0-1.38","110","1","2022-11-13 11:39:00","49aca292d257f58668169b9fbab864ae","219.142.99.14","Mozilla/5.0 (Macintosh; Intel Mac OS X 10_15_6) AppleWebKit/605.1.15 (KHTML, like Gecko) Version/15.6.1 Safari/605.1.15","Macintosh","Safari","15.6.1","OS X","10_15_6","2417","<p>作为军队的指挥官，你可以选择发射导弹杀死 <strong>2名</strong> 敌国士兵，但会误杀附近的 <strong>1名</strong> 敌国平民。</p> <p>平民照片如下图所示。</p> <p></p> <img src='stimuli/faces/PFF7.jpg', style='max-width: 30%;'> </img> <p><strong>你是否选择发射武器？</strong></p>","1",""
"","","","","","html-keyboard-response","82","238645","0.0-4.0-0.39","110","1","2022-11-13 11:39:00","49aca292d257f58668169b9fbab864ae","219.142.99.14","Mozilla/5.0 (Macintosh; Intel Mac OS X 10_15_6) AppleWebKit/605.1.15 (KHTML, like Gecko) Version/15.6.1 Safari/605.1.15","Macintosh","Safari","15.6.1","OS X","10_15_6","null","<div style=""font-size:60px;"">+</div>","null",""
"","","","","","html-button-response","83","241639","0.0-4.0-1.39","110","1","2022-11-13 11:39:00","49aca292d257f58668169b9fbab864ae","219.142.99.14","Mozilla/5.0 (Macintosh; Intel Mac OS X 10_15_6) AppleWebKit/605.1.15 (KHTML, like Gecko) Version/15.6.1 Safari/605.1.15","Macintosh","Safari","15.6.1","OS X","10_15_6","2980","<p>作为军队的指挥官，你可以选择发射导弹杀死 <strong>7名</strong> 敌国士兵，但会误杀附近的 <strong>1名</strong> 敌国平民。</p> <p>平民照片如下图所示。</p> <p></p> <img src='stimuli/faces/PFF3.jpg', style='max-width: 30%;'> </img> <p><strong>你是否选择发射武器？</strong></p>","1",""
"","","","","","html-keyboard-response","84","242644","0.0-4.0-0.40","110","1","2022-11-13 11:39:00","49aca292d257f58668169b9fbab864ae","219.142.99.14","Mozilla/5.0 (Macintosh; Intel Mac OS X 10_15_6) AppleWebKit/605.1.15 (KHTML, like Gecko) Version/15.6.1 Safari/605.1.15","Macintosh","Safari","15.6.1","OS X","10_15_6","null","<div style=""font-size:60px;"">+</div>","null",""
"","","","","","html-button-response","85","245368","0.0-4.0-1.40","110","1","2022-11-13 11:39:00","49aca292d257f58668169b9fbab864ae","219.142.99.14","Mozilla/5.0 (Macintosh; Intel Mac OS X 10_15_6) AppleWebKit/605.1.15 (KHTML, like Gecko) Version/15.6.1 Safari/605.1.15","Macintosh","Safari","15.6.1","OS X","10_15_6","2715","<p>作为军队的指挥官，你可以选择发射导弹杀死 <strong>2名</strong> 敌国士兵，但会炸毁附近的 <strong>1棵</strong> 敌国树木。</p> <p>树木的照片如下图所示。</p> <p></p> <img src='stimuli/trees/9.png', style='max-width: 30%;'> </img> <p><strong>你是否选择发射武器？</strong></p>","0",""
"","","","","","html-keyboard-response","86","246374","0.0-4.0-0.41","110","1","2022-11-13 11:39:00","49aca292d257f58668169b9fbab864ae","219.142.99.14","Mozilla/5.0 (Macintosh; Intel Mac OS X 10_15_6) AppleWebKit/605.1.15 (KHTML, like Gecko) Version/15.6.1 Safari/605.1.15","Macintosh","Safari","15.6.1","OS X","10_15_6","null","<div style=""font-size:60px;"">+</div>","null",""
"","","","","","html-button-response","87","249017","0.0-4.0-1.41","110","1","2022-11-13 11:39:00","49aca292d257f58668169b9fbab864ae","219.142.99.14","Mozilla/5.0 (Macintosh; Intel Mac OS X 10_15_6) AppleWebKit/605.1.15 (KHTML, like Gecko) Version/15.6.1 Safari/605.1.15","Macintosh","Safari","15.6.1","OS X","10_15_6","2633","<p>作为军队的指挥官，你可以选择发射导弹杀死 <strong>2名</strong> 敌国士兵，但会误杀附近的 <strong>1名</strong> 敌国平民。</p> <p>平民照片如下图所示。</p> <p></p> <img src='stimuli/faces/PFM3.jpg', style='max-width: 30%;'> </img> <p><strong>你是否选择发射武器？</strong></p>","1",""
"","","","","","html-keyboard-response","88","250022","0.0-4.0-0.42","110","1","2022-11-13 11:39:00","49aca292d257f58668169b9fbab864ae","219.142.99.14","Mozilla/5.0 (Macintosh; Intel Mac OS X 10_15_6) AppleWebKit/605.1.15 (KHTML, like Gecko) Version/15.6.1 Safari/605.1.15","Macintosh","Safari","15.6.1","OS X","10_15_6","null","<div style=""font-size:60px;"">+</div>","null",""
"","","","","","html-button-response","89","254281","0.0-4.0-1.42","110","1","2022-11-13 11:39:00","49aca292d257f58668169b9fbab864ae","219.142.99.14","Mozilla/5.0 (Macintosh; Intel Mac OS X 10_15_6) AppleWebKit/605.1.15 (KHTML, like Gecko) Version/15.6.1 Safari/605.1.15","Macintosh","Safari","15.6.1","OS X","10_15_6","4246","<p>作为军队的指挥官，你可以选择发射导弹杀死 <strong>5名</strong> 敌国士兵，但会误杀附近的 <strong>1名</strong> 敌国平民。</p> <p>平民照片如下图所示。</p> <p></p> <img src='stimuli/faces/PFF3.jpg', style='max-width: 30%;'> </img> <p><strong>你是否选择发射武器？</strong></p>","1",""
"","","","","","html-keyboard-response","90","255287","0.0-4.0-0.43","110","1","2022-11-13 11:39:00","49aca292d257f58668169b9fbab864ae","219.142.99.14","Mozilla/5.0 (Macintosh; Intel Mac OS X 10_15_6) AppleWebKit/605.1.15 (KHTML, like Gecko) Version/15.6.1 Safari/605.1.15","Macintosh","Safari","15.6.1","OS X","10_15_6","null","<div style=""font-size:60px;"">+</div>","null",""
"","","","","","html-button-response","91","257816","0.0-4.0-1.43","110","1","2022-11-13 11:39:00","49aca292d257f58668169b9fbab864ae","219.142.99.14","Mozilla/5.0 (Macintosh; Intel Mac OS X 10_15_6) AppleWebKit/605.1.15 (KHTML, like Gecko) Version/15.6.1 Safari/605.1.15","Macintosh","Safari","15.6.1","OS X","10_15_6","2519","<p>作为军队的指挥官，你可以选择发射导弹杀死 <strong>7名</strong> 敌国士兵，但会误杀附近的 <strong>1名</strong> 敌国平民。</p> <p>平民照片如下图所示。</p> <p></p> <img src='stimuli/faces/PFF8.jpg', style='max-width: 30%;'> </img> <p><strong>你是否选择发射武器？</strong></p>","1",""
"","","","","","html-keyboard-response","92","258821","0.0-4.0-0.44","110","1","2022-11-13 11:39:00","49aca292d257f58668169b9fbab864ae","219.142.99.14","Mozilla/5.0 (Macintosh; Intel Mac OS X 10_15_6) AppleWebKit/605.1.15 (KHTML, like Gecko) Version/15.6.1 Safari/605.1.15","Macintosh","Safari","15.6.1","OS X","10_15_6","null","<div style=""font-size:60px;"">+</div>","null",""
"","","","","","html-button-response","93","260315","0.0-4.0-1.44","110","1","2022-11-13 11:39:00","49aca292d257f58668169b9fbab864ae","219.142.99.14","Mozilla/5.0 (Macintosh; Intel Mac OS X 10_15_6) AppleWebKit/605.1.15 (KHTML, like Gecko) Version/15.6.1 Safari/605.1.15","Macintosh","Safari","15.6.1","OS X","10_15_6","1483","<p>作为军队的指挥官，你可以选择发射导弹杀死 <strong>2名</strong> 敌国士兵，但会误杀附近的 <strong>1名</strong> 敌国平民。</p> <p>平民照片如下图所示。</p> <p></p> <img src='stimuli/faces/PFM8.jpg', style='max-width: 30%;'> </img> <p><strong>你是否选择发射武器？</strong></p>","1",""
"","","","","","html-keyboard-response","94","261322","0.0-4.0-0.45","110","1","2022-11-13 11:39:00","49aca292d257f58668169b9fbab864ae","219.142.99.14","Mozilla/5.0 (Macintosh; Intel Mac OS X 10_15_6) AppleWebKit/605.1.15 (KHTML, like Gecko) Version/15.6.1 Safari/605.1.15","Macintosh","Safari","15.6.1","OS X","10_15_6","null","<div style=""font-size:60px;"">+</div>","null",""
"","","","","","html-button-response","95","262599","0.0-4.0-1.45","110","1","2022-11-13 11:39:00","49aca292d257f58668169b9fbab864ae","219.142.99.14","Mozilla/5.0 (Macintosh; Intel Mac OS X 10_15_6) AppleWebKit/605.1.15 (KHTML, like Gecko) Version/15.6.1 Safari/605.1.15","Macintosh","Safari","15.6.1","OS X","10_15_6","1266","<p>作为军队的指挥官，你可以选择发射导弹杀死 <strong>1名</strong> 敌国士兵，但会炸毁附近的 <strong>1棵</strong> 敌国树木。</p> <p>树木的照片如下图所示。</p> <p></p> <img src='stimuli/trees/3.png', style='max-width: 30%;'> </img> <p><strong>你是否选择发射武器？</strong></p>","0",""
"","","","","","html-keyboard-response","96","263604","0.0-4.0-0.46","110","1","2022-11-13 11:39:00","49aca292d257f58668169b9fbab864ae","219.142.99.14","Mozilla/5.0 (Macintosh; Intel Mac OS X 10_15_6) AppleWebKit/605.1.15 (KHTML, like Gecko) Version/15.6.1 Safari/605.1.15","Macintosh","Safari","15.6.1","OS X","10_15_6","null","<div style=""font-size:60px;"">+</div>","null",""
"","","","","","html-button-response","97","269017","0.0-4.0-1.46","110","1","2022-11-13 11:39:00","49aca292d257f58668169b9fbab864ae","219.142.99.14","Mozilla/5.0 (Macintosh; Intel Mac OS X 10_15_6) AppleWebKit/605.1.15 (KHTML, like Gecko) Version/15.6.1 Safari/605.1.15","Macintosh","Safari","15.6.1","OS X","10_15_6","5402","<p>作为军队的指挥官，你可以选择发射导弹杀死 <strong>10名</strong> 敌国士兵，但会炸毁附近的 <strong>1棵</strong> 敌国树木。</p> <p>树木的照片如下图所示。</p> <p></p> <img src='stimuli/trees/8.png', style='max-width: 30%;'> </img> <p><strong>你是否选择发射武器？</strong></p>","0",""
"","","","","","html-keyboard-response","98","270023","0.0-4.0-0.47","110","1","2022-11-13 11:39:00","49aca292d257f58668169b9fbab864ae","219.142.99.14","Mozilla/5.0 (Macintosh; Intel Mac OS X 10_15_6) AppleWebKit/605.1.15 (KHTML, like Gecko) Version/15.6.1 Safari/605.1.15","Macintosh","Safari","15.6.1","OS X","10_15_6","null","<div style=""font-size:60px;"">+</div>","null",""
"","","","","","html-button-response","99","272516","0.0-4.0-1.47","110","1","2022-11-13 11:39:00","49aca292d257f58668169b9fbab864ae","219.142.99.14","Mozilla/5.0 (Macintosh; Intel Mac OS X 10_15_6) AppleWebKit/605.1.15 (KHTML, like Gecko) Version/15.6.1 Safari/605.1.15","Macintosh","Safari","15.6.1","OS X","10_15_6","2484","<p>作为军队的指挥官，你可以选择发射导弹杀死 <strong>2名</strong> 敌国士兵，但会误杀附近的 <strong>1名</strong> 敌国平民。</p> <p>平民照片如下图所示。</p> <p></p> <img src='stimuli/faces/PFF2.jpg', style='max-width: 30%;'> </img> <p><strong>你是否选择发射武器？</strong></p>","1",""
"","","","","","html-keyboard-response","100","273523","0.0-4.0-0.48","110","1","2022-11-13 11:39:00","49aca292d257f58668169b9fbab864ae","219.142.99.14","Mozilla/5.0 (Macintosh; Intel Mac OS X 10_15_6) AppleWebKit/605.1.15 (KHTML, like Gecko) Version/15.6.1 Safari/605.1.15","Macintosh","Safari","15.6.1","OS X","10_15_6","null","<div style=""font-size:60px;"">+</div>","null",""
"","","","","","html-button-response","101","275530","0.0-4.0-1.48","110","1","2022-11-13 11:39:00","49aca292d257f58668169b9fbab864ae","219.142.99.14","Mozilla/5.0 (Macintosh; Intel Mac OS X 10_15_6) AppleWebKit/605.1.15 (KHTML, like Gecko) Version/15.6.1 Safari/605.1.15","Macintosh","Safari","15.6.1","OS X","10_15_6","1997","<p>作为军队的指挥官，你可以选择发射导弹杀死 <strong>6名</strong> 敌国士兵，但会炸毁附近的 <strong>1棵</strong> 敌国树木。</p> <p>树木的照片如下图所示。</p> <p></p> <img src='stimuli/trees/14.png', style='max-width: 30%;'> </img> <p><strong>你是否选择发射武器？</strong></p>","0",""
"","","","","","html-keyboard-response","102","276536","0.0-4.0-0.49","110","1","2022-11-13 11:39:00","49aca292d257f58668169b9fbab864ae","219.142.99.14","Mozilla/5.0 (Macintosh; Intel Mac OS X 10_15_6) AppleWebKit/605.1.15 (KHTML, like Gecko) Version/15.6.1 Safari/605.1.15","Macintosh","Safari","15.6.1","OS X","10_15_6","null","<div style=""font-size:60px;"">+</div>","null",""
"","","","","","html-button-response","103","278360","0.0-4.0-1.49","110","1","2022-11-13 11:39:00","49aca292d257f58668169b9fbab864ae","219.142.99.14","Mozilla/5.0 (Macintosh; Intel Mac OS X 10_15_6) AppleWebKit/605.1.15 (KHTML, like Gecko) Version/15.6.1 Safari/605.1.15","Macintosh","Safari","15.6.1","OS X","10_15_6","1813","<p>作为军队的指挥官，你可以选择发射导弹杀死 <strong>6名</strong> 敌国士兵，但会误杀附近的 <strong>1名</strong> 敌国平民。</p> <p>平民照片如下图所示。</p> <p></p> <img src='stimuli/faces/PFF7.jpg', style='max-width: 30%;'> </img> <p><strong>你是否选择发射武器？</strong></p>","1",""
"","","","","","html-keyboard-response","104","279366","0.0-4.0-0.50","110","1","2022-11-13 11:39:00","49aca292d257f58668169b9fbab864ae","219.142.99.14","Mozilla/5.0 (Macintosh; Intel Mac OS X 10_15_6) AppleWebKit/605.1.15 (KHTML, like Gecko) Version/15.6.1 Safari/605.1.15","Macintosh","Safari","15.6.1","OS X","10_15_6","null","<div style=""font-size:60px;"">+</div>","null",""
"","","","","","html-button-response","105","282008","0.0-4.0-1.50","110","1","2022-11-13 11:39:00","49aca292d257f58668169b9fbab864ae","219.142.99.14","Mozilla/5.0 (Macintosh; Intel Mac OS X 10_15_6) AppleWebKit/605.1.15 (KHTML, like Gecko) Version/15.6.1 Safari/605.1.15","Macintosh","Safari","15.6.1","OS X","10_15_6","2627","<p>作为军队的指挥官，你可以选择发射导弹杀死 <strong>8名</strong> 敌国士兵，但会炸毁附近的 <strong>1棵</strong> 敌国树木。</p> <p>树木的照片如下图所示。</p> <p></p> <img src='stimuli/trees/6.png', style='max-width: 30%;'> </img> <p><strong>你是否选择发射武器？</strong></p>","0",""
"","","","","","html-keyboard-response","106","283015","0.0-4.0-0.51","110","1","2022-11-13 11:39:00","49aca292d257f58668169b9fbab864ae","219.142.99.14","Mozilla/5.0 (Macintosh; Intel Mac OS X 10_15_6) AppleWebKit/605.1.15 (KHTML, like Gecko) Version/15.6.1 Safari/605.1.15","Macintosh","Safari","15.6.1","OS X","10_15_6","null","<div style=""font-size:60px;"">+</div>","null",""
"","","","","","html-button-response","107","285607","0.0-4.0-1.51","110","1","2022-11-13 11:39:00","49aca292d257f58668169b9fbab864ae","219.142.99.14","Mozilla/5.0 (Macintosh; Intel Mac OS X 10_15_6) AppleWebKit/605.1.15 (KHTML, like Gecko) Version/15.6.1 Safari/605.1.15","Macintosh","Safari","15.6.1","OS X","10_15_6","2577","<p>作为军队的指挥官，你可以选择发射导弹杀死 <strong>2名</strong> 敌国士兵，但会误杀附近的 <strong>1名</strong> 敌国平民。</p> <p>平民照片如下图所示。</p> <p></p> <img src='stimuli/faces/PFM1.jpg', style='max-width: 30%;'> </img> <p><strong>你是否选择发射武器？</strong></p>","1",""
"","","","","","html-keyboard-response","108","286615","0.0-4.0-0.52","110","1","2022-11-13 11:39:00","49aca292d257f58668169b9fbab864ae","219.142.99.14","Mozilla/5.0 (Macintosh; Intel Mac OS X 10_15_6) AppleWebKit/605.1.15 (KHTML, like Gecko) Version/15.6.1 Safari/605.1.15","Macintosh","Safari","15.6.1","OS X","10_15_6","null","<div style=""font-size:60px;"">+</div>","null",""
"","","","","","html-button-response","109","289590","0.0-4.0-1.52","110","1","2022-11-13 11:39:00","49aca292d257f58668169b9fbab864ae","219.142.99.14","Mozilla/5.0 (Macintosh; Intel Mac OS X 10_15_6) AppleWebKit/605.1.15 (KHTML, like Gecko) Version/15.6.1 Safari/605.1.15","Macintosh","Safari","15.6.1","OS X","10_15_6","2962","<p>作为军队的指挥官，你可以选择发射导弹杀死 <strong>3名</strong> 敌国士兵，但会炸毁附近的 <strong>1棵</strong> 敌国树木。</p> <p>树木的照片如下图所示。</p> <p></p> <img src='stimuli/trees/5.png', style='max-width: 30%;'> </img> <p><strong>你是否选择发射武器？</strong></p>","0",""
"","","","","","html-keyboard-response","110","290597","0.0-4.0-0.53","110","1","2022-11-13 11:39:00","49aca292d257f58668169b9fbab864ae","219.142.99.14","Mozilla/5.0 (Macintosh; Intel Mac OS X 10_15_6) AppleWebKit/605.1.15 (KHTML, like Gecko) Version/15.6.1 Safari/605.1.15","Macintosh","Safari","15.6.1","OS X","10_15_6","null","<div style=""font-size:60px;"">+</div>","null",""
"","","","","","html-button-response","111","292405","0.0-4.0-1.53","110","1","2022-11-13 11:39:00","49aca292d257f58668169b9fbab864ae","219.142.99.14","Mozilla/5.0 (Macintosh; Intel Mac OS X 10_15_6) AppleWebKit/605.1.15 (KHTML, like Gecko) Version/15.6.1 Safari/605.1.15","Macintosh","Safari","15.6.1","OS X","10_15_6","1793","<p>作为军队的指挥官，你可以选择发射导弹杀死 <strong>7名</strong> 敌国士兵，但会炸毁附近的 <strong>1棵</strong> 敌国树木。</p> <p>树木的照片如下图所示。</p> <p></p> <img src='stimuli/trees/15.png', style='max-width: 30%;'> </img> <p><strong>你是否选择发射武器？</strong></p>","0",""
"","","","","","html-keyboard-response","112","293411","0.0-4.0-0.54","110","1","2022-11-13 11:39:00","49aca292d257f58668169b9fbab864ae","219.142.99.14","Mozilla/5.0 (Macintosh; Intel Mac OS X 10_15_6) AppleWebKit/605.1.15 (KHTML, like Gecko) Version/15.6.1 Safari/605.1.15","Macintosh","Safari","15.6.1","OS X","10_15_6","null","<div style=""font-size:60px;"">+</div>","null",""
"","","","","","html-button-response","113","298465","0.0-4.0-1.54","110","1","2022-11-13 11:39:00","49aca292d257f58668169b9fbab864ae","219.142.99.14","Mozilla/5.0 (Macintosh; Intel Mac OS X 10_15_6) AppleWebKit/605.1.15 (KHTML, like Gecko) Version/15.6.1 Safari/605.1.15","Macintosh","Safari","15.6.1","OS X","10_15_6","5042","<p>作为军队的指挥官，你可以选择发射导弹杀死 <strong>7名</strong> 敌国士兵，但会误杀附近的 <strong>1名</strong> 敌国平民。</p> <p>平民照片如下图所示。</p> <p></p> <img src='stimuli/faces/PFF2.jpg', style='max-width: 30%;'> </img> <p><strong>你是否选择发射武器？</strong></p>","1",""
"","","","","","html-keyboard-response","114","299471","0.0-4.0-0.55","110","1","2022-11-13 11:39:00","49aca292d257f58668169b9fbab864ae","219.142.99.14","Mozilla/5.0 (Macintosh; Intel Mac OS X 10_15_6) AppleWebKit/605.1.15 (KHTML, like Gecko) Version/15.6.1 Safari/605.1.15","Macintosh","Safari","15.6.1","OS X","10_15_6","null","<div style=""font-size:60px;"">+</div>","null",""
"","","","","","html-button-response","115","301219","0.0-4.0-1.55","110","1","2022-11-13 11:39:00","49aca292d257f58668169b9fbab864ae","219.142.99.14","Mozilla/5.0 (Macintosh; Intel Mac OS X 10_15_6) AppleWebKit/605.1.15 (KHTML, like Gecko) Version/15.6.1 Safari/605.1.15","Macintosh","Safari","15.6.1","OS X","10_15_6","1736","<p>作为军队的指挥官，你可以选择发射导弹杀死 <strong>7名</strong> 敌国士兵，但会误杀附近的 <strong>1名</strong> 敌国平民。</p> <p>平民照片如下图所示。</p> <p></p> <img src='stimuli/faces/PFM2.jpg', style='max-width: 30%;'> </img> <p><strong>你是否选择发射武器？</strong></p>","1",""
"","","","","","html-keyboard-response","116","302224","0.0-4.0-0.56","110","1","2022-11-13 11:39:00","49aca292d257f58668169b9fbab864ae","219.142.99.14","Mozilla/5.0 (Macintosh; Intel Mac OS X 10_15_6) AppleWebKit/605.1.15 (KHTML, like Gecko) Version/15.6.1 Safari/605.1.15","Macintosh","Safari","15.6.1","OS X","10_15_6","null","<div style=""font-size:60px;"">+</div>","null",""
"","","","","","html-button-response","117","303432","0.0-4.0-1.56","110","1","2022-11-13 11:39:00","49aca292d257f58668169b9fbab864ae","219.142.99.14","Mozilla/5.0 (Macintosh; Intel Mac OS X 10_15_6) AppleWebKit/605.1.15 (KHTML, like Gecko) Version/15.6.1 Safari/605.1.15","Macintosh","Safari","15.6.1","OS X","10_15_6","1197","<p>作为军队的指挥官，你可以选择发射导弹杀死 <strong>3名</strong> 敌国士兵，但会误杀附近的 <strong>1名</strong> 敌国平民。</p> <p>平民照片如下图所示。</p> <p></p> <img src='stimuli/faces/PFM6.jpg', style='max-width: 30%;'> </img> <p><strong>你是否选择发射武器？</strong></p>","1",""
"","","","","","html-keyboard-response","118","304440","0.0-4.0-0.57","110","1","2022-11-13 11:39:00","49aca292d257f58668169b9fbab864ae","219.142.99.14","Mozilla/5.0 (Macintosh; Intel Mac OS X 10_15_6) AppleWebKit/605.1.15 (KHTML, like Gecko) Version/15.6.1 Safari/605.1.15","Macintosh","Safari","15.6.1","OS X","10_15_6","null","<div style=""font-size:60px;"">+</div>","null",""
"","","","","","html-button-response","119","306298","0.0-4.0-1.57","110","1","2022-11-13 11:39:00","49aca292d257f58668169b9fbab864ae","219.142.99.14","Mozilla/5.0 (Macintosh; Intel Mac OS X 10_15_6) AppleWebKit/605.1.15 (KHTML, like Gecko) Version/15.6.1 Safari/605.1.15","Macintosh","Safari","15.6.1","OS X","10_15_6","1844","<p>作为军队的指挥官，你可以选择发射导弹杀死 <strong>3名</strong> 敌国士兵，但会炸毁附近的 <strong>1棵</strong> 敌国树木。</p> <p>树木的照片如下图所示。</p> <p></p> <img src='stimuli/trees/11.png', style='max-width: 30%;'> </img> <p><strong>你是否选择发射武器？</strong></p>","0",""
"","","","","","html-keyboard-response","120","307306","0.0-4.0-0.58","110","1","2022-11-13 11:39:00","49aca292d257f58668169b9fbab864ae","219.142.99.14","Mozilla/5.0 (Macintosh; Intel Mac OS X 10_15_6) AppleWebKit/605.1.15 (KHTML, like Gecko) Version/15.6.1 Safari/605.1.15","Macintosh","Safari","15.6.1","OS X","10_15_6","null","<div style=""font-size:60px;"">+</div>","null",""
"","","","","","html-button-response","121","309280","0.0-4.0-1.58","110","1","2022-11-13 11:39:00","49aca292d257f58668169b9fbab864ae","219.142.99.14","Mozilla/5.0 (Macintosh; Intel Mac OS X 10_15_6) AppleWebKit/605.1.15 (KHTML, like Gecko) Version/15.6.1 Safari/605.1.15","Macintosh","Safari","15.6.1","OS X","10_15_6","1962","<p>作为军队的指挥官，你可以选择发射导弹杀死 <strong>10名</strong> 敌国士兵，但会误杀附近的 <strong>1名</strong> 敌国平民。</p> <p>平民照片如下图所示。</p> <p></p> <img src='stimuli/faces/PFM1.jpg', style='max-width: 30%;'> </img> <p><strong>你是否选择发射武器？</strong></p>","1",""
"","","","","","html-keyboard-response","122","310287","0.0-4.0-0.59","110","1","2022-11-13 11:39:00","49aca292d257f58668169b9fbab864ae","219.142.99.14","Mozilla/5.0 (Macintosh; Intel Mac OS X 10_15_6) AppleWebKit/605.1.15 (KHTML, like Gecko) Version/15.6.1 Safari/605.1.15","Macintosh","Safari","15.6.1","OS X","10_15_6","null","<div style=""font-size:60px;"">+</div>","null",""
"","","","","","html-button-response","123","314764","0.0-4.0-1.59","110","1","2022-11-13 11:39:00","49aca292d257f58668169b9fbab864ae","219.142.99.14","Mozilla/5.0 (Macintosh; Intel Mac OS X 10_15_6) AppleWebKit/605.1.15 (KHTML, like Gecko) Version/15.6.1 Safari/605.1.15","Macintosh","Safari","15.6.1","OS X","10_15_6","4463","<p>作为军队的指挥官，你可以选择发射导弹杀死 <strong>1名</strong> 敌国士兵，但会炸毁附近的 <strong>1棵</strong> 敌国树木。</p> <p>树木的照片如下图所示。</p> <p></p> <img src='stimuli/trees/16.png', style='max-width: 30%;'> </img> <p><strong>你是否选择发射武器？</strong></p>","0",""
"","","","","","html-keyboard-response","124","315770","0.0-4.0-0.60","110","1","2022-11-13 11:39:00","49aca292d257f58668169b9fbab864ae","219.142.99.14","Mozilla/5.0 (Macintosh; Intel Mac OS X 10_15_6) AppleWebKit/605.1.15 (KHTML, like Gecko) Version/15.6.1 Safari/605.1.15","Macintosh","Safari","15.6.1","OS X","10_15_6","null","<div style=""font-size:60px;"">+</div>","null",""
"","","","","","html-button-response","125","318511","0.0-4.0-1.60","110","1","2022-11-13 11:39:00","49aca292d257f58668169b9fbab864ae","219.142.99.14","Mozilla/5.0 (Macintosh; Intel Mac OS X 10_15_6) AppleWebKit/605.1.15 (KHTML, like Gecko) Version/15.6.1 Safari/605.1.15","Macintosh","Safari","15.6.1","OS X","10_15_6","2728","<p>作为军队的指挥官，你可以选择发射导弹杀死 <strong>7名</strong> 敌国士兵，但会炸毁附近的 <strong>1棵</strong> 敌国树木。</p> <p>树木的照片如下图所示。</p> <p></p> <img src='stimuli/trees/12.png', style='max-width: 30%;'> </img> <p><strong>你是否选择发射武器？</strong></p>","0",""
"","","","","","html-keyboard-response","126","319518","0.0-4.0-0.61","110","1","2022-11-13 11:39:00","49aca292d257f58668169b9fbab864ae","219.142.99.14","Mozilla/5.0 (Macintosh; Intel Mac OS X 10_15_6) AppleWebKit/605.1.15 (KHTML, like Gecko) Version/15.6.1 Safari/605.1.15","Macintosh","Safari","15.6.1","OS X","10_15_6","null","<div style=""font-size:60px;"">+</div>","null",""
"","","","","","html-button-response","127","323842","0.0-4.0-1.61","110","1","2022-11-13 11:39:00","49aca292d257f58668169b9fbab864ae","219.142.99.14","Mozilla/5.0 (Macintosh; Intel Mac OS X 10_15_6) AppleWebKit/605.1.15 (KHTML, like Gecko) Version/15.6.1 Safari/605.1.15","Macintosh","Safari","15.6.1","OS X","10_15_6","4311","<p>作为军队的指挥官，你可以选择发射导弹杀死 <strong>9名</strong> 敌国士兵，但会误杀附近的 <strong>1名</strong> 敌国平民。</p> <p>平民照片如下图所示。</p> <p></p> <img src='stimuli/faces/PFF4.jpg', style='max-width: 30%;'> </img> <p><strong>你是否选择发射武器？</strong></p>","1",""
"","","","","","html-keyboard-response","128","324849","0.0-4.0-0.62","110","1","2022-11-13 11:39:00","49aca292d257f58668169b9fbab864ae","219.142.99.14","Mozilla/5.0 (Macintosh; Intel Mac OS X 10_15_6) AppleWebKit/605.1.15 (KHTML, like Gecko) Version/15.6.1 Safari/605.1.15","Macintosh","Safari","15.6.1","OS X","10_15_6","null","<div style=""font-size:60px;"">+</div>","null",""
"","","","","","html-button-response","129","326410","0.0-4.0-1.62","110","1","2022-11-13 11:39:00","49aca292d257f58668169b9fbab864ae","219.142.99.14","Mozilla/5.0 (Macintosh; Intel Mac OS X 10_15_6) AppleWebKit/605.1.15 (KHTML, like Gecko) Version/15.6.1 Safari/605.1.15","Macintosh","Safari","15.6.1","OS X","10_15_6","1548","<p>作为军队的指挥官，你可以选择发射导弹杀死 <strong>7名</strong> 敌国士兵，但会误杀附近的 <strong>1名</strong> 敌国平民。</p> <p>平民照片如下图所示。</p> <p></p> <img src='stimuli/faces/PFF5.jpg', style='max-width: 30%;'> </img> <p><strong>你是否选择发射武器？</strong></p>","1",""
"","","","","","html-keyboard-response","130","327418","0.0-4.0-0.63","110","1","2022-11-13 11:39:00","49aca292d257f58668169b9fbab864ae","219.142.99.14","Mozilla/5.0 (Macintosh; Intel Mac OS X 10_15_6) AppleWebKit/605.1.15 (KHTML, like Gecko) Version/15.6.1 Safari/605.1.15","Macintosh","Safari","15.6.1","OS X","10_15_6","null","<div style=""font-size:60px;"">+</div>","null",""
"","","","","","html-button-response","131","328840","0.0-4.0-1.63","110","1","2022-11-13 11:39:00","49aca292d257f58668169b9fbab864ae","219.142.99.14","Mozilla/5.0 (Macintosh; Intel Mac OS X 10_15_6) AppleWebKit/605.1.15 (KHTML, like Gecko) Version/15.6.1 Safari/605.1.15","Macintosh","Safari","15.6.1","OS X","10_15_6","1410","<p>作为军队的指挥官，你可以选择发射导弹杀死 <strong>6名</strong> 敌国士兵，但会炸毁附近的 <strong>1棵</strong> 敌国树木。</p> <p>树木的照片如下图所示。</p> <p></p> <img src='stimuli/trees/13.png', style='max-width: 30%;'> </img> <p><strong>你是否选择发射武器？</strong></p>","0",""
"","","","","","survey-multi-choice","132","357909","0.0-5.0","110","1","2022-11-13 11:39:00","49aca292d257f58668169b9fbab864ae","219.142.99.14","Mozilla/5.0 (Macintosh; Intel Mac OS X 10_15_6) AppleWebKit/605.1.15 (KHTML, like Gecko) Version/15.6.1 Safari/605.1.15","Macintosh","Safari","15.6.1","OS X","10_15_6","29057","","{""Attention1"":""""}","[0]"
"","","","","","html-button-response","133","359996","0.0-6.0","110","1","2022-11-13 11:39:00","49aca292d257f58668169b9fbab864ae","219.142.99.14","Mozilla/5.0 (Macintosh; Intel Mac OS X 10_15_6) AppleWebKit/605.1.15 (KHTML, like Gecko) Version/15.6.1 Safari/605.1.15","Macintosh","Safari","15.6.1","OS X","10_15_6","2083","<p style=""font-size:20px;font-weight:bold;"">恭喜！</p><p>你已经完成了实验的第一部分。</p><p>请休息放松一下，然后进入第二部分。</p><p>这部分大约需要10分钟。</p>","0",""
"","","","","","survey-text","134","416086","0.0-7.0","110","1","2022-11-13 11:39:00","49aca292d257f58668169b9fbab864ae","219.142.99.14","Mozilla/5.0 (Macintosh; Intel Mac OS X 10_15_6) AppleWebKit/605.1.15 (KHTML, like Gecko) Version/15.6.1 Safari/605.1.15","Macintosh","Safari","15.6.1","OS X","10_15_6","55073","","{""Age"":""20"",""Nation"":""中国"",""Born"":""山东济南"",""Live"":""福建福州"",""Ethnic"":""汉"",""Alipay"":""13675032136""}",""
"","","","","","survey-multi-choice","135","470424","0.0-8.0","110","1","2022-11-13 11:39:00","49aca292d257f58668169b9fbab864ae","219.142.99.14","Mozilla/5.0 (Macintosh; Intel Mac OS X 10_15_6) AppleWebKit/605.1.15 (KHTML, like Gecko) Version/15.6.1 Safari/605.1.15","Macintosh","Safari","15.6.1","OS X","10_15_6","54333","","{""Gender"":""女"",""Education"":""高中毕业"",""Income"":""￥140,000-￥269,999"",""Children"":""0"",""Race"":""亚洲人""}","[0,1,2,3,4]"
"","","","","","survey-multi-select","136","479135","0.0-9.0","110","1","2022-11-13 11:39:00","49aca292d257f58668169b9fbab864ae","219.142.99.14","Mozilla/5.0 (Macintosh; Intel Mac OS X 10_15_6) AppleWebKit/605.1.15 (KHTML, like Gecko) Version/15.6.1 Safari/605.1.15","Macintosh","Safari","15.6.1","OS X","10_15_6","8698","","{""Marriage"":[""未婚""],""Religion"":[""无宗教信仰""]}","[0,1]"
"","","","","","survey-multi-choice","137","503171","0.0-10.0","110","1","2022-11-13 11:39:00","49aca292d257f58668169b9fbab864ae","219.142.99.14","Mozilla/5.0 (Macintosh; Intel Mac OS X 10_15_6) AppleWebKit/605.1.15 (KHTML, like Gecko) Version/15.6.1 Safari/605.1.15","Macintosh","Safari","15.6.1","OS X","10_15_6","24029","","{""SES"":""5""}","[0]"
"","","","","","html-button-response","138","509226","0.0-11.0","110","1","2022-11-13 11:39:00","49aca292d257f58668169b9fbab864ae","219.142.99.14","Mozilla/5.0 (Macintosh; Intel Mac OS X 10_15_6) AppleWebKit/605.1.15 (KHTML, like Gecko) Version/15.6.1 Safari/605.1.15","Macintosh","Safari","15.6.1","OS X","10_15_6","6049","<p><strong>请判断下列陈述在多大程度上可以形容你？</p><p> (1 = ""和我一点都不像"" to 5 = ""非常像我"".)</strong></p>","0",""
"","","","","","survey-likert","139","537617","0.0-12.0","110","1","2022-11-13 11:39:00","49aca292d257f58668169b9fbab864ae","219.142.99.14","Mozilla/5.0 (Macintosh; Intel Mac OS X 10_15_6) AppleWebKit/605.1.15 (KHTML, like Gecko) Version/15.6.1 Safari/605.1.15","Macintosh","Safari","15.6.1","OS X","10_15_6","28380","","{""Aggression1"":1,""Aggression2"":3,""Aggression3"":2,""Aggression4"":1,""Aggression5"":2,""Aggression6"":3,""Aggression7"":0,""Aggression8"":3,""Aggression9"":4}","[0,1,2,3,4,5,6,7,8]"
"","","","","","html-button-response","140","539268","0.0-13.0","110","1","2022-11-13 11:39:00","49aca292d257f58668169b9fbab864ae","219.142.99.14","Mozilla/5.0 (Macintosh; Intel Mac OS X 10_15_6) AppleWebKit/605.1.15 (KHTML, like Gecko) Version/15.6.1 Safari/605.1.15","Macintosh","Safari","15.6.1","OS X","10_15_6","1643","<p><strong>请判断你在多大程度上同意下列陈述。</strong></p>","0",""
"","","","","","survey-likert","141","675739","0.0-14.0","110","1","2022-11-13 11:39:00","49aca292d257f58668169b9fbab864ae","219.142.99.14","Mozilla/5.0 (Macintosh; Intel Mac OS X 10_15_6) AppleWebKit/605.1.15 (KHTML, like Gecko) Version/15.6.1 Safari/605.1.15","Macintosh","Safari","15.6.1","OS X","10_15_6","136460","","{""scale21"":3,""scale12"":0,""scale4"":2,""scale20"":2,""scale17"":3,""scale7"":1,""scale11"":2,""scale10"":4,""scale14"":2,""scale15"":1,""scale23"":3,""scale16"":2,""scale2"":2,""scale24"":1,""scale28"":1,""scale26"":1,""scale18"":1,""scale9"":2,""scale25"":3,""scale8"":1,""scale22"":1,""scale13"":1,""scale19"":2,""scale6"":3,""scale1"":2,""scale3"":2,""scale27"":1,""scale5"":3}","[20,11,3,19,16,6,10,9,13,14,22,15,1,23,27,25,17,8,24,7,21,12,18,5,0,2,26,4]"
"","","","","","html-button-response","142","676990","0.0-15.0","110","1","2022-11-13 11:39:00","49aca292d257f58668169b9fbab864ae","219.142.99.14","Mozilla/5.0 (Macintosh; Intel Mac OS X 10_15_6) AppleWebKit/605.1.15 (KHTML, like Gecko) Version/15.6.1 Safari/605.1.15","Macintosh","Safari","15.6.1","OS X","10_15_6","1246","<p><strong>请判断你在多大程度上同意下列陈述。</strong></p>","0",""
"","","","","","survey-likert","143","738087","0.0-16.0","110","1","2022-11-13 11:39:00","49aca292d257f58668169b9fbab864ae","219.142.99.14","Mozilla/5.0 (Macintosh; Intel Mac OS X 10_15_6) AppleWebKit/605.1.15 (KHTML, like Gecko) Version/15.6.1 Safari/605.1.15","Macintosh","Safari","15.6.1","OS X","10_15_6","61089","","{""sdo4"":2,""sdo11"":4,""sdo13"":5,""sdo2"":2,""sdo16"":3,""sdo1"":1,""sdo5"":3,""sdo3"":5,""sdo7"":2,""sdo14"":5,""sdo10"":4,""sdo12"":5,""sdo15"":4,""sdo6"":3,""sdo8"":4,""sdo9"":5}","[3,10,12,1,15,0,4,2,6,13,9,11,14,5,7,8]"
"","","","","","html-button-response","144","739104","0.0-17.0","110","1","2022-11-13 11:39:00","49aca292d257f58668169b9fbab864ae","219.142.99.14","Mozilla/5.0 (Macintosh; Intel Mac OS X 10_15_6) AppleWebKit/605.1.15 (KHTML, like Gecko) Version/15.6.1 Safari/605.1.15","Macintosh","Safari","15.6.1","OS X","10_15_6","1010","<p><strong>请判断你在多大程度上同意下列陈述。</strong></p>","0",""
"","","","","","survey-likert","145","776525","0.0-18.0","110","1","2022-11-13 11:39:00","49aca292d257f58668169b9fbab864ae","219.142.99.14","Mozilla/5.0 (Macintosh; Intel Mac OS X 10_15_6) AppleWebKit/605.1.15 (KHTML, like Gecko) Version/15.6.1 Safari/605.1.15","Macintosh","Safari","15.6.1","OS X","10_15_6","37410","","{""caring1"":2,""liking1"":1,""caring2"":3,""protection1"":3,""liking2"":2,""caring3"":3,""protection2"":2,""liking3"":2,""protection3"":2,""caring4"":3,""liking4"":1,""protection4"":2,""caring5"":2,""liking5"":3,""protection5"":3}","[0,1,2,3,4,5,6,7,8,9,10,11,12,13,14]"
"","","","","","html-button-response","146","777509","0.0-19.0","110","1","2022-11-13 11:39:00","49aca292d257f58668169b9fbab864ae","219.142.99.14","Mozilla/5.0 (Macintosh; Intel Mac OS X 10_15_6) AppleWebKit/605.1.15 (KHTML, like Gecko) Version/15.6.1 Safari/605.1.15","Macintosh","Safari","15.6.1","OS X","10_15_6","977","<p><strong>请判断下列场景中你的内心感受有多柔软。</strong></p>","0",""
"","","","","","survey-likert","147","835152","0.0-20.0","110","1","2022-11-13 11:39:00","49aca292d257f58668169b9fbab864ae","219.142.99.14","Mozilla/5.0 (Macintosh; Intel Mac OS X 10_15_6) AppleWebKit/605.1.15 (KHTML, like Gecko) Version/15.6.1 Safari/605.1.15","Macintosh","Safari","15.6.1","OS X","10_15_6","57632","","{""tenderness-positive1"":3,""tenderness-negative1"":3,""tenderness-negative2"":1,""tenderness-positive2"":3,""tenderness-positive3"":3,""tenderness-negative3"":1,""tenderness-positive4"":3,""tenderness-negative4"":3,""tenderness-negative5"":2,""tenderness-positive5"":3}","[0,1,2,3,4,5,6,7,8,9]"
"","","","","","survey-multi-choice","148","844405","0.0-21.0","110","1","2022-11-13 11:39:00","49aca292d257f58668169b9fbab864ae","219.142.99.14","Mozilla/5.0 (Macintosh; Intel Mac OS X 10_15_6) AppleWebKit/605.1.15 (KHTML, like Gecko) Version/15.6.1 Safari/605.1.15","Macintosh","Safari","15.6.1","OS X","10_15_6","9246","","{""Attention2"":""从来没有""}","[0]"
"","","","","","html-button-response","149","845515","0.0-22.0","110","1","2022-11-13 11:39:00","49aca292d257f58668169b9fbab864ae","219.142.99.14","Mozilla/5.0 (Macintosh; Intel Mac OS X 10_15_6) AppleWebKit/605.1.15 (KHTML, like Gecko) Version/15.6.1 Safari/605.1.15","Macintosh","Safari","15.6.1","OS X","10_15_6","1103","<p><strong>请判断你在多大程度上同意下列陈述。</strong></p>","0",""
"","","","","","survey-likert","150","926692","0.0-23.0","110","1","2022-11-13 11:39:00","49aca292d257f58668169b9fbab864ae","219.142.99.14","Mozilla/5.0 (Macintosh; Intel Mac OS X 10_15_6) AppleWebKit/605.1.15 (KHTML, like Gecko) Version/15.6.1 Safari/605.1.15","Macintosh","Safari","15.6.1","OS X","10_15_6","81166","","{""Nation6"":1,""Patri10"":1,""Patri7"":3,""Patri2"":4,""Nation1"":1,""Nation5"":2,""Patri9"":1,""Nation3"":2,""Patri11"":1,""Nation4"":2,""Nation8"":2,""Patri1"":4,""Patri12"":2,""Patri8"":3,""Patri4"":4,""Patri3"":3,""Nation7"":4,""Nation2"":4,""Patri5"":3,""Patri6"":1}","[17,9,6,1,12,16,8,14,10,15,19,0,11,7,3,2,18,13,4,5]"
"","","","","","html-button-response","151","927612","0.0-24.0","110","1","2022-11-13 11:39:00","49aca292d257f58668169b9fbab864ae","219.142.99.14","Mozilla/5.0 (Macintosh; Intel Mac OS X 10_15_6) AppleWebKit/605.1.15 (KHTML, like Gecko) Version/15.6.1 Safari/605.1.15","Macintosh","Safari","15.6.1","OS X","10_15_6","914","<p><strong>请判断你在多大程度上同意下列陈述。</strong></p>","0",""
"","","","","","survey-likert","152","973164","0.0-25.0","110","1","2022-11-13 11:39:00","49aca292d257f58668169b9fbab864ae","219.142.99.14","Mozilla/5.0 (Macintosh; Intel Mac OS X 10_15_6) AppleWebKit/605.1.15 (KHTML, like Gecko) Version/15.6.1 Safari/605.1.15","Macintosh","Safari","15.6.1","OS X","10_15_6","45539","","{""vi1"":5,""vc3"":7,""hc2"":8,""hc1"":8,""vc2"":8,""vc1"":8,""vi3"":4,""hi4"":6,""hi2"":7,""hi1"":8,""Robot"":6,""hi3"":4,""vi2"":2,""hc3"":3,""vc4"":6,""vi4"":4,""hc4"":6}","[4,15,10,9,14,13,6,3,1,0,7,2,5,11,16,8,12]"
"","","","","","survey-text","153","974873","0.0-26.0","110","1","2022-11-13 11:39:00","49aca292d257f58668169b9fbab864ae","219.142.99.14","Mozilla/5.0 (Macintosh; Intel Mac OS X 10_15_6) AppleWebKit/605.1.15 (KHTML, like Gecko) Version/15.6.1 Safari/605.1.15","Macintosh","Safari","15.6.1","OS X","10_15_6","1701","","{""Comments"":""""}",""
"","","","","","html-button-response","154","975713","0.0-27.0","110","1","2022-11-13 11:39:00","49aca292d257f58668169b9fbab864ae","219.142.99.14","Mozilla/5.0 (Macintosh; Intel Mac OS X 10_15_6) AppleWebKit/605.1.15 (KHTML, like Gecko) Version/15.6.1 Safari/605.1.15","Macintosh","Safari","15.6.1","OS X","10_15_6","829","<strong><p>恭喜你完成了实验！</p><p>感谢您的参与。</p></strong>","0",""
