"success","timeout","failed_images","failed_audio","failed_video","trial_type","trial_index","time_elapsed","internal_node_id","run_id","condition","recorded_at","source_code_version","ip","user_agent","device","browser","browser_version","platform","platform_version","rt","stimulus","response","question_order"
"true","false","[]","[]","[]","preload","0","2254","0.0-0.0","112","1","2022-11-13 11:45:12","49aca292d257f58668169b9fbab864ae","171.43.199.62","Mozilla/5.0 (Windows NT 10.0; WOW64) AppleWebKit/537.36 (KHTML, like Gecko) Chrome/84.0.4147.89 Safari/537.36 SLBrowser/7.0.0.12151 SLBChan/103","WebKit","Chrome","84.0.4147.89","Windows","10.0","","","",""
"true","","","","","fullscreen","1","7700","0.0-1.0","112","1","2022-11-13 11:45:12","49aca292d257f58668169b9fbab864ae","171.43.199.62","Mozilla/5.0 (Windows NT 10.0; WOW64) AppleWebKit/537.36 (KHTML, like Gecko) Chrome/84.0.4147.89 Safari/537.36 SLBrowser/7.0.0.12151 SLBChan/103","WebKit","Chrome","84.0.4147.89","Windows","10.0","","","",""
"","","","","","html-button-response","2","19611","0.0-2.0","112","1","2022-11-13 11:45:12","49aca292d257f58668169b9fbab864ae","171.43.199.62","Mozilla/5.0 (Windows NT 10.0; WOW64) AppleWebKit/537.36 (KHTML, like Gecko) Chrome/84.0.4147.89 Safari/537.36 SLBrowser/7.0.0.12151 SLBChan/103","WebKit","Chrome","84.0.4147.89","Windows","10.0","11910","<p style=""font-size:20px;font-weight:bold;"">实验知情同意书</p><p style=""text-align:left;""><strong>实验名称：</strong>社会冲突研究</p><p style=""text-align:left;""><strong>主要研究者：</strong>韩晓春副教授（北京师范大学心理学部）</p><p style=""text-align:left;""><strong>联系方式：</strong>发送邮件至xiaochun.han@bnu.edu.cn</p><p style=""text-align:left;""><strong>研究目的：</strong>研究旨在了解人类面对群体冲突时的决策方式，以及相关的心理学特质。实验调查大约需要20分钟。</p><p style=""text-align:left;""><strong>实验流程：</strong>实验包含两部分。第一部分呈现一系列群体冲突场景，请你决定如何对这些冲突进行反应，大约需要10分钟完成。第二部分包含一系列人口统计学信息收集和心理学问卷，大约需要10分钟完成。</p><p style=""text-align:left;""><strong>参加及退出规则：</strong>参加本实验完全取决于您的个人意愿。在参与过程中，您可以随时退出，并且不用承担任何后果。</p><p style=""text-align:left;""><strong>隐私：</strong>本实验完全匿名进行，不会收集您的姓名或其他能够识别您身份的信息。实验中收集的作答仅用作科学研究使用，可能会在学术期刊/书籍上发表，或者用于教学，您的数据未来可能会和其他研究者或实验室分享，但您的个人身份不会被识别。</p><p style=""text-align:left;""><strong>实验报酬：</strong>实验完成后，您将获得15元人民币报酬，以感谢您的时间和努力。调查问卷中包含几道题目用以测验您作答时的认真度。只有完成全部实验，并且正确回答认真度测验的被试才能获得实验报酬。实验报酬将通过支付宝转账发放。</p><p style=""text-align:left;font-size:20px;""><strong>如果您同意以上实验知情同意书的内容，请点击'同意并且开始实验'按钮；否则请关闭浏览器界面，退出实验。</strong></p>","0",""
"","","","","","html-button-response","3","41793","0.0-3.0","112","1","2022-11-13 11:45:12","49aca292d257f58668169b9fbab864ae","171.43.199.62","Mozilla/5.0 (Windows NT 10.0; WOW64) AppleWebKit/537.36 (KHTML, like Gecko) Chrome/84.0.4147.89 Safari/537.36 SLBrowser/7.0.0.12151 SLBChan/103","WebKit","Chrome","84.0.4147.89","Windows","10.0","22180","<p ><strong>实验任务一：</strong></p><p>请想象你的国家与另一个国家发生了军事冲突。</p><p>你是国家军队的指挥官，你将如何在冲突中进行决策。</p><p>具体来说，作为军队指挥官，请你决定是否发射导弹进行打击。</p><p>接下来，你会面对一系列场景，请仔细阅读每个场景，然后进行决策。</p><p>这部分实验任务大约需要10分钟。</p><p><strong>实验过程中，请集中注意力。</strong></p>","0",""
"","","","","","html-keyboard-response","4","42794","0.0-4.0-0.0","112","1","2022-11-13 11:45:12","49aca292d257f58668169b9fbab864ae","171.43.199.62","Mozilla/5.0 (Windows NT 10.0; WOW64) AppleWebKit/537.36 (KHTML, like Gecko) Chrome/84.0.4147.89 Safari/537.36 SLBrowser/7.0.0.12151 SLBChan/103","WebKit","Chrome","84.0.4147.89","Windows","10.0","null","<div style=""font-size:60px;"">+</div>","null",""
"","","","","","html-button-response","5","50361","0.0-4.0-1.0","112","1","2022-11-13 11:45:12","49aca292d257f58668169b9fbab864ae","171.43.199.62","Mozilla/5.0 (Windows NT 10.0; WOW64) AppleWebKit/537.36 (KHTML, like Gecko) Chrome/84.0.4147.89 Safari/537.36 SLBrowser/7.0.0.12151 SLBChan/103","WebKit","Chrome","84.0.4147.89","Windows","10.0","7565","<p>作为军队的指挥官，你可以选择发射导弹杀死 <strong>2名</strong> 敌国士兵，但会炸毁附近的 <strong>1棵</strong> 敌国树木。</p> <p>树木的照片如下图所示。</p> <p></p> <img src='stimuli/trees/11.png', style='max-width: 30%;'> </img> <p><strong>你是否选择发射武器？</strong></p>","0",""
"","","","","","html-keyboard-response","6","51363","0.0-4.0-0.1","112","1","2022-11-13 11:45:12","49aca292d257f58668169b9fbab864ae","171.43.199.62","Mozilla/5.0 (Windows NT 10.0; WOW64) AppleWebKit/537.36 (KHTML, like Gecko) Chrome/84.0.4147.89 Safari/537.36 SLBrowser/7.0.0.12151 SLBChan/103","WebKit","Chrome","84.0.4147.89","Windows","10.0","null","<div style=""font-size:60px;"">+</div>","null",""
"","","","","","html-button-response","7","57664","0.0-4.0-1.1","112","1","2022-11-13 11:45:12","49aca292d257f58668169b9fbab864ae","171.43.199.62","Mozilla/5.0 (Windows NT 10.0; WOW64) AppleWebKit/537.36 (KHTML, like Gecko) Chrome/84.0.4147.89 Safari/537.36 SLBrowser/7.0.0.12151 SLBChan/103","WebKit","Chrome","84.0.4147.89","Windows","10.0","6299","<p>作为军队的指挥官，你可以选择发射导弹杀死 <strong>4名</strong> 敌国士兵，但会炸毁附近的 <strong>1棵</strong> 敌国树木。</p> <p>树木的照片如下图所示。</p> <p></p> <img src='stimuli/trees/7.png', style='max-width: 30%;'> </img> <p><strong>你是否选择发射武器？</strong></p>","0",""
"","","","","","html-keyboard-response","8","58666","0.0-4.0-0.2","112","1","2022-11-13 11:45:12","49aca292d257f58668169b9fbab864ae","171.43.199.62","Mozilla/5.0 (Windows NT 10.0; WOW64) AppleWebKit/537.36 (KHTML, like Gecko) Chrome/84.0.4147.89 Safari/537.36 SLBrowser/7.0.0.12151 SLBChan/103","WebKit","Chrome","84.0.4147.89","Windows","10.0","null","<div style=""font-size:60px;"">+</div>","null",""
"","","","","","html-button-response","9","62786","0.0-4.0-1.2","112","1","2022-11-13 11:45:12","49aca292d257f58668169b9fbab864ae","171.43.199.62","Mozilla/5.0 (Windows NT 10.0; WOW64) AppleWebKit/537.36 (KHTML, like Gecko) Chrome/84.0.4147.89 Safari/537.36 SLBrowser/7.0.0.12151 SLBChan/103","WebKit","Chrome","84.0.4147.89","Windows","10.0","4119","<p>作为军队的指挥官，你可以选择发射导弹杀死 <strong>3名</strong> 敌国士兵，但会炸毁附近的 <strong>1棵</strong> 敌国树木。</p> <p>树木的照片如下图所示。</p> <p></p> <img src='stimuli/trees/9.png', style='max-width: 30%;'> </img> <p><strong>你是否选择发射武器？</strong></p>","0",""
"","","","","","html-keyboard-response","10","63788","0.0-4.0-0.3","112","1","2022-11-13 11:45:12","49aca292d257f58668169b9fbab864ae","171.43.199.62","Mozilla/5.0 (Windows NT 10.0; WOW64) AppleWebKit/537.36 (KHTML, like Gecko) Chrome/84.0.4147.89 Safari/537.36 SLBrowser/7.0.0.12151 SLBChan/103","WebKit","Chrome","84.0.4147.89","Windows","10.0","null","<div style=""font-size:60px;"">+</div>","null",""
"","","","","","html-button-response","11","68013","0.0-4.0-1.3","112","1","2022-11-13 11:45:12","49aca292d257f58668169b9fbab864ae","171.43.199.62","Mozilla/5.0 (Windows NT 10.0; WOW64) AppleWebKit/537.36 (KHTML, like Gecko) Chrome/84.0.4147.89 Safari/537.36 SLBrowser/7.0.0.12151 SLBChan/103","WebKit","Chrome","84.0.4147.89","Windows","10.0","4224","<p>作为军队的指挥官，你可以选择发射导弹杀死 <strong>4名</strong> 敌国士兵，但会炸毁附近的 <strong>1棵</strong> 敌国树木。</p> <p>树木的照片如下图所示。</p> <p></p> <img src='stimuli/trees/12.png', style='max-width: 30%;'> </img> <p><strong>你是否选择发射武器？</strong></p>","0",""
"","","","","","html-keyboard-response","12","69014","0.0-4.0-0.4","112","1","2022-11-13 11:45:12","49aca292d257f58668169b9fbab864ae","171.43.199.62","Mozilla/5.0 (Windows NT 10.0; WOW64) AppleWebKit/537.36 (KHTML, like Gecko) Chrome/84.0.4147.89 Safari/537.36 SLBrowser/7.0.0.12151 SLBChan/103","WebKit","Chrome","84.0.4147.89","Windows","10.0","null","<div style=""font-size:60px;"">+</div>","null",""
"","","","","","html-button-response","13","71646","0.0-4.0-1.4","112","1","2022-11-13 11:45:12","49aca292d257f58668169b9fbab864ae","171.43.199.62","Mozilla/5.0 (Windows NT 10.0; WOW64) AppleWebKit/537.36 (KHTML, like Gecko) Chrome/84.0.4147.89 Safari/537.36 SLBrowser/7.0.0.12151 SLBChan/103","WebKit","Chrome","84.0.4147.89","Windows","10.0","2631","<p>作为军队的指挥官，你可以选择发射导弹杀死 <strong>6名</strong> 敌国士兵，但会炸毁附近的 <strong>1棵</strong> 敌国树木。</p> <p>树木的照片如下图所示。</p> <p></p> <img src='stimuli/trees/12.png', style='max-width: 30%;'> </img> <p><strong>你是否选择发射武器？</strong></p>","0",""
"","","","","","html-keyboard-response","14","72649","0.0-4.0-0.5","112","1","2022-11-13 11:45:12","49aca292d257f58668169b9fbab864ae","171.43.199.62","Mozilla/5.0 (Windows NT 10.0; WOW64) AppleWebKit/537.36 (KHTML, like Gecko) Chrome/84.0.4147.89 Safari/537.36 SLBrowser/7.0.0.12151 SLBChan/103","WebKit","Chrome","84.0.4147.89","Windows","10.0","null","<div style=""font-size:60px;"">+</div>","null",""
"","","","","","html-button-response","15","78700","0.0-4.0-1.5","112","1","2022-11-13 11:45:12","49aca292d257f58668169b9fbab864ae","171.43.199.62","Mozilla/5.0 (Windows NT 10.0; WOW64) AppleWebKit/537.36 (KHTML, like Gecko) Chrome/84.0.4147.89 Safari/537.36 SLBrowser/7.0.0.12151 SLBChan/103","WebKit","Chrome","84.0.4147.89","Windows","10.0","6049","<p>作为军队的指挥官，你可以选择发射导弹杀死 <strong>6名</strong> 敌国士兵，但会误杀附近的 <strong>1名</strong> 敌国平民。</p> <p>平民照片如下图所示。</p> <p></p> <img src='stimuli/faces/PFM2.jpg', style='max-width: 30%;'> </img> <p><strong>你是否选择发射武器？</strong></p>","1",""
"","","","","","html-keyboard-response","16","79702","0.0-4.0-0.6","112","1","2022-11-13 11:45:12","49aca292d257f58668169b9fbab864ae","171.43.199.62","Mozilla/5.0 (Windows NT 10.0; WOW64) AppleWebKit/537.36 (KHTML, like Gecko) Chrome/84.0.4147.89 Safari/537.36 SLBrowser/7.0.0.12151 SLBChan/103","WebKit","Chrome","84.0.4147.89","Windows","10.0","null","<div style=""font-size:60px;"">+</div>","null",""
"","","","","","html-button-response","17","83863","0.0-4.0-1.6","112","1","2022-11-13 11:45:12","49aca292d257f58668169b9fbab864ae","171.43.199.62","Mozilla/5.0 (Windows NT 10.0; WOW64) AppleWebKit/537.36 (KHTML, like Gecko) Chrome/84.0.4147.89 Safari/537.36 SLBrowser/7.0.0.12151 SLBChan/103","WebKit","Chrome","84.0.4147.89","Windows","10.0","4160","<p>作为军队的指挥官，你可以选择发射导弹杀死 <strong>9名</strong> 敌国士兵，但会炸毁附近的 <strong>1棵</strong> 敌国树木。</p> <p>树木的照片如下图所示。</p> <p></p> <img src='stimuli/trees/1.png', style='max-width: 30%;'> </img> <p><strong>你是否选择发射武器？</strong></p>","0",""
"","","","","","html-keyboard-response","18","84865","0.0-4.0-0.7","112","1","2022-11-13 11:45:12","49aca292d257f58668169b9fbab864ae","171.43.199.62","Mozilla/5.0 (Windows NT 10.0; WOW64) AppleWebKit/537.36 (KHTML, like Gecko) Chrome/84.0.4147.89 Safari/537.36 SLBrowser/7.0.0.12151 SLBChan/103","WebKit","Chrome","84.0.4147.89","Windows","10.0","null","<div style=""font-size:60px;"">+</div>","null",""
"","","","","","html-button-response","19","89041","0.0-4.0-1.7","112","1","2022-11-13 11:45:12","49aca292d257f58668169b9fbab864ae","171.43.199.62","Mozilla/5.0 (Windows NT 10.0; WOW64) AppleWebKit/537.36 (KHTML, like Gecko) Chrome/84.0.4147.89 Safari/537.36 SLBrowser/7.0.0.12151 SLBChan/103","WebKit","Chrome","84.0.4147.89","Windows","10.0","4175","<p>作为军队的指挥官，你可以选择发射导弹杀死 <strong>10名</strong> 敌国士兵，但会误杀附近的 <strong>1名</strong> 敌国平民。</p> <p>平民照片如下图所示。</p> <p></p> <img src='stimuli/faces/PFM5.jpg', style='max-width: 30%;'> </img> <p><strong>你是否选择发射武器？</strong></p>","1",""
"","","","","","html-keyboard-response","20","90043","0.0-4.0-0.8","112","1","2022-11-13 11:45:12","49aca292d257f58668169b9fbab864ae","171.43.199.62","Mozilla/5.0 (Windows NT 10.0; WOW64) AppleWebKit/537.36 (KHTML, like Gecko) Chrome/84.0.4147.89 Safari/537.36 SLBrowser/7.0.0.12151 SLBChan/103","WebKit","Chrome","84.0.4147.89","Windows","10.0","null","<div style=""font-size:60px;"">+</div>","null",""
"","","","","","html-button-response","21","92980","0.0-4.0-1.8","112","1","2022-11-13 11:45:12","49aca292d257f58668169b9fbab864ae","171.43.199.62","Mozilla/5.0 (Windows NT 10.0; WOW64) AppleWebKit/537.36 (KHTML, like Gecko) Chrome/84.0.4147.89 Safari/537.36 SLBrowser/7.0.0.12151 SLBChan/103","WebKit","Chrome","84.0.4147.89","Windows","10.0","2935","<p>作为军队的指挥官，你可以选择发射导弹杀死 <strong>9名</strong> 敌国士兵，但会炸毁附近的 <strong>1棵</strong> 敌国树木。</p> <p>树木的照片如下图所示。</p> <p></p> <img src='stimuli/trees/8.png', style='max-width: 30%;'> </img> <p><strong>你是否选择发射武器？</strong></p>","0",""
"","","","","","html-keyboard-response","22","93981","0.0-4.0-0.9","112","1","2022-11-13 11:45:12","49aca292d257f58668169b9fbab864ae","171.43.199.62","Mozilla/5.0 (Windows NT 10.0; WOW64) AppleWebKit/537.36 (KHTML, like Gecko) Chrome/84.0.4147.89 Safari/537.36 SLBrowser/7.0.0.12151 SLBChan/103","WebKit","Chrome","84.0.4147.89","Windows","10.0","null","<div style=""font-size:60px;"">+</div>","null",""
"","","","","","html-button-response","23","99437","0.0-4.0-1.9","112","1","2022-11-13 11:45:12","49aca292d257f58668169b9fbab864ae","171.43.199.62","Mozilla/5.0 (Windows NT 10.0; WOW64) AppleWebKit/537.36 (KHTML, like Gecko) Chrome/84.0.4147.89 Safari/537.36 SLBrowser/7.0.0.12151 SLBChan/103","WebKit","Chrome","84.0.4147.89","Windows","10.0","5454","<p>作为军队的指挥官，你可以选择发射导弹杀死 <strong>1名</strong> 敌国士兵，但会误杀附近的 <strong>1名</strong> 敌国平民。</p> <p>平民照片如下图所示。</p> <p></p> <img src='stimuli/faces/PFF8.jpg', style='max-width: 30%;'> </img> <p><strong>你是否选择发射武器？</strong></p>","1",""
"","","","","","html-keyboard-response","24","100439","0.0-4.0-0.10","112","1","2022-11-13 11:45:12","49aca292d257f58668169b9fbab864ae","171.43.199.62","Mozilla/5.0 (Windows NT 10.0; WOW64) AppleWebKit/537.36 (KHTML, like Gecko) Chrome/84.0.4147.89 Safari/537.36 SLBrowser/7.0.0.12151 SLBChan/103","WebKit","Chrome","84.0.4147.89","Windows","10.0","null","<div style=""font-size:60px;"">+</div>","null",""
"","","","","","html-button-response","25","104515","0.0-4.0-1.10","112","1","2022-11-13 11:45:12","49aca292d257f58668169b9fbab864ae","171.43.199.62","Mozilla/5.0 (Windows NT 10.0; WOW64) AppleWebKit/537.36 (KHTML, like Gecko) Chrome/84.0.4147.89 Safari/537.36 SLBrowser/7.0.0.12151 SLBChan/103","WebKit","Chrome","84.0.4147.89","Windows","10.0","4075","<p>作为军队的指挥官，你可以选择发射导弹杀死 <strong>10名</strong> 敌国士兵，但会误杀附近的 <strong>1名</strong> 敌国平民。</p> <p>平民照片如下图所示。</p> <p></p> <img src='stimuli/faces/PFF3.jpg', style='max-width: 30%;'> </img> <p><strong>你是否选择发射武器？</strong></p>","1",""
"","","","","","html-keyboard-response","26","105517","0.0-4.0-0.11","112","1","2022-11-13 11:45:12","49aca292d257f58668169b9fbab864ae","171.43.199.62","Mozilla/5.0 (Windows NT 10.0; WOW64) AppleWebKit/537.36 (KHTML, like Gecko) Chrome/84.0.4147.89 Safari/537.36 SLBrowser/7.0.0.12151 SLBChan/103","WebKit","Chrome","84.0.4147.89","Windows","10.0","null","<div style=""font-size:60px;"">+</div>","null",""
"","","","","","html-button-response","27","107986","0.0-4.0-1.11","112","1","2022-11-13 11:45:12","49aca292d257f58668169b9fbab864ae","171.43.199.62","Mozilla/5.0 (Windows NT 10.0; WOW64) AppleWebKit/537.36 (KHTML, like Gecko) Chrome/84.0.4147.89 Safari/537.36 SLBrowser/7.0.0.12151 SLBChan/103","WebKit","Chrome","84.0.4147.89","Windows","10.0","2468","<p>作为军队的指挥官，你可以选择发射导弹杀死 <strong>5名</strong> 敌国士兵，但会炸毁附近的 <strong>1棵</strong> 敌国树木。</p> <p>树木的照片如下图所示。</p> <p></p> <img src='stimuli/trees/5.png', style='max-width: 30%;'> </img> <p><strong>你是否选择发射武器？</strong></p>","0",""
"","","","","","html-keyboard-response","28","108989","0.0-4.0-0.12","112","1","2022-11-13 11:45:12","49aca292d257f58668169b9fbab864ae","171.43.199.62","Mozilla/5.0 (Windows NT 10.0; WOW64) AppleWebKit/537.36 (KHTML, like Gecko) Chrome/84.0.4147.89 Safari/537.36 SLBrowser/7.0.0.12151 SLBChan/103","WebKit","Chrome","84.0.4147.89","Windows","10.0","null","<div style=""font-size:60px;"">+</div>","null",""
"","","","","","html-button-response","29","111979","0.0-4.0-1.12","112","1","2022-11-13 11:45:12","49aca292d257f58668169b9fbab864ae","171.43.199.62","Mozilla/5.0 (Windows NT 10.0; WOW64) AppleWebKit/537.36 (KHTML, like Gecko) Chrome/84.0.4147.89 Safari/537.36 SLBrowser/7.0.0.12151 SLBChan/103","WebKit","Chrome","84.0.4147.89","Windows","10.0","2989","<p>作为军队的指挥官，你可以选择发射导弹杀死 <strong>9名</strong> 敌国士兵，但会炸毁附近的 <strong>1棵</strong> 敌国树木。</p> <p>树木的照片如下图所示。</p> <p></p> <img src='stimuli/trees/4.png', style='max-width: 30%;'> </img> <p><strong>你是否选择发射武器？</strong></p>","0",""
"","","","","","html-keyboard-response","30","112981","0.0-4.0-0.13","112","1","2022-11-13 11:45:12","49aca292d257f58668169b9fbab864ae","171.43.199.62","Mozilla/5.0 (Windows NT 10.0; WOW64) AppleWebKit/537.36 (KHTML, like Gecko) Chrome/84.0.4147.89 Safari/537.36 SLBrowser/7.0.0.12151 SLBChan/103","WebKit","Chrome","84.0.4147.89","Windows","10.0","null","<div style=""font-size:60px;"">+</div>","null",""
"","","","","","html-button-response","31","115721","0.0-4.0-1.13","112","1","2022-11-13 11:45:12","49aca292d257f58668169b9fbab864ae","171.43.199.62","Mozilla/5.0 (Windows NT 10.0; WOW64) AppleWebKit/537.36 (KHTML, like Gecko) Chrome/84.0.4147.89 Safari/537.36 SLBrowser/7.0.0.12151 SLBChan/103","WebKit","Chrome","84.0.4147.89","Windows","10.0","2738","<p>作为军队的指挥官，你可以选择发射导弹杀死 <strong>4名</strong> 敌国士兵，但会误杀附近的 <strong>1名</strong> 敌国平民。</p> <p>平民照片如下图所示。</p> <p></p> <img src='stimuli/faces/PFM2.jpg', style='max-width: 30%;'> </img> <p><strong>你是否选择发射武器？</strong></p>","1",""
"","","","","","html-keyboard-response","32","116723","0.0-4.0-0.14","112","1","2022-11-13 11:45:12","49aca292d257f58668169b9fbab864ae","171.43.199.62","Mozilla/5.0 (Windows NT 10.0; WOW64) AppleWebKit/537.36 (KHTML, like Gecko) Chrome/84.0.4147.89 Safari/537.36 SLBrowser/7.0.0.12151 SLBChan/103","WebKit","Chrome","84.0.4147.89","Windows","10.0","null","<div style=""font-size:60px;"">+</div>","null",""
"","","","","","html-button-response","33","119177","0.0-4.0-1.14","112","1","2022-11-13 11:45:12","49aca292d257f58668169b9fbab864ae","171.43.199.62","Mozilla/5.0 (Windows NT 10.0; WOW64) AppleWebKit/537.36 (KHTML, like Gecko) Chrome/84.0.4147.89 Safari/537.36 SLBrowser/7.0.0.12151 SLBChan/103","WebKit","Chrome","84.0.4147.89","Windows","10.0","2452","<p>作为军队的指挥官，你可以选择发射导弹杀死 <strong>5名</strong> 敌国士兵，但会炸毁附近的 <strong>1棵</strong> 敌国树木。</p> <p>树木的照片如下图所示。</p> <p></p> <img src='stimuli/trees/13.png', style='max-width: 30%;'> </img> <p><strong>你是否选择发射武器？</strong></p>","0",""
"","","","","","html-keyboard-response","34","120178","0.0-4.0-0.15","112","1","2022-11-13 11:45:12","49aca292d257f58668169b9fbab864ae","171.43.199.62","Mozilla/5.0 (Windows NT 10.0; WOW64) AppleWebKit/537.36 (KHTML, like Gecko) Chrome/84.0.4147.89 Safari/537.36 SLBrowser/7.0.0.12151 SLBChan/103","WebKit","Chrome","84.0.4147.89","Windows","10.0","null","<div style=""font-size:60px;"">+</div>","null",""
"","","","","","html-button-response","35","122959","0.0-4.0-1.15","112","1","2022-11-13 11:45:12","49aca292d257f58668169b9fbab864ae","171.43.199.62","Mozilla/5.0 (Windows NT 10.0; WOW64) AppleWebKit/537.36 (KHTML, like Gecko) Chrome/84.0.4147.89 Safari/537.36 SLBrowser/7.0.0.12151 SLBChan/103","WebKit","Chrome","84.0.4147.89","Windows","10.0","2780","<p>作为军队的指挥官，你可以选择发射导弹杀死 <strong>7名</strong> 敌国士兵，但会误杀附近的 <strong>1名</strong> 敌国平民。</p> <p>平民照片如下图所示。</p> <p></p> <img src='stimuli/faces/PFF8.jpg', style='max-width: 30%;'> </img> <p><strong>你是否选择发射武器？</strong></p>","1",""
"","","","","","html-keyboard-response","36","123961","0.0-4.0-0.16","112","1","2022-11-13 11:45:12","49aca292d257f58668169b9fbab864ae","171.43.199.62","Mozilla/5.0 (Windows NT 10.0; WOW64) AppleWebKit/537.36 (KHTML, like Gecko) Chrome/84.0.4147.89 Safari/537.36 SLBrowser/7.0.0.12151 SLBChan/103","WebKit","Chrome","84.0.4147.89","Windows","10.0","null","<div style=""font-size:60px;"">+</div>","null",""
"","","","","","html-button-response","37","127397","0.0-4.0-1.16","112","1","2022-11-13 11:45:12","49aca292d257f58668169b9fbab864ae","171.43.199.62","Mozilla/5.0 (Windows NT 10.0; WOW64) AppleWebKit/537.36 (KHTML, like Gecko) Chrome/84.0.4147.89 Safari/537.36 SLBrowser/7.0.0.12151 SLBChan/103","WebKit","Chrome","84.0.4147.89","Windows","10.0","3434","<p>作为军队的指挥官，你可以选择发射导弹杀死 <strong>1名</strong> 敌国士兵，但会误杀附近的 <strong>1名</strong> 敌国平民。</p> <p>平民照片如下图所示。</p> <p></p> <img src='stimuli/faces/PFM7.jpg', style='max-width: 30%;'> </img> <p><strong>你是否选择发射武器？</strong></p>","1",""
"","","","","","html-keyboard-response","38","128399","0.0-4.0-0.17","112","1","2022-11-13 11:45:12","49aca292d257f58668169b9fbab864ae","171.43.199.62","Mozilla/5.0 (Windows NT 10.0; WOW64) AppleWebKit/537.36 (KHTML, like Gecko) Chrome/84.0.4147.89 Safari/537.36 SLBrowser/7.0.0.12151 SLBChan/103","WebKit","Chrome","84.0.4147.89","Windows","10.0","null","<div style=""font-size:60px;"">+</div>","null",""
"","","","","","html-button-response","39","132062","0.0-4.0-1.17","112","1","2022-11-13 11:45:12","49aca292d257f58668169b9fbab864ae","171.43.199.62","Mozilla/5.0 (Windows NT 10.0; WOW64) AppleWebKit/537.36 (KHTML, like Gecko) Chrome/84.0.4147.89 Safari/537.36 SLBrowser/7.0.0.12151 SLBChan/103","WebKit","Chrome","84.0.4147.89","Windows","10.0","3662","<p>作为军队的指挥官，你可以选择发射导弹杀死 <strong>9名</strong> 敌国士兵，但会误杀附近的 <strong>1名</strong> 敌国平民。</p> <p>平民照片如下图所示。</p> <p></p> <img src='stimuli/faces/PFF5.jpg', style='max-width: 30%;'> </img> <p><strong>你是否选择发射武器？</strong></p>","1",""
"","","","","","html-keyboard-response","40","133064","0.0-4.0-0.18","112","1","2022-11-13 11:45:12","49aca292d257f58668169b9fbab864ae","171.43.199.62","Mozilla/5.0 (Windows NT 10.0; WOW64) AppleWebKit/537.36 (KHTML, like Gecko) Chrome/84.0.4147.89 Safari/537.36 SLBrowser/7.0.0.12151 SLBChan/103","WebKit","Chrome","84.0.4147.89","Windows","10.0","null","<div style=""font-size:60px;"">+</div>","null",""
"","","","","","html-button-response","41","137046","0.0-4.0-1.18","112","1","2022-11-13 11:45:12","49aca292d257f58668169b9fbab864ae","171.43.199.62","Mozilla/5.0 (Windows NT 10.0; WOW64) AppleWebKit/537.36 (KHTML, like Gecko) Chrome/84.0.4147.89 Safari/537.36 SLBrowser/7.0.0.12151 SLBChan/103","WebKit","Chrome","84.0.4147.89","Windows","10.0","3981","<p>作为军队的指挥官，你可以选择发射导弹杀死 <strong>10名</strong> 敌国士兵，但会炸毁附近的 <strong>1棵</strong> 敌国树木。</p> <p>树木的照片如下图所示。</p> <p></p> <img src='stimuli/trees/7.png', style='max-width: 30%;'> </img> <p><strong>你是否选择发射武器？</strong></p>","0",""
"","","","","","html-keyboard-response","42","138048","0.0-4.0-0.19","112","1","2022-11-13 11:45:12","49aca292d257f58668169b9fbab864ae","171.43.199.62","Mozilla/5.0 (Windows NT 10.0; WOW64) AppleWebKit/537.36 (KHTML, like Gecko) Chrome/84.0.4147.89 Safari/537.36 SLBrowser/7.0.0.12151 SLBChan/103","WebKit","Chrome","84.0.4147.89","Windows","10.0","null","<div style=""font-size:60px;"">+</div>","null",""
"","","","","","html-button-response","43","140441","0.0-4.0-1.19","112","1","2022-11-13 11:45:12","49aca292d257f58668169b9fbab864ae","171.43.199.62","Mozilla/5.0 (Windows NT 10.0; WOW64) AppleWebKit/537.36 (KHTML, like Gecko) Chrome/84.0.4147.89 Safari/537.36 SLBrowser/7.0.0.12151 SLBChan/103","WebKit","Chrome","84.0.4147.89","Windows","10.0","2391","<p>作为军队的指挥官，你可以选择发射导弹杀死 <strong>10名</strong> 敌国士兵，但会炸毁附近的 <strong>1棵</strong> 敌国树木。</p> <p>树木的照片如下图所示。</p> <p></p> <img src='stimuli/trees/6.png', style='max-width: 30%;'> </img> <p><strong>你是否选择发射武器？</strong></p>","0",""
"","","","","","html-keyboard-response","44","141443","0.0-4.0-0.20","112","1","2022-11-13 11:45:12","49aca292d257f58668169b9fbab864ae","171.43.199.62","Mozilla/5.0 (Windows NT 10.0; WOW64) AppleWebKit/537.36 (KHTML, like Gecko) Chrome/84.0.4147.89 Safari/537.36 SLBrowser/7.0.0.12151 SLBChan/103","WebKit","Chrome","84.0.4147.89","Windows","10.0","null","<div style=""font-size:60px;"">+</div>","null",""
"","","","","","html-button-response","45","143707","0.0-4.0-1.20","112","1","2022-11-13 11:45:12","49aca292d257f58668169b9fbab864ae","171.43.199.62","Mozilla/5.0 (Windows NT 10.0; WOW64) AppleWebKit/537.36 (KHTML, like Gecko) Chrome/84.0.4147.89 Safari/537.36 SLBrowser/7.0.0.12151 SLBChan/103","WebKit","Chrome","84.0.4147.89","Windows","10.0","2262","<p>作为军队的指挥官，你可以选择发射导弹杀死 <strong>5名</strong> 敌国士兵，但会误杀附近的 <strong>1名</strong> 敌国平民。</p> <p>平民照片如下图所示。</p> <p></p> <img src='stimuli/faces/PFF5.jpg', style='max-width: 30%;'> </img> <p><strong>你是否选择发射武器？</strong></p>","1",""
"","","","","","html-keyboard-response","46","144709","0.0-4.0-0.21","112","1","2022-11-13 11:45:12","49aca292d257f58668169b9fbab864ae","171.43.199.62","Mozilla/5.0 (Windows NT 10.0; WOW64) AppleWebKit/537.36 (KHTML, like Gecko) Chrome/84.0.4147.89 Safari/537.36 SLBrowser/7.0.0.12151 SLBChan/103","WebKit","Chrome","84.0.4147.89","Windows","10.0","null","<div style=""font-size:60px;"">+</div>","null",""
"","","","","","html-button-response","47","148055","0.0-4.0-1.21","112","1","2022-11-13 11:45:12","49aca292d257f58668169b9fbab864ae","171.43.199.62","Mozilla/5.0 (Windows NT 10.0; WOW64) AppleWebKit/537.36 (KHTML, like Gecko) Chrome/84.0.4147.89 Safari/537.36 SLBrowser/7.0.0.12151 SLBChan/103","WebKit","Chrome","84.0.4147.89","Windows","10.0","3344","<p>作为军队的指挥官，你可以选择发射导弹杀死 <strong>9名</strong> 敌国士兵，但会误杀附近的 <strong>1名</strong> 敌国平民。</p> <p>平民照片如下图所示。</p> <p></p> <img src='stimuli/faces/PFF4.jpg', style='max-width: 30%;'> </img> <p><strong>你是否选择发射武器？</strong></p>","1",""
"","","","","","html-keyboard-response","48","149058","0.0-4.0-0.22","112","1","2022-11-13 11:45:12","49aca292d257f58668169b9fbab864ae","171.43.199.62","Mozilla/5.0 (Windows NT 10.0; WOW64) AppleWebKit/537.36 (KHTML, like Gecko) Chrome/84.0.4147.89 Safari/537.36 SLBrowser/7.0.0.12151 SLBChan/103","WebKit","Chrome","84.0.4147.89","Windows","10.0","null","<div style=""font-size:60px;"">+</div>","null",""
"","","","","","html-button-response","49","152014","0.0-4.0-1.22","112","1","2022-11-13 11:45:12","49aca292d257f58668169b9fbab864ae","171.43.199.62","Mozilla/5.0 (Windows NT 10.0; WOW64) AppleWebKit/537.36 (KHTML, like Gecko) Chrome/84.0.4147.89 Safari/537.36 SLBrowser/7.0.0.12151 SLBChan/103","WebKit","Chrome","84.0.4147.89","Windows","10.0","2955","<p>作为军队的指挥官，你可以选择发射导弹杀死 <strong>2名</strong> 敌国士兵，但会误杀附近的 <strong>1名</strong> 敌国平民。</p> <p>平民照片如下图所示。</p> <p></p> <img src='stimuli/faces/PFM3.jpg', style='max-width: 30%;'> </img> <p><strong>你是否选择发射武器？</strong></p>","1",""
"","","","","","html-keyboard-response","50","153016","0.0-4.0-0.23","112","1","2022-11-13 11:45:12","49aca292d257f58668169b9fbab864ae","171.43.199.62","Mozilla/5.0 (Windows NT 10.0; WOW64) AppleWebKit/537.36 (KHTML, like Gecko) Chrome/84.0.4147.89 Safari/537.36 SLBrowser/7.0.0.12151 SLBChan/103","WebKit","Chrome","84.0.4147.89","Windows","10.0","null","<div style=""font-size:60px;"">+</div>","null",""
"","","","","","html-button-response","51","156702","0.0-4.0-1.23","112","1","2022-11-13 11:45:12","49aca292d257f58668169b9fbab864ae","171.43.199.62","Mozilla/5.0 (Windows NT 10.0; WOW64) AppleWebKit/537.36 (KHTML, like Gecko) Chrome/84.0.4147.89 Safari/537.36 SLBrowser/7.0.0.12151 SLBChan/103","WebKit","Chrome","84.0.4147.89","Windows","10.0","3684","<p>作为军队的指挥官，你可以选择发射导弹杀死 <strong>9名</strong> 敌国士兵，但会误杀附近的 <strong>1名</strong> 敌国平民。</p> <p>平民照片如下图所示。</p> <p></p> <img src='stimuli/faces/PFM6.jpg', style='max-width: 30%;'> </img> <p><strong>你是否选择发射武器？</strong></p>","1",""
"","","","","","html-keyboard-response","52","157705","0.0-4.0-0.24","112","1","2022-11-13 11:45:12","49aca292d257f58668169b9fbab864ae","171.43.199.62","Mozilla/5.0 (Windows NT 10.0; WOW64) AppleWebKit/537.36 (KHTML, like Gecko) Chrome/84.0.4147.89 Safari/537.36 SLBrowser/7.0.0.12151 SLBChan/103","WebKit","Chrome","84.0.4147.89","Windows","10.0","null","<div style=""font-size:60px;"">+</div>","null",""
"","","","","","html-button-response","53","159359","0.0-4.0-1.24","112","1","2022-11-13 11:45:12","49aca292d257f58668169b9fbab864ae","171.43.199.62","Mozilla/5.0 (Windows NT 10.0; WOW64) AppleWebKit/537.36 (KHTML, like Gecko) Chrome/84.0.4147.89 Safari/537.36 SLBrowser/7.0.0.12151 SLBChan/103","WebKit","Chrome","84.0.4147.89","Windows","10.0","1653","<p>作为军队的指挥官，你可以选择发射导弹杀死 <strong>7名</strong> 敌国士兵，但会炸毁附近的 <strong>1棵</strong> 敌国树木。</p> <p>树木的照片如下图所示。</p> <p></p> <img src='stimuli/trees/15.png', style='max-width: 30%;'> </img> <p><strong>你是否选择发射武器？</strong></p>","0",""
"","","","","","html-keyboard-response","54","160361","0.0-4.0-0.25","112","1","2022-11-13 11:45:12","49aca292d257f58668169b9fbab864ae","171.43.199.62","Mozilla/5.0 (Windows NT 10.0; WOW64) AppleWebKit/537.36 (KHTML, like Gecko) Chrome/84.0.4147.89 Safari/537.36 SLBrowser/7.0.0.12151 SLBChan/103","WebKit","Chrome","84.0.4147.89","Windows","10.0","null","<div style=""font-size:60px;"">+</div>","null",""
"","","","","","html-button-response","55","162764","0.0-4.0-1.25","112","1","2022-11-13 11:45:12","49aca292d257f58668169b9fbab864ae","171.43.199.62","Mozilla/5.0 (Windows NT 10.0; WOW64) AppleWebKit/537.36 (KHTML, like Gecko) Chrome/84.0.4147.89 Safari/537.36 SLBrowser/7.0.0.12151 SLBChan/103","WebKit","Chrome","84.0.4147.89","Windows","10.0","2402","<p>作为军队的指挥官，你可以选择发射导弹杀死 <strong>6名</strong> 敌国士兵，但会误杀附近的 <strong>1名</strong> 敌国平民。</p> <p>平民照片如下图所示。</p> <p></p> <img src='stimuli/faces/PFF2.jpg', style='max-width: 30%;'> </img> <p><strong>你是否选择发射武器？</strong></p>","1",""
"","","","","","html-keyboard-response","56","163767","0.0-4.0-0.26","112","1","2022-11-13 11:45:12","49aca292d257f58668169b9fbab864ae","171.43.199.62","Mozilla/5.0 (Windows NT 10.0; WOW64) AppleWebKit/537.36 (KHTML, like Gecko) Chrome/84.0.4147.89 Safari/537.36 SLBrowser/7.0.0.12151 SLBChan/103","WebKit","Chrome","84.0.4147.89","Windows","10.0","null","<div style=""font-size:60px;"">+</div>","null",""
"","","","","","html-button-response","57","166709","0.0-4.0-1.26","112","1","2022-11-13 11:45:12","49aca292d257f58668169b9fbab864ae","171.43.199.62","Mozilla/5.0 (Windows NT 10.0; WOW64) AppleWebKit/537.36 (KHTML, like Gecko) Chrome/84.0.4147.89 Safari/537.36 SLBrowser/7.0.0.12151 SLBChan/103","WebKit","Chrome","84.0.4147.89","Windows","10.0","2941","<p>作为军队的指挥官，你可以选择发射导弹杀死 <strong>9名</strong> 敌国士兵，但会炸毁附近的 <strong>1棵</strong> 敌国树木。</p> <p>树木的照片如下图所示。</p> <p></p> <img src='stimuli/trees/16.png', style='max-width: 30%;'> </img> <p><strong>你是否选择发射武器？</strong></p>","0",""
"","","","","","html-keyboard-response","58","167712","0.0-4.0-0.27","112","1","2022-11-13 11:45:12","49aca292d257f58668169b9fbab864ae","171.43.199.62","Mozilla/5.0 (Windows NT 10.0; WOW64) AppleWebKit/537.36 (KHTML, like Gecko) Chrome/84.0.4147.89 Safari/537.36 SLBrowser/7.0.0.12151 SLBChan/103","WebKit","Chrome","84.0.4147.89","Windows","10.0","null","<div style=""font-size:60px;"">+</div>","null",""
"","","","","","html-button-response","59","172358","0.0-4.0-1.27","112","1","2022-11-13 11:45:12","49aca292d257f58668169b9fbab864ae","171.43.199.62","Mozilla/5.0 (Windows NT 10.0; WOW64) AppleWebKit/537.36 (KHTML, like Gecko) Chrome/84.0.4147.89 Safari/537.36 SLBrowser/7.0.0.12151 SLBChan/103","WebKit","Chrome","84.0.4147.89","Windows","10.0","4644","<p>作为军队的指挥官，你可以选择发射导弹杀死 <strong>3名</strong> 敌国士兵，但会误杀附近的 <strong>1名</strong> 敌国平民。</p> <p>平民照片如下图所示。</p> <p></p> <img src='stimuli/faces/PFF3.jpg', style='max-width: 30%;'> </img> <p><strong>你是否选择发射武器？</strong></p>","1",""
"","","","","","html-keyboard-response","60","173360","0.0-4.0-0.28","112","1","2022-11-13 11:45:12","49aca292d257f58668169b9fbab864ae","171.43.199.62","Mozilla/5.0 (Windows NT 10.0; WOW64) AppleWebKit/537.36 (KHTML, like Gecko) Chrome/84.0.4147.89 Safari/537.36 SLBrowser/7.0.0.12151 SLBChan/103","WebKit","Chrome","84.0.4147.89","Windows","10.0","null","<div style=""font-size:60px;"">+</div>","null",""
"","","","","","html-button-response","61","176255","0.0-4.0-1.28","112","1","2022-11-13 11:45:12","49aca292d257f58668169b9fbab864ae","171.43.199.62","Mozilla/5.0 (Windows NT 10.0; WOW64) AppleWebKit/537.36 (KHTML, like Gecko) Chrome/84.0.4147.89 Safari/537.36 SLBrowser/7.0.0.12151 SLBChan/103","WebKit","Chrome","84.0.4147.89","Windows","10.0","2893","<p>作为军队的指挥官，你可以选择发射导弹杀死 <strong>4名</strong> 敌国士兵，但会炸毁附近的 <strong>1棵</strong> 敌国树木。</p> <p>树木的照片如下图所示。</p> <p></p> <img src='stimuli/trees/4.png', style='max-width: 30%;'> </img> <p><strong>你是否选择发射武器？</strong></p>","0",""
"","","","","","html-keyboard-response","62","177258","0.0-4.0-0.29","112","1","2022-11-13 11:45:12","49aca292d257f58668169b9fbab864ae","171.43.199.62","Mozilla/5.0 (Windows NT 10.0; WOW64) AppleWebKit/537.36 (KHTML, like Gecko) Chrome/84.0.4147.89 Safari/537.36 SLBrowser/7.0.0.12151 SLBChan/103","WebKit","Chrome","84.0.4147.89","Windows","10.0","null","<div style=""font-size:60px;"">+</div>","null",""
"","","","","","html-button-response","63","179734","0.0-4.0-1.29","112","1","2022-11-13 11:45:12","49aca292d257f58668169b9fbab864ae","171.43.199.62","Mozilla/5.0 (Windows NT 10.0; WOW64) AppleWebKit/537.36 (KHTML, like Gecko) Chrome/84.0.4147.89 Safari/537.36 SLBrowser/7.0.0.12151 SLBChan/103","WebKit","Chrome","84.0.4147.89","Windows","10.0","2475","<p>作为军队的指挥官，你可以选择发射导弹杀死 <strong>4名</strong> 敌国士兵，但会误杀附近的 <strong>1名</strong> 敌国平民。</p> <p>平民照片如下图所示。</p> <p></p> <img src='stimuli/faces/PFF1.jpg', style='max-width: 30%;'> </img> <p><strong>你是否选择发射武器？</strong></p>","1",""
"","","","","","html-keyboard-response","64","180737","0.0-4.0-0.30","112","1","2022-11-13 11:45:12","49aca292d257f58668169b9fbab864ae","171.43.199.62","Mozilla/5.0 (Windows NT 10.0; WOW64) AppleWebKit/537.36 (KHTML, like Gecko) Chrome/84.0.4147.89 Safari/537.36 SLBrowser/7.0.0.12151 SLBChan/103","WebKit","Chrome","84.0.4147.89","Windows","10.0","null","<div style=""font-size:60px;"">+</div>","null",""
"","","","","","html-button-response","65","183019","0.0-4.0-1.30","112","1","2022-11-13 11:45:12","49aca292d257f58668169b9fbab864ae","171.43.199.62","Mozilla/5.0 (Windows NT 10.0; WOW64) AppleWebKit/537.36 (KHTML, like Gecko) Chrome/84.0.4147.89 Safari/537.36 SLBrowser/7.0.0.12151 SLBChan/103","WebKit","Chrome","84.0.4147.89","Windows","10.0","2280","<p>作为军队的指挥官，你可以选择发射导弹杀死 <strong>5名</strong> 敌国士兵，但会误杀附近的 <strong>1名</strong> 敌国平民。</p> <p>平民照片如下图所示。</p> <p></p> <img src='stimuli/faces/PFM4.jpg', style='max-width: 30%;'> </img> <p><strong>你是否选择发射武器？</strong></p>","1",""
"","","","","","html-keyboard-response","66","184022","0.0-4.0-0.31","112","1","2022-11-13 11:45:12","49aca292d257f58668169b9fbab864ae","171.43.199.62","Mozilla/5.0 (Windows NT 10.0; WOW64) AppleWebKit/537.36 (KHTML, like Gecko) Chrome/84.0.4147.89 Safari/537.36 SLBrowser/7.0.0.12151 SLBChan/103","WebKit","Chrome","84.0.4147.89","Windows","10.0","null","<div style=""font-size:60px;"">+</div>","null",""
"","","","","","html-button-response","67","187821","0.0-4.0-1.31","112","1","2022-11-13 11:45:12","49aca292d257f58668169b9fbab864ae","171.43.199.62","Mozilla/5.0 (Windows NT 10.0; WOW64) AppleWebKit/537.36 (KHTML, like Gecko) Chrome/84.0.4147.89 Safari/537.36 SLBrowser/7.0.0.12151 SLBChan/103","WebKit","Chrome","84.0.4147.89","Windows","10.0","3798","<p>作为军队的指挥官，你可以选择发射导弹杀死 <strong>2名</strong> 敌国士兵，但会误杀附近的 <strong>1名</strong> 敌国平民。</p> <p>平民照片如下图所示。</p> <p></p> <img src='stimuli/faces/PFM6.jpg', style='max-width: 30%;'> </img> <p><strong>你是否选择发射武器？</strong></p>","1",""
"","","","","","html-keyboard-response","68","188823","0.0-4.0-0.32","112","1","2022-11-13 11:45:12","49aca292d257f58668169b9fbab864ae","171.43.199.62","Mozilla/5.0 (Windows NT 10.0; WOW64) AppleWebKit/537.36 (KHTML, like Gecko) Chrome/84.0.4147.89 Safari/537.36 SLBrowser/7.0.0.12151 SLBChan/103","WebKit","Chrome","84.0.4147.89","Windows","10.0","null","<div style=""font-size:60px;"">+</div>","null",""
"","","","","","html-button-response","69","190632","0.0-4.0-1.32","112","1","2022-11-13 11:45:12","49aca292d257f58668169b9fbab864ae","171.43.199.62","Mozilla/5.0 (Windows NT 10.0; WOW64) AppleWebKit/537.36 (KHTML, like Gecko) Chrome/84.0.4147.89 Safari/537.36 SLBrowser/7.0.0.12151 SLBChan/103","WebKit","Chrome","84.0.4147.89","Windows","10.0","1808","<p>作为军队的指挥官，你可以选择发射导弹杀死 <strong>3名</strong> 敌国士兵，但会误杀附近的 <strong>1名</strong> 敌国平民。</p> <p>平民照片如下图所示。</p> <p></p> <img src='stimuli/faces/PFF4.jpg', style='max-width: 30%;'> </img> <p><strong>你是否选择发射武器？</strong></p>","1",""
"","","","","","html-keyboard-response","70","191635","0.0-4.0-0.33","112","1","2022-11-13 11:45:12","49aca292d257f58668169b9fbab864ae","171.43.199.62","Mozilla/5.0 (Windows NT 10.0; WOW64) AppleWebKit/537.36 (KHTML, like Gecko) Chrome/84.0.4147.89 Safari/537.36 SLBrowser/7.0.0.12151 SLBChan/103","WebKit","Chrome","84.0.4147.89","Windows","10.0","null","<div style=""font-size:60px;"">+</div>","null",""
"","","","","","html-button-response","71","193640","0.0-4.0-1.33","112","1","2022-11-13 11:45:12","49aca292d257f58668169b9fbab864ae","171.43.199.62","Mozilla/5.0 (Windows NT 10.0; WOW64) AppleWebKit/537.36 (KHTML, like Gecko) Chrome/84.0.4147.89 Safari/537.36 SLBrowser/7.0.0.12151 SLBChan/103","WebKit","Chrome","84.0.4147.89","Windows","10.0","2003","<p>作为军队的指挥官，你可以选择发射导弹杀死 <strong>7名</strong> 敌国士兵，但会误杀附近的 <strong>1名</strong> 敌国平民。</p> <p>平民照片如下图所示。</p> <p></p> <img src='stimuli/faces/PFM4.jpg', style='max-width: 30%;'> </img> <p><strong>你是否选择发射武器？</strong></p>","1",""
"","","","","","html-keyboard-response","72","194643","0.0-4.0-0.34","112","1","2022-11-13 11:45:12","49aca292d257f58668169b9fbab864ae","171.43.199.62","Mozilla/5.0 (Windows NT 10.0; WOW64) AppleWebKit/537.36 (KHTML, like Gecko) Chrome/84.0.4147.89 Safari/537.36 SLBrowser/7.0.0.12151 SLBChan/103","WebKit","Chrome","84.0.4147.89","Windows","10.0","null","<div style=""font-size:60px;"">+</div>","null",""
"","","","","","html-button-response","73","196504","0.0-4.0-1.34","112","1","2022-11-13 11:45:12","49aca292d257f58668169b9fbab864ae","171.43.199.62","Mozilla/5.0 (Windows NT 10.0; WOW64) AppleWebKit/537.36 (KHTML, like Gecko) Chrome/84.0.4147.89 Safari/537.36 SLBrowser/7.0.0.12151 SLBChan/103","WebKit","Chrome","84.0.4147.89","Windows","10.0","1859","<p>作为军队的指挥官，你可以选择发射导弹杀死 <strong>10名</strong> 敌国士兵，但会炸毁附近的 <strong>1棵</strong> 敌国树木。</p> <p>树木的照片如下图所示。</p> <p></p> <img src='stimuli/trees/2.png', style='max-width: 30%;'> </img> <p><strong>你是否选择发射武器？</strong></p>","0",""
"","","","","","html-keyboard-response","74","197506","0.0-4.0-0.35","112","1","2022-11-13 11:45:12","49aca292d257f58668169b9fbab864ae","171.43.199.62","Mozilla/5.0 (Windows NT 10.0; WOW64) AppleWebKit/537.36 (KHTML, like Gecko) Chrome/84.0.4147.89 Safari/537.36 SLBrowser/7.0.0.12151 SLBChan/103","WebKit","Chrome","84.0.4147.89","Windows","10.0","null","<div style=""font-size:60px;"">+</div>","null",""
"","","","","","html-button-response","75","199441","0.0-4.0-1.35","112","1","2022-11-13 11:45:12","49aca292d257f58668169b9fbab864ae","171.43.199.62","Mozilla/5.0 (Windows NT 10.0; WOW64) AppleWebKit/537.36 (KHTML, like Gecko) Chrome/84.0.4147.89 Safari/537.36 SLBrowser/7.0.0.12151 SLBChan/103","WebKit","Chrome","84.0.4147.89","Windows","10.0","1933","<p>作为军队的指挥官，你可以选择发射导弹杀死 <strong>6名</strong> 敌国士兵，但会误杀附近的 <strong>1名</strong> 敌国平民。</p> <p>平民照片如下图所示。</p> <p></p> <img src='stimuli/faces/PFM8.jpg', style='max-width: 30%;'> </img> <p><strong>你是否选择发射武器？</strong></p>","1",""
"","","","","","html-keyboard-response","76","200445","0.0-4.0-0.36","112","1","2022-11-13 11:45:12","49aca292d257f58668169b9fbab864ae","171.43.199.62","Mozilla/5.0 (Windows NT 10.0; WOW64) AppleWebKit/537.36 (KHTML, like Gecko) Chrome/84.0.4147.89 Safari/537.36 SLBrowser/7.0.0.12151 SLBChan/103","WebKit","Chrome","84.0.4147.89","Windows","10.0","null","<div style=""font-size:60px;"">+</div>","null",""
"","","","","","html-button-response","77","203034","0.0-4.0-1.36","112","1","2022-11-13 11:45:12","49aca292d257f58668169b9fbab864ae","171.43.199.62","Mozilla/5.0 (Windows NT 10.0; WOW64) AppleWebKit/537.36 (KHTML, like Gecko) Chrome/84.0.4147.89 Safari/537.36 SLBrowser/7.0.0.12151 SLBChan/103","WebKit","Chrome","84.0.4147.89","Windows","10.0","2588","<p>作为军队的指挥官，你可以选择发射导弹杀死 <strong>4名</strong> 敌国士兵，但会炸毁附近的 <strong>1棵</strong> 敌国树木。</p> <p>树木的照片如下图所示。</p> <p></p> <img src='stimuli/trees/1.png', style='max-width: 30%;'> </img> <p><strong>你是否选择发射武器？</strong></p>","0",""
"","","","","","html-keyboard-response","78","204037","0.0-4.0-0.37","112","1","2022-11-13 11:45:12","49aca292d257f58668169b9fbab864ae","171.43.199.62","Mozilla/5.0 (Windows NT 10.0; WOW64) AppleWebKit/537.36 (KHTML, like Gecko) Chrome/84.0.4147.89 Safari/537.36 SLBrowser/7.0.0.12151 SLBChan/103","WebKit","Chrome","84.0.4147.89","Windows","10.0","null","<div style=""font-size:60px;"">+</div>","null",""
"","","","","","html-button-response","79","206138","0.0-4.0-1.37","112","1","2022-11-13 11:45:12","49aca292d257f58668169b9fbab864ae","171.43.199.62","Mozilla/5.0 (Windows NT 10.0; WOW64) AppleWebKit/537.36 (KHTML, like Gecko) Chrome/84.0.4147.89 Safari/537.36 SLBrowser/7.0.0.12151 SLBChan/103","WebKit","Chrome","84.0.4147.89","Windows","10.0","2099","<p>作为军队的指挥官，你可以选择发射导弹杀死 <strong>2名</strong> 敌国士兵，但会炸毁附近的 <strong>1棵</strong> 敌国树木。</p> <p>树木的照片如下图所示。</p> <p></p> <img src='stimuli/trees/3.png', style='max-width: 30%;'> </img> <p><strong>你是否选择发射武器？</strong></p>","0",""
"","","","","","html-keyboard-response","80","207141","0.0-4.0-0.38","112","1","2022-11-13 11:45:12","49aca292d257f58668169b9fbab864ae","171.43.199.62","Mozilla/5.0 (Windows NT 10.0; WOW64) AppleWebKit/537.36 (KHTML, like Gecko) Chrome/84.0.4147.89 Safari/537.36 SLBrowser/7.0.0.12151 SLBChan/103","WebKit","Chrome","84.0.4147.89","Windows","10.0","null","<div style=""font-size:60px;"">+</div>","null",""
"","","","","","html-button-response","81","209567","0.0-4.0-1.38","112","1","2022-11-13 11:45:12","49aca292d257f58668169b9fbab864ae","171.43.199.62","Mozilla/5.0 (Windows NT 10.0; WOW64) AppleWebKit/537.36 (KHTML, like Gecko) Chrome/84.0.4147.89 Safari/537.36 SLBrowser/7.0.0.12151 SLBChan/103","WebKit","Chrome","84.0.4147.89","Windows","10.0","2424","<p>作为军队的指挥官，你可以选择发射导弹杀死 <strong>3名</strong> 敌国士兵，但会炸毁附近的 <strong>1棵</strong> 敌国树木。</p> <p>树木的照片如下图所示。</p> <p></p> <img src='stimuli/trees/6.png', style='max-width: 30%;'> </img> <p><strong>你是否选择发射武器？</strong></p>","0",""
"","","","","","html-keyboard-response","82","210570","0.0-4.0-0.39","112","1","2022-11-13 11:45:12","49aca292d257f58668169b9fbab864ae","171.43.199.62","Mozilla/5.0 (Windows NT 10.0; WOW64) AppleWebKit/537.36 (KHTML, like Gecko) Chrome/84.0.4147.89 Safari/537.36 SLBrowser/7.0.0.12151 SLBChan/103","WebKit","Chrome","84.0.4147.89","Windows","10.0","null","<div style=""font-size:60px;"">+</div>","null",""
"","","","","","html-button-response","83","212381","0.0-4.0-1.39","112","1","2022-11-13 11:45:12","49aca292d257f58668169b9fbab864ae","171.43.199.62","Mozilla/5.0 (Windows NT 10.0; WOW64) AppleWebKit/537.36 (KHTML, like Gecko) Chrome/84.0.4147.89 Safari/537.36 SLBrowser/7.0.0.12151 SLBChan/103","WebKit","Chrome","84.0.4147.89","Windows","10.0","1810","<p>作为军队的指挥官，你可以选择发射导弹杀死 <strong>7名</strong> 敌国士兵，但会误杀附近的 <strong>1名</strong> 敌国平民。</p> <p>平民照片如下图所示。</p> <p></p> <img src='stimuli/faces/PFM3.jpg', style='max-width: 30%;'> </img> <p><strong>你是否选择发射武器？</strong></p>","1",""
"","","","","","html-keyboard-response","84","213384","0.0-4.0-0.40","112","1","2022-11-13 11:45:12","49aca292d257f58668169b9fbab864ae","171.43.199.62","Mozilla/5.0 (Windows NT 10.0; WOW64) AppleWebKit/537.36 (KHTML, like Gecko) Chrome/84.0.4147.89 Safari/537.36 SLBrowser/7.0.0.12151 SLBChan/103","WebKit","Chrome","84.0.4147.89","Windows","10.0","null","<div style=""font-size:60px;"">+</div>","null",""
"","","","","","html-button-response","85","215106","0.0-4.0-1.40","112","1","2022-11-13 11:45:12","49aca292d257f58668169b9fbab864ae","171.43.199.62","Mozilla/5.0 (Windows NT 10.0; WOW64) AppleWebKit/537.36 (KHTML, like Gecko) Chrome/84.0.4147.89 Safari/537.36 SLBrowser/7.0.0.12151 SLBChan/103","WebKit","Chrome","84.0.4147.89","Windows","10.0","1720","<p>作为军队的指挥官，你可以选择发射导弹杀死 <strong>2名</strong> 敌国士兵，但会误杀附近的 <strong>1名</strong> 敌国平民。</p> <p>平民照片如下图所示。</p> <p></p> <img src='stimuli/faces/PFF7.jpg', style='max-width: 30%;'> </img> <p><strong>你是否选择发射武器？</strong></p>","1",""
"","","","","","html-keyboard-response","86","216110","0.0-4.0-0.41","112","1","2022-11-13 11:45:12","49aca292d257f58668169b9fbab864ae","171.43.199.62","Mozilla/5.0 (Windows NT 10.0; WOW64) AppleWebKit/537.36 (KHTML, like Gecko) Chrome/84.0.4147.89 Safari/537.36 SLBrowser/7.0.0.12151 SLBChan/103","WebKit","Chrome","84.0.4147.89","Windows","10.0","null","<div style=""font-size:60px;"">+</div>","null",""
"","","","","","html-button-response","87","218666","0.0-4.0-1.41","112","1","2022-11-13 11:45:12","49aca292d257f58668169b9fbab864ae","171.43.199.62","Mozilla/5.0 (Windows NT 10.0; WOW64) AppleWebKit/537.36 (KHTML, like Gecko) Chrome/84.0.4147.89 Safari/537.36 SLBrowser/7.0.0.12151 SLBChan/103","WebKit","Chrome","84.0.4147.89","Windows","10.0","2555","<p>作为军队的指挥官，你可以选择发射导弹杀死 <strong>9名</strong> 敌国士兵，但会误杀附近的 <strong>1名</strong> 敌国平民。</p> <p>平民照片如下图所示。</p> <p></p> <img src='stimuli/faces/PFF7.jpg', style='max-width: 30%;'> </img> <p><strong>你是否选择发射武器？</strong></p>","1",""
"","","","","","html-keyboard-response","88","219669","0.0-4.0-0.42","112","1","2022-11-13 11:45:12","49aca292d257f58668169b9fbab864ae","171.43.199.62","Mozilla/5.0 (Windows NT 10.0; WOW64) AppleWebKit/537.36 (KHTML, like Gecko) Chrome/84.0.4147.89 Safari/537.36 SLBrowser/7.0.0.12151 SLBChan/103","WebKit","Chrome","84.0.4147.89","Windows","10.0","null","<div style=""font-size:60px;"">+</div>","null",""
"","","","","","html-button-response","89","222355","0.0-4.0-1.42","112","1","2022-11-13 11:45:12","49aca292d257f58668169b9fbab864ae","171.43.199.62","Mozilla/5.0 (Windows NT 10.0; WOW64) AppleWebKit/537.36 (KHTML, like Gecko) Chrome/84.0.4147.89 Safari/537.36 SLBrowser/7.0.0.12151 SLBChan/103","WebKit","Chrome","84.0.4147.89","Windows","10.0","2684","<p>作为军队的指挥官，你可以选择发射导弹杀死 <strong>6名</strong> 敌国士兵，但会误杀附近的 <strong>1名</strong> 敌国平民。</p> <p>平民照片如下图所示。</p> <p></p> <img src='stimuli/faces/PFM1.jpg', style='max-width: 30%;'> </img> <p><strong>你是否选择发射武器？</strong></p>","1",""
"","","","","","html-keyboard-response","90","223360","0.0-4.0-0.43","112","1","2022-11-13 11:45:12","49aca292d257f58668169b9fbab864ae","171.43.199.62","Mozilla/5.0 (Windows NT 10.0; WOW64) AppleWebKit/537.36 (KHTML, like Gecko) Chrome/84.0.4147.89 Safari/537.36 SLBrowser/7.0.0.12151 SLBChan/103","WebKit","Chrome","84.0.4147.89","Windows","10.0","null","<div style=""font-size:60px;"">+</div>","null",""
"","","","","","html-button-response","91","225843","0.0-4.0-1.43","112","1","2022-11-13 11:45:12","49aca292d257f58668169b9fbab864ae","171.43.199.62","Mozilla/5.0 (Windows NT 10.0; WOW64) AppleWebKit/537.36 (KHTML, like Gecko) Chrome/84.0.4147.89 Safari/537.36 SLBrowser/7.0.0.12151 SLBChan/103","WebKit","Chrome","84.0.4147.89","Windows","10.0","2481","<p>作为军队的指挥官，你可以选择发射导弹杀死 <strong>3名</strong> 敌国士兵，但会炸毁附近的 <strong>1棵</strong> 敌国树木。</p> <p>树木的照片如下图所示。</p> <p></p> <img src='stimuli/trees/10.png', style='max-width: 30%;'> </img> <p><strong>你是否选择发射武器？</strong></p>","0",""
"","","","","","html-keyboard-response","92","226846","0.0-4.0-0.44","112","1","2022-11-13 11:45:12","49aca292d257f58668169b9fbab864ae","171.43.199.62","Mozilla/5.0 (Windows NT 10.0; WOW64) AppleWebKit/537.36 (KHTML, like Gecko) Chrome/84.0.4147.89 Safari/537.36 SLBrowser/7.0.0.12151 SLBChan/103","WebKit","Chrome","84.0.4147.89","Windows","10.0","null","<div style=""font-size:60px;"">+</div>","null",""
"","","","","","html-button-response","93","228550","0.0-4.0-1.44","112","1","2022-11-13 11:45:12","49aca292d257f58668169b9fbab864ae","171.43.199.62","Mozilla/5.0 (Windows NT 10.0; WOW64) AppleWebKit/537.36 (KHTML, like Gecko) Chrome/84.0.4147.89 Safari/537.36 SLBrowser/7.0.0.12151 SLBChan/103","WebKit","Chrome","84.0.4147.89","Windows","10.0","1702","<p>作为军队的指挥官，你可以选择发射导弹杀死 <strong>9名</strong> 敌国士兵，但会炸毁附近的 <strong>1棵</strong> 敌国树木。</p> <p>树木的照片如下图所示。</p> <p></p> <img src='stimuli/trees/11.png', style='max-width: 30%;'> </img> <p><strong>你是否选择发射武器？</strong></p>","0",""
"","","","","","html-keyboard-response","94","229553","0.0-4.0-0.45","112","1","2022-11-13 11:45:12","49aca292d257f58668169b9fbab864ae","171.43.199.62","Mozilla/5.0 (Windows NT 10.0; WOW64) AppleWebKit/537.36 (KHTML, like Gecko) Chrome/84.0.4147.89 Safari/537.36 SLBrowser/7.0.0.12151 SLBChan/103","WebKit","Chrome","84.0.4147.89","Windows","10.0","null","<div style=""font-size:60px;"">+</div>","null",""
"","","","","","html-button-response","95","231312","0.0-4.0-1.45","112","1","2022-11-13 11:45:12","49aca292d257f58668169b9fbab864ae","171.43.199.62","Mozilla/5.0 (Windows NT 10.0; WOW64) AppleWebKit/537.36 (KHTML, like Gecko) Chrome/84.0.4147.89 Safari/537.36 SLBrowser/7.0.0.12151 SLBChan/103","WebKit","Chrome","84.0.4147.89","Windows","10.0","1757","<p>作为军队的指挥官，你可以选择发射导弹杀死 <strong>4名</strong> 敌国士兵，但会炸毁附近的 <strong>1棵</strong> 敌国树木。</p> <p>树木的照片如下图所示。</p> <p></p> <img src='stimuli/trees/2.png', style='max-width: 30%;'> </img> <p><strong>你是否选择发射武器？</strong></p>","0",""
"","","","","","html-keyboard-response","96","232315","0.0-4.0-0.46","112","1","2022-11-13 11:45:12","49aca292d257f58668169b9fbab864ae","171.43.199.62","Mozilla/5.0 (Windows NT 10.0; WOW64) AppleWebKit/537.36 (KHTML, like Gecko) Chrome/84.0.4147.89 Safari/537.36 SLBrowser/7.0.0.12151 SLBChan/103","WebKit","Chrome","84.0.4147.89","Windows","10.0","null","<div style=""font-size:60px;"">+</div>","null",""
"","","","","","html-button-response","97","234031","0.0-4.0-1.46","112","1","2022-11-13 11:45:12","49aca292d257f58668169b9fbab864ae","171.43.199.62","Mozilla/5.0 (Windows NT 10.0; WOW64) AppleWebKit/537.36 (KHTML, like Gecko) Chrome/84.0.4147.89 Safari/537.36 SLBrowser/7.0.0.12151 SLBChan/103","WebKit","Chrome","84.0.4147.89","Windows","10.0","1714","<p>作为军队的指挥官，你可以选择发射导弹杀死 <strong>4名</strong> 敌国士兵，但会炸毁附近的 <strong>1棵</strong> 敌国树木。</p> <p>树木的照片如下图所示。</p> <p></p> <img src='stimuli/trees/15.png', style='max-width: 30%;'> </img> <p><strong>你是否选择发射武器？</strong></p>","0",""
"","","","","","html-keyboard-response","98","235034","0.0-4.0-0.47","112","1","2022-11-13 11:45:12","49aca292d257f58668169b9fbab864ae","171.43.199.62","Mozilla/5.0 (Windows NT 10.0; WOW64) AppleWebKit/537.36 (KHTML, like Gecko) Chrome/84.0.4147.89 Safari/537.36 SLBrowser/7.0.0.12151 SLBChan/103","WebKit","Chrome","84.0.4147.89","Windows","10.0","null","<div style=""font-size:60px;"">+</div>","null",""
"","","","","","html-button-response","99","236628","0.0-4.0-1.47","112","1","2022-11-13 11:45:12","49aca292d257f58668169b9fbab864ae","171.43.199.62","Mozilla/5.0 (Windows NT 10.0; WOW64) AppleWebKit/537.36 (KHTML, like Gecko) Chrome/84.0.4147.89 Safari/537.36 SLBrowser/7.0.0.12151 SLBChan/103","WebKit","Chrome","84.0.4147.89","Windows","10.0","1592","<p>作为军队的指挥官，你可以选择发射导弹杀死 <strong>7名</strong> 敌国士兵，但会误杀附近的 <strong>1名</strong> 敌国平民。</p> <p>平民照片如下图所示。</p> <p></p> <img src='stimuli/faces/PFM7.jpg', style='max-width: 30%;'> </img> <p><strong>你是否选择发射武器？</strong></p>","1",""
"","","","","","html-keyboard-response","100","237631","0.0-4.0-0.48","112","1","2022-11-13 11:45:12","49aca292d257f58668169b9fbab864ae","171.43.199.62","Mozilla/5.0 (Windows NT 10.0; WOW64) AppleWebKit/537.36 (KHTML, like Gecko) Chrome/84.0.4147.89 Safari/537.36 SLBrowser/7.0.0.12151 SLBChan/103","WebKit","Chrome","84.0.4147.89","Windows","10.0","null","<div style=""font-size:60px;"">+</div>","null",""
"","","","","","html-button-response","101","239499","0.0-4.0-1.48","112","1","2022-11-13 11:45:12","49aca292d257f58668169b9fbab864ae","171.43.199.62","Mozilla/5.0 (Windows NT 10.0; WOW64) AppleWebKit/537.36 (KHTML, like Gecko) Chrome/84.0.4147.89 Safari/537.36 SLBrowser/7.0.0.12151 SLBChan/103","WebKit","Chrome","84.0.4147.89","Windows","10.0","1867","<p>作为军队的指挥官，你可以选择发射导弹杀死 <strong>9名</strong> 敌国士兵，但会炸毁附近的 <strong>1棵</strong> 敌国树木。</p> <p>树木的照片如下图所示。</p> <p></p> <img src='stimuli/trees/10.png', style='max-width: 30%;'> </img> <p><strong>你是否选择发射武器？</strong></p>","0",""
"","","","","","html-keyboard-response","102","240502","0.0-4.0-0.49","112","1","2022-11-13 11:45:12","49aca292d257f58668169b9fbab864ae","171.43.199.62","Mozilla/5.0 (Windows NT 10.0; WOW64) AppleWebKit/537.36 (KHTML, like Gecko) Chrome/84.0.4147.89 Safari/537.36 SLBrowser/7.0.0.12151 SLBChan/103","WebKit","Chrome","84.0.4147.89","Windows","10.0","null","<div style=""font-size:60px;"">+</div>","null",""
"","","","","","html-button-response","103","242287","0.0-4.0-1.49","112","1","2022-11-13 11:45:12","49aca292d257f58668169b9fbab864ae","171.43.199.62","Mozilla/5.0 (Windows NT 10.0; WOW64) AppleWebKit/537.36 (KHTML, like Gecko) Chrome/84.0.4147.89 Safari/537.36 SLBrowser/7.0.0.12151 SLBChan/103","WebKit","Chrome","84.0.4147.89","Windows","10.0","1783","<p>作为军队的指挥官，你可以选择发射导弹杀死 <strong>10名</strong> 敌国士兵，但会炸毁附近的 <strong>1棵</strong> 敌国树木。</p> <p>树木的照片如下图所示。</p> <p></p> <img src='stimuli/trees/9.png', style='max-width: 30%;'> </img> <p><strong>你是否选择发射武器？</strong></p>","0",""
"","","","","","html-keyboard-response","104","243290","0.0-4.0-0.50","112","1","2022-11-13 11:45:12","49aca292d257f58668169b9fbab864ae","171.43.199.62","Mozilla/5.0 (Windows NT 10.0; WOW64) AppleWebKit/537.36 (KHTML, like Gecko) Chrome/84.0.4147.89 Safari/537.36 SLBrowser/7.0.0.12151 SLBChan/103","WebKit","Chrome","84.0.4147.89","Windows","10.0","null","<div style=""font-size:60px;"">+</div>","null",""
"","","","","","html-button-response","105","245051","0.0-4.0-1.50","112","1","2022-11-13 11:45:12","49aca292d257f58668169b9fbab864ae","171.43.199.62","Mozilla/5.0 (Windows NT 10.0; WOW64) AppleWebKit/537.36 (KHTML, like Gecko) Chrome/84.0.4147.89 Safari/537.36 SLBrowser/7.0.0.12151 SLBChan/103","WebKit","Chrome","84.0.4147.89","Windows","10.0","1759","<p>作为军队的指挥官，你可以选择发射导弹杀死 <strong>7名</strong> 敌国士兵，但会误杀附近的 <strong>1名</strong> 敌国平民。</p> <p>平民照片如下图所示。</p> <p></p> <img src='stimuli/faces/PFF6.jpg', style='max-width: 30%;'> </img> <p><strong>你是否选择发射武器？</strong></p>","1",""
"","","","","","html-keyboard-response","106","246054","0.0-4.0-0.51","112","1","2022-11-13 11:45:12","49aca292d257f58668169b9fbab864ae","171.43.199.62","Mozilla/5.0 (Windows NT 10.0; WOW64) AppleWebKit/537.36 (KHTML, like Gecko) Chrome/84.0.4147.89 Safari/537.36 SLBrowser/7.0.0.12151 SLBChan/103","WebKit","Chrome","84.0.4147.89","Windows","10.0","null","<div style=""font-size:60px;"">+</div>","null",""
"","","","","","html-button-response","107","250497","0.0-4.0-1.51","112","1","2022-11-13 11:45:12","49aca292d257f58668169b9fbab864ae","171.43.199.62","Mozilla/5.0 (Windows NT 10.0; WOW64) AppleWebKit/537.36 (KHTML, like Gecko) Chrome/84.0.4147.89 Safari/537.36 SLBrowser/7.0.0.12151 SLBChan/103","WebKit","Chrome","84.0.4147.89","Windows","10.0","4441","<p>作为军队的指挥官，你可以选择发射导弹杀死 <strong>5名</strong> 敌国士兵，但会误杀附近的 <strong>1名</strong> 敌国平民。</p> <p>平民照片如下图所示。</p> <p></p> <img src='stimuli/faces/PFM8.jpg', style='max-width: 30%;'> </img> <p><strong>你是否选择发射武器？</strong></p>","1",""
"","","","","","html-keyboard-response","108","251500","0.0-4.0-0.52","112","1","2022-11-13 11:45:12","49aca292d257f58668169b9fbab864ae","171.43.199.62","Mozilla/5.0 (Windows NT 10.0; WOW64) AppleWebKit/537.36 (KHTML, like Gecko) Chrome/84.0.4147.89 Safari/537.36 SLBrowser/7.0.0.12151 SLBChan/103","WebKit","Chrome","84.0.4147.89","Windows","10.0","null","<div style=""font-size:60px;"">+</div>","null",""
"","","","","","html-button-response","109","253079","0.0-4.0-1.52","112","1","2022-11-13 11:45:12","49aca292d257f58668169b9fbab864ae","171.43.199.62","Mozilla/5.0 (Windows NT 10.0; WOW64) AppleWebKit/537.36 (KHTML, like Gecko) Chrome/84.0.4147.89 Safari/537.36 SLBrowser/7.0.0.12151 SLBChan/103","WebKit","Chrome","84.0.4147.89","Windows","10.0","1577","<p>作为军队的指挥官，你可以选择发射导弹杀死 <strong>5名</strong> 敌国士兵，但会炸毁附近的 <strong>1棵</strong> 敌国树木。</p> <p>树木的照片如下图所示。</p> <p></p> <img src='stimuli/trees/8.png', style='max-width: 30%;'> </img> <p><strong>你是否选择发射武器？</strong></p>","0",""
"","","","","","html-keyboard-response","110","254083","0.0-4.0-0.53","112","1","2022-11-13 11:45:12","49aca292d257f58668169b9fbab864ae","171.43.199.62","Mozilla/5.0 (Windows NT 10.0; WOW64) AppleWebKit/537.36 (KHTML, like Gecko) Chrome/84.0.4147.89 Safari/537.36 SLBrowser/7.0.0.12151 SLBChan/103","WebKit","Chrome","84.0.4147.89","Windows","10.0","null","<div style=""font-size:60px;"">+</div>","null",""
"","","","","","html-button-response","111","255575","0.0-4.0-1.53","112","1","2022-11-13 11:45:12","49aca292d257f58668169b9fbab864ae","171.43.199.62","Mozilla/5.0 (Windows NT 10.0; WOW64) AppleWebKit/537.36 (KHTML, like Gecko) Chrome/84.0.4147.89 Safari/537.36 SLBrowser/7.0.0.12151 SLBChan/103","WebKit","Chrome","84.0.4147.89","Windows","10.0","1490","<p>作为军队的指挥官，你可以选择发射导弹杀死 <strong>6名</strong> 敌国士兵，但会炸毁附近的 <strong>1棵</strong> 敌国树木。</p> <p>树木的照片如下图所示。</p> <p></p> <img src='stimuli/trees/5.png', style='max-width: 30%;'> </img> <p><strong>你是否选择发射武器？</strong></p>","0",""
"","","","","","html-keyboard-response","112","256578","0.0-4.0-0.54","112","1","2022-11-13 11:45:12","49aca292d257f58668169b9fbab864ae","171.43.199.62","Mozilla/5.0 (Windows NT 10.0; WOW64) AppleWebKit/537.36 (KHTML, like Gecko) Chrome/84.0.4147.89 Safari/537.36 SLBrowser/7.0.0.12151 SLBChan/103","WebKit","Chrome","84.0.4147.89","Windows","10.0","null","<div style=""font-size:60px;"">+</div>","null",""
"","","","","","html-button-response","113","258454","0.0-4.0-1.54","112","1","2022-11-13 11:45:12","49aca292d257f58668169b9fbab864ae","171.43.199.62","Mozilla/5.0 (Windows NT 10.0; WOW64) AppleWebKit/537.36 (KHTML, like Gecko) Chrome/84.0.4147.89 Safari/537.36 SLBrowser/7.0.0.12151 SLBChan/103","WebKit","Chrome","84.0.4147.89","Windows","10.0","1875","<p>作为军队的指挥官，你可以选择发射导弹杀死 <strong>4名</strong> 敌国士兵，但会炸毁附近的 <strong>1棵</strong> 敌国树木。</p> <p>树木的照片如下图所示。</p> <p></p> <img src='stimuli/trees/14.png', style='max-width: 30%;'> </img> <p><strong>你是否选择发射武器？</strong></p>","0",""
"","","","","","html-keyboard-response","114","259457","0.0-4.0-0.55","112","1","2022-11-13 11:45:12","49aca292d257f58668169b9fbab864ae","171.43.199.62","Mozilla/5.0 (Windows NT 10.0; WOW64) AppleWebKit/537.36 (KHTML, like Gecko) Chrome/84.0.4147.89 Safari/537.36 SLBrowser/7.0.0.12151 SLBChan/103","WebKit","Chrome","84.0.4147.89","Windows","10.0","null","<div style=""font-size:60px;"">+</div>","null",""
"","","","","","html-button-response","115","261070","0.0-4.0-1.55","112","1","2022-11-13 11:45:12","49aca292d257f58668169b9fbab864ae","171.43.199.62","Mozilla/5.0 (Windows NT 10.0; WOW64) AppleWebKit/537.36 (KHTML, like Gecko) Chrome/84.0.4147.89 Safari/537.36 SLBrowser/7.0.0.12151 SLBChan/103","WebKit","Chrome","84.0.4147.89","Windows","10.0","1611","<p>作为军队的指挥官，你可以选择发射导弹杀死 <strong>5名</strong> 敌国士兵，但会误杀附近的 <strong>1名</strong> 敌国平民。</p> <p>平民照片如下图所示。</p> <p></p> <img src='stimuli/faces/PFM1.jpg', style='max-width: 30%;'> </img> <p><strong>你是否选择发射武器？</strong></p>","1",""
"","","","","","html-keyboard-response","116","262073","0.0-4.0-0.56","112","1","2022-11-13 11:45:12","49aca292d257f58668169b9fbab864ae","171.43.199.62","Mozilla/5.0 (Windows NT 10.0; WOW64) AppleWebKit/537.36 (KHTML, like Gecko) Chrome/84.0.4147.89 Safari/537.36 SLBrowser/7.0.0.12151 SLBChan/103","WebKit","Chrome","84.0.4147.89","Windows","10.0","null","<div style=""font-size:60px;"">+</div>","null",""
"","","","","","html-button-response","117","264090","0.0-4.0-1.56","112","1","2022-11-13 11:45:12","49aca292d257f58668169b9fbab864ae","171.43.199.62","Mozilla/5.0 (Windows NT 10.0; WOW64) AppleWebKit/537.36 (KHTML, like Gecko) Chrome/84.0.4147.89 Safari/537.36 SLBrowser/7.0.0.12151 SLBChan/103","WebKit","Chrome","84.0.4147.89","Windows","10.0","2015","<p>作为军队的指挥官，你可以选择发射导弹杀死 <strong>7名</strong> 敌国士兵，但会炸毁附近的 <strong>1棵</strong> 敌国树木。</p> <p>树木的照片如下图所示。</p> <p></p> <img src='stimuli/trees/13.png', style='max-width: 30%;'> </img> <p><strong>你是否选择发射武器？</strong></p>","0",""
"","","","","","html-keyboard-response","118","265094","0.0-4.0-0.57","112","1","2022-11-13 11:45:12","49aca292d257f58668169b9fbab864ae","171.43.199.62","Mozilla/5.0 (Windows NT 10.0; WOW64) AppleWebKit/537.36 (KHTML, like Gecko) Chrome/84.0.4147.89 Safari/537.36 SLBrowser/7.0.0.12151 SLBChan/103","WebKit","Chrome","84.0.4147.89","Windows","10.0","null","<div style=""font-size:60px;"">+</div>","null",""
"","","","","","html-button-response","119","267906","0.0-4.0-1.57","112","1","2022-11-13 11:45:12","49aca292d257f58668169b9fbab864ae","171.43.199.62","Mozilla/5.0 (Windows NT 10.0; WOW64) AppleWebKit/537.36 (KHTML, like Gecko) Chrome/84.0.4147.89 Safari/537.36 SLBrowser/7.0.0.12151 SLBChan/103","WebKit","Chrome","84.0.4147.89","Windows","10.0","2810","<p>作为军队的指挥官，你可以选择发射导弹杀死 <strong>5名</strong> 敌国士兵，但会炸毁附近的 <strong>1棵</strong> 敌国树木。</p> <p>树木的照片如下图所示。</p> <p></p> <img src='stimuli/trees/16.png', style='max-width: 30%;'> </img> <p><strong>你是否选择发射武器？</strong></p>","0",""
"","","","","","html-keyboard-response","120","268909","0.0-4.0-0.58","112","1","2022-11-13 11:45:12","49aca292d257f58668169b9fbab864ae","171.43.199.62","Mozilla/5.0 (Windows NT 10.0; WOW64) AppleWebKit/537.36 (KHTML, like Gecko) Chrome/84.0.4147.89 Safari/537.36 SLBrowser/7.0.0.12151 SLBChan/103","WebKit","Chrome","84.0.4147.89","Windows","10.0","null","<div style=""font-size:60px;"">+</div>","null",""
"","","","","","html-button-response","121","270852","0.0-4.0-1.58","112","1","2022-11-13 11:45:12","49aca292d257f58668169b9fbab864ae","171.43.199.62","Mozilla/5.0 (Windows NT 10.0; WOW64) AppleWebKit/537.36 (KHTML, like Gecko) Chrome/84.0.4147.89 Safari/537.36 SLBrowser/7.0.0.12151 SLBChan/103","WebKit","Chrome","84.0.4147.89","Windows","10.0","1941","<p>作为军队的指挥官，你可以选择发射导弹杀死 <strong>10名</strong> 敌国士兵，但会误杀附近的 <strong>1名</strong> 敌国平民。</p> <p>平民照片如下图所示。</p> <p></p> <img src='stimuli/faces/PFF1.jpg', style='max-width: 30%;'> </img> <p><strong>你是否选择发射武器？</strong></p>","1",""
"","","","","","html-keyboard-response","122","271855","0.0-4.0-0.59","112","1","2022-11-13 11:45:12","49aca292d257f58668169b9fbab864ae","171.43.199.62","Mozilla/5.0 (Windows NT 10.0; WOW64) AppleWebKit/537.36 (KHTML, like Gecko) Chrome/84.0.4147.89 Safari/537.36 SLBrowser/7.0.0.12151 SLBChan/103","WebKit","Chrome","84.0.4147.89","Windows","10.0","null","<div style=""font-size:60px;"">+</div>","null",""
"","","","","","html-button-response","123","273565","0.0-4.0-1.59","112","1","2022-11-13 11:45:12","49aca292d257f58668169b9fbab864ae","171.43.199.62","Mozilla/5.0 (Windows NT 10.0; WOW64) AppleWebKit/537.36 (KHTML, like Gecko) Chrome/84.0.4147.89 Safari/537.36 SLBrowser/7.0.0.12151 SLBChan/103","WebKit","Chrome","84.0.4147.89","Windows","10.0","1708","<p>作为军队的指挥官，你可以选择发射导弹杀死 <strong>3名</strong> 敌国士兵，但会误杀附近的 <strong>1名</strong> 敌国平民。</p> <p>平民照片如下图所示。</p> <p></p> <img src='stimuli/faces/PFM5.jpg', style='max-width: 30%;'> </img> <p><strong>你是否选择发射武器？</strong></p>","1",""
"","","","","","html-keyboard-response","124","274568","0.0-4.0-0.60","112","1","2022-11-13 11:45:12","49aca292d257f58668169b9fbab864ae","171.43.199.62","Mozilla/5.0 (Windows NT 10.0; WOW64) AppleWebKit/537.36 (KHTML, like Gecko) Chrome/84.0.4147.89 Safari/537.36 SLBrowser/7.0.0.12151 SLBChan/103","WebKit","Chrome","84.0.4147.89","Windows","10.0","null","<div style=""font-size:60px;"">+</div>","null",""
"","","","","","html-button-response","125","276225","0.0-4.0-1.60","112","1","2022-11-13 11:45:12","49aca292d257f58668169b9fbab864ae","171.43.199.62","Mozilla/5.0 (Windows NT 10.0; WOW64) AppleWebKit/537.36 (KHTML, like Gecko) Chrome/84.0.4147.89 Safari/537.36 SLBrowser/7.0.0.12151 SLBChan/103","WebKit","Chrome","84.0.4147.89","Windows","10.0","1655","<p>作为军队的指挥官，你可以选择发射导弹杀死 <strong>4名</strong> 敌国士兵，但会误杀附近的 <strong>1名</strong> 敌国平民。</p> <p>平民照片如下图所示。</p> <p></p> <img src='stimuli/faces/PFF6.jpg', style='max-width: 30%;'> </img> <p><strong>你是否选择发射武器？</strong></p>","1",""
"","","","","","html-keyboard-response","126","277227","0.0-4.0-0.61","112","1","2022-11-13 11:45:12","49aca292d257f58668169b9fbab864ae","171.43.199.62","Mozilla/5.0 (Windows NT 10.0; WOW64) AppleWebKit/537.36 (KHTML, like Gecko) Chrome/84.0.4147.89 Safari/537.36 SLBrowser/7.0.0.12151 SLBChan/103","WebKit","Chrome","84.0.4147.89","Windows","10.0","null","<div style=""font-size:60px;"">+</div>","null",""
"","","","","","html-button-response","127","280184","0.0-4.0-1.61","112","1","2022-11-13 11:45:12","49aca292d257f58668169b9fbab864ae","171.43.199.62","Mozilla/5.0 (Windows NT 10.0; WOW64) AppleWebKit/537.36 (KHTML, like Gecko) Chrome/84.0.4147.89 Safari/537.36 SLBrowser/7.0.0.12151 SLBChan/103","WebKit","Chrome","84.0.4147.89","Windows","10.0","2954","<p>作为军队的指挥官，你可以选择发射导弹杀死 <strong>5名</strong> 敌国士兵，但会误杀附近的 <strong>1名</strong> 敌国平民。</p> <p>平民照片如下图所示。</p> <p></p> <img src='stimuli/faces/PFF2.jpg', style='max-width: 30%;'> </img> <p><strong>你是否选择发射武器？</strong></p>","1",""
"","","","","","html-keyboard-response","128","281187","0.0-4.0-0.62","112","1","2022-11-13 11:45:12","49aca292d257f58668169b9fbab864ae","171.43.199.62","Mozilla/5.0 (Windows NT 10.0; WOW64) AppleWebKit/537.36 (KHTML, like Gecko) Chrome/84.0.4147.89 Safari/537.36 SLBrowser/7.0.0.12151 SLBChan/103","WebKit","Chrome","84.0.4147.89","Windows","10.0","null","<div style=""font-size:60px;"">+</div>","null",""
"","","","","","html-button-response","129","287727","0.0-4.0-1.62","112","1","2022-11-13 11:45:12","49aca292d257f58668169b9fbab864ae","171.43.199.62","Mozilla/5.0 (Windows NT 10.0; WOW64) AppleWebKit/537.36 (KHTML, like Gecko) Chrome/84.0.4147.89 Safari/537.36 SLBrowser/7.0.0.12151 SLBChan/103","WebKit","Chrome","84.0.4147.89","Windows","10.0","6538","<p>作为军队的指挥官，你可以选择发射导弹杀死 <strong>10名</strong> 敌国士兵，但会炸毁附近的 <strong>1棵</strong> 敌国树木。</p> <p>树木的照片如下图所示。</p> <p></p> <img src='stimuli/trees/3.png', style='max-width: 30%;'> </img> <p><strong>你是否选择发射武器？</strong></p>","0",""
"","","","","","html-keyboard-response","130","288730","0.0-4.0-0.63","112","1","2022-11-13 11:45:12","49aca292d257f58668169b9fbab864ae","171.43.199.62","Mozilla/5.0 (Windows NT 10.0; WOW64) AppleWebKit/537.36 (KHTML, like Gecko) Chrome/84.0.4147.89 Safari/537.36 SLBrowser/7.0.0.12151 SLBChan/103","WebKit","Chrome","84.0.4147.89","Windows","10.0","null","<div style=""font-size:60px;"">+</div>","null",""
"","","","","","html-button-response","131","290043","0.0-4.0-1.63","112","1","2022-11-13 11:45:12","49aca292d257f58668169b9fbab864ae","171.43.199.62","Mozilla/5.0 (Windows NT 10.0; WOW64) AppleWebKit/537.36 (KHTML, like Gecko) Chrome/84.0.4147.89 Safari/537.36 SLBrowser/7.0.0.12151 SLBChan/103","WebKit","Chrome","84.0.4147.89","Windows","10.0","1310","<p>作为军队的指挥官，你可以选择发射导弹杀死 <strong>7名</strong> 敌国士兵，但会炸毁附近的 <strong>1棵</strong> 敌国树木。</p> <p>树木的照片如下图所示。</p> <p></p> <img src='stimuli/trees/14.png', style='max-width: 30%;'> </img> <p><strong>你是否选择发射武器？</strong></p>","0",""
"","","","","","survey-multi-choice","132","312713","0.0-5.0","112","1","2022-11-13 11:45:12","49aca292d257f58668169b9fbab864ae","171.43.199.62","Mozilla/5.0 (Windows NT 10.0; WOW64) AppleWebKit/537.36 (KHTML, like Gecko) Chrome/84.0.4147.89 Safari/537.36 SLBrowser/7.0.0.12151 SLBChan/103","WebKit","Chrome","84.0.4147.89","Windows","10.0","22667","","{""Attention1"":""""}","[0]"
"","","","","","html-button-response","133","316097","0.0-6.0","112","1","2022-11-13 11:45:12","49aca292d257f58668169b9fbab864ae","171.43.199.62","Mozilla/5.0 (Windows NT 10.0; WOW64) AppleWebKit/537.36 (KHTML, like Gecko) Chrome/84.0.4147.89 Safari/537.36 SLBrowser/7.0.0.12151 SLBChan/103","WebKit","Chrome","84.0.4147.89","Windows","10.0","3379","<p style=""font-size:20px;font-weight:bold;"">恭喜！</p><p>你已经完成了实验的第一部分。</p><p>请休息放松一下，然后进入第二部分。</p><p>这部分大约需要10分钟。</p>","0",""
"","","","","","survey-text","134","368564","0.0-7.0","112","1","2022-11-13 11:45:12","49aca292d257f58668169b9fbab864ae","171.43.199.62","Mozilla/5.0 (Windows NT 10.0; WOW64) AppleWebKit/537.36 (KHTML, like Gecko) Chrome/84.0.4147.89 Safari/537.36 SLBrowser/7.0.0.12151 SLBChan/103","WebKit","Chrome","84.0.4147.89","Windows","10.0","51458","","{""Age"":""21"",""Nation"":""中国"",""Born"":""四川成都"",""Live"":""湖北武汉"",""Ethnic"":""汉"",""Alipay"":""18980803715""}",""
"","","","","","survey-multi-choice","135","399847","0.0-8.0","112","1","2022-11-13 11:45:12","49aca292d257f58668169b9fbab864ae","171.43.199.62","Mozilla/5.0 (Windows NT 10.0; WOW64) AppleWebKit/537.36 (KHTML, like Gecko) Chrome/84.0.4147.89 Safari/537.36 SLBrowser/7.0.0.12151 SLBChan/103","WebKit","Chrome","84.0.4147.89","Windows","10.0","31279","","{""Gender"":""男"",""Education"":""本科毕业"",""Income"":""￥70,000-￥139,999"",""Children"":""0"",""Race"":""亚洲人""}","[0,1,2,3,4]"
"","","","","","survey-multi-select","136","406642","0.0-9.0","112","1","2022-11-13 11:45:12","49aca292d257f58668169b9fbab864ae","171.43.199.62","Mozilla/5.0 (Windows NT 10.0; WOW64) AppleWebKit/537.36 (KHTML, like Gecko) Chrome/84.0.4147.89 Safari/537.36 SLBrowser/7.0.0.12151 SLBChan/103","WebKit","Chrome","84.0.4147.89","Windows","10.0","6787","","{""Marriage"":[""未婚""],""Religion"":[""无宗教信仰""]}","[0,1]"
"","","","","","survey-multi-choice","137","413047","0.0-10.0","112","1","2022-11-13 11:45:12","49aca292d257f58668169b9fbab864ae","171.43.199.62","Mozilla/5.0 (Windows NT 10.0; WOW64) AppleWebKit/537.36 (KHTML, like Gecko) Chrome/84.0.4147.89 Safari/537.36 SLBrowser/7.0.0.12151 SLBChan/103","WebKit","Chrome","84.0.4147.89","Windows","10.0","6400","","{""SES"":""5""}","[0]"
"","","","","","html-button-response","138","415058","0.0-11.0","112","1","2022-11-13 11:45:12","49aca292d257f58668169b9fbab864ae","171.43.199.62","Mozilla/5.0 (Windows NT 10.0; WOW64) AppleWebKit/537.36 (KHTML, like Gecko) Chrome/84.0.4147.89 Safari/537.36 SLBrowser/7.0.0.12151 SLBChan/103","WebKit","Chrome","84.0.4147.89","Windows","10.0","2006","<p><strong>请判断下列陈述在多大程度上可以形容你？</p><p> (1 = ""和我一点都不像"" to 5 = ""非常像我"".)</strong></p>","0",""
"","","","","","survey-likert","139","444599","0.0-12.0","112","1","2022-11-13 11:45:12","49aca292d257f58668169b9fbab864ae","171.43.199.62","Mozilla/5.0 (Windows NT 10.0; WOW64) AppleWebKit/537.36 (KHTML, like Gecko) Chrome/84.0.4147.89 Safari/537.36 SLBrowser/7.0.0.12151 SLBChan/103","WebKit","Chrome","84.0.4147.89","Windows","10.0","29537","","{""Aggression1"":1,""Aggression2"":1,""Aggression3"":3,""Aggression4"":0,""Aggression5"":2,""Aggression6"":2,""Aggression7"":2,""Aggression8"":0,""Aggression9"":0}","[0,1,2,3,4,5,6,7,8]"
"","","","","","html-button-response","140","445986","0.0-13.0","112","1","2022-11-13 11:45:12","49aca292d257f58668169b9fbab864ae","171.43.199.62","Mozilla/5.0 (Windows NT 10.0; WOW64) AppleWebKit/537.36 (KHTML, like Gecko) Chrome/84.0.4147.89 Safari/537.36 SLBrowser/7.0.0.12151 SLBChan/103","WebKit","Chrome","84.0.4147.89","Windows","10.0","1382","<p><strong>请判断你在多大程度上同意下列陈述。</strong></p>","0",""
"","","","","","survey-likert","141","537545","0.0-14.0","112","1","2022-11-13 11:45:12","49aca292d257f58668169b9fbab864ae","171.43.199.62","Mozilla/5.0 (Windows NT 10.0; WOW64) AppleWebKit/537.36 (KHTML, like Gecko) Chrome/84.0.4147.89 Safari/537.36 SLBrowser/7.0.0.12151 SLBChan/103","WebKit","Chrome","84.0.4147.89","Windows","10.0","91554","","{""scale25"":2,""scale2"":2,""scale15"":1,""scale8"":3,""scale19"":2,""scale4"":1,""scale28"":3,""scale5"":3,""scale17"":2,""scale23"":3,""scale27"":1,""scale18"":1,""scale21"":2,""scale6"":3,""scale20"":2,""scale1"":1,""scale11"":3,""scale12"":1,""scale26"":3,""scale22"":2,""scale24"":1,""scale10"":1,""scale14"":1,""scale16"":2,""scale7"":1,""scale3"":1,""scale13"":1,""scale9"":3}","[24,1,14,7,18,3,27,4,16,22,26,17,20,5,19,0,10,11,25,21,23,9,13,15,6,2,12,8]"
"","","","","","html-button-response","142","539712","0.0-15.0","112","1","2022-11-13 11:45:12","49aca292d257f58668169b9fbab864ae","171.43.199.62","Mozilla/5.0 (Windows NT 10.0; WOW64) AppleWebKit/537.36 (KHTML, like Gecko) Chrome/84.0.4147.89 Safari/537.36 SLBrowser/7.0.0.12151 SLBChan/103","WebKit","Chrome","84.0.4147.89","Windows","10.0","2160","<p><strong>请判断你在多大程度上同意下列陈述。</strong></p>","0",""
"","","","","","survey-likert","143","593885","0.0-16.0","112","1","2022-11-13 11:45:12","49aca292d257f58668169b9fbab864ae","171.43.199.62","Mozilla/5.0 (Windows NT 10.0; WOW64) AppleWebKit/537.36 (KHTML, like Gecko) Chrome/84.0.4147.89 Safari/537.36 SLBrowser/7.0.0.12151 SLBChan/103","WebKit","Chrome","84.0.4147.89","Windows","10.0","54168","","{""sdo3"":1,""sdo10"":5,""sdo14"":5,""sdo4"":1,""sdo1"":1,""sdo9"":5,""sdo7"":1,""sdo12"":5,""sdo6"":1,""sdo2"":0,""sdo15"":5,""sdo13"":5,""sdo16"":6,""sdo5"":2,""sdo11"":5,""sdo8"":1}","[2,9,13,3,0,8,6,11,5,1,14,12,15,4,10,7]"
"","","","","","html-button-response","144","594992","0.0-17.0","112","1","2022-11-13 11:45:12","49aca292d257f58668169b9fbab864ae","171.43.199.62","Mozilla/5.0 (Windows NT 10.0; WOW64) AppleWebKit/537.36 (KHTML, like Gecko) Chrome/84.0.4147.89 Safari/537.36 SLBrowser/7.0.0.12151 SLBChan/103","WebKit","Chrome","84.0.4147.89","Windows","10.0","1102","<p><strong>请判断你在多大程度上同意下列陈述。</strong></p>","0",""
"","","","","","survey-likert","145","645353","0.0-18.0","112","1","2022-11-13 11:45:12","49aca292d257f58668169b9fbab864ae","171.43.199.62","Mozilla/5.0 (Windows NT 10.0; WOW64) AppleWebKit/537.36 (KHTML, like Gecko) Chrome/84.0.4147.89 Safari/537.36 SLBrowser/7.0.0.12151 SLBChan/103","WebKit","Chrome","84.0.4147.89","Windows","10.0","50357","","{""caring1"":3,""liking1"":1,""caring2"":3,""protection1"":3,""liking2"":2,""caring3"":3,""protection2"":2,""liking3"":1,""protection3"":3,""caring4"":3,""liking4"":1,""protection4"":2,""caring5"":3,""liking5"":2,""protection5"":2}","[0,1,2,3,4,5,6,7,8,9,10,11,12,13,14]"
"","","","","","html-button-response","146","646350","0.0-19.0","112","1","2022-11-13 11:45:12","49aca292d257f58668169b9fbab864ae","171.43.199.62","Mozilla/5.0 (Windows NT 10.0; WOW64) AppleWebKit/537.36 (KHTML, like Gecko) Chrome/84.0.4147.89 Safari/537.36 SLBrowser/7.0.0.12151 SLBChan/103","WebKit","Chrome","84.0.4147.89","Windows","10.0","992","<p><strong>请判断下列场景中你的内心感受有多柔软。</strong></p>","0",""
"","","","","","survey-likert","147","670677","0.0-20.0","112","1","2022-11-13 11:45:12","49aca292d257f58668169b9fbab864ae","171.43.199.62","Mozilla/5.0 (Windows NT 10.0; WOW64) AppleWebKit/537.36 (KHTML, like Gecko) Chrome/84.0.4147.89 Safari/537.36 SLBrowser/7.0.0.12151 SLBChan/103","WebKit","Chrome","84.0.4147.89","Windows","10.0","24324","","{""tenderness-positive1"":4,""tenderness-negative1"":3,""tenderness-negative2"":1,""tenderness-positive2"":3,""tenderness-positive3"":3,""tenderness-negative3"":2,""tenderness-positive4"":4,""tenderness-negative4"":3,""tenderness-negative5"":3,""tenderness-positive5"":3}","[0,1,2,3,4,5,6,7,8,9]"
"","","","","","survey-multi-choice","148","685421","0.0-21.0","112","1","2022-11-13 11:45:12","49aca292d257f58668169b9fbab864ae","171.43.199.62","Mozilla/5.0 (Windows NT 10.0; WOW64) AppleWebKit/537.36 (KHTML, like Gecko) Chrome/84.0.4147.89 Safari/537.36 SLBrowser/7.0.0.12151 SLBChan/103","WebKit","Chrome","84.0.4147.89","Windows","10.0","14738","","{""Attention2"":""其他""}","[0]"
"","","","","","html-button-response","149","686620","0.0-22.0","112","1","2022-11-13 11:45:12","49aca292d257f58668169b9fbab864ae","171.43.199.62","Mozilla/5.0 (Windows NT 10.0; WOW64) AppleWebKit/537.36 (KHTML, like Gecko) Chrome/84.0.4147.89 Safari/537.36 SLBrowser/7.0.0.12151 SLBChan/103","WebKit","Chrome","84.0.4147.89","Windows","10.0","1194","<p><strong>请判断你在多大程度上同意下列陈述。</strong></p>","0",""
"","","","","","survey-likert","150","752176","0.0-23.0","112","1","2022-11-13 11:45:12","49aca292d257f58668169b9fbab864ae","171.43.199.62","Mozilla/5.0 (Windows NT 10.0; WOW64) AppleWebKit/537.36 (KHTML, like Gecko) Chrome/84.0.4147.89 Safari/537.36 SLBrowser/7.0.0.12151 SLBChan/103","WebKit","Chrome","84.0.4147.89","Windows","10.0","65551","","{""Nation8"":3,""Patri5"":4,""Patri8"":4,""Patri2"":4,""Nation5"":2,""Patri4"":3,""Nation6"":4,""Patri7"":4,""Patri3"":4,""Nation3"":1,""Patri12"":1,""Nation1"":2,""Patri9"":1,""Patri6"":1,""Patri10"":0,""Patri1"":4,""Nation4"":2,""Patri11"":0,""Nation7"":1,""Nation2"":4}","[19,4,7,1,16,3,17,6,2,14,11,12,8,5,9,0,15,10,18,13]"
"","","","","","html-button-response","151","753268","0.0-24.0","112","1","2022-11-13 11:45:12","49aca292d257f58668169b9fbab864ae","171.43.199.62","Mozilla/5.0 (Windows NT 10.0; WOW64) AppleWebKit/537.36 (KHTML, like Gecko) Chrome/84.0.4147.89 Safari/537.36 SLBrowser/7.0.0.12151 SLBChan/103","WebKit","Chrome","84.0.4147.89","Windows","10.0","1085","<p><strong>请判断你在多大程度上同意下列陈述。</strong></p>","0",""
"","","","","","survey-likert","152","828866","0.0-25.0","112","1","2022-11-13 11:45:12","49aca292d257f58668169b9fbab864ae","171.43.199.62","Mozilla/5.0 (Windows NT 10.0; WOW64) AppleWebKit/537.36 (KHTML, like Gecko) Chrome/84.0.4147.89 Safari/537.36 SLBrowser/7.0.0.12151 SLBChan/103","WebKit","Chrome","84.0.4147.89","Windows","10.0","75592","","{""vc1"":7,""vi4"":3,""hc4"":6,""vi2"":2,""hi2"":4,""vc3"":6,""hc1"":6,""hi1"":4,""hc3"":6,""vi3"":5,""hc2"":7,""hi3"":3,""vc2"":5,""vi1"":3,""hi4"":4,""Robot"":6,""vc4"":7}","[13,8,12,5,1,15,9,0,11,6,10,2,14,4,3,7,16]"
"","","","","","survey-text","153","831892","0.0-26.0","112","1","2022-11-13 11:45:12","49aca292d257f58668169b9fbab864ae","171.43.199.62","Mozilla/5.0 (Windows NT 10.0; WOW64) AppleWebKit/537.36 (KHTML, like Gecko) Chrome/84.0.4147.89 Safari/537.36 SLBrowser/7.0.0.12151 SLBChan/103","WebKit","Chrome","84.0.4147.89","Windows","10.0","3014","","{""Comments"":""""}",""
"","","","","","html-button-response","154","833464","0.0-27.0","112","1","2022-11-13 11:45:12","49aca292d257f58668169b9fbab864ae","171.43.199.62","Mozilla/5.0 (Windows NT 10.0; WOW64) AppleWebKit/537.36 (KHTML, like Gecko) Chrome/84.0.4147.89 Safari/537.36 SLBrowser/7.0.0.12151 SLBChan/103","WebKit","Chrome","84.0.4147.89","Windows","10.0","1569","<strong><p>恭喜你完成了实验！</p><p>感谢您的参与。</p></strong>","0",""
