"success","timeout","failed_images","failed_audio","failed_video","trial_type","trial_index","time_elapsed","internal_node_id","run_id","condition","recorded_at","source_code_version","ip","user_agent","device","browser","browser_version","platform","platform_version","rt","stimulus","response","question_order"
"true","false","[]","[]","[]","preload","0","1308","0.0-0.0","131","1","2022-11-13 13:35:34","49aca292d257f58668169b9fbab864ae","111.33.204.187","Mozilla/5.0 (Windows NT 10.0; Win64; x64) AppleWebKit/537.36 (KHTML, like Gecko) Chrome/92.0.4515.105 Safari/537.36","WebKit","Chrome","92.0.4515.105","Windows","10.0","","","",""
"true","","","","","fullscreen","1","7707","0.0-1.0","131","1","2022-11-13 13:35:34","49aca292d257f58668169b9fbab864ae","111.33.204.187","Mozilla/5.0 (Windows NT 10.0; Win64; x64) AppleWebKit/537.36 (KHTML, like Gecko) Chrome/92.0.4515.105 Safari/537.36","WebKit","Chrome","92.0.4515.105","Windows","10.0","","","",""
"","","","","","html-button-response","2","31651","0.0-2.0","131","1","2022-11-13 13:35:34","49aca292d257f58668169b9fbab864ae","111.33.204.187","Mozilla/5.0 (Windows NT 10.0; Win64; x64) AppleWebKit/537.36 (KHTML, like Gecko) Chrome/92.0.4515.105 Safari/537.36","WebKit","Chrome","92.0.4515.105","Windows","10.0","23942","<p style=""font-size:20px;font-weight:bold;"">实验知情同意书</p><p style=""text-align:left;""><strong>实验名称：</strong>社会冲突研究</p><p style=""text-align:left;""><strong>主要研究者：</strong>韩晓春副教授（北京师范大学心理学部）</p><p style=""text-align:left;""><strong>联系方式：</strong>发送邮件至xiaochun.han@bnu.edu.cn</p><p style=""text-align:left;""><strong>研究目的：</strong>研究旨在了解人类面对群体冲突时的决策方式，以及相关的心理学特质。实验调查大约需要20分钟。</p><p style=""text-align:left;""><strong>实验流程：</strong>实验包含两部分。第一部分呈现一系列群体冲突场景，请你决定如何对这些冲突进行反应，大约需要10分钟完成。第二部分包含一系列人口统计学信息收集和心理学问卷，大约需要10分钟完成。</p><p style=""text-align:left;""><strong>参加及退出规则：</strong>参加本实验完全取决于您的个人意愿。在参与过程中，您可以随时退出，并且不用承担任何后果。</p><p style=""text-align:left;""><strong>隐私：</strong>本实验完全匿名进行，不会收集您的姓名或其他能够识别您身份的信息。实验中收集的作答仅用作科学研究使用，可能会在学术期刊/书籍上发表，或者用于教学，您的数据未来可能会和其他研究者或实验室分享，但您的个人身份不会被识别。</p><p style=""text-align:left;""><strong>实验报酬：</strong>实验完成后，您将获得15元人民币报酬，以感谢您的时间和努力。调查问卷中包含几道题目用以测验您作答时的认真度。只有完成全部实验，并且正确回答认真度测验的被试才能获得实验报酬。实验报酬将通过支付宝转账发放。</p><p style=""text-align:left;font-size:20px;""><strong>如果您同意以上实验知情同意书的内容，请点击'同意并且开始实验'按钮；否则请关闭浏览器界面，退出实验。</strong></p>","0",""
"","","","","","html-button-response","3","38629","0.0-3.0","131","1","2022-11-13 13:35:34","49aca292d257f58668169b9fbab864ae","111.33.204.187","Mozilla/5.0 (Windows NT 10.0; Win64; x64) AppleWebKit/537.36 (KHTML, like Gecko) Chrome/92.0.4515.105 Safari/537.36","WebKit","Chrome","92.0.4515.105","Windows","10.0","6974","<p ><strong>实验任务一：</strong></p><p>请想象你的国家与另一个国家发生了军事冲突。</p><p>你是国家军队的指挥官，你将如何在冲突中进行决策。</p><p>具体来说，作为军队指挥官，请你决定是否发射导弹进行打击。</p><p>接下来，你会面对一系列场景，请仔细阅读每个场景，然后进行决策。</p><p>这部分实验任务大约需要10分钟。</p><p><strong>实验过程中，请集中注意力。</strong></p>","0",""
"","","","","","html-keyboard-response","4","39631","0.0-4.0-0.0","131","1","2022-11-13 13:35:34","49aca292d257f58668169b9fbab864ae","111.33.204.187","Mozilla/5.0 (Windows NT 10.0; Win64; x64) AppleWebKit/537.36 (KHTML, like Gecko) Chrome/92.0.4515.105 Safari/537.36","WebKit","Chrome","92.0.4515.105","Windows","10.0","null","<div style=""font-size:60px;"">+</div>","null",""
"","","","","","html-button-response","5","1061845","0.0-4.0-1.0","131","1","2022-11-13 13:35:34","49aca292d257f58668169b9fbab864ae","111.33.204.187","Mozilla/5.0 (Windows NT 10.0; Win64; x64) AppleWebKit/537.36 (KHTML, like Gecko) Chrome/92.0.4515.105 Safari/537.36","WebKit","Chrome","92.0.4515.105","Windows","10.0","277196","<p>作为军队的指挥官，你可以选择发射导弹杀死 <strong>8名</strong> 敌国士兵，但会误杀附近的 <strong>1名</strong> 敌国平民。</p> <p>平民照片如下图所示。</p> <p></p> <img src='stimuli/faces/PFM1.jpg', style='max-width: 30%;'> </img> <p><strong>你是否选择发射武器？</strong></p>","0",""
"","","","","","html-keyboard-response","6","1062848","0.0-4.0-0.1","131","1","2022-11-13 13:35:34","49aca292d257f58668169b9fbab864ae","111.33.204.187","Mozilla/5.0 (Windows NT 10.0; Win64; x64) AppleWebKit/537.36 (KHTML, like Gecko) Chrome/92.0.4515.105 Safari/537.36","WebKit","Chrome","92.0.4515.105","Windows","10.0","null","<div style=""font-size:60px;"">+</div>","null",""
"","","","","","html-button-response","7","1065873","0.0-4.0-1.1","131","1","2022-11-13 13:35:34","49aca292d257f58668169b9fbab864ae","111.33.204.187","Mozilla/5.0 (Windows NT 10.0; Win64; x64) AppleWebKit/537.36 (KHTML, like Gecko) Chrome/92.0.4515.105 Safari/537.36","WebKit","Chrome","92.0.4515.105","Windows","10.0","3022","<p>作为军队的指挥官，你可以选择发射导弹杀死 <strong>4名</strong> 敌国士兵，但会误杀附近的 <strong>1名</strong> 敌国平民。</p> <p>平民照片如下图所示。</p> <p></p> <img src='stimuli/faces/PFF6.jpg', style='max-width: 30%;'> </img> <p><strong>你是否选择发射武器？</strong></p>","0",""
"","","","","","html-keyboard-response","8","1066875","0.0-4.0-0.2","131","1","2022-11-13 13:35:34","49aca292d257f58668169b9fbab864ae","111.33.204.187","Mozilla/5.0 (Windows NT 10.0; Win64; x64) AppleWebKit/537.36 (KHTML, like Gecko) Chrome/92.0.4515.105 Safari/537.36","WebKit","Chrome","92.0.4515.105","Windows","10.0","null","<div style=""font-size:60px;"">+</div>","null",""
"","","","","","html-button-response","9","1088416","0.0-4.0-1.2","131","1","2022-11-13 13:35:34","49aca292d257f58668169b9fbab864ae","111.33.204.187","Mozilla/5.0 (Windows NT 10.0; Win64; x64) AppleWebKit/537.36 (KHTML, like Gecko) Chrome/92.0.4515.105 Safari/537.36","WebKit","Chrome","92.0.4515.105","Windows","10.0","21538","<p>作为军队的指挥官，你可以选择发射导弹杀死 <strong>1名</strong> 敌国士兵，但会炸毁附近的 <strong>1棵</strong> 敌国树木。</p> <p>树木的照片如下图所示。</p> <p></p> <img src='stimuli/trees/13.png', style='max-width: 30%;'> </img> <p><strong>你是否选择发射武器？</strong></p>","1",""
"","","","","","html-keyboard-response","10","1089419","0.0-4.0-0.3","131","1","2022-11-13 13:35:34","49aca292d257f58668169b9fbab864ae","111.33.204.187","Mozilla/5.0 (Windows NT 10.0; Win64; x64) AppleWebKit/537.36 (KHTML, like Gecko) Chrome/92.0.4515.105 Safari/537.36","WebKit","Chrome","92.0.4515.105","Windows","10.0","null","<div style=""font-size:60px;"">+</div>","null",""
"","","","","","html-button-response","11","1095320","0.0-4.0-1.3","131","1","2022-11-13 13:35:34","49aca292d257f58668169b9fbab864ae","111.33.204.187","Mozilla/5.0 (Windows NT 10.0; Win64; x64) AppleWebKit/537.36 (KHTML, like Gecko) Chrome/92.0.4515.105 Safari/537.36","WebKit","Chrome","92.0.4515.105","Windows","10.0","5899","<p>作为军队的指挥官，你可以选择发射导弹杀死 <strong>3名</strong> 敌国士兵，但会炸毁附近的 <strong>1棵</strong> 敌国树木。</p> <p>树木的照片如下图所示。</p> <p></p> <img src='stimuli/trees/5.png', style='max-width: 30%;'> </img> <p><strong>你是否选择发射武器？</strong></p>","0",""
"","","","","","html-keyboard-response","12","1096332","0.0-4.0-0.4","131","1","2022-11-13 13:35:34","49aca292d257f58668169b9fbab864ae","111.33.204.187","Mozilla/5.0 (Windows NT 10.0; Win64; x64) AppleWebKit/537.36 (KHTML, like Gecko) Chrome/92.0.4515.105 Safari/537.36","WebKit","Chrome","92.0.4515.105","Windows","10.0","null","<div style=""font-size:60px;"">+</div>","null",""
"","","","","","html-button-response","13","1099315","0.0-4.0-1.4","131","1","2022-11-13 13:35:34","49aca292d257f58668169b9fbab864ae","111.33.204.187","Mozilla/5.0 (Windows NT 10.0; Win64; x64) AppleWebKit/537.36 (KHTML, like Gecko) Chrome/92.0.4515.105 Safari/537.36","WebKit","Chrome","92.0.4515.105","Windows","10.0","2979","<p>作为军队的指挥官，你可以选择发射导弹杀死 <strong>6名</strong> 敌国士兵，但会误杀附近的 <strong>1名</strong> 敌国平民。</p> <p>平民照片如下图所示。</p> <p></p> <img src='stimuli/faces/PFF1.jpg', style='max-width: 30%;'> </img> <p><strong>你是否选择发射武器？</strong></p>","0",""
"","","","","","html-keyboard-response","14","1100317","0.0-4.0-0.5","131","1","2022-11-13 13:35:34","49aca292d257f58668169b9fbab864ae","111.33.204.187","Mozilla/5.0 (Windows NT 10.0; Win64; x64) AppleWebKit/537.36 (KHTML, like Gecko) Chrome/92.0.4515.105 Safari/537.36","WebKit","Chrome","92.0.4515.105","Windows","10.0","null","<div style=""font-size:60px;"">+</div>","null",""
"","","","","","html-button-response","15","1102415","0.0-4.0-1.5","131","1","2022-11-13 13:35:34","49aca292d257f58668169b9fbab864ae","111.33.204.187","Mozilla/5.0 (Windows NT 10.0; Win64; x64) AppleWebKit/537.36 (KHTML, like Gecko) Chrome/92.0.4515.105 Safari/537.36","WebKit","Chrome","92.0.4515.105","Windows","10.0","2095","<p>作为军队的指挥官，你可以选择发射导弹杀死 <strong>7名</strong> 敌国士兵，但会误杀附近的 <strong>1名</strong> 敌国平民。</p> <p>平民照片如下图所示。</p> <p></p> <img src='stimuli/faces/PFF5.jpg', style='max-width: 30%;'> </img> <p><strong>你是否选择发射武器？</strong></p>","0",""
"","","","","","html-keyboard-response","16","1103417","0.0-4.0-0.6","131","1","2022-11-13 13:35:34","49aca292d257f58668169b9fbab864ae","111.33.204.187","Mozilla/5.0 (Windows NT 10.0; Win64; x64) AppleWebKit/537.36 (KHTML, like Gecko) Chrome/92.0.4515.105 Safari/537.36","WebKit","Chrome","92.0.4515.105","Windows","10.0","null","<div style=""font-size:60px;"">+</div>","null",""
"","","","","","html-button-response","17","1109745","0.0-4.0-1.6","131","1","2022-11-13 13:35:34","49aca292d257f58668169b9fbab864ae","111.33.204.187","Mozilla/5.0 (Windows NT 10.0; Win64; x64) AppleWebKit/537.36 (KHTML, like Gecko) Chrome/92.0.4515.105 Safari/537.36","WebKit","Chrome","92.0.4515.105","Windows","10.0","6325","<p>作为军队的指挥官，你可以选择发射导弹杀死 <strong>6名</strong> 敌国士兵，但会炸毁附近的 <strong>1棵</strong> 敌国树木。</p> <p>树木的照片如下图所示。</p> <p></p> <img src='stimuli/trees/4.png', style='max-width: 30%;'> </img> <p><strong>你是否选择发射武器？</strong></p>","0",""
"","","","","","html-keyboard-response","18","1110747","0.0-4.0-0.7","131","1","2022-11-13 13:35:34","49aca292d257f58668169b9fbab864ae","111.33.204.187","Mozilla/5.0 (Windows NT 10.0; Win64; x64) AppleWebKit/537.36 (KHTML, like Gecko) Chrome/92.0.4515.105 Safari/537.36","WebKit","Chrome","92.0.4515.105","Windows","10.0","null","<div style=""font-size:60px;"">+</div>","null",""
"","","","","","html-button-response","19","1112741","0.0-4.0-1.7","131","1","2022-11-13 13:35:34","49aca292d257f58668169b9fbab864ae","111.33.204.187","Mozilla/5.0 (Windows NT 10.0; Win64; x64) AppleWebKit/537.36 (KHTML, like Gecko) Chrome/92.0.4515.105 Safari/537.36","WebKit","Chrome","92.0.4515.105","Windows","10.0","1991","<p>作为军队的指挥官，你可以选择发射导弹杀死 <strong>10名</strong> 敌国士兵，但会误杀附近的 <strong>1名</strong> 敌国平民。</p> <p>平民照片如下图所示。</p> <p></p> <img src='stimuli/faces/PFF3.jpg', style='max-width: 30%;'> </img> <p><strong>你是否选择发射武器？</strong></p>","0",""
"","","","","","html-keyboard-response","20","1113743","0.0-4.0-0.8","131","1","2022-11-13 13:35:34","49aca292d257f58668169b9fbab864ae","111.33.204.187","Mozilla/5.0 (Windows NT 10.0; Win64; x64) AppleWebKit/537.36 (KHTML, like Gecko) Chrome/92.0.4515.105 Safari/537.36","WebKit","Chrome","92.0.4515.105","Windows","10.0","null","<div style=""font-size:60px;"">+</div>","null",""
"","","","","","html-button-response","21","1115600","0.0-4.0-1.8","131","1","2022-11-13 13:35:34","49aca292d257f58668169b9fbab864ae","111.33.204.187","Mozilla/5.0 (Windows NT 10.0; Win64; x64) AppleWebKit/537.36 (KHTML, like Gecko) Chrome/92.0.4515.105 Safari/537.36","WebKit","Chrome","92.0.4515.105","Windows","10.0","1854","<p>作为军队的指挥官，你可以选择发射导弹杀死 <strong>6名</strong> 敌国士兵，但会误杀附近的 <strong>1名</strong> 敌国平民。</p> <p>平民照片如下图所示。</p> <p></p> <img src='stimuli/faces/PFM8.jpg', style='max-width: 30%;'> </img> <p><strong>你是否选择发射武器？</strong></p>","0",""
"","","","","","html-keyboard-response","22","1116603","0.0-4.0-0.9","131","1","2022-11-13 13:35:34","49aca292d257f58668169b9fbab864ae","111.33.204.187","Mozilla/5.0 (Windows NT 10.0; Win64; x64) AppleWebKit/537.36 (KHTML, like Gecko) Chrome/92.0.4515.105 Safari/537.36","WebKit","Chrome","92.0.4515.105","Windows","10.0","null","<div style=""font-size:60px;"">+</div>","null",""
"","","","","","html-button-response","23","1158532","0.0-4.0-1.9","131","1","2022-11-13 13:35:34","49aca292d257f58668169b9fbab864ae","111.33.204.187","Mozilla/5.0 (Windows NT 10.0; Win64; x64) AppleWebKit/537.36 (KHTML, like Gecko) Chrome/92.0.4515.105 Safari/537.36","WebKit","Chrome","92.0.4515.105","Windows","10.0","41925","<p>作为军队的指挥官，你可以选择发射导弹杀死 <strong>7名</strong> 敌国士兵，但会误杀附近的 <strong>1名</strong> 敌国平民。</p> <p>平民照片如下图所示。</p> <p></p> <img src='stimuli/faces/PFM2.jpg', style='max-width: 30%;'> </img> <p><strong>你是否选择发射武器？</strong></p>","0",""
"","","","","","html-keyboard-response","24","1159534","0.0-4.0-0.10","131","1","2022-11-13 13:35:34","49aca292d257f58668169b9fbab864ae","111.33.204.187","Mozilla/5.0 (Windows NT 10.0; Win64; x64) AppleWebKit/537.36 (KHTML, like Gecko) Chrome/92.0.4515.105 Safari/537.36","WebKit","Chrome","92.0.4515.105","Windows","10.0","null","<div style=""font-size:60px;"">+</div>","null",""
"","","","","","html-button-response","25","1162532","0.0-4.0-1.10","131","1","2022-11-13 13:35:34","49aca292d257f58668169b9fbab864ae","111.33.204.187","Mozilla/5.0 (Windows NT 10.0; Win64; x64) AppleWebKit/537.36 (KHTML, like Gecko) Chrome/92.0.4515.105 Safari/537.36","WebKit","Chrome","92.0.4515.105","Windows","10.0","2995","<p>作为军队的指挥官，你可以选择发射导弹杀死 <strong>6名</strong> 敌国士兵，但会误杀附近的 <strong>1名</strong> 敌国平民。</p> <p>平民照片如下图所示。</p> <p></p> <img src='stimuli/faces/PFF4.jpg', style='max-width: 30%;'> </img> <p><strong>你是否选择发射武器？</strong></p>","0",""
"","","","","","html-keyboard-response","26","1163535","0.0-4.0-0.11","131","1","2022-11-13 13:35:34","49aca292d257f58668169b9fbab864ae","111.33.204.187","Mozilla/5.0 (Windows NT 10.0; Win64; x64) AppleWebKit/537.36 (KHTML, like Gecko) Chrome/92.0.4515.105 Safari/537.36","WebKit","Chrome","92.0.4515.105","Windows","10.0","null","<div style=""font-size:60px;"">+</div>","null",""
"","","","","","html-button-response","27","1170512","0.0-4.0-1.11","131","1","2022-11-13 13:35:34","49aca292d257f58668169b9fbab864ae","111.33.204.187","Mozilla/5.0 (Windows NT 10.0; Win64; x64) AppleWebKit/537.36 (KHTML, like Gecko) Chrome/92.0.4515.105 Safari/537.36","WebKit","Chrome","92.0.4515.105","Windows","10.0","6975","<p>作为军队的指挥官，你可以选择发射导弹杀死 <strong>3名</strong> 敌国士兵，但会误杀附近的 <strong>1名</strong> 敌国平民。</p> <p>平民照片如下图所示。</p> <p></p> <img src='stimuli/faces/PFM7.jpg', style='max-width: 30%;'> </img> <p><strong>你是否选择发射武器？</strong></p>","1",""
"","","","","","html-keyboard-response","28","1171515","0.0-4.0-0.12","131","1","2022-11-13 13:35:34","49aca292d257f58668169b9fbab864ae","111.33.204.187","Mozilla/5.0 (Windows NT 10.0; Win64; x64) AppleWebKit/537.36 (KHTML, like Gecko) Chrome/92.0.4515.105 Safari/537.36","WebKit","Chrome","92.0.4515.105","Windows","10.0","null","<div style=""font-size:60px;"">+</div>","null",""
"","","","","","html-button-response","29","1173900","0.0-4.0-1.12","131","1","2022-11-13 13:35:34","49aca292d257f58668169b9fbab864ae","111.33.204.187","Mozilla/5.0 (Windows NT 10.0; Win64; x64) AppleWebKit/537.36 (KHTML, like Gecko) Chrome/92.0.4515.105 Safari/537.36","WebKit","Chrome","92.0.4515.105","Windows","10.0","2382","<p>作为军队的指挥官，你可以选择发射导弹杀死 <strong>3名</strong> 敌国士兵，但会炸毁附近的 <strong>1棵</strong> 敌国树木。</p> <p>树木的照片如下图所示。</p> <p></p> <img src='stimuli/trees/8.png', style='max-width: 30%;'> </img> <p><strong>你是否选择发射武器？</strong></p>","0",""
"","","","","","html-keyboard-response","30","1174902","0.0-4.0-0.13","131","1","2022-11-13 13:35:34","49aca292d257f58668169b9fbab864ae","111.33.204.187","Mozilla/5.0 (Windows NT 10.0; Win64; x64) AppleWebKit/537.36 (KHTML, like Gecko) Chrome/92.0.4515.105 Safari/537.36","WebKit","Chrome","92.0.4515.105","Windows","10.0","null","<div style=""font-size:60px;"">+</div>","null",""
"","","","","","html-button-response","31","1176493","0.0-4.0-1.13","131","1","2022-11-13 13:35:34","49aca292d257f58668169b9fbab864ae","111.33.204.187","Mozilla/5.0 (Windows NT 10.0; Win64; x64) AppleWebKit/537.36 (KHTML, like Gecko) Chrome/92.0.4515.105 Safari/537.36","WebKit","Chrome","92.0.4515.105","Windows","10.0","1587","<p>作为军队的指挥官，你可以选择发射导弹杀死 <strong>3名</strong> 敌国士兵，但会炸毁附近的 <strong>1棵</strong> 敌国树木。</p> <p>树木的照片如下图所示。</p> <p></p> <img src='stimuli/trees/6.png', style='max-width: 30%;'> </img> <p><strong>你是否选择发射武器？</strong></p>","0",""
"","","","","","html-keyboard-response","32","1177495","0.0-4.0-0.14","131","1","2022-11-13 13:35:34","49aca292d257f58668169b9fbab864ae","111.33.204.187","Mozilla/5.0 (Windows NT 10.0; Win64; x64) AppleWebKit/537.36 (KHTML, like Gecko) Chrome/92.0.4515.105 Safari/537.36","WebKit","Chrome","92.0.4515.105","Windows","10.0","null","<div style=""font-size:60px;"">+</div>","null",""
"","","","","","html-button-response","33","1179170","0.0-4.0-1.14","131","1","2022-11-13 13:35:34","49aca292d257f58668169b9fbab864ae","111.33.204.187","Mozilla/5.0 (Windows NT 10.0; Win64; x64) AppleWebKit/537.36 (KHTML, like Gecko) Chrome/92.0.4515.105 Safari/537.36","WebKit","Chrome","92.0.4515.105","Windows","10.0","1672","<p>作为军队的指挥官，你可以选择发射导弹杀死 <strong>10名</strong> 敌国士兵，但会炸毁附近的 <strong>1棵</strong> 敌国树木。</p> <p>树木的照片如下图所示。</p> <p></p> <img src='stimuli/trees/16.png', style='max-width: 30%;'> </img> <p><strong>你是否选择发射武器？</strong></p>","0",""
"","","","","","html-keyboard-response","34","1180173","0.0-4.0-0.15","131","1","2022-11-13 13:35:34","49aca292d257f58668169b9fbab864ae","111.33.204.187","Mozilla/5.0 (Windows NT 10.0; Win64; x64) AppleWebKit/537.36 (KHTML, like Gecko) Chrome/92.0.4515.105 Safari/537.36","WebKit","Chrome","92.0.4515.105","Windows","10.0","null","<div style=""font-size:60px;"">+</div>","null",""
"","","","","","html-button-response","35","1181444","0.0-4.0-1.15","131","1","2022-11-13 13:35:34","49aca292d257f58668169b9fbab864ae","111.33.204.187","Mozilla/5.0 (Windows NT 10.0; Win64; x64) AppleWebKit/537.36 (KHTML, like Gecko) Chrome/92.0.4515.105 Safari/537.36","WebKit","Chrome","92.0.4515.105","Windows","10.0","1268","<p>作为军队的指挥官，你可以选择发射导弹杀死 <strong>9名</strong> 敌国士兵，但会炸毁附近的 <strong>1棵</strong> 敌国树木。</p> <p>树木的照片如下图所示。</p> <p></p> <img src='stimuli/trees/2.png', style='max-width: 30%;'> </img> <p><strong>你是否选择发射武器？</strong></p>","0",""
"","","","","","html-keyboard-response","36","1182446","0.0-4.0-0.16","131","1","2022-11-13 13:35:34","49aca292d257f58668169b9fbab864ae","111.33.204.187","Mozilla/5.0 (Windows NT 10.0; Win64; x64) AppleWebKit/537.36 (KHTML, like Gecko) Chrome/92.0.4515.105 Safari/537.36","WebKit","Chrome","92.0.4515.105","Windows","10.0","null","<div style=""font-size:60px;"">+</div>","null",""
"","","","","","html-button-response","37","1184869","0.0-4.0-1.16","131","1","2022-11-13 13:35:34","49aca292d257f58668169b9fbab864ae","111.33.204.187","Mozilla/5.0 (Windows NT 10.0; Win64; x64) AppleWebKit/537.36 (KHTML, like Gecko) Chrome/92.0.4515.105 Safari/537.36","WebKit","Chrome","92.0.4515.105","Windows","10.0","2419","<p>作为军队的指挥官，你可以选择发射导弹杀死 <strong>9名</strong> 敌国士兵，但会误杀附近的 <strong>1名</strong> 敌国平民。</p> <p>平民照片如下图所示。</p> <p></p> <img src='stimuli/faces/PFF2.jpg', style='max-width: 30%;'> </img> <p><strong>你是否选择发射武器？</strong></p>","0",""
"","","","","","html-keyboard-response","38","1185872","0.0-4.0-0.17","131","1","2022-11-13 13:35:34","49aca292d257f58668169b9fbab864ae","111.33.204.187","Mozilla/5.0 (Windows NT 10.0; Win64; x64) AppleWebKit/537.36 (KHTML, like Gecko) Chrome/92.0.4515.105 Safari/537.36","WebKit","Chrome","92.0.4515.105","Windows","10.0","null","<div style=""font-size:60px;"">+</div>","null",""
"","","","","","html-button-response","39","1187954","0.0-4.0-1.17","131","1","2022-11-13 13:35:34","49aca292d257f58668169b9fbab864ae","111.33.204.187","Mozilla/5.0 (Windows NT 10.0; Win64; x64) AppleWebKit/537.36 (KHTML, like Gecko) Chrome/92.0.4515.105 Safari/537.36","WebKit","Chrome","92.0.4515.105","Windows","10.0","2079","<p>作为军队的指挥官，你可以选择发射导弹杀死 <strong>9名</strong> 敌国士兵，但会炸毁附近的 <strong>1棵</strong> 敌国树木。</p> <p>树木的照片如下图所示。</p> <p></p> <img src='stimuli/trees/9.png', style='max-width: 30%;'> </img> <p><strong>你是否选择发射武器？</strong></p>","0",""
"","","","","","html-keyboard-response","40","1188957","0.0-4.0-0.18","131","1","2022-11-13 13:35:34","49aca292d257f58668169b9fbab864ae","111.33.204.187","Mozilla/5.0 (Windows NT 10.0; Win64; x64) AppleWebKit/537.36 (KHTML, like Gecko) Chrome/92.0.4515.105 Safari/537.36","WebKit","Chrome","92.0.4515.105","Windows","10.0","null","<div style=""font-size:60px;"">+</div>","null",""
"","","","","","html-button-response","41","1193552","0.0-4.0-1.18","131","1","2022-11-13 13:35:34","49aca292d257f58668169b9fbab864ae","111.33.204.187","Mozilla/5.0 (Windows NT 10.0; Win64; x64) AppleWebKit/537.36 (KHTML, like Gecko) Chrome/92.0.4515.105 Safari/537.36","WebKit","Chrome","92.0.4515.105","Windows","10.0","4592","<p>作为军队的指挥官，你可以选择发射导弹杀死 <strong>1名</strong> 敌国士兵，但会误杀附近的 <strong>1名</strong> 敌国平民。</p> <p>平民照片如下图所示。</p> <p></p> <img src='stimuli/faces/PFM4.jpg', style='max-width: 30%;'> </img> <p><strong>你是否选择发射武器？</strong></p>","1",""
"","","","","","html-keyboard-response","42","1194556","0.0-4.0-0.19","131","1","2022-11-13 13:35:34","49aca292d257f58668169b9fbab864ae","111.33.204.187","Mozilla/5.0 (Windows NT 10.0; Win64; x64) AppleWebKit/537.36 (KHTML, like Gecko) Chrome/92.0.4515.105 Safari/537.36","WebKit","Chrome","92.0.4515.105","Windows","10.0","null","<div style=""font-size:60px;"">+</div>","null",""
"","","","","","html-button-response","43","1197528","0.0-4.0-1.19","131","1","2022-11-13 13:35:34","49aca292d257f58668169b9fbab864ae","111.33.204.187","Mozilla/5.0 (Windows NT 10.0; Win64; x64) AppleWebKit/537.36 (KHTML, like Gecko) Chrome/92.0.4515.105 Safari/537.36","WebKit","Chrome","92.0.4515.105","Windows","10.0","2970","<p>作为军队的指挥官，你可以选择发射导弹杀死 <strong>7名</strong> 敌国士兵，但会误杀附近的 <strong>1名</strong> 敌国平民。</p> <p>平民照片如下图所示。</p> <p></p> <img src='stimuli/faces/PFM3.jpg', style='max-width: 30%;'> </img> <p><strong>你是否选择发射武器？</strong></p>","0",""
"","","","","","html-keyboard-response","44","1198532","0.0-4.0-0.20","131","1","2022-11-13 13:35:34","49aca292d257f58668169b9fbab864ae","111.33.204.187","Mozilla/5.0 (Windows NT 10.0; Win64; x64) AppleWebKit/537.36 (KHTML, like Gecko) Chrome/92.0.4515.105 Safari/537.36","WebKit","Chrome","92.0.4515.105","Windows","10.0","null","<div style=""font-size:60px;"">+</div>","null",""
"","","","","","html-button-response","45","1200672","0.0-4.0-1.20","131","1","2022-11-13 13:35:34","49aca292d257f58668169b9fbab864ae","111.33.204.187","Mozilla/5.0 (Windows NT 10.0; Win64; x64) AppleWebKit/537.36 (KHTML, like Gecko) Chrome/92.0.4515.105 Safari/537.36","WebKit","Chrome","92.0.4515.105","Windows","10.0","2136","<p>作为军队的指挥官，你可以选择发射导弹杀死 <strong>10名</strong> 敌国士兵，但会炸毁附近的 <strong>1棵</strong> 敌国树木。</p> <p>树木的照片如下图所示。</p> <p></p> <img src='stimuli/trees/13.png', style='max-width: 30%;'> </img> <p><strong>你是否选择发射武器？</strong></p>","0",""
"","","","","","html-keyboard-response","46","1201676","0.0-4.0-0.21","131","1","2022-11-13 13:35:34","49aca292d257f58668169b9fbab864ae","111.33.204.187","Mozilla/5.0 (Windows NT 10.0; Win64; x64) AppleWebKit/537.36 (KHTML, like Gecko) Chrome/92.0.4515.105 Safari/537.36","WebKit","Chrome","92.0.4515.105","Windows","10.0","null","<div style=""font-size:60px;"">+</div>","null",""
"","","","","","html-button-response","47","1203104","0.0-4.0-1.21","131","1","2022-11-13 13:35:34","49aca292d257f58668169b9fbab864ae","111.33.204.187","Mozilla/5.0 (Windows NT 10.0; Win64; x64) AppleWebKit/537.36 (KHTML, like Gecko) Chrome/92.0.4515.105 Safari/537.36","WebKit","Chrome","92.0.4515.105","Windows","10.0","1425","<p>作为军队的指挥官，你可以选择发射导弹杀死 <strong>9名</strong> 敌国士兵，但会炸毁附近的 <strong>1棵</strong> 敌国树木。</p> <p>树木的照片如下图所示。</p> <p></p> <img src='stimuli/trees/8.png', style='max-width: 30%;'> </img> <p><strong>你是否选择发射武器？</strong></p>","0",""
"","","","","","html-keyboard-response","48","1204108","0.0-4.0-0.22","131","1","2022-11-13 13:35:34","49aca292d257f58668169b9fbab864ae","111.33.204.187","Mozilla/5.0 (Windows NT 10.0; Win64; x64) AppleWebKit/537.36 (KHTML, like Gecko) Chrome/92.0.4515.105 Safari/537.36","WebKit","Chrome","92.0.4515.105","Windows","10.0","null","<div style=""font-size:60px;"">+</div>","null",""
"","","","","","html-button-response","49","1206349","0.0-4.0-1.22","131","1","2022-11-13 13:35:34","49aca292d257f58668169b9fbab864ae","111.33.204.187","Mozilla/5.0 (Windows NT 10.0; Win64; x64) AppleWebKit/537.36 (KHTML, like Gecko) Chrome/92.0.4515.105 Safari/537.36","WebKit","Chrome","92.0.4515.105","Windows","10.0","2238","<p>作为军队的指挥官，你可以选择发射导弹杀死 <strong>9名</strong> 敌国士兵，但会误杀附近的 <strong>1名</strong> 敌国平民。</p> <p>平民照片如下图所示。</p> <p></p> <img src='stimuli/faces/PFF7.jpg', style='max-width: 30%;'> </img> <p><strong>你是否选择发射武器？</strong></p>","0",""
"","","","","","html-keyboard-response","50","1207352","0.0-4.0-0.23","131","1","2022-11-13 13:35:34","49aca292d257f58668169b9fbab864ae","111.33.204.187","Mozilla/5.0 (Windows NT 10.0; Win64; x64) AppleWebKit/537.36 (KHTML, like Gecko) Chrome/92.0.4515.105 Safari/537.36","WebKit","Chrome","92.0.4515.105","Windows","10.0","null","<div style=""font-size:60px;"">+</div>","null",""
"","","","","","html-button-response","51","1211509","0.0-4.0-1.23","131","1","2022-11-13 13:35:34","49aca292d257f58668169b9fbab864ae","111.33.204.187","Mozilla/5.0 (Windows NT 10.0; Win64; x64) AppleWebKit/537.36 (KHTML, like Gecko) Chrome/92.0.4515.105 Safari/537.36","WebKit","Chrome","92.0.4515.105","Windows","10.0","4154","<p>作为军队的指挥官，你可以选择发射导弹杀死 <strong>4名</strong> 敌国士兵，但会炸毁附近的 <strong>1棵</strong> 敌国树木。</p> <p>树木的照片如下图所示。</p> <p></p> <img src='stimuli/trees/4.png', style='max-width: 30%;'> </img> <p><strong>你是否选择发射武器？</strong></p>","0",""
"","","","","","html-keyboard-response","52","1212512","0.0-4.0-0.24","131","1","2022-11-13 13:35:34","49aca292d257f58668169b9fbab864ae","111.33.204.187","Mozilla/5.0 (Windows NT 10.0; Win64; x64) AppleWebKit/537.36 (KHTML, like Gecko) Chrome/92.0.4515.105 Safari/537.36","WebKit","Chrome","92.0.4515.105","Windows","10.0","null","<div style=""font-size:60px;"">+</div>","null",""
"","","","","","html-button-response","53","1213708","0.0-4.0-1.24","131","1","2022-11-13 13:35:34","49aca292d257f58668169b9fbab864ae","111.33.204.187","Mozilla/5.0 (Windows NT 10.0; Win64; x64) AppleWebKit/537.36 (KHTML, like Gecko) Chrome/92.0.4515.105 Safari/537.36","WebKit","Chrome","92.0.4515.105","Windows","10.0","1191","<p>作为军队的指挥官，你可以选择发射导弹杀死 <strong>10名</strong> 敌国士兵，但会炸毁附近的 <strong>1棵</strong> 敌国树木。</p> <p>树木的照片如下图所示。</p> <p></p> <img src='stimuli/trees/5.png', style='max-width: 30%;'> </img> <p><strong>你是否选择发射武器？</strong></p>","0",""
"","","","","","html-keyboard-response","54","1214713","0.0-4.0-0.25","131","1","2022-11-13 13:35:34","49aca292d257f58668169b9fbab864ae","111.33.204.187","Mozilla/5.0 (Windows NT 10.0; Win64; x64) AppleWebKit/537.36 (KHTML, like Gecko) Chrome/92.0.4515.105 Safari/537.36","WebKit","Chrome","92.0.4515.105","Windows","10.0","null","<div style=""font-size:60px;"">+</div>","null",""
"","","","","","html-button-response","55","1216180","0.0-4.0-1.25","131","1","2022-11-13 13:35:34","49aca292d257f58668169b9fbab864ae","111.33.204.187","Mozilla/5.0 (Windows NT 10.0; Win64; x64) AppleWebKit/537.36 (KHTML, like Gecko) Chrome/92.0.4515.105 Safari/537.36","WebKit","Chrome","92.0.4515.105","Windows","10.0","1464","<p>作为军队的指挥官，你可以选择发射导弹杀死 <strong>6名</strong> 敌国士兵，但会炸毁附近的 <strong>1棵</strong> 敌国树木。</p> <p>树木的照片如下图所示。</p> <p></p> <img src='stimuli/trees/12.png', style='max-width: 30%;'> </img> <p><strong>你是否选择发射武器？</strong></p>","0",""
"","","","","","html-keyboard-response","56","1217183","0.0-4.0-0.26","131","1","2022-11-13 13:35:34","49aca292d257f58668169b9fbab864ae","111.33.204.187","Mozilla/5.0 (Windows NT 10.0; Win64; x64) AppleWebKit/537.36 (KHTML, like Gecko) Chrome/92.0.4515.105 Safari/537.36","WebKit","Chrome","92.0.4515.105","Windows","10.0","null","<div style=""font-size:60px;"">+</div>","null",""
"","","","","","html-button-response","57","1220739","0.0-4.0-1.26","131","1","2022-11-13 13:35:34","49aca292d257f58668169b9fbab864ae","111.33.204.187","Mozilla/5.0 (Windows NT 10.0; Win64; x64) AppleWebKit/537.36 (KHTML, like Gecko) Chrome/92.0.4515.105 Safari/537.36","WebKit","Chrome","92.0.4515.105","Windows","10.0","3551","<p>作为军队的指挥官，你可以选择发射导弹杀死 <strong>3名</strong> 敌国士兵，但会炸毁附近的 <strong>1棵</strong> 敌国树木。</p> <p>树木的照片如下图所示。</p> <p></p> <img src='stimuli/trees/1.png', style='max-width: 30%;'> </img> <p><strong>你是否选择发射武器？</strong></p>","0",""
"","","","","","html-keyboard-response","58","1221741","0.0-4.0-0.27","131","1","2022-11-13 13:35:34","49aca292d257f58668169b9fbab864ae","111.33.204.187","Mozilla/5.0 (Windows NT 10.0; Win64; x64) AppleWebKit/537.36 (KHTML, like Gecko) Chrome/92.0.4515.105 Safari/537.36","WebKit","Chrome","92.0.4515.105","Windows","10.0","null","<div style=""font-size:60px;"">+</div>","null",""
"","","","","","html-button-response","59","1224554","0.0-4.0-1.27","131","1","2022-11-13 13:35:34","49aca292d257f58668169b9fbab864ae","111.33.204.187","Mozilla/5.0 (Windows NT 10.0; Win64; x64) AppleWebKit/537.36 (KHTML, like Gecko) Chrome/92.0.4515.105 Safari/537.36","WebKit","Chrome","92.0.4515.105","Windows","10.0","2808","<p>作为军队的指挥官，你可以选择发射导弹杀死 <strong>2名</strong> 敌国士兵，但会炸毁附近的 <strong>1棵</strong> 敌国树木。</p> <p>树木的照片如下图所示。</p> <p></p> <img src='stimuli/trees/2.png', style='max-width: 30%;'> </img> <p><strong>你是否选择发射武器？</strong></p>","1",""
"","","","","","html-keyboard-response","60","1225557","0.0-4.0-0.28","131","1","2022-11-13 13:35:34","49aca292d257f58668169b9fbab864ae","111.33.204.187","Mozilla/5.0 (Windows NT 10.0; Win64; x64) AppleWebKit/537.36 (KHTML, like Gecko) Chrome/92.0.4515.105 Safari/537.36","WebKit","Chrome","92.0.4515.105","Windows","10.0","null","<div style=""font-size:60px;"">+</div>","null",""
"","","","","","html-button-response","61","1229533","0.0-4.0-1.28","131","1","2022-11-13 13:35:34","49aca292d257f58668169b9fbab864ae","111.33.204.187","Mozilla/5.0 (Windows NT 10.0; Win64; x64) AppleWebKit/537.36 (KHTML, like Gecko) Chrome/92.0.4515.105 Safari/537.36","WebKit","Chrome","92.0.4515.105","Windows","10.0","3972","<p>作为军队的指挥官，你可以选择发射导弹杀死 <strong>4名</strong> 敌国士兵，但会误杀附近的 <strong>1名</strong> 敌国平民。</p> <p>平民照片如下图所示。</p> <p></p> <img src='stimuli/faces/PFF7.jpg', style='max-width: 30%;'> </img> <p><strong>你是否选择发射武器？</strong></p>","1",""
"","","","","","html-keyboard-response","62","1230536","0.0-4.0-0.29","131","1","2022-11-13 13:35:34","49aca292d257f58668169b9fbab864ae","111.33.204.187","Mozilla/5.0 (Windows NT 10.0; Win64; x64) AppleWebKit/537.36 (KHTML, like Gecko) Chrome/92.0.4515.105 Safari/537.36","WebKit","Chrome","92.0.4515.105","Windows","10.0","null","<div style=""font-size:60px;"">+</div>","null",""
"","","","","","html-button-response","63","1234390","0.0-4.0-1.29","131","1","2022-11-13 13:35:34","49aca292d257f58668169b9fbab864ae","111.33.204.187","Mozilla/5.0 (Windows NT 10.0; Win64; x64) AppleWebKit/537.36 (KHTML, like Gecko) Chrome/92.0.4515.105 Safari/537.36","WebKit","Chrome","92.0.4515.105","Windows","10.0","3850","<p>作为军队的指挥官，你可以选择发射导弹杀死 <strong>5名</strong> 敌国士兵，但会炸毁附近的 <strong>1棵</strong> 敌国树木。</p> <p>树木的照片如下图所示。</p> <p></p> <img src='stimuli/trees/11.png', style='max-width: 30%;'> </img> <p><strong>你是否选择发射武器？</strong></p>","0",""
"","","","","","html-keyboard-response","64","1235392","0.0-4.0-0.30","131","1","2022-11-13 13:35:34","49aca292d257f58668169b9fbab864ae","111.33.204.187","Mozilla/5.0 (Windows NT 10.0; Win64; x64) AppleWebKit/537.36 (KHTML, like Gecko) Chrome/92.0.4515.105 Safari/537.36","WebKit","Chrome","92.0.4515.105","Windows","10.0","null","<div style=""font-size:60px;"">+</div>","null",""
"","","","","","html-button-response","65","1240042","0.0-4.0-1.30","131","1","2022-11-13 13:35:34","49aca292d257f58668169b9fbab864ae","111.33.204.187","Mozilla/5.0 (Windows NT 10.0; Win64; x64) AppleWebKit/537.36 (KHTML, like Gecko) Chrome/92.0.4515.105 Safari/537.36","WebKit","Chrome","92.0.4515.105","Windows","10.0","4644","<p>作为军队的指挥官，你可以选择发射导弹杀死 <strong>5名</strong> 敌国士兵，但会炸毁附近的 <strong>1棵</strong> 敌国树木。</p> <p>树木的照片如下图所示。</p> <p></p> <img src='stimuli/trees/9.png', style='max-width: 30%;'> </img> <p><strong>你是否选择发射武器？</strong></p>","0",""
"","","","","","html-keyboard-response","66","1241044","0.0-4.0-0.31","131","1","2022-11-13 13:35:34","49aca292d257f58668169b9fbab864ae","111.33.204.187","Mozilla/5.0 (Windows NT 10.0; Win64; x64) AppleWebKit/537.36 (KHTML, like Gecko) Chrome/92.0.4515.105 Safari/537.36","WebKit","Chrome","92.0.4515.105","Windows","10.0","null","<div style=""font-size:60px;"">+</div>","null",""
"","","","","","html-button-response","67","1248809","0.0-4.0-1.31","131","1","2022-11-13 13:35:34","49aca292d257f58668169b9fbab864ae","111.33.204.187","Mozilla/5.0 (Windows NT 10.0; Win64; x64) AppleWebKit/537.36 (KHTML, like Gecko) Chrome/92.0.4515.105 Safari/537.36","WebKit","Chrome","92.0.4515.105","Windows","10.0","7761","<p>作为军队的指挥官，你可以选择发射导弹杀死 <strong>2名</strong> 敌国士兵，但会炸毁附近的 <strong>1棵</strong> 敌国树木。</p> <p>树木的照片如下图所示。</p> <p></p> <img src='stimuli/trees/7.png', style='max-width: 30%;'> </img> <p><strong>你是否选择发射武器？</strong></p>","1",""
"","","","","","html-keyboard-response","68","1249812","0.0-4.0-0.32","131","1","2022-11-13 13:35:34","49aca292d257f58668169b9fbab864ae","111.33.204.187","Mozilla/5.0 (Windows NT 10.0; Win64; x64) AppleWebKit/537.36 (KHTML, like Gecko) Chrome/92.0.4515.105 Safari/537.36","WebKit","Chrome","92.0.4515.105","Windows","10.0","null","<div style=""font-size:60px;"">+</div>","null",""
"","","","","","html-button-response","69","1253201","0.0-4.0-1.32","131","1","2022-11-13 13:35:34","49aca292d257f58668169b9fbab864ae","111.33.204.187","Mozilla/5.0 (Windows NT 10.0; Win64; x64) AppleWebKit/537.36 (KHTML, like Gecko) Chrome/92.0.4515.105 Safari/537.36","WebKit","Chrome","92.0.4515.105","Windows","10.0","3385","<p>作为军队的指挥官，你可以选择发射导弹杀死 <strong>8名</strong> 敌国士兵，但会炸毁附近的 <strong>1棵</strong> 敌国树木。</p> <p>树木的照片如下图所示。</p> <p></p> <img src='stimuli/trees/15.png', style='max-width: 30%;'> </img> <p><strong>你是否选择发射武器？</strong></p>","0",""
"","","","","","html-keyboard-response","70","1254205","0.0-4.0-0.33","131","1","2022-11-13 13:35:34","49aca292d257f58668169b9fbab864ae","111.33.204.187","Mozilla/5.0 (Windows NT 10.0; Win64; x64) AppleWebKit/537.36 (KHTML, like Gecko) Chrome/92.0.4515.105 Safari/537.36","WebKit","Chrome","92.0.4515.105","Windows","10.0","null","<div style=""font-size:60px;"">+</div>","null",""
"","","","","","html-button-response","71","1265359","0.0-4.0-1.33","131","1","2022-11-13 13:35:34","49aca292d257f58668169b9fbab864ae","111.33.204.187","Mozilla/5.0 (Windows NT 10.0; Win64; x64) AppleWebKit/537.36 (KHTML, like Gecko) Chrome/92.0.4515.105 Safari/537.36","WebKit","Chrome","92.0.4515.105","Windows","10.0","11151","<p>作为军队的指挥官，你可以选择发射导弹杀死 <strong>4名</strong> 敌国士兵，但会误杀附近的 <strong>1名</strong> 敌国平民。</p> <p>平民照片如下图所示。</p> <p></p> <img src='stimuli/faces/PFM2.jpg', style='max-width: 30%;'> </img> <p><strong>你是否选择发射武器？</strong></p>","0",""
"","","","","","html-keyboard-response","72","1266362","0.0-4.0-0.34","131","1","2022-11-13 13:35:34","49aca292d257f58668169b9fbab864ae","111.33.204.187","Mozilla/5.0 (Windows NT 10.0; Win64; x64) AppleWebKit/537.36 (KHTML, like Gecko) Chrome/92.0.4515.105 Safari/537.36","WebKit","Chrome","92.0.4515.105","Windows","10.0","null","<div style=""font-size:60px;"">+</div>","null",""
"","","","","","html-button-response","73","1269018","0.0-4.0-1.34","131","1","2022-11-13 13:35:34","49aca292d257f58668169b9fbab864ae","111.33.204.187","Mozilla/5.0 (Windows NT 10.0; Win64; x64) AppleWebKit/537.36 (KHTML, like Gecko) Chrome/92.0.4515.105 Safari/537.36","WebKit","Chrome","92.0.4515.105","Windows","10.0","2652","<p>作为军队的指挥官，你可以选择发射导弹杀死 <strong>5名</strong> 敌国士兵，但会误杀附近的 <strong>1名</strong> 敌国平民。</p> <p>平民照片如下图所示。</p> <p></p> <img src='stimuli/faces/PFF5.jpg', style='max-width: 30%;'> </img> <p><strong>你是否选择发射武器？</strong></p>","0",""
"","","","","","html-keyboard-response","74","1270023","0.0-4.0-0.35","131","1","2022-11-13 13:35:34","49aca292d257f58668169b9fbab864ae","111.33.204.187","Mozilla/5.0 (Windows NT 10.0; Win64; x64) AppleWebKit/537.36 (KHTML, like Gecko) Chrome/92.0.4515.105 Safari/537.36","WebKit","Chrome","92.0.4515.105","Windows","10.0","null","<div style=""font-size:60px;"">+</div>","null",""
"","","","","","html-button-response","75","1283676","0.0-4.0-1.35","131","1","2022-11-13 13:35:34","49aca292d257f58668169b9fbab864ae","111.33.204.187","Mozilla/5.0 (Windows NT 10.0; Win64; x64) AppleWebKit/537.36 (KHTML, like Gecko) Chrome/92.0.4515.105 Safari/537.36","WebKit","Chrome","92.0.4515.105","Windows","10.0","13650","<p>作为军队的指挥官，你可以选择发射导弹杀死 <strong>2名</strong> 敌国士兵，但会炸毁附近的 <strong>1棵</strong> 敌国树木。</p> <p>树木的照片如下图所示。</p> <p></p> <img src='stimuli/trees/12.png', style='max-width: 30%;'> </img> <p><strong>你是否选择发射武器？</strong></p>","1",""
"","","","","","html-keyboard-response","76","1284679","0.0-4.0-0.36","131","1","2022-11-13 13:35:34","49aca292d257f58668169b9fbab864ae","111.33.204.187","Mozilla/5.0 (Windows NT 10.0; Win64; x64) AppleWebKit/537.36 (KHTML, like Gecko) Chrome/92.0.4515.105 Safari/537.36","WebKit","Chrome","92.0.4515.105","Windows","10.0","null","<div style=""font-size:60px;"">+</div>","null",""
"","","","","","html-button-response","77","1286702","0.0-4.0-1.36","131","1","2022-11-13 13:35:34","49aca292d257f58668169b9fbab864ae","111.33.204.187","Mozilla/5.0 (Windows NT 10.0; Win64; x64) AppleWebKit/537.36 (KHTML, like Gecko) Chrome/92.0.4515.105 Safari/537.36","WebKit","Chrome","92.0.4515.105","Windows","10.0","2020","<p>作为军队的指挥官，你可以选择发射导弹杀死 <strong>7名</strong> 敌国士兵，但会炸毁附近的 <strong>1棵</strong> 敌国树木。</p> <p>树木的照片如下图所示。</p> <p></p> <img src='stimuli/trees/11.png', style='max-width: 30%;'> </img> <p><strong>你是否选择发射武器？</strong></p>","0",""
"","","","","","html-keyboard-response","78","1287707","0.0-4.0-0.37","131","1","2022-11-13 13:35:34","49aca292d257f58668169b9fbab864ae","111.33.204.187","Mozilla/5.0 (Windows NT 10.0; Win64; x64) AppleWebKit/537.36 (KHTML, like Gecko) Chrome/92.0.4515.105 Safari/537.36","WebKit","Chrome","92.0.4515.105","Windows","10.0","null","<div style=""font-size:60px;"">+</div>","null",""
"","","","","","html-button-response","79","1289567","0.0-4.0-1.37","131","1","2022-11-13 13:35:34","49aca292d257f58668169b9fbab864ae","111.33.204.187","Mozilla/5.0 (Windows NT 10.0; Win64; x64) AppleWebKit/537.36 (KHTML, like Gecko) Chrome/92.0.4515.105 Safari/537.36","WebKit","Chrome","92.0.4515.105","Windows","10.0","1856","<p>作为军队的指挥官，你可以选择发射导弹杀死 <strong>8名</strong> 敌国士兵，但会炸毁附近的 <strong>1棵</strong> 敌国树木。</p> <p>树木的照片如下图所示。</p> <p></p> <img src='stimuli/trees/1.png', style='max-width: 30%;'> </img> <p><strong>你是否选择发射武器？</strong></p>","0",""
"","","","","","html-keyboard-response","80","1290571","0.0-4.0-0.38","131","1","2022-11-13 13:35:34","49aca292d257f58668169b9fbab864ae","111.33.204.187","Mozilla/5.0 (Windows NT 10.0; Win64; x64) AppleWebKit/537.36 (KHTML, like Gecko) Chrome/92.0.4515.105 Safari/537.36","WebKit","Chrome","92.0.4515.105","Windows","10.0","null","<div style=""font-size:60px;"">+</div>","null",""
"","","","","","html-button-response","81","1296470","0.0-4.0-1.38","131","1","2022-11-13 13:35:34","49aca292d257f58668169b9fbab864ae","111.33.204.187","Mozilla/5.0 (Windows NT 10.0; Win64; x64) AppleWebKit/537.36 (KHTML, like Gecko) Chrome/92.0.4515.105 Safari/537.36","WebKit","Chrome","92.0.4515.105","Windows","10.0","5895","<p>作为军队的指挥官，你可以选择发射导弹杀死 <strong>2名</strong> 敌国士兵，但会炸毁附近的 <strong>1棵</strong> 敌国树木。</p> <p>树木的照片如下图所示。</p> <p></p> <img src='stimuli/trees/16.png', style='max-width: 30%;'> </img> <p><strong>你是否选择发射武器？</strong></p>","1",""
"","","","","","html-keyboard-response","82","1297473","0.0-4.0-0.39","131","1","2022-11-13 13:35:34","49aca292d257f58668169b9fbab864ae","111.33.204.187","Mozilla/5.0 (Windows NT 10.0; Win64; x64) AppleWebKit/537.36 (KHTML, like Gecko) Chrome/92.0.4515.105 Safari/537.36","WebKit","Chrome","92.0.4515.105","Windows","10.0","null","<div style=""font-size:60px;"">+</div>","null",""
"","","","","","html-button-response","83","1298554","0.0-4.0-1.39","131","1","2022-11-13 13:35:34","49aca292d257f58668169b9fbab864ae","111.33.204.187","Mozilla/5.0 (Windows NT 10.0; Win64; x64) AppleWebKit/537.36 (KHTML, like Gecko) Chrome/92.0.4515.105 Safari/537.36","WebKit","Chrome","92.0.4515.105","Windows","10.0","1077","<p>作为军队的指挥官，你可以选择发射导弹杀死 <strong>6名</strong> 敌国士兵，但会误杀附近的 <strong>1名</strong> 敌国平民。</p> <p>平民照片如下图所示。</p> <p></p> <img src='stimuli/faces/PFM6.jpg', style='max-width: 30%;'> </img> <p><strong>你是否选择发射武器？</strong></p>","0",""
"","","","","","html-keyboard-response","84","1299558","0.0-4.0-0.40","131","1","2022-11-13 13:35:34","49aca292d257f58668169b9fbab864ae","111.33.204.187","Mozilla/5.0 (Windows NT 10.0; Win64; x64) AppleWebKit/537.36 (KHTML, like Gecko) Chrome/92.0.4515.105 Safari/537.36","WebKit","Chrome","92.0.4515.105","Windows","10.0","null","<div style=""font-size:60px;"">+</div>","null",""
"","","","","","html-button-response","85","1302247","0.0-4.0-1.40","131","1","2022-11-13 13:35:34","49aca292d257f58668169b9fbab864ae","111.33.204.187","Mozilla/5.0 (Windows NT 10.0; Win64; x64) AppleWebKit/537.36 (KHTML, like Gecko) Chrome/92.0.4515.105 Safari/537.36","WebKit","Chrome","92.0.4515.105","Windows","10.0","2685","<p>作为军队的指挥官，你可以选择发射导弹杀死 <strong>5名</strong> 敌国士兵，但会误杀附近的 <strong>1名</strong> 敌国平民。</p> <p>平民照片如下图所示。</p> <p></p> <img src='stimuli/faces/PFM5.jpg', style='max-width: 30%;'> </img> <p><strong>你是否选择发射武器？</strong></p>","0",""
"","","","","","html-keyboard-response","86","1303251","0.0-4.0-0.41","131","1","2022-11-13 13:35:34","49aca292d257f58668169b9fbab864ae","111.33.204.187","Mozilla/5.0 (Windows NT 10.0; Win64; x64) AppleWebKit/537.36 (KHTML, like Gecko) Chrome/92.0.4515.105 Safari/537.36","WebKit","Chrome","92.0.4515.105","Windows","10.0","null","<div style=""font-size:60px;"">+</div>","null",""
"","","","","","html-button-response","87","1304442","0.0-4.0-1.41","131","1","2022-11-13 13:35:34","49aca292d257f58668169b9fbab864ae","111.33.204.187","Mozilla/5.0 (Windows NT 10.0; Win64; x64) AppleWebKit/537.36 (KHTML, like Gecko) Chrome/92.0.4515.105 Safari/537.36","WebKit","Chrome","92.0.4515.105","Windows","10.0","1186","<p>作为军队的指挥官，你可以选择发射导弹杀死 <strong>10名</strong> 敌国士兵，但会炸毁附近的 <strong>1棵</strong> 敌国树木。</p> <p>树木的照片如下图所示。</p> <p></p> <img src='stimuli/trees/7.png', style='max-width: 30%;'> </img> <p><strong>你是否选择发射武器？</strong></p>","0",""
"","","","","","html-keyboard-response","88","1305445","0.0-4.0-0.42","131","1","2022-11-13 13:35:34","49aca292d257f58668169b9fbab864ae","111.33.204.187","Mozilla/5.0 (Windows NT 10.0; Win64; x64) AppleWebKit/537.36 (KHTML, like Gecko) Chrome/92.0.4515.105 Safari/537.36","WebKit","Chrome","92.0.4515.105","Windows","10.0","null","<div style=""font-size:60px;"">+</div>","null",""
"","","","","","html-button-response","89","1308369","0.0-4.0-1.42","131","1","2022-11-13 13:35:34","49aca292d257f58668169b9fbab864ae","111.33.204.187","Mozilla/5.0 (Windows NT 10.0; Win64; x64) AppleWebKit/537.36 (KHTML, like Gecko) Chrome/92.0.4515.105 Safari/537.36","WebKit","Chrome","92.0.4515.105","Windows","10.0","2919","<p>作为军队的指挥官，你可以选择发射导弹杀死 <strong>5名</strong> 敌国士兵，但会炸毁附近的 <strong>1棵</strong> 敌国树木。</p> <p>树木的照片如下图所示。</p> <p></p> <img src='stimuli/trees/3.png', style='max-width: 30%;'> </img> <p><strong>你是否选择发射武器？</strong></p>","0",""
"","","","","","html-keyboard-response","90","1309372","0.0-4.0-0.43","131","1","2022-11-13 13:35:34","49aca292d257f58668169b9fbab864ae","111.33.204.187","Mozilla/5.0 (Windows NT 10.0; Win64; x64) AppleWebKit/537.36 (KHTML, like Gecko) Chrome/92.0.4515.105 Safari/537.36","WebKit","Chrome","92.0.4515.105","Windows","10.0","null","<div style=""font-size:60px;"">+</div>","null",""
"","","","","","html-button-response","91","1310571","0.0-4.0-1.43","131","1","2022-11-13 13:35:34","49aca292d257f58668169b9fbab864ae","111.33.204.187","Mozilla/5.0 (Windows NT 10.0; Win64; x64) AppleWebKit/537.36 (KHTML, like Gecko) Chrome/92.0.4515.105 Safari/537.36","WebKit","Chrome","92.0.4515.105","Windows","10.0","1195","<p>作为军队的指挥官，你可以选择发射导弹杀死 <strong>9名</strong> 敌国士兵，但会误杀附近的 <strong>1名</strong> 敌国平民。</p> <p>平民照片如下图所示。</p> <p></p> <img src='stimuli/faces/PFM5.jpg', style='max-width: 30%;'> </img> <p><strong>你是否选择发射武器？</strong></p>","0",""
"","","","","","html-keyboard-response","92","1311575","0.0-4.0-0.44","131","1","2022-11-13 13:35:34","49aca292d257f58668169b9fbab864ae","111.33.204.187","Mozilla/5.0 (Windows NT 10.0; Win64; x64) AppleWebKit/537.36 (KHTML, like Gecko) Chrome/92.0.4515.105 Safari/537.36","WebKit","Chrome","92.0.4515.105","Windows","10.0","null","<div style=""font-size:60px;"">+</div>","null",""
"","","","","","html-button-response","93","1312684","0.0-4.0-1.44","131","1","2022-11-13 13:35:34","49aca292d257f58668169b9fbab864ae","111.33.204.187","Mozilla/5.0 (Windows NT 10.0; Win64; x64) AppleWebKit/537.36 (KHTML, like Gecko) Chrome/92.0.4515.105 Safari/537.36","WebKit","Chrome","92.0.4515.105","Windows","10.0","1104","<p>作为军队的指挥官，你可以选择发射导弹杀死 <strong>9名</strong> 敌国士兵，但会炸毁附近的 <strong>1棵</strong> 敌国树木。</p> <p>树木的照片如下图所示。</p> <p></p> <img src='stimuli/trees/3.png', style='max-width: 30%;'> </img> <p><strong>你是否选择发射武器？</strong></p>","0",""
"","","","","","html-keyboard-response","94","1313687","0.0-4.0-0.45","131","1","2022-11-13 13:35:34","49aca292d257f58668169b9fbab864ae","111.33.204.187","Mozilla/5.0 (Windows NT 10.0; Win64; x64) AppleWebKit/537.36 (KHTML, like Gecko) Chrome/92.0.4515.105 Safari/537.36","WebKit","Chrome","92.0.4515.105","Windows","10.0","null","<div style=""font-size:60px;"">+</div>","null",""
"","","","","","html-button-response","95","1319910","0.0-4.0-1.45","131","1","2022-11-13 13:35:34","49aca292d257f58668169b9fbab864ae","111.33.204.187","Mozilla/5.0 (Windows NT 10.0; Win64; x64) AppleWebKit/537.36 (KHTML, like Gecko) Chrome/92.0.4515.105 Safari/537.36","WebKit","Chrome","92.0.4515.105","Windows","10.0","6218","<p>作为军队的指挥官，你可以选择发射导弹杀死 <strong>6名</strong> 敌国士兵，但会误杀附近的 <strong>1名</strong> 敌国平民。</p> <p>平民照片如下图所示。</p> <p></p> <img src='stimuli/faces/PFF8.jpg', style='max-width: 30%;'> </img> <p><strong>你是否选择发射武器？</strong></p>","0",""
"","","","","","html-keyboard-response","96","1320914","0.0-4.0-0.46","131","1","2022-11-13 13:35:34","49aca292d257f58668169b9fbab864ae","111.33.204.187","Mozilla/5.0 (Windows NT 10.0; Win64; x64) AppleWebKit/537.36 (KHTML, like Gecko) Chrome/92.0.4515.105 Safari/537.36","WebKit","Chrome","92.0.4515.105","Windows","10.0","null","<div style=""font-size:60px;"">+</div>","null",""
"","","","","","html-button-response","97","1322076","0.0-4.0-1.46","131","1","2022-11-13 13:35:34","49aca292d257f58668169b9fbab864ae","111.33.204.187","Mozilla/5.0 (Windows NT 10.0; Win64; x64) AppleWebKit/537.36 (KHTML, like Gecko) Chrome/92.0.4515.105 Safari/537.36","WebKit","Chrome","92.0.4515.105","Windows","10.0","1157","<p>作为军队的指挥官，你可以选择发射导弹杀死 <strong>6名</strong> 敌国士兵，但会炸毁附近的 <strong>1棵</strong> 敌国树木。</p> <p>树木的照片如下图所示。</p> <p></p> <img src='stimuli/trees/14.png', style='max-width: 30%;'> </img> <p><strong>你是否选择发射武器？</strong></p>","0",""
"","","","","","html-keyboard-response","98","1323080","0.0-4.0-0.47","131","1","2022-11-13 13:35:34","49aca292d257f58668169b9fbab864ae","111.33.204.187","Mozilla/5.0 (Windows NT 10.0; Win64; x64) AppleWebKit/537.36 (KHTML, like Gecko) Chrome/92.0.4515.105 Safari/537.36","WebKit","Chrome","92.0.4515.105","Windows","10.0","null","<div style=""font-size:60px;"">+</div>","null",""
"","","","","","html-button-response","99","1362806","0.0-4.0-1.47","131","1","2022-11-13 13:35:34","49aca292d257f58668169b9fbab864ae","111.33.204.187","Mozilla/5.0 (Windows NT 10.0; Win64; x64) AppleWebKit/537.36 (KHTML, like Gecko) Chrome/92.0.4515.105 Safari/537.36","WebKit","Chrome","92.0.4515.105","Windows","10.0","39721","<p>作为军队的指挥官，你可以选择发射导弹杀死 <strong>3名</strong> 敌国士兵，但会误杀附近的 <strong>1名</strong> 敌国平民。</p> <p>平民照片如下图所示。</p> <p></p> <img src='stimuli/faces/PFF1.jpg', style='max-width: 30%;'> </img> <p><strong>你是否选择发射武器？</strong></p>","1",""
"","","","","","html-keyboard-response","100","1363809","0.0-4.0-0.48","131","1","2022-11-13 13:35:34","49aca292d257f58668169b9fbab864ae","111.33.204.187","Mozilla/5.0 (Windows NT 10.0; Win64; x64) AppleWebKit/537.36 (KHTML, like Gecko) Chrome/92.0.4515.105 Safari/537.36","WebKit","Chrome","92.0.4515.105","Windows","10.0","null","<div style=""font-size:60px;"">+</div>","null",""
"","","","","","html-button-response","101","1365727","0.0-4.0-1.48","131","1","2022-11-13 13:35:34","49aca292d257f58668169b9fbab864ae","111.33.204.187","Mozilla/5.0 (Windows NT 10.0; Win64; x64) AppleWebKit/537.36 (KHTML, like Gecko) Chrome/92.0.4515.105 Safari/537.36","WebKit","Chrome","92.0.4515.105","Windows","10.0","1914","<p>作为军队的指挥官，你可以选择发射导弹杀死 <strong>3名</strong> 敌国士兵，但会误杀附近的 <strong>1名</strong> 敌国平民。</p> <p>平民照片如下图所示。</p> <p></p> <img src='stimuli/faces/PFM3.jpg', style='max-width: 30%;'> </img> <p><strong>你是否选择发射武器？</strong></p>","1",""
"","","","","","html-keyboard-response","102","1366731","0.0-4.0-0.49","131","1","2022-11-13 13:35:34","49aca292d257f58668169b9fbab864ae","111.33.204.187","Mozilla/5.0 (Windows NT 10.0; Win64; x64) AppleWebKit/537.36 (KHTML, like Gecko) Chrome/92.0.4515.105 Safari/537.36","WebKit","Chrome","92.0.4515.105","Windows","10.0","null","<div style=""font-size:60px;"">+</div>","null",""
"","","","","","html-button-response","103","1368192","0.0-4.0-1.49","131","1","2022-11-13 13:35:34","49aca292d257f58668169b9fbab864ae","111.33.204.187","Mozilla/5.0 (Windows NT 10.0; Win64; x64) AppleWebKit/537.36 (KHTML, like Gecko) Chrome/92.0.4515.105 Safari/537.36","WebKit","Chrome","92.0.4515.105","Windows","10.0","1456","<p>作为军队的指挥官，你可以选择发射导弹杀死 <strong>5名</strong> 敌国士兵，但会炸毁附近的 <strong>1棵</strong> 敌国树木。</p> <p>树木的照片如下图所示。</p> <p></p> <img src='stimuli/trees/14.png', style='max-width: 30%;'> </img> <p><strong>你是否选择发射武器？</strong></p>","0",""
"","","","","","html-keyboard-response","104","1369196","0.0-4.0-0.50","131","1","2022-11-13 13:35:34","49aca292d257f58668169b9fbab864ae","111.33.204.187","Mozilla/5.0 (Windows NT 10.0; Win64; x64) AppleWebKit/537.36 (KHTML, like Gecko) Chrome/92.0.4515.105 Safari/537.36","WebKit","Chrome","92.0.4515.105","Windows","10.0","null","<div style=""font-size:60px;"">+</div>","null",""
"","","","","","html-button-response","105","1375602","0.0-4.0-1.50","131","1","2022-11-13 13:35:34","49aca292d257f58668169b9fbab864ae","111.33.204.187","Mozilla/5.0 (Windows NT 10.0; Win64; x64) AppleWebKit/537.36 (KHTML, like Gecko) Chrome/92.0.4515.105 Safari/537.36","WebKit","Chrome","92.0.4515.105","Windows","10.0","6401","<p>作为军队的指挥官，你可以选择发射导弹杀死 <strong>5名</strong> 敌国士兵，但会误杀附近的 <strong>1名</strong> 敌国平民。</p> <p>平民照片如下图所示。</p> <p></p> <img src='stimuli/faces/PFF4.jpg', style='max-width: 30%;'> </img> <p><strong>你是否选择发射武器？</strong></p>","0",""
"","","","","","html-keyboard-response","106","1376605","0.0-4.0-0.51","131","1","2022-11-13 13:35:34","49aca292d257f58668169b9fbab864ae","111.33.204.187","Mozilla/5.0 (Windows NT 10.0; Win64; x64) AppleWebKit/537.36 (KHTML, like Gecko) Chrome/92.0.4515.105 Safari/537.36","WebKit","Chrome","92.0.4515.105","Windows","10.0","null","<div style=""font-size:60px;"">+</div>","null",""
"","","","","","html-button-response","107","1379567","0.0-4.0-1.51","131","1","2022-11-13 13:35:34","49aca292d257f58668169b9fbab864ae","111.33.204.187","Mozilla/5.0 (Windows NT 10.0; Win64; x64) AppleWebKit/537.36 (KHTML, like Gecko) Chrome/92.0.4515.105 Safari/537.36","WebKit","Chrome","92.0.4515.105","Windows","10.0","2956","<p>作为军队的指挥官，你可以选择发射导弹杀死 <strong>7名</strong> 敌国士兵，但会炸毁附近的 <strong>1棵</strong> 敌国树木。</p> <p>树木的照片如下图所示。</p> <p></p> <img src='stimuli/trees/10.png', style='max-width: 30%;'> </img> <p><strong>你是否选择发射武器？</strong></p>","0",""
"","","","","","html-keyboard-response","108","1380570","0.0-4.0-0.52","131","1","2022-11-13 13:35:34","49aca292d257f58668169b9fbab864ae","111.33.204.187","Mozilla/5.0 (Windows NT 10.0; Win64; x64) AppleWebKit/537.36 (KHTML, like Gecko) Chrome/92.0.4515.105 Safari/537.36","WebKit","Chrome","92.0.4515.105","Windows","10.0","null","<div style=""font-size:60px;"">+</div>","null",""
"","","","","","html-button-response","109","1382234","0.0-4.0-1.52","131","1","2022-11-13 13:35:34","49aca292d257f58668169b9fbab864ae","111.33.204.187","Mozilla/5.0 (Windows NT 10.0; Win64; x64) AppleWebKit/537.36 (KHTML, like Gecko) Chrome/92.0.4515.105 Safari/537.36","WebKit","Chrome","92.0.4515.105","Windows","10.0","1660","<p>作为军队的指挥官，你可以选择发射导弹杀死 <strong>4名</strong> 敌国士兵，但会误杀附近的 <strong>1名</strong> 敌国平民。</p> <p>平民照片如下图所示。</p> <p></p> <img src='stimuli/faces/PFF2.jpg', style='max-width: 30%;'> </img> <p><strong>你是否选择发射武器？</strong></p>","0",""
"","","","","","html-keyboard-response","110","1383239","0.0-4.0-0.53","131","1","2022-11-13 13:35:34","49aca292d257f58668169b9fbab864ae","111.33.204.187","Mozilla/5.0 (Windows NT 10.0; Win64; x64) AppleWebKit/537.36 (KHTML, like Gecko) Chrome/92.0.4515.105 Safari/537.36","WebKit","Chrome","92.0.4515.105","Windows","10.0","null","<div style=""font-size:60px;"">+</div>","null",""
"","","","","","html-button-response","111","1385573","0.0-4.0-1.53","131","1","2022-11-13 13:35:34","49aca292d257f58668169b9fbab864ae","111.33.204.187","Mozilla/5.0 (Windows NT 10.0; Win64; x64) AppleWebKit/537.36 (KHTML, like Gecko) Chrome/92.0.4515.105 Safari/537.36","WebKit","Chrome","92.0.4515.105","Windows","10.0","2329","<p>作为军队的指挥官，你可以选择发射导弹杀死 <strong>9名</strong> 敌国士兵，但会误杀附近的 <strong>1名</strong> 敌国平民。</p> <p>平民照片如下图所示。</p> <p></p> <img src='stimuli/faces/PFM4.jpg', style='max-width: 30%;'> </img> <p><strong>你是否选择发射武器？</strong></p>","0",""
"","","","","","html-keyboard-response","112","1386576","0.0-4.0-0.54","131","1","2022-11-13 13:35:34","49aca292d257f58668169b9fbab864ae","111.33.204.187","Mozilla/5.0 (Windows NT 10.0; Win64; x64) AppleWebKit/537.36 (KHTML, like Gecko) Chrome/92.0.4515.105 Safari/537.36","WebKit","Chrome","92.0.4515.105","Windows","10.0","null","<div style=""font-size:60px;"">+</div>","null",""
"","","","","","html-button-response","113","1393245","0.0-4.0-1.54","131","1","2022-11-13 13:35:34","49aca292d257f58668169b9fbab864ae","111.33.204.187","Mozilla/5.0 (Windows NT 10.0; Win64; x64) AppleWebKit/537.36 (KHTML, like Gecko) Chrome/92.0.4515.105 Safari/537.36","WebKit","Chrome","92.0.4515.105","Windows","10.0","6664","<p>作为军队的指挥官，你可以选择发射导弹杀死 <strong>2名</strong> 敌国士兵，但会炸毁附近的 <strong>1棵</strong> 敌国树木。</p> <p>树木的照片如下图所示。</p> <p></p> <img src='stimuli/trees/10.png', style='max-width: 30%;'> </img> <p><strong>你是否选择发射武器？</strong></p>","1",""
"","","","","","html-keyboard-response","114","1394249","0.0-4.0-0.55","131","1","2022-11-13 13:35:34","49aca292d257f58668169b9fbab864ae","111.33.204.187","Mozilla/5.0 (Windows NT 10.0; Win64; x64) AppleWebKit/537.36 (KHTML, like Gecko) Chrome/92.0.4515.105 Safari/537.36","WebKit","Chrome","92.0.4515.105","Windows","10.0","null","<div style=""font-size:60px;"">+</div>","null",""
"","","","","","html-button-response","115","1396446","0.0-4.0-1.55","131","1","2022-11-13 13:35:34","49aca292d257f58668169b9fbab864ae","111.33.204.187","Mozilla/5.0 (Windows NT 10.0; Win64; x64) AppleWebKit/537.36 (KHTML, like Gecko) Chrome/92.0.4515.105 Safari/537.36","WebKit","Chrome","92.0.4515.105","Windows","10.0","2192","<p>作为军队的指挥官，你可以选择发射导弹杀死 <strong>4名</strong> 敌国士兵，但会误杀附近的 <strong>1名</strong> 敌国平民。</p> <p>平民照片如下图所示。</p> <p></p> <img src='stimuli/faces/PFF3.jpg', style='max-width: 30%;'> </img> <p><strong>你是否选择发射武器？</strong></p>","0",""
"","","","","","html-keyboard-response","116","1397451","0.0-4.0-0.56","131","1","2022-11-13 13:35:34","49aca292d257f58668169b9fbab864ae","111.33.204.187","Mozilla/5.0 (Windows NT 10.0; Win64; x64) AppleWebKit/537.36 (KHTML, like Gecko) Chrome/92.0.4515.105 Safari/537.36","WebKit","Chrome","92.0.4515.105","Windows","10.0","null","<div style=""font-size:60px;"">+</div>","null",""
"","","","","","html-button-response","117","1398944","0.0-4.0-1.56","131","1","2022-11-13 13:35:34","49aca292d257f58668169b9fbab864ae","111.33.204.187","Mozilla/5.0 (Windows NT 10.0; Win64; x64) AppleWebKit/537.36 (KHTML, like Gecko) Chrome/92.0.4515.105 Safari/537.36","WebKit","Chrome","92.0.4515.105","Windows","10.0","1489","<p>作为军队的指挥官，你可以选择发射导弹杀死 <strong>7名</strong> 敌国士兵，但会误杀附近的 <strong>1名</strong> 敌国平民。</p> <p>平民照片如下图所示。</p> <p></p> <img src='stimuli/faces/PFF6.jpg', style='max-width: 30%;'> </img> <p><strong>你是否选择发射武器？</strong></p>","0",""
"","","","","","html-keyboard-response","118","1399949","0.0-4.0-0.57","131","1","2022-11-13 13:35:34","49aca292d257f58668169b9fbab864ae","111.33.204.187","Mozilla/5.0 (Windows NT 10.0; Win64; x64) AppleWebKit/537.36 (KHTML, like Gecko) Chrome/92.0.4515.105 Safari/537.36","WebKit","Chrome","92.0.4515.105","Windows","10.0","null","<div style=""font-size:60px;"">+</div>","null",""
"","","","","","html-button-response","119","1402401","0.0-4.0-1.57","131","1","2022-11-13 13:35:34","49aca292d257f58668169b9fbab864ae","111.33.204.187","Mozilla/5.0 (Windows NT 10.0; Win64; x64) AppleWebKit/537.36 (KHTML, like Gecko) Chrome/92.0.4515.105 Safari/537.36","WebKit","Chrome","92.0.4515.105","Windows","10.0","2447","<p>作为军队的指挥官，你可以选择发射导弹杀死 <strong>2名</strong> 敌国士兵，但会误杀附近的 <strong>1名</strong> 敌国平民。</p> <p>平民照片如下图所示。</p> <p></p> <img src='stimuli/faces/PFM6.jpg', style='max-width: 30%;'> </img> <p><strong>你是否选择发射武器？</strong></p>","1",""
"","","","","","html-keyboard-response","120","1403405","0.0-4.0-0.58","131","1","2022-11-13 13:35:34","49aca292d257f58668169b9fbab864ae","111.33.204.187","Mozilla/5.0 (Windows NT 10.0; Win64; x64) AppleWebKit/537.36 (KHTML, like Gecko) Chrome/92.0.4515.105 Safari/537.36","WebKit","Chrome","92.0.4515.105","Windows","10.0","null","<div style=""font-size:60px;"">+</div>","null",""
"","","","","","html-button-response","121","1404518","0.0-4.0-1.58","131","1","2022-11-13 13:35:34","49aca292d257f58668169b9fbab864ae","111.33.204.187","Mozilla/5.0 (Windows NT 10.0; Win64; x64) AppleWebKit/537.36 (KHTML, like Gecko) Chrome/92.0.4515.105 Safari/537.36","WebKit","Chrome","92.0.4515.105","Windows","10.0","1108","<p>作为军队的指挥官，你可以选择发射导弹杀死 <strong>6名</strong> 敌国士兵，但会误杀附近的 <strong>1名</strong> 敌国平民。</p> <p>平民照片如下图所示。</p> <p></p> <img src='stimuli/faces/PFM7.jpg', style='max-width: 30%;'> </img> <p><strong>你是否选择发射武器？</strong></p>","0",""
"","","","","","html-keyboard-response","122","1405522","0.0-4.0-0.59","131","1","2022-11-13 13:35:34","49aca292d257f58668169b9fbab864ae","111.33.204.187","Mozilla/5.0 (Windows NT 10.0; Win64; x64) AppleWebKit/537.36 (KHTML, like Gecko) Chrome/92.0.4515.105 Safari/537.36","WebKit","Chrome","92.0.4515.105","Windows","10.0","null","<div style=""font-size:60px;"">+</div>","null",""
"","","","","","html-button-response","123","1406757","0.0-4.0-1.59","131","1","2022-11-13 13:35:34","49aca292d257f58668169b9fbab864ae","111.33.204.187","Mozilla/5.0 (Windows NT 10.0; Win64; x64) AppleWebKit/537.36 (KHTML, like Gecko) Chrome/92.0.4515.105 Safari/537.36","WebKit","Chrome","92.0.4515.105","Windows","10.0","1230","<p>作为军队的指挥官，你可以选择发射导弹杀死 <strong>7名</strong> 敌国士兵，但会炸毁附近的 <strong>1棵</strong> 敌国树木。</p> <p>树木的照片如下图所示。</p> <p></p> <img src='stimuli/trees/6.png', style='max-width: 30%;'> </img> <p><strong>你是否选择发射武器？</strong></p>","0",""
"","","","","","html-keyboard-response","124","1407761","0.0-4.0-0.60","131","1","2022-11-13 13:35:34","49aca292d257f58668169b9fbab864ae","111.33.204.187","Mozilla/5.0 (Windows NT 10.0; Win64; x64) AppleWebKit/537.36 (KHTML, like Gecko) Chrome/92.0.4515.105 Safari/537.36","WebKit","Chrome","92.0.4515.105","Windows","10.0","null","<div style=""font-size:60px;"">+</div>","null",""
"","","","","","html-button-response","125","1410042","0.0-4.0-1.60","131","1","2022-11-13 13:35:34","49aca292d257f58668169b9fbab864ae","111.33.204.187","Mozilla/5.0 (Windows NT 10.0; Win64; x64) AppleWebKit/537.36 (KHTML, like Gecko) Chrome/92.0.4515.105 Safari/537.36","WebKit","Chrome","92.0.4515.105","Windows","10.0","2276","<p>作为军队的指挥官，你可以选择发射导弹杀死 <strong>5名</strong> 敌国士兵，但会误杀附近的 <strong>1名</strong> 敌国平民。</p> <p>平民照片如下图所示。</p> <p></p> <img src='stimuli/faces/PFF8.jpg', style='max-width: 30%;'> </img> <p><strong>你是否选择发射武器？</strong></p>","0",""
"","","","","","html-keyboard-response","126","1411047","0.0-4.0-0.61","131","1","2022-11-13 13:35:34","49aca292d257f58668169b9fbab864ae","111.33.204.187","Mozilla/5.0 (Windows NT 10.0; Win64; x64) AppleWebKit/537.36 (KHTML, like Gecko) Chrome/92.0.4515.105 Safari/537.36","WebKit","Chrome","92.0.4515.105","Windows","10.0","null","<div style=""font-size:60px;"">+</div>","null",""
"","","","","","html-button-response","127","1413057","0.0-4.0-1.61","131","1","2022-11-13 13:35:34","49aca292d257f58668169b9fbab864ae","111.33.204.187","Mozilla/5.0 (Windows NT 10.0; Win64; x64) AppleWebKit/537.36 (KHTML, like Gecko) Chrome/92.0.4515.105 Safari/537.36","WebKit","Chrome","92.0.4515.105","Windows","10.0","2006","<p>作为军队的指挥官，你可以选择发射导弹杀死 <strong>5名</strong> 敌国士兵，但会误杀附近的 <strong>1名</strong> 敌国平民。</p> <p>平民照片如下图所示。</p> <p></p> <img src='stimuli/faces/PFM8.jpg', style='max-width: 30%;'> </img> <p><strong>你是否选择发射武器？</strong></p>","0",""
"","","","","","html-keyboard-response","128","1414062","0.0-4.0-0.62","131","1","2022-11-13 13:35:34","49aca292d257f58668169b9fbab864ae","111.33.204.187","Mozilla/5.0 (Windows NT 10.0; Win64; x64) AppleWebKit/537.36 (KHTML, like Gecko) Chrome/92.0.4515.105 Safari/537.36","WebKit","Chrome","92.0.4515.105","Windows","10.0","null","<div style=""font-size:60px;"">+</div>","null",""
"","","","","","html-button-response","129","1416785","0.0-4.0-1.62","131","1","2022-11-13 13:35:34","49aca292d257f58668169b9fbab864ae","111.33.204.187","Mozilla/5.0 (Windows NT 10.0; Win64; x64) AppleWebKit/537.36 (KHTML, like Gecko) Chrome/92.0.4515.105 Safari/537.36","WebKit","Chrome","92.0.4515.105","Windows","10.0","2718","<p>作为军队的指挥官，你可以选择发射导弹杀死 <strong>3名</strong> 敌国士兵，但会炸毁附近的 <strong>1棵</strong> 敌国树木。</p> <p>树木的照片如下图所示。</p> <p></p> <img src='stimuli/trees/15.png', style='max-width: 30%;'> </img> <p><strong>你是否选择发射武器？</strong></p>","1",""
"","","","","","html-keyboard-response","130","1417790","0.0-4.0-0.63","131","1","2022-11-13 13:35:34","49aca292d257f58668169b9fbab864ae","111.33.204.187","Mozilla/5.0 (Windows NT 10.0; Win64; x64) AppleWebKit/537.36 (KHTML, like Gecko) Chrome/92.0.4515.105 Safari/537.36","WebKit","Chrome","92.0.4515.105","Windows","10.0","null","<div style=""font-size:60px;"">+</div>","null",""
"","","","","","html-button-response","131","1421854","0.0-4.0-1.63","131","1","2022-11-13 13:35:34","49aca292d257f58668169b9fbab864ae","111.33.204.187","Mozilla/5.0 (Windows NT 10.0; Win64; x64) AppleWebKit/537.36 (KHTML, like Gecko) Chrome/92.0.4515.105 Safari/537.36","WebKit","Chrome","92.0.4515.105","Windows","10.0","4059","<p>作为军队的指挥官，你可以选择发射导弹杀死 <strong>1名</strong> 敌国士兵，但会误杀附近的 <strong>1名</strong> 敌国平民。</p> <p>平民照片如下图所示。</p> <p></p> <img src='stimuli/faces/PFM1.jpg', style='max-width: 30%;'> </img> <p><strong>你是否选择发射武器？</strong></p>","1",""
"","","","","","survey-multi-choice","132","1447729","0.0-5.0","131","1","2022-11-13 13:35:34","49aca292d257f58668169b9fbab864ae","111.33.204.187","Mozilla/5.0 (Windows NT 10.0; Win64; x64) AppleWebKit/537.36 (KHTML, like Gecko) Chrome/92.0.4515.105 Safari/537.36","WebKit","Chrome","92.0.4515.105","Windows","10.0","25868","","{""Attention1"":""""}","[0]"
"","","","","","html-button-response","133","1478817","0.0-6.0","131","1","2022-11-13 13:35:34","49aca292d257f58668169b9fbab864ae","111.33.204.187","Mozilla/5.0 (Windows NT 10.0; Win64; x64) AppleWebKit/537.36 (KHTML, like Gecko) Chrome/92.0.4515.105 Safari/537.36","WebKit","Chrome","92.0.4515.105","Windows","10.0","31075","<p style=""font-size:20px;font-weight:bold;"">恭喜！</p><p>你已经完成了实验的第一部分。</p><p>请休息放松一下，然后进入第二部分。</p><p>这部分大约需要10分钟。</p>","0",""
"","","","","","survey-text","134","1525350","0.0-7.0","131","1","2022-11-13 13:35:34","49aca292d257f58668169b9fbab864ae","111.33.204.187","Mozilla/5.0 (Windows NT 10.0; Win64; x64) AppleWebKit/537.36 (KHTML, like Gecko) Chrome/92.0.4515.105 Safari/537.36","WebKit","Chrome","92.0.4515.105","Windows","10.0","45516","","{""Age"":""26"",""Nation"":""中国"",""Born"":""天津"",""Live"":""天津"",""Ethnic"":""汉族"",""Alipay"":""15930577660""}",""
"","","","","","survey-multi-choice","135","1552433","0.0-8.0","131","1","2022-11-13 13:35:34","49aca292d257f58668169b9fbab864ae","111.33.204.187","Mozilla/5.0 (Windows NT 10.0; Win64; x64) AppleWebKit/537.36 (KHTML, like Gecko) Chrome/92.0.4515.105 Safari/537.36","WebKit","Chrome","92.0.4515.105","Windows","10.0","27077","","{""Gender"":""女"",""Education"":""硕士研究生毕业"",""Income"":""￥700,000-￥874,999"",""Children"":""0"",""Race"":""亚洲人""}","[0,1,2,3,4]"
"","","","","","survey-multi-select","136","1558271","0.0-9.0","131","1","2022-11-13 13:35:34","49aca292d257f58668169b9fbab864ae","111.33.204.187","Mozilla/5.0 (Windows NT 10.0; Win64; x64) AppleWebKit/537.36 (KHTML, like Gecko) Chrome/92.0.4515.105 Safari/537.36","WebKit","Chrome","92.0.4515.105","Windows","10.0","5818","","{""Marriage"":[""未婚""],""Religion"":[""无宗教信仰""]}","[0,1]"
"","","","","","survey-multi-choice","137","1578521","0.0-10.0","131","1","2022-11-13 13:35:34","49aca292d257f58668169b9fbab864ae","111.33.204.187","Mozilla/5.0 (Windows NT 10.0; Win64; x64) AppleWebKit/537.36 (KHTML, like Gecko) Chrome/92.0.4515.105 Safari/537.36","WebKit","Chrome","92.0.4515.105","Windows","10.0","20235","","{""SES"":""6""}","[0]"
"","","","","","html-button-response","138","1581590","0.0-11.0","131","1","2022-11-13 13:35:34","49aca292d257f58668169b9fbab864ae","111.33.204.187","Mozilla/5.0 (Windows NT 10.0; Win64; x64) AppleWebKit/537.36 (KHTML, like Gecko) Chrome/92.0.4515.105 Safari/537.36","WebKit","Chrome","92.0.4515.105","Windows","10.0","3043","<p><strong>请判断下列陈述在多大程度上可以形容你？</p><p> (1 = ""和我一点都不像"" to 5 = ""非常像我"".)</strong></p>","0",""
"","","","","","survey-likert","139","1618079","0.0-12.0","131","1","2022-11-13 13:35:34","49aca292d257f58668169b9fbab864ae","111.33.204.187","Mozilla/5.0 (Windows NT 10.0; Win64; x64) AppleWebKit/537.36 (KHTML, like Gecko) Chrome/92.0.4515.105 Safari/537.36","WebKit","Chrome","92.0.4515.105","Windows","10.0","36480","","{""Aggression1"":1,""Aggression2"":3,""Aggression3"":4,""Aggression4"":0,""Aggression5"":3,""Aggression6"":4,""Aggression7"":1,""Aggression8"":3,""Aggression9"":3}","[0,1,2,3,4,5,6,7,8]"
"","","","","","html-button-response","140","1619758","0.0-13.0","131","1","2022-11-13 13:35:34","49aca292d257f58668169b9fbab864ae","111.33.204.187","Mozilla/5.0 (Windows NT 10.0; Win64; x64) AppleWebKit/537.36 (KHTML, like Gecko) Chrome/92.0.4515.105 Safari/537.36","WebKit","Chrome","92.0.4515.105","Windows","10.0","1667","<p><strong>请判断你在多大程度上同意下列陈述。</strong></p>","0",""
"","","","","","survey-likert","141","1752224","0.0-14.0","131","1","2022-11-13 13:35:34","49aca292d257f58668169b9fbab864ae","111.33.204.187","Mozilla/5.0 (Windows NT 10.0; Win64; x64) AppleWebKit/537.36 (KHTML, like Gecko) Chrome/92.0.4515.105 Safari/537.36","WebKit","Chrome","92.0.4515.105","Windows","10.0","132451","","{""scale2"":2,""scale12"":1,""scale27"":1,""scale3"":3,""scale14"":3,""scale17"":2,""scale13"":1,""scale1"":0,""scale26"":2,""scale7"":1,""scale5"":2,""scale10"":3,""scale20"":2,""scale15"":4,""scale24"":1,""scale6"":3,""scale11"":4,""scale8"":2,""scale9"":3,""scale19"":2,""scale18"":2,""scale4"":3,""scale23"":3,""scale21"":4,""scale22"":2,""scale16"":2,""scale25"":1,""scale28"":3}","[1,11,26,2,13,16,12,0,25,6,4,9,19,14,23,5,10,7,8,18,17,3,22,20,21,15,24,27]"
"","","","","","html-button-response","142","1753737","0.0-15.0","131","1","2022-11-13 13:35:34","49aca292d257f58668169b9fbab864ae","111.33.204.187","Mozilla/5.0 (Windows NT 10.0; Win64; x64) AppleWebKit/537.36 (KHTML, like Gecko) Chrome/92.0.4515.105 Safari/537.36","WebKit","Chrome","92.0.4515.105","Windows","10.0","1501","<p><strong>请判断你在多大程度上同意下列陈述。</strong></p>","0",""
"","","","","","survey-likert","143","1821497","0.0-16.0","131","1","2022-11-13 13:35:34","49aca292d257f58668169b9fbab864ae","111.33.204.187","Mozilla/5.0 (Windows NT 10.0; Win64; x64) AppleWebKit/537.36 (KHTML, like Gecko) Chrome/92.0.4515.105 Safari/537.36","WebKit","Chrome","92.0.4515.105","Windows","10.0","67750","","{""sdo2"":4,""sdo15"":2,""sdo9"":3,""sdo1"":6,""sdo3"":5,""sdo14"":3,""sdo7"":1,""sdo5"":4,""sdo4"":5,""sdo10"":4,""sdo11"":2,""sdo8"":5,""sdo13"":4,""sdo6"":5,""sdo12"":3,""sdo16"":5}","[1,14,8,0,2,13,6,4,3,9,10,7,12,5,11,15]"
"","","","","","html-button-response","144","1822653","0.0-17.0","131","1","2022-11-13 13:35:34","49aca292d257f58668169b9fbab864ae","111.33.204.187","Mozilla/5.0 (Windows NT 10.0; Win64; x64) AppleWebKit/537.36 (KHTML, like Gecko) Chrome/92.0.4515.105 Safari/537.36","WebKit","Chrome","92.0.4515.105","Windows","10.0","1144","<p><strong>请判断你在多大程度上同意下列陈述。</strong></p>","0",""
"","","","","","survey-likert","145","1871729","0.0-18.0","131","1","2022-11-13 13:35:34","49aca292d257f58668169b9fbab864ae","111.33.204.187","Mozilla/5.0 (Windows NT 10.0; Win64; x64) AppleWebKit/537.36 (KHTML, like Gecko) Chrome/92.0.4515.105 Safari/537.36","WebKit","Chrome","92.0.4515.105","Windows","10.0","49068","","{""caring1"":2,""liking1"":1,""caring2"":3,""protection1"":3,""liking2"":1,""caring3"":3,""protection2"":0,""liking3"":3,""protection3"":3,""caring4"":4,""liking4"":2,""protection4"":3,""caring5"":1,""liking5"":0,""protection5"":3}","[0,1,2,3,4,5,6,7,8,9,10,11,12,13,14]"
"","","","","","html-button-response","146","1875257","0.0-19.0","131","1","2022-11-13 13:35:34","49aca292d257f58668169b9fbab864ae","111.33.204.187","Mozilla/5.0 (Windows NT 10.0; Win64; x64) AppleWebKit/537.36 (KHTML, like Gecko) Chrome/92.0.4515.105 Safari/537.36","WebKit","Chrome","92.0.4515.105","Windows","10.0","3516","<p><strong>请判断下列场景中你的内心感受有多柔软。</strong></p>","0",""
"","","","","","survey-likert","147","1906696","0.0-20.0","131","1","2022-11-13 13:35:34","49aca292d257f58668169b9fbab864ae","111.33.204.187","Mozilla/5.0 (Windows NT 10.0; Win64; x64) AppleWebKit/537.36 (KHTML, like Gecko) Chrome/92.0.4515.105 Safari/537.36","WebKit","Chrome","92.0.4515.105","Windows","10.0","31430","","{""tenderness-positive1"":4,""tenderness-negative1"":3,""tenderness-negative2"":0,""tenderness-positive2"":3,""tenderness-positive3"":4,""tenderness-negative3"":2,""tenderness-positive4"":4,""tenderness-negative4"":3,""tenderness-negative5"":2,""tenderness-positive5"":4}","[0,1,2,3,4,5,6,7,8,9]"
"","","","","","survey-multi-choice","148","1921815","0.0-21.0","131","1","2022-11-13 13:35:34","49aca292d257f58668169b9fbab864ae","111.33.204.187","Mozilla/5.0 (Windows NT 10.0; Win64; x64) AppleWebKit/537.36 (KHTML, like Gecko) Chrome/92.0.4515.105 Safari/537.36","WebKit","Chrome","92.0.4515.105","Windows","10.0","15106","","{""Attention2"":""其他""}","[0]"
"","","","","","html-button-response","149","1923079","0.0-22.0","131","1","2022-11-13 13:35:34","49aca292d257f58668169b9fbab864ae","111.33.204.187","Mozilla/5.0 (Windows NT 10.0; Win64; x64) AppleWebKit/537.36 (KHTML, like Gecko) Chrome/92.0.4515.105 Safari/537.36","WebKit","Chrome","92.0.4515.105","Windows","10.0","1252","<p><strong>请判断你在多大程度上同意下列陈述。</strong></p>","0",""
"","","","","","survey-likert","150","2013713","0.0-23.0","131","1","2022-11-13 13:35:34","49aca292d257f58668169b9fbab864ae","111.33.204.187","Mozilla/5.0 (Windows NT 10.0; Win64; x64) AppleWebKit/537.36 (KHTML, like Gecko) Chrome/92.0.4515.105 Safari/537.36","WebKit","Chrome","92.0.4515.105","Windows","10.0","90621","","{""Patri6"":0,""Nation8"":1,""Nation3"":3,""Patri9"":1,""Nation6"":2,""Patri12"":0,""Patri11"":0,""Patri4"":3,""Patri5"":4,""Patri10"":0,""Patri2"":4,""Patri3"":4,""Patri7"":4,""Patri8"":4,""Nation2"":4,""Patri1"":4,""Nation7"":4,""Nation4"":1,""Nation1"":2,""Nation5"":2}","[5,19,14,8,17,11,10,3,4,9,1,2,6,7,13,0,18,15,12,16]"
"","","","","","html-button-response","151","2015170","0.0-24.0","131","1","2022-11-13 13:35:34","49aca292d257f58668169b9fbab864ae","111.33.204.187","Mozilla/5.0 (Windows NT 10.0; Win64; x64) AppleWebKit/537.36 (KHTML, like Gecko) Chrome/92.0.4515.105 Safari/537.36","WebKit","Chrome","92.0.4515.105","Windows","10.0","1443","<p><strong>请判断你在多大程度上同意下列陈述。</strong></p>","0",""
"","","","","","survey-likert","152","2093358","0.0-25.0","131","1","2022-11-13 13:35:34","49aca292d257f58668169b9fbab864ae","111.33.204.187","Mozilla/5.0 (Windows NT 10.0; Win64; x64) AppleWebKit/537.36 (KHTML, like Gecko) Chrome/92.0.4515.105 Safari/537.36","WebKit","Chrome","92.0.4515.105","Windows","10.0","78174","","{""vc3"":7,""hc3"":5,""hi1"":6,""vc2"":7,""hi4"":8,""hc2"":6,""vi2"":1,""hc1"":6,""vc4"":7,""hi2"":5,""vi1"":5,""vi3"":7,""Robot"":6,""vc1"":8,""vi4"":1,""hi3"":1,""hc4"":6}","[15,11,0,14,3,10,5,9,16,1,4,6,7,13,8,2,12]"
"","","","","","survey-text","153","2100611","0.0-26.0","131","1","2022-11-13 13:35:34","49aca292d257f58668169b9fbab864ae","111.33.204.187","Mozilla/5.0 (Windows NT 10.0; Win64; x64) AppleWebKit/537.36 (KHTML, like Gecko) Chrome/92.0.4515.105 Safari/537.36","WebKit","Chrome","92.0.4515.105","Windows","10.0","7236","","{""Comments"":""没有了""}",""
"","","","","","html-button-response","154","2102881","0.0-27.0","131","1","2022-11-13 13:35:34","49aca292d257f58668169b9fbab864ae","111.33.204.187","Mozilla/5.0 (Windows NT 10.0; Win64; x64) AppleWebKit/537.36 (KHTML, like Gecko) Chrome/92.0.4515.105 Safari/537.36","WebKit","Chrome","92.0.4515.105","Windows","10.0","2265","<strong><p>恭喜你完成了实验！</p><p>感谢您的参与。</p></strong>","0",""
