"success","timeout","failed_images","failed_audio","failed_video","trial_type","trial_index","time_elapsed","internal_node_id","run_id","condition","recorded_at","source_code_version","ip","user_agent","device","browser","browser_version","platform","platform_version","rt","stimulus","response","question_order"
"true","false","[]","[]","[]","preload","0","57","0.0-0.0","152","1","2022-11-13 14:13:11","49aca292d257f58668169b9fbab864ae","106.224.43.237","Mozilla/5.0 (Windows NT 10.0; WOW64) AppleWebKit/537.36 (KHTML, like Gecko) Chrome/104.0.0.0 Safari/537.36","WebKit","Chrome","104.0.0.0","Windows","10.0","","","",""
"true","","","","","fullscreen","1","2864","0.0-1.0","152","1","2022-11-13 14:13:11","49aca292d257f58668169b9fbab864ae","106.224.43.237","Mozilla/5.0 (Windows NT 10.0; WOW64) AppleWebKit/537.36 (KHTML, like Gecko) Chrome/104.0.0.0 Safari/537.36","WebKit","Chrome","104.0.0.0","Windows","10.0","","","",""
"","","","","","html-button-response","2","326464","0.0-2.0","152","1","2022-11-13 14:13:11","49aca292d257f58668169b9fbab864ae","106.224.43.237","Mozilla/5.0 (Windows NT 10.0; WOW64) AppleWebKit/537.36 (KHTML, like Gecko) Chrome/104.0.0.0 Safari/537.36","WebKit","Chrome","104.0.0.0","Windows","10.0","323598","<p style=""font-size:20px;font-weight:bold;"">实验知情同意书</p><p style=""text-align:left;""><strong>实验名称：</strong>社会冲突研究</p><p style=""text-align:left;""><strong>主要研究者：</strong>韩晓春副教授（北京师范大学心理学部）</p><p style=""text-align:left;""><strong>联系方式：</strong>发送邮件至xiaochun.han@bnu.edu.cn</p><p style=""text-align:left;""><strong>研究目的：</strong>研究旨在了解人类面对群体冲突时的决策方式，以及相关的心理学特质。实验调查大约需要20分钟。</p><p style=""text-align:left;""><strong>实验流程：</strong>实验包含两部分。第一部分呈现一系列群体冲突场景，请你决定如何对这些冲突进行反应，大约需要10分钟完成。第二部分包含一系列人口统计学信息收集和心理学问卷，大约需要10分钟完成。</p><p style=""text-align:left;""><strong>参加及退出规则：</strong>参加本实验完全取决于您的个人意愿。在参与过程中，您可以随时退出，并且不用承担任何后果。</p><p style=""text-align:left;""><strong>隐私：</strong>本实验完全匿名进行，不会收集您的姓名或其他能够识别您身份的信息。实验中收集的作答仅用作科学研究使用，可能会在学术期刊/书籍上发表，或者用于教学，您的数据未来可能会和其他研究者或实验室分享，但您的个人身份不会被识别。</p><p style=""text-align:left;""><strong>实验报酬：</strong>实验完成后，您将获得15元人民币报酬，以感谢您的时间和努力。调查问卷中包含几道题目用以测验您作答时的认真度。只有完成全部实验，并且正确回答认真度测验的被试才能获得实验报酬。实验报酬将通过支付宝转账发放。</p><p style=""text-align:left;font-size:20px;""><strong>如果您同意以上实验知情同意书的内容，请点击'同意并且开始实验'按钮；否则请关闭浏览器界面，退出实验。</strong></p>","0",""
"","","","","","html-button-response","3","328371","0.0-3.0","152","1","2022-11-13 14:13:11","49aca292d257f58668169b9fbab864ae","106.224.43.237","Mozilla/5.0 (Windows NT 10.0; WOW64) AppleWebKit/537.36 (KHTML, like Gecko) Chrome/104.0.0.0 Safari/537.36","WebKit","Chrome","104.0.0.0","Windows","10.0","1905","<p ><strong>实验任务一：</strong></p><p>请想象你的国家与另一个国家发生了军事冲突。</p><p>你是国家军队的指挥官，你将如何在冲突中进行决策。</p><p>具体来说，作为军队指挥官，请你决定是否发射导弹进行打击。</p><p>接下来，你会面对一系列场景，请仔细阅读每个场景，然后进行决策。</p><p>这部分实验任务大约需要10分钟。</p><p><strong>实验过程中，请集中注意力。</strong></p>","0",""
"","","","","","html-keyboard-response","4","329382","0.0-4.0-0.0","152","1","2022-11-13 14:13:11","49aca292d257f58668169b9fbab864ae","106.224.43.237","Mozilla/5.0 (Windows NT 10.0; WOW64) AppleWebKit/537.36 (KHTML, like Gecko) Chrome/104.0.0.0 Safari/537.36","WebKit","Chrome","104.0.0.0","Windows","10.0","null","<div style=""font-size:60px;"">+</div>","null",""
"","","","","","html-button-response","5","332275","0.0-4.0-1.0","152","1","2022-11-13 14:13:11","49aca292d257f58668169b9fbab864ae","106.224.43.237","Mozilla/5.0 (Windows NT 10.0; WOW64) AppleWebKit/537.36 (KHTML, like Gecko) Chrome/104.0.0.0 Safari/537.36","WebKit","Chrome","104.0.0.0","Windows","10.0","2892","<p>作为军队的指挥官，你可以选择发射导弹杀死 <strong>10名</strong> 敌国士兵，但会误杀附近的 <strong>1名</strong> 敌国平民。</p> <p>平民照片如下图所示。</p> <p></p> <img src='stimuli/faces/PFF6.jpg', style='max-width: 30%;'> </img> <p><strong>你是否选择发射武器？</strong></p>","0",""
"","","","","","html-keyboard-response","6","333285","0.0-4.0-0.1","152","1","2022-11-13 14:13:11","49aca292d257f58668169b9fbab864ae","106.224.43.237","Mozilla/5.0 (Windows NT 10.0; WOW64) AppleWebKit/537.36 (KHTML, like Gecko) Chrome/104.0.0.0 Safari/537.36","WebKit","Chrome","104.0.0.0","Windows","10.0","null","<div style=""font-size:60px;"">+</div>","null",""
"","","","","","html-button-response","7","334434","0.0-4.0-1.1","152","1","2022-11-13 14:13:11","49aca292d257f58668169b9fbab864ae","106.224.43.237","Mozilla/5.0 (Windows NT 10.0; WOW64) AppleWebKit/537.36 (KHTML, like Gecko) Chrome/104.0.0.0 Safari/537.36","WebKit","Chrome","104.0.0.0","Windows","10.0","1147","<p>作为军队的指挥官，你可以选择发射导弹杀死 <strong>5名</strong> 敌国士兵，但会误杀附近的 <strong>1名</strong> 敌国平民。</p> <p>平民照片如下图所示。</p> <p></p> <img src='stimuli/faces/PFM2.jpg', style='max-width: 30%;'> </img> <p><strong>你是否选择发射武器？</strong></p>","0",""
"","","","","","html-keyboard-response","8","335458","0.0-4.0-0.2","152","1","2022-11-13 14:13:11","49aca292d257f58668169b9fbab864ae","106.224.43.237","Mozilla/5.0 (Windows NT 10.0; WOW64) AppleWebKit/537.36 (KHTML, like Gecko) Chrome/104.0.0.0 Safari/537.36","WebKit","Chrome","104.0.0.0","Windows","10.0","null","<div style=""font-size:60px;"">+</div>","null",""
"","","","","","html-button-response","9","401333","0.0-4.0-1.2","152","1","2022-11-13 14:13:11","49aca292d257f58668169b9fbab864ae","106.224.43.237","Mozilla/5.0 (Windows NT 10.0; WOW64) AppleWebKit/537.36 (KHTML, like Gecko) Chrome/104.0.0.0 Safari/537.36","WebKit","Chrome","104.0.0.0","Windows","10.0","65873","<p>作为军队的指挥官，你可以选择发射导弹杀死 <strong>1名</strong> 敌国士兵，但会误杀附近的 <strong>1名</strong> 敌国平民。</p> <p>平民照片如下图所示。</p> <p></p> <img src='stimuli/faces/PFF8.jpg', style='max-width: 30%;'> </img> <p><strong>你是否选择发射武器？</strong></p>","1",""
"","","","","","html-keyboard-response","10","402341","0.0-4.0-0.3","152","1","2022-11-13 14:13:11","49aca292d257f58668169b9fbab864ae","106.224.43.237","Mozilla/5.0 (Windows NT 10.0; WOW64) AppleWebKit/537.36 (KHTML, like Gecko) Chrome/104.0.0.0 Safari/537.36","WebKit","Chrome","104.0.0.0","Windows","10.0","null","<div style=""font-size:60px;"">+</div>","null",""
"","","","","","html-button-response","11","403046","0.0-4.0-1.3","152","1","2022-11-13 14:13:11","49aca292d257f58668169b9fbab864ae","106.224.43.237","Mozilla/5.0 (Windows NT 10.0; WOW64) AppleWebKit/537.36 (KHTML, like Gecko) Chrome/104.0.0.0 Safari/537.36","WebKit","Chrome","104.0.0.0","Windows","10.0","703","<p>作为军队的指挥官，你可以选择发射导弹杀死 <strong>5名</strong> 敌国士兵，但会误杀附近的 <strong>1名</strong> 敌国平民。</p> <p>平民照片如下图所示。</p> <p></p> <img src='stimuli/faces/PFM5.jpg', style='max-width: 30%;'> </img> <p><strong>你是否选择发射武器？</strong></p>","0",""
"","","","","","html-keyboard-response","12","404049","0.0-4.0-0.4","152","1","2022-11-13 14:13:11","49aca292d257f58668169b9fbab864ae","106.224.43.237","Mozilla/5.0 (Windows NT 10.0; WOW64) AppleWebKit/537.36 (KHTML, like Gecko) Chrome/104.0.0.0 Safari/537.36","WebKit","Chrome","104.0.0.0","Windows","10.0","null","<div style=""font-size:60px;"">+</div>","null",""
"","","","","","html-button-response","13","404854","0.0-4.0-1.4","152","1","2022-11-13 14:13:11","49aca292d257f58668169b9fbab864ae","106.224.43.237","Mozilla/5.0 (Windows NT 10.0; WOW64) AppleWebKit/537.36 (KHTML, like Gecko) Chrome/104.0.0.0 Safari/537.36","WebKit","Chrome","104.0.0.0","Windows","10.0","803","<p>作为军队的指挥官，你可以选择发射导弹杀死 <strong>6名</strong> 敌国士兵，但会误杀附近的 <strong>1名</strong> 敌国平民。</p> <p>平民照片如下图所示。</p> <p></p> <img src='stimuli/faces/PFF5.jpg', style='max-width: 30%;'> </img> <p><strong>你是否选择发射武器？</strong></p>","0",""
"","","","","","html-keyboard-response","14","405861","0.0-4.0-0.5","152","1","2022-11-13 14:13:11","49aca292d257f58668169b9fbab864ae","106.224.43.237","Mozilla/5.0 (Windows NT 10.0; WOW64) AppleWebKit/537.36 (KHTML, like Gecko) Chrome/104.0.0.0 Safari/537.36","WebKit","Chrome","104.0.0.0","Windows","10.0","null","<div style=""font-size:60px;"">+</div>","null",""
"","","","","","html-button-response","15","406916","0.0-4.0-1.5","152","1","2022-11-13 14:13:11","49aca292d257f58668169b9fbab864ae","106.224.43.237","Mozilla/5.0 (Windows NT 10.0; WOW64) AppleWebKit/537.36 (KHTML, like Gecko) Chrome/104.0.0.0 Safari/537.36","WebKit","Chrome","104.0.0.0","Windows","10.0","1054","<p>作为军队的指挥官，你可以选择发射导弹杀死 <strong>3名</strong> 敌国士兵，但会误杀附近的 <strong>1名</strong> 敌国平民。</p> <p>平民照片如下图所示。</p> <p></p> <img src='stimuli/faces/PFF5.jpg', style='max-width: 30%;'> </img> <p><strong>你是否选择发射武器？</strong></p>","0",""
"","","","","","html-keyboard-response","16","407927","0.0-4.0-0.6","152","1","2022-11-13 14:13:11","49aca292d257f58668169b9fbab864ae","106.224.43.237","Mozilla/5.0 (Windows NT 10.0; WOW64) AppleWebKit/537.36 (KHTML, like Gecko) Chrome/104.0.0.0 Safari/537.36","WebKit","Chrome","104.0.0.0","Windows","10.0","null","<div style=""font-size:60px;"">+</div>","null",""
"","","","","","html-button-response","17","408809","0.0-4.0-1.6","152","1","2022-11-13 14:13:11","49aca292d257f58668169b9fbab864ae","106.224.43.237","Mozilla/5.0 (Windows NT 10.0; WOW64) AppleWebKit/537.36 (KHTML, like Gecko) Chrome/104.0.0.0 Safari/537.36","WebKit","Chrome","104.0.0.0","Windows","10.0","881","<p>作为军队的指挥官，你可以选择发射导弹杀死 <strong>3名</strong> 敌国士兵，但会炸毁附近的 <strong>1棵</strong> 敌国树木。</p> <p>树木的照片如下图所示。</p> <p></p> <img src='stimuli/trees/6.png', style='max-width: 30%;'> </img> <p><strong>你是否选择发射武器？</strong></p>","1",""
"","","","","","html-keyboard-response","18","409810","0.0-4.0-0.7","152","1","2022-11-13 14:13:11","49aca292d257f58668169b9fbab864ae","106.224.43.237","Mozilla/5.0 (Windows NT 10.0; WOW64) AppleWebKit/537.36 (KHTML, like Gecko) Chrome/104.0.0.0 Safari/537.36","WebKit","Chrome","104.0.0.0","Windows","10.0","null","<div style=""font-size:60px;"">+</div>","null",""
"","","","","","html-button-response","19","410126","0.0-4.0-1.7","152","1","2022-11-13 14:13:11","49aca292d257f58668169b9fbab864ae","106.224.43.237","Mozilla/5.0 (Windows NT 10.0; WOW64) AppleWebKit/537.36 (KHTML, like Gecko) Chrome/104.0.0.0 Safari/537.36","WebKit","Chrome","104.0.0.0","Windows","10.0","315","<p>作为军队的指挥官，你可以选择发射导弹杀死 <strong>7名</strong> 敌国士兵，但会误杀附近的 <strong>1名</strong> 敌国平民。</p> <p>平民照片如下图所示。</p> <p></p> <img src='stimuli/faces/PFM5.jpg', style='max-width: 30%;'> </img> <p><strong>你是否选择发射武器？</strong></p>","0",""
"","","","","","html-keyboard-response","20","411136","0.0-4.0-0.8","152","1","2022-11-13 14:13:11","49aca292d257f58668169b9fbab864ae","106.224.43.237","Mozilla/5.0 (Windows NT 10.0; WOW64) AppleWebKit/537.36 (KHTML, like Gecko) Chrome/104.0.0.0 Safari/537.36","WebKit","Chrome","104.0.0.0","Windows","10.0","null","<div style=""font-size:60px;"">+</div>","null",""
"","","","","","html-button-response","21","427558","0.0-4.0-1.8","152","1","2022-11-13 14:13:11","49aca292d257f58668169b9fbab864ae","106.224.43.237","Mozilla/5.0 (Windows NT 10.0; WOW64) AppleWebKit/537.36 (KHTML, like Gecko) Chrome/104.0.0.0 Safari/537.36","WebKit","Chrome","104.0.0.0","Windows","10.0","16421","<p>作为军队的指挥官，你可以选择发射导弹杀死 <strong>4名</strong> 敌国士兵，但会误杀附近的 <strong>1名</strong> 敌国平民。</p> <p>平民照片如下图所示。</p> <p></p> <img src='stimuli/faces/PFF2.jpg', style='max-width: 30%;'> </img> <p><strong>你是否选择发射武器？</strong></p>","0",""
"","","","","","html-keyboard-response","22","428571","0.0-4.0-0.9","152","1","2022-11-13 14:13:11","49aca292d257f58668169b9fbab864ae","106.224.43.237","Mozilla/5.0 (Windows NT 10.0; WOW64) AppleWebKit/537.36 (KHTML, like Gecko) Chrome/104.0.0.0 Safari/537.36","WebKit","Chrome","104.0.0.0","Windows","10.0","null","<div style=""font-size:60px;"">+</div>","null",""
"","","","","","html-button-response","23","450905","0.0-4.0-1.9","152","1","2022-11-13 14:13:11","49aca292d257f58668169b9fbab864ae","106.224.43.237","Mozilla/5.0 (Windows NT 10.0; WOW64) AppleWebKit/537.36 (KHTML, like Gecko) Chrome/104.0.0.0 Safari/537.36","WebKit","Chrome","104.0.0.0","Windows","10.0","22332","<p>作为军队的指挥官，你可以选择发射导弹杀死 <strong>9名</strong> 敌国士兵，但会误杀附近的 <strong>1名</strong> 敌国平民。</p> <p>平民照片如下图所示。</p> <p></p> <img src='stimuli/faces/PFM6.jpg', style='max-width: 30%;'> </img> <p><strong>你是否选择发射武器？</strong></p>","0",""
"","","","","","html-keyboard-response","24","451906","0.0-4.0-0.10","152","1","2022-11-13 14:13:11","49aca292d257f58668169b9fbab864ae","106.224.43.237","Mozilla/5.0 (Windows NT 10.0; WOW64) AppleWebKit/537.36 (KHTML, like Gecko) Chrome/104.0.0.0 Safari/537.36","WebKit","Chrome","104.0.0.0","Windows","10.0","null","<div style=""font-size:60px;"">+</div>","null",""
"","","","","","html-button-response","25","452829","0.0-4.0-1.10","152","1","2022-11-13 14:13:11","49aca292d257f58668169b9fbab864ae","106.224.43.237","Mozilla/5.0 (Windows NT 10.0; WOW64) AppleWebKit/537.36 (KHTML, like Gecko) Chrome/104.0.0.0 Safari/537.36","WebKit","Chrome","104.0.0.0","Windows","10.0","922","<p>作为军队的指挥官，你可以选择发射导弹杀死 <strong>9名</strong> 敌国士兵，但会误杀附近的 <strong>1名</strong> 敌国平民。</p> <p>平民照片如下图所示。</p> <p></p> <img src='stimuli/faces/PFF8.jpg', style='max-width: 30%;'> </img> <p><strong>你是否选择发射武器？</strong></p>","0",""
"","","","","","html-keyboard-response","26","453835","0.0-4.0-0.11","152","1","2022-11-13 14:13:11","49aca292d257f58668169b9fbab864ae","106.224.43.237","Mozilla/5.0 (Windows NT 10.0; WOW64) AppleWebKit/537.36 (KHTML, like Gecko) Chrome/104.0.0.0 Safari/537.36","WebKit","Chrome","104.0.0.0","Windows","10.0","null","<div style=""font-size:60px;"">+</div>","null",""
"","","","","","html-button-response","27","454576","0.0-4.0-1.11","152","1","2022-11-13 14:13:11","49aca292d257f58668169b9fbab864ae","106.224.43.237","Mozilla/5.0 (Windows NT 10.0; WOW64) AppleWebKit/537.36 (KHTML, like Gecko) Chrome/104.0.0.0 Safari/537.36","WebKit","Chrome","104.0.0.0","Windows","10.0","740","<p>作为军队的指挥官，你可以选择发射导弹杀死 <strong>10名</strong> 敌国士兵，但会炸毁附近的 <strong>1棵</strong> 敌国树木。</p> <p>树木的照片如下图所示。</p> <p></p> <img src='stimuli/trees/12.png', style='max-width: 30%;'> </img> <p><strong>你是否选择发射武器？</strong></p>","0",""
"","","","","","html-keyboard-response","28","455591","0.0-4.0-0.12","152","1","2022-11-13 14:13:11","49aca292d257f58668169b9fbab864ae","106.224.43.237","Mozilla/5.0 (Windows NT 10.0; WOW64) AppleWebKit/537.36 (KHTML, like Gecko) Chrome/104.0.0.0 Safari/537.36","WebKit","Chrome","104.0.0.0","Windows","10.0","null","<div style=""font-size:60px;"">+</div>","null",""
"","","","","","html-button-response","29","456524","0.0-4.0-1.12","152","1","2022-11-13 14:13:11","49aca292d257f58668169b9fbab864ae","106.224.43.237","Mozilla/5.0 (Windows NT 10.0; WOW64) AppleWebKit/537.36 (KHTML, like Gecko) Chrome/104.0.0.0 Safari/537.36","WebKit","Chrome","104.0.0.0","Windows","10.0","931","<p>作为军队的指挥官，你可以选择发射导弹杀死 <strong>1名</strong> 敌国士兵，但会误杀附近的 <strong>1名</strong> 敌国平民。</p> <p>平民照片如下图所示。</p> <p></p> <img src='stimuli/faces/PFM3.jpg', style='max-width: 30%;'> </img> <p><strong>你是否选择发射武器？</strong></p>","1",""
"","","","","","html-keyboard-response","30","457526","0.0-4.0-0.13","152","1","2022-11-13 14:13:11","49aca292d257f58668169b9fbab864ae","106.224.43.237","Mozilla/5.0 (Windows NT 10.0; WOW64) AppleWebKit/537.36 (KHTML, like Gecko) Chrome/104.0.0.0 Safari/537.36","WebKit","Chrome","104.0.0.0","Windows","10.0","null","<div style=""font-size:60px;"">+</div>","null",""
"","","","","","html-button-response","31","458279","0.0-4.0-1.13","152","1","2022-11-13 14:13:11","49aca292d257f58668169b9fbab864ae","106.224.43.237","Mozilla/5.0 (Windows NT 10.0; WOW64) AppleWebKit/537.36 (KHTML, like Gecko) Chrome/104.0.0.0 Safari/537.36","WebKit","Chrome","104.0.0.0","Windows","10.0","752","<p>作为军队的指挥官，你可以选择发射导弹杀死 <strong>9名</strong> 敌国士兵，但会炸毁附近的 <strong>1棵</strong> 敌国树木。</p> <p>树木的照片如下图所示。</p> <p></p> <img src='stimuli/trees/11.png', style='max-width: 30%;'> </img> <p><strong>你是否选择发射武器？</strong></p>","0",""
"","","","","","html-keyboard-response","32","459286","0.0-4.0-0.14","152","1","2022-11-13 14:13:11","49aca292d257f58668169b9fbab864ae","106.224.43.237","Mozilla/5.0 (Windows NT 10.0; WOW64) AppleWebKit/537.36 (KHTML, like Gecko) Chrome/104.0.0.0 Safari/537.36","WebKit","Chrome","104.0.0.0","Windows","10.0","null","<div style=""font-size:60px;"">+</div>","null",""
"","","","","","html-button-response","33","460543","0.0-4.0-1.14","152","1","2022-11-13 14:13:11","49aca292d257f58668169b9fbab864ae","106.224.43.237","Mozilla/5.0 (Windows NT 10.0; WOW64) AppleWebKit/537.36 (KHTML, like Gecko) Chrome/104.0.0.0 Safari/537.36","WebKit","Chrome","104.0.0.0","Windows","10.0","1256","<p>作为军队的指挥官，你可以选择发射导弹杀死 <strong>6名</strong> 敌国士兵，但会炸毁附近的 <strong>1棵</strong> 敌国树木。</p> <p>树木的照片如下图所示。</p> <p></p> <img src='stimuli/trees/1.png', style='max-width: 30%;'> </img> <p><strong>你是否选择发射武器？</strong></p>","0",""
"","","","","","html-keyboard-response","34","461551","0.0-4.0-0.15","152","1","2022-11-13 14:13:11","49aca292d257f58668169b9fbab864ae","106.224.43.237","Mozilla/5.0 (Windows NT 10.0; WOW64) AppleWebKit/537.36 (KHTML, like Gecko) Chrome/104.0.0.0 Safari/537.36","WebKit","Chrome","104.0.0.0","Windows","10.0","null","<div style=""font-size:60px;"">+</div>","null",""
"","","","","","html-button-response","35","462939","0.0-4.0-1.15","152","1","2022-11-13 14:13:11","49aca292d257f58668169b9fbab864ae","106.224.43.237","Mozilla/5.0 (Windows NT 10.0; WOW64) AppleWebKit/537.36 (KHTML, like Gecko) Chrome/104.0.0.0 Safari/537.36","WebKit","Chrome","104.0.0.0","Windows","10.0","1386","<p>作为军队的指挥官，你可以选择发射导弹杀死 <strong>5名</strong> 敌国士兵，但会炸毁附近的 <strong>1棵</strong> 敌国树木。</p> <p>树木的照片如下图所示。</p> <p></p> <img src='stimuli/trees/7.png', style='max-width: 30%;'> </img> <p><strong>你是否选择发射武器？</strong></p>","0",""
"","","","","","html-keyboard-response","36","463952","0.0-4.0-0.16","152","1","2022-11-13 14:13:11","49aca292d257f58668169b9fbab864ae","106.224.43.237","Mozilla/5.0 (Windows NT 10.0; WOW64) AppleWebKit/537.36 (KHTML, like Gecko) Chrome/104.0.0.0 Safari/537.36","WebKit","Chrome","104.0.0.0","Windows","10.0","null","<div style=""font-size:60px;"">+</div>","null",""
"","","","","","html-button-response","37","465311","0.0-4.0-1.16","152","1","2022-11-13 14:13:11","49aca292d257f58668169b9fbab864ae","106.224.43.237","Mozilla/5.0 (Windows NT 10.0; WOW64) AppleWebKit/537.36 (KHTML, like Gecko) Chrome/104.0.0.0 Safari/537.36","WebKit","Chrome","104.0.0.0","Windows","10.0","1357","<p>作为军队的指挥官，你可以选择发射导弹杀死 <strong>4名</strong> 敌国士兵，但会炸毁附近的 <strong>1棵</strong> 敌国树木。</p> <p>树木的照片如下图所示。</p> <p></p> <img src='stimuli/trees/13.png', style='max-width: 30%;'> </img> <p><strong>你是否选择发射武器？</strong></p>","0",""
"","","","","","html-keyboard-response","38","466326","0.0-4.0-0.17","152","1","2022-11-13 14:13:11","49aca292d257f58668169b9fbab864ae","106.224.43.237","Mozilla/5.0 (Windows NT 10.0; WOW64) AppleWebKit/537.36 (KHTML, like Gecko) Chrome/104.0.0.0 Safari/537.36","WebKit","Chrome","104.0.0.0","Windows","10.0","null","<div style=""font-size:60px;"">+</div>","null",""
"","","","","","html-button-response","39","490100","0.0-4.0-1.17","152","1","2022-11-13 14:13:11","49aca292d257f58668169b9fbab864ae","106.224.43.237","Mozilla/5.0 (Windows NT 10.0; WOW64) AppleWebKit/537.36 (KHTML, like Gecko) Chrome/104.0.0.0 Safari/537.36","WebKit","Chrome","104.0.0.0","Windows","10.0","23773","<p>作为军队的指挥官，你可以选择发射导弹杀死 <strong>2名</strong> 敌国士兵，但会炸毁附近的 <strong>1棵</strong> 敌国树木。</p> <p>树木的照片如下图所示。</p> <p></p> <img src='stimuli/trees/8.png', style='max-width: 30%;'> </img> <p><strong>你是否选择发射武器？</strong></p>","0",""
"","","","","","html-keyboard-response","40","491116","0.0-4.0-0.18","152","1","2022-11-13 14:13:11","49aca292d257f58668169b9fbab864ae","106.224.43.237","Mozilla/5.0 (Windows NT 10.0; WOW64) AppleWebKit/537.36 (KHTML, like Gecko) Chrome/104.0.0.0 Safari/537.36","WebKit","Chrome","104.0.0.0","Windows","10.0","null","<div style=""font-size:60px;"">+</div>","null",""
"","","","","","html-button-response","41","493076","0.0-4.0-1.18","152","1","2022-11-13 14:13:11","49aca292d257f58668169b9fbab864ae","106.224.43.237","Mozilla/5.0 (Windows NT 10.0; WOW64) AppleWebKit/537.36 (KHTML, like Gecko) Chrome/104.0.0.0 Safari/537.36","WebKit","Chrome","104.0.0.0","Windows","10.0","1958","<p>作为军队的指挥官，你可以选择发射导弹杀死 <strong>9名</strong> 敌国士兵，但会炸毁附近的 <strong>1棵</strong> 敌国树木。</p> <p>树木的照片如下图所示。</p> <p></p> <img src='stimuli/trees/10.png', style='max-width: 30%;'> </img> <p><strong>你是否选择发射武器？</strong></p>","0",""
"","","","","","html-keyboard-response","42","494081","0.0-4.0-0.19","152","1","2022-11-13 14:13:11","49aca292d257f58668169b9fbab864ae","106.224.43.237","Mozilla/5.0 (Windows NT 10.0; WOW64) AppleWebKit/537.36 (KHTML, like Gecko) Chrome/104.0.0.0 Safari/537.36","WebKit","Chrome","104.0.0.0","Windows","10.0","null","<div style=""font-size:60px;"">+</div>","null",""
"","","","","","html-button-response","43","495199","0.0-4.0-1.19","152","1","2022-11-13 14:13:11","49aca292d257f58668169b9fbab864ae","106.224.43.237","Mozilla/5.0 (Windows NT 10.0; WOW64) AppleWebKit/537.36 (KHTML, like Gecko) Chrome/104.0.0.0 Safari/537.36","WebKit","Chrome","104.0.0.0","Windows","10.0","1116","<p>作为军队的指挥官，你可以选择发射导弹杀死 <strong>8名</strong> 敌国士兵，但会炸毁附近的 <strong>1棵</strong> 敌国树木。</p> <p>树木的照片如下图所示。</p> <p></p> <img src='stimuli/trees/16.png', style='max-width: 30%;'> </img> <p><strong>你是否选择发射武器？</strong></p>","0",""
"","","","","","html-keyboard-response","44","496200","0.0-4.0-0.20","152","1","2022-11-13 14:13:11","49aca292d257f58668169b9fbab864ae","106.224.43.237","Mozilla/5.0 (Windows NT 10.0; WOW64) AppleWebKit/537.36 (KHTML, like Gecko) Chrome/104.0.0.0 Safari/537.36","WebKit","Chrome","104.0.0.0","Windows","10.0","null","<div style=""font-size:60px;"">+</div>","null",""
"","","","","","html-button-response","45","498692","0.0-4.0-1.20","152","1","2022-11-13 14:13:11","49aca292d257f58668169b9fbab864ae","106.224.43.237","Mozilla/5.0 (Windows NT 10.0; WOW64) AppleWebKit/537.36 (KHTML, like Gecko) Chrome/104.0.0.0 Safari/537.36","WebKit","Chrome","104.0.0.0","Windows","10.0","2490","<p>作为军队的指挥官，你可以选择发射导弹杀死 <strong>8名</strong> 敌国士兵，但会误杀附近的 <strong>1名</strong> 敌国平民。</p> <p>平民照片如下图所示。</p> <p></p> <img src='stimuli/faces/PFM3.jpg', style='max-width: 30%;'> </img> <p><strong>你是否选择发射武器？</strong></p>","0",""
"","","","","","html-keyboard-response","46","499693","0.0-4.0-0.21","152","1","2022-11-13 14:13:11","49aca292d257f58668169b9fbab864ae","106.224.43.237","Mozilla/5.0 (Windows NT 10.0; WOW64) AppleWebKit/537.36 (KHTML, like Gecko) Chrome/104.0.0.0 Safari/537.36","WebKit","Chrome","104.0.0.0","Windows","10.0","null","<div style=""font-size:60px;"">+</div>","null",""
"","","","","","html-button-response","47","501031","0.0-4.0-1.21","152","1","2022-11-13 14:13:11","49aca292d257f58668169b9fbab864ae","106.224.43.237","Mozilla/5.0 (Windows NT 10.0; WOW64) AppleWebKit/537.36 (KHTML, like Gecko) Chrome/104.0.0.0 Safari/537.36","WebKit","Chrome","104.0.0.0","Windows","10.0","1337","<p>作为军队的指挥官，你可以选择发射导弹杀死 <strong>6名</strong> 敌国士兵，但会炸毁附近的 <strong>1棵</strong> 敌国树木。</p> <p>树木的照片如下图所示。</p> <p></p> <img src='stimuli/trees/15.png', style='max-width: 30%;'> </img> <p><strong>你是否选择发射武器？</strong></p>","0",""
"","","","","","html-keyboard-response","48","502039","0.0-4.0-0.22","152","1","2022-11-13 14:13:11","49aca292d257f58668169b9fbab864ae","106.224.43.237","Mozilla/5.0 (Windows NT 10.0; WOW64) AppleWebKit/537.36 (KHTML, like Gecko) Chrome/104.0.0.0 Safari/537.36","WebKit","Chrome","104.0.0.0","Windows","10.0","null","<div style=""font-size:60px;"">+</div>","null",""
"","","","","","html-button-response","49","503284","0.0-4.0-1.22","152","1","2022-11-13 14:13:11","49aca292d257f58668169b9fbab864ae","106.224.43.237","Mozilla/5.0 (Windows NT 10.0; WOW64) AppleWebKit/537.36 (KHTML, like Gecko) Chrome/104.0.0.0 Safari/537.36","WebKit","Chrome","104.0.0.0","Windows","10.0","1243","<p>作为军队的指挥官，你可以选择发射导弹杀死 <strong>2名</strong> 敌国士兵，但会炸毁附近的 <strong>1棵</strong> 敌国树木。</p> <p>树木的照片如下图所示。</p> <p></p> <img src='stimuli/trees/3.png', style='max-width: 30%;'> </img> <p><strong>你是否选择发射武器？</strong></p>","0",""
"","","","","","html-keyboard-response","50","504287","0.0-4.0-0.23","152","1","2022-11-13 14:13:11","49aca292d257f58668169b9fbab864ae","106.224.43.237","Mozilla/5.0 (Windows NT 10.0; WOW64) AppleWebKit/537.36 (KHTML, like Gecko) Chrome/104.0.0.0 Safari/537.36","WebKit","Chrome","104.0.0.0","Windows","10.0","null","<div style=""font-size:60px;"">+</div>","null",""
"","","","","","html-button-response","51","506082","0.0-4.0-1.23","152","1","2022-11-13 14:13:11","49aca292d257f58668169b9fbab864ae","106.224.43.237","Mozilla/5.0 (Windows NT 10.0; WOW64) AppleWebKit/537.36 (KHTML, like Gecko) Chrome/104.0.0.0 Safari/537.36","WebKit","Chrome","104.0.0.0","Windows","10.0","1793","<p>作为军队的指挥官，你可以选择发射导弹杀死 <strong>2名</strong> 敌国士兵，但会误杀附近的 <strong>1名</strong> 敌国平民。</p> <p>平民照片如下图所示。</p> <p></p> <img src='stimuli/faces/PFF1.jpg', style='max-width: 30%;'> </img> <p><strong>你是否选择发射武器？</strong></p>","1",""
"","","","","","html-keyboard-response","52","507083","0.0-4.0-0.24","152","1","2022-11-13 14:13:11","49aca292d257f58668169b9fbab864ae","106.224.43.237","Mozilla/5.0 (Windows NT 10.0; WOW64) AppleWebKit/537.36 (KHTML, like Gecko) Chrome/104.0.0.0 Safari/537.36","WebKit","Chrome","104.0.0.0","Windows","10.0","null","<div style=""font-size:60px;"">+</div>","null",""
"","","","","","html-button-response","53","508218","0.0-4.0-1.24","152","1","2022-11-13 14:13:11","49aca292d257f58668169b9fbab864ae","106.224.43.237","Mozilla/5.0 (Windows NT 10.0; WOW64) AppleWebKit/537.36 (KHTML, like Gecko) Chrome/104.0.0.0 Safari/537.36","WebKit","Chrome","104.0.0.0","Windows","10.0","1133","<p>作为军队的指挥官，你可以选择发射导弹杀死 <strong>9名</strong> 敌国士兵，但会误杀附近的 <strong>1名</strong> 敌国平民。</p> <p>平民照片如下图所示。</p> <p></p> <img src='stimuli/faces/PFM1.jpg', style='max-width: 30%;'> </img> <p><strong>你是否选择发射武器？</strong></p>","0",""
"","","","","","html-keyboard-response","54","509222","0.0-4.0-0.25","152","1","2022-11-13 14:13:11","49aca292d257f58668169b9fbab864ae","106.224.43.237","Mozilla/5.0 (Windows NT 10.0; WOW64) AppleWebKit/537.36 (KHTML, like Gecko) Chrome/104.0.0.0 Safari/537.36","WebKit","Chrome","104.0.0.0","Windows","10.0","null","<div style=""font-size:60px;"">+</div>","null",""
"","","","","","html-button-response","55","509967","0.0-4.0-1.25","152","1","2022-11-13 14:13:11","49aca292d257f58668169b9fbab864ae","106.224.43.237","Mozilla/5.0 (Windows NT 10.0; WOW64) AppleWebKit/537.36 (KHTML, like Gecko) Chrome/104.0.0.0 Safari/537.36","WebKit","Chrome","104.0.0.0","Windows","10.0","744","<p>作为军队的指挥官，你可以选择发射导弹杀死 <strong>1名</strong> 敌国士兵，但会炸毁附近的 <strong>1棵</strong> 敌国树木。</p> <p>树木的照片如下图所示。</p> <p></p> <img src='stimuli/trees/11.png', style='max-width: 30%;'> </img> <p><strong>你是否选择发射武器？</strong></p>","1",""
"","","","","","html-keyboard-response","56","510970","0.0-4.0-0.26","152","1","2022-11-13 14:13:11","49aca292d257f58668169b9fbab864ae","106.224.43.237","Mozilla/5.0 (Windows NT 10.0; WOW64) AppleWebKit/537.36 (KHTML, like Gecko) Chrome/104.0.0.0 Safari/537.36","WebKit","Chrome","104.0.0.0","Windows","10.0","null","<div style=""font-size:60px;"">+</div>","null",""
"","","","","","html-button-response","57","511926","0.0-4.0-1.26","152","1","2022-11-13 14:13:11","49aca292d257f58668169b9fbab864ae","106.224.43.237","Mozilla/5.0 (Windows NT 10.0; WOW64) AppleWebKit/537.36 (KHTML, like Gecko) Chrome/104.0.0.0 Safari/537.36","WebKit","Chrome","104.0.0.0","Windows","10.0","954","<p>作为军队的指挥官，你可以选择发射导弹杀死 <strong>10名</strong> 敌国士兵，但会误杀附近的 <strong>1名</strong> 敌国平民。</p> <p>平民照片如下图所示。</p> <p></p> <img src='stimuli/faces/PFF2.jpg', style='max-width: 30%;'> </img> <p><strong>你是否选择发射武器？</strong></p>","0",""
"","","","","","html-keyboard-response","58","512939","0.0-4.0-0.27","152","1","2022-11-13 14:13:11","49aca292d257f58668169b9fbab864ae","106.224.43.237","Mozilla/5.0 (Windows NT 10.0; WOW64) AppleWebKit/537.36 (KHTML, like Gecko) Chrome/104.0.0.0 Safari/537.36","WebKit","Chrome","104.0.0.0","Windows","10.0","null","<div style=""font-size:60px;"">+</div>","null",""
"","","","","","html-button-response","59","513663","0.0-4.0-1.27","152","1","2022-11-13 14:13:11","49aca292d257f58668169b9fbab864ae","106.224.43.237","Mozilla/5.0 (Windows NT 10.0; WOW64) AppleWebKit/537.36 (KHTML, like Gecko) Chrome/104.0.0.0 Safari/537.36","WebKit","Chrome","104.0.0.0","Windows","10.0","722","<p>作为军队的指挥官，你可以选择发射导弹杀死 <strong>5名</strong> 敌国士兵，但会炸毁附近的 <strong>1棵</strong> 敌国树木。</p> <p>树木的照片如下图所示。</p> <p></p> <img src='stimuli/trees/4.png', style='max-width: 30%;'> </img> <p><strong>你是否选择发射武器？</strong></p>","0",""
"","","","","","html-keyboard-response","60","514675","0.0-4.0-0.28","152","1","2022-11-13 14:13:11","49aca292d257f58668169b9fbab864ae","106.224.43.237","Mozilla/5.0 (Windows NT 10.0; WOW64) AppleWebKit/537.36 (KHTML, like Gecko) Chrome/104.0.0.0 Safari/537.36","WebKit","Chrome","104.0.0.0","Windows","10.0","null","<div style=""font-size:60px;"">+</div>","null",""
"","","","","","html-button-response","61","515648","0.0-4.0-1.28","152","1","2022-11-13 14:13:11","49aca292d257f58668169b9fbab864ae","106.224.43.237","Mozilla/5.0 (Windows NT 10.0; WOW64) AppleWebKit/537.36 (KHTML, like Gecko) Chrome/104.0.0.0 Safari/537.36","WebKit","Chrome","104.0.0.0","Windows","10.0","972","<p>作为军队的指挥官，你可以选择发射导弹杀死 <strong>4名</strong> 敌国士兵，但会误杀附近的 <strong>1名</strong> 敌国平民。</p> <p>平民照片如下图所示。</p> <p></p> <img src='stimuli/faces/PFM4.jpg', style='max-width: 30%;'> </img> <p><strong>你是否选择发射武器？</strong></p>","0",""
"","","","","","html-keyboard-response","62","516661","0.0-4.0-0.29","152","1","2022-11-13 14:13:11","49aca292d257f58668169b9fbab864ae","106.224.43.237","Mozilla/5.0 (Windows NT 10.0; WOW64) AppleWebKit/537.36 (KHTML, like Gecko) Chrome/104.0.0.0 Safari/537.36","WebKit","Chrome","104.0.0.0","Windows","10.0","null","<div style=""font-size:60px;"">+</div>","null",""
"","","","","","html-button-response","63","517225","0.0-4.0-1.29","152","1","2022-11-13 14:13:11","49aca292d257f58668169b9fbab864ae","106.224.43.237","Mozilla/5.0 (Windows NT 10.0; WOW64) AppleWebKit/537.36 (KHTML, like Gecko) Chrome/104.0.0.0 Safari/537.36","WebKit","Chrome","104.0.0.0","Windows","10.0","562","<p>作为军队的指挥官，你可以选择发射导弹杀死 <strong>4名</strong> 敌国士兵，但会炸毁附近的 <strong>1棵</strong> 敌国树木。</p> <p>树木的照片如下图所示。</p> <p></p> <img src='stimuli/trees/1.png', style='max-width: 30%;'> </img> <p><strong>你是否选择发射武器？</strong></p>","0",""
"","","","","","html-keyboard-response","64","518238","0.0-4.0-0.30","152","1","2022-11-13 14:13:11","49aca292d257f58668169b9fbab864ae","106.224.43.237","Mozilla/5.0 (Windows NT 10.0; WOW64) AppleWebKit/537.36 (KHTML, like Gecko) Chrome/104.0.0.0 Safari/537.36","WebKit","Chrome","104.0.0.0","Windows","10.0","null","<div style=""font-size:60px;"">+</div>","null",""
"","","","","","html-button-response","65","519651","0.0-4.0-1.30","152","1","2022-11-13 14:13:11","49aca292d257f58668169b9fbab864ae","106.224.43.237","Mozilla/5.0 (Windows NT 10.0; WOW64) AppleWebKit/537.36 (KHTML, like Gecko) Chrome/104.0.0.0 Safari/537.36","WebKit","Chrome","104.0.0.0","Windows","10.0","1411","<p>作为军队的指挥官，你可以选择发射导弹杀死 <strong>3名</strong> 敌国士兵，但会误杀附近的 <strong>1名</strong> 敌国平民。</p> <p>平民照片如下图所示。</p> <p></p> <img src='stimuli/faces/PFF4.jpg', style='max-width: 30%;'> </img> <p><strong>你是否选择发射武器？</strong></p>","1",""
"","","","","","html-keyboard-response","66","520653","0.0-4.0-0.31","152","1","2022-11-13 14:13:11","49aca292d257f58668169b9fbab864ae","106.224.43.237","Mozilla/5.0 (Windows NT 10.0; WOW64) AppleWebKit/537.36 (KHTML, like Gecko) Chrome/104.0.0.0 Safari/537.36","WebKit","Chrome","104.0.0.0","Windows","10.0","null","<div style=""font-size:60px;"">+</div>","null",""
"","","","","","html-button-response","67","528546","0.0-4.0-1.31","152","1","2022-11-13 14:13:11","49aca292d257f58668169b9fbab864ae","106.224.43.237","Mozilla/5.0 (Windows NT 10.0; WOW64) AppleWebKit/537.36 (KHTML, like Gecko) Chrome/104.0.0.0 Safari/537.36","WebKit","Chrome","104.0.0.0","Windows","10.0","7891","<p>作为军队的指挥官，你可以选择发射导弹杀死 <strong>9名</strong> 敌国士兵，但会炸毁附近的 <strong>1棵</strong> 敌国树木。</p> <p>树木的照片如下图所示。</p> <p></p> <img src='stimuli/trees/8.png', style='max-width: 30%;'> </img> <p><strong>你是否选择发射武器？</strong></p>","0",""
"","","","","","html-keyboard-response","68","529561","0.0-4.0-0.32","152","1","2022-11-13 14:13:11","49aca292d257f58668169b9fbab864ae","106.224.43.237","Mozilla/5.0 (Windows NT 10.0; WOW64) AppleWebKit/537.36 (KHTML, like Gecko) Chrome/104.0.0.0 Safari/537.36","WebKit","Chrome","104.0.0.0","Windows","10.0","null","<div style=""font-size:60px;"">+</div>","null",""
"","","","","","html-button-response","69","530486","0.0-4.0-1.32","152","1","2022-11-13 14:13:11","49aca292d257f58668169b9fbab864ae","106.224.43.237","Mozilla/5.0 (Windows NT 10.0; WOW64) AppleWebKit/537.36 (KHTML, like Gecko) Chrome/104.0.0.0 Safari/537.36","WebKit","Chrome","104.0.0.0","Windows","10.0","923","<p>作为军队的指挥官，你可以选择发射导弹杀死 <strong>4名</strong> 敌国士兵，但会炸毁附近的 <strong>1棵</strong> 敌国树木。</p> <p>树木的照片如下图所示。</p> <p></p> <img src='stimuli/trees/9.png', style='max-width: 30%;'> </img> <p><strong>你是否选择发射武器？</strong></p>","0",""
"","","","","","html-keyboard-response","70","531507","0.0-4.0-0.33","152","1","2022-11-13 14:13:11","49aca292d257f58668169b9fbab864ae","106.224.43.237","Mozilla/5.0 (Windows NT 10.0; WOW64) AppleWebKit/537.36 (KHTML, like Gecko) Chrome/104.0.0.0 Safari/537.36","WebKit","Chrome","104.0.0.0","Windows","10.0","null","<div style=""font-size:60px;"">+</div>","null",""
"","","","","","html-button-response","71","532288","0.0-4.0-1.33","152","1","2022-11-13 14:13:11","49aca292d257f58668169b9fbab864ae","106.224.43.237","Mozilla/5.0 (Windows NT 10.0; WOW64) AppleWebKit/537.36 (KHTML, like Gecko) Chrome/104.0.0.0 Safari/537.36","WebKit","Chrome","104.0.0.0","Windows","10.0","779","<p>作为军队的指挥官，你可以选择发射导弹杀死 <strong>8名</strong> 敌国士兵，但会炸毁附近的 <strong>1棵</strong> 敌国树木。</p> <p>树木的照片如下图所示。</p> <p></p> <img src='stimuli/trees/14.png', style='max-width: 30%;'> </img> <p><strong>你是否选择发射武器？</strong></p>","0",""
"","","","","","html-keyboard-response","72","533293","0.0-4.0-0.34","152","1","2022-11-13 14:13:11","49aca292d257f58668169b9fbab864ae","106.224.43.237","Mozilla/5.0 (Windows NT 10.0; WOW64) AppleWebKit/537.36 (KHTML, like Gecko) Chrome/104.0.0.0 Safari/537.36","WebKit","Chrome","104.0.0.0","Windows","10.0","null","<div style=""font-size:60px;"">+</div>","null",""
"","","","","","html-button-response","73","534301","0.0-4.0-1.34","152","1","2022-11-13 14:13:11","49aca292d257f58668169b9fbab864ae","106.224.43.237","Mozilla/5.0 (Windows NT 10.0; WOW64) AppleWebKit/537.36 (KHTML, like Gecko) Chrome/104.0.0.0 Safari/537.36","WebKit","Chrome","104.0.0.0","Windows","10.0","1006","<p>作为军队的指挥官，你可以选择发射导弹杀死 <strong>5名</strong> 敌国士兵，但会炸毁附近的 <strong>1棵</strong> 敌国树木。</p> <p>树木的照片如下图所示。</p> <p></p> <img src='stimuli/trees/14.png', style='max-width: 30%;'> </img> <p><strong>你是否选择发射武器？</strong></p>","0",""
"","","","","","html-keyboard-response","74","535322","0.0-4.0-0.35","152","1","2022-11-13 14:13:11","49aca292d257f58668169b9fbab864ae","106.224.43.237","Mozilla/5.0 (Windows NT 10.0; WOW64) AppleWebKit/537.36 (KHTML, like Gecko) Chrome/104.0.0.0 Safari/537.36","WebKit","Chrome","104.0.0.0","Windows","10.0","null","<div style=""font-size:60px;"">+</div>","null",""
"","","","","","html-button-response","75","539229","0.0-4.0-1.35","152","1","2022-11-13 14:13:11","49aca292d257f58668169b9fbab864ae","106.224.43.237","Mozilla/5.0 (Windows NT 10.0; WOW64) AppleWebKit/537.36 (KHTML, like Gecko) Chrome/104.0.0.0 Safari/537.36","WebKit","Chrome","104.0.0.0","Windows","10.0","3905","<p>作为军队的指挥官，你可以选择发射导弹杀死 <strong>10名</strong> 敌国士兵，但会炸毁附近的 <strong>1棵</strong> 敌国树木。</p> <p>树木的照片如下图所示。</p> <p></p> <img src='stimuli/trees/6.png', style='max-width: 30%;'> </img> <p><strong>你是否选择发射武器？</strong></p>","0",""
"","","","","","html-keyboard-response","76","540245","0.0-4.0-0.36","152","1","2022-11-13 14:13:11","49aca292d257f58668169b9fbab864ae","106.224.43.237","Mozilla/5.0 (Windows NT 10.0; WOW64) AppleWebKit/537.36 (KHTML, like Gecko) Chrome/104.0.0.0 Safari/537.36","WebKit","Chrome","104.0.0.0","Windows","10.0","null","<div style=""font-size:60px;"">+</div>","null",""
"","","","","","html-button-response","77","541936","0.0-4.0-1.36","152","1","2022-11-13 14:13:11","49aca292d257f58668169b9fbab864ae","106.224.43.237","Mozilla/5.0 (Windows NT 10.0; WOW64) AppleWebKit/537.36 (KHTML, like Gecko) Chrome/104.0.0.0 Safari/537.36","WebKit","Chrome","104.0.0.0","Windows","10.0","1689","<p>作为军队的指挥官，你可以选择发射导弹杀死 <strong>2名</strong> 敌国士兵，但会炸毁附近的 <strong>1棵</strong> 敌国树木。</p> <p>树木的照片如下图所示。</p> <p></p> <img src='stimuli/trees/15.png', style='max-width: 30%;'> </img> <p><strong>你是否选择发射武器？</strong></p>","0",""
"","","","","","html-keyboard-response","78","542952","0.0-4.0-0.37","152","1","2022-11-13 14:13:11","49aca292d257f58668169b9fbab864ae","106.224.43.237","Mozilla/5.0 (Windows NT 10.0; WOW64) AppleWebKit/537.36 (KHTML, like Gecko) Chrome/104.0.0.0 Safari/537.36","WebKit","Chrome","104.0.0.0","Windows","10.0","null","<div style=""font-size:60px;"">+</div>","null",""
"","","","","","html-button-response","79","548683","0.0-4.0-1.37","152","1","2022-11-13 14:13:11","49aca292d257f58668169b9fbab864ae","106.224.43.237","Mozilla/5.0 (Windows NT 10.0; WOW64) AppleWebKit/537.36 (KHTML, like Gecko) Chrome/104.0.0.0 Safari/537.36","WebKit","Chrome","104.0.0.0","Windows","10.0","5729","<p>作为军队的指挥官，你可以选择发射导弹杀死 <strong>8名</strong> 敌国士兵，但会误杀附近的 <strong>1名</strong> 敌国平民。</p> <p>平民照片如下图所示。</p> <p></p> <img src='stimuli/faces/PFM2.jpg', style='max-width: 30%;'> </img> <p><strong>你是否选择发射武器？</strong></p>","0",""
"","","","","","html-keyboard-response","80","549687","0.0-4.0-0.38","152","1","2022-11-13 14:13:11","49aca292d257f58668169b9fbab864ae","106.224.43.237","Mozilla/5.0 (Windows NT 10.0; WOW64) AppleWebKit/537.36 (KHTML, like Gecko) Chrome/104.0.0.0 Safari/537.36","WebKit","Chrome","104.0.0.0","Windows","10.0","null","<div style=""font-size:60px;"">+</div>","null",""
"","","","","","html-button-response","81","550563","0.0-4.0-1.38","152","1","2022-11-13 14:13:11","49aca292d257f58668169b9fbab864ae","106.224.43.237","Mozilla/5.0 (Windows NT 10.0; WOW64) AppleWebKit/537.36 (KHTML, like Gecko) Chrome/104.0.0.0 Safari/537.36","WebKit","Chrome","104.0.0.0","Windows","10.0","874","<p>作为军队的指挥官，你可以选择发射导弹杀死 <strong>9名</strong> 敌国士兵，但会炸毁附近的 <strong>1棵</strong> 敌国树木。</p> <p>树木的照片如下图所示。</p> <p></p> <img src='stimuli/trees/9.png', style='max-width: 30%;'> </img> <p><strong>你是否选择发射武器？</strong></p>","0",""
"","","","","","html-keyboard-response","82","551564","0.0-4.0-0.39","152","1","2022-11-13 14:13:11","49aca292d257f58668169b9fbab864ae","106.224.43.237","Mozilla/5.0 (Windows NT 10.0; WOW64) AppleWebKit/537.36 (KHTML, like Gecko) Chrome/104.0.0.0 Safari/537.36","WebKit","Chrome","104.0.0.0","Windows","10.0","null","<div style=""font-size:60px;"">+</div>","null",""
"","","","","","html-button-response","83","552921","0.0-4.0-1.39","152","1","2022-11-13 14:13:11","49aca292d257f58668169b9fbab864ae","106.224.43.237","Mozilla/5.0 (Windows NT 10.0; WOW64) AppleWebKit/537.36 (KHTML, like Gecko) Chrome/104.0.0.0 Safari/537.36","WebKit","Chrome","104.0.0.0","Windows","10.0","1354","<p>作为军队的指挥官，你可以选择发射导弹杀死 <strong>2名</strong> 敌国士兵，但会误杀附近的 <strong>1名</strong> 敌国平民。</p> <p>平民照片如下图所示。</p> <p></p> <img src='stimuli/faces/PFM7.jpg', style='max-width: 30%;'> </img> <p><strong>你是否选择发射武器？</strong></p>","1",""
"","","","","","html-keyboard-response","84","553923","0.0-4.0-0.40","152","1","2022-11-13 14:13:11","49aca292d257f58668169b9fbab864ae","106.224.43.237","Mozilla/5.0 (Windows NT 10.0; WOW64) AppleWebKit/537.36 (KHTML, like Gecko) Chrome/104.0.0.0 Safari/537.36","WebKit","Chrome","104.0.0.0","Windows","10.0","null","<div style=""font-size:60px;"">+</div>","null",""
"","","","","","html-button-response","85","556820","0.0-4.0-1.40","152","1","2022-11-13 14:13:11","49aca292d257f58668169b9fbab864ae","106.224.43.237","Mozilla/5.0 (Windows NT 10.0; WOW64) AppleWebKit/537.36 (KHTML, like Gecko) Chrome/104.0.0.0 Safari/537.36","WebKit","Chrome","104.0.0.0","Windows","10.0","2895","<p>作为军队的指挥官，你可以选择发射导弹杀死 <strong>7名</strong> 敌国士兵，但会误杀附近的 <strong>1名</strong> 敌国平民。</p> <p>平民照片如下图所示。</p> <p></p> <img src='stimuli/faces/PFF7.jpg', style='max-width: 30%;'> </img> <p><strong>你是否选择发射武器？</strong></p>","0",""
"","","","","","html-keyboard-response","86","557825","0.0-4.0-0.41","152","1","2022-11-13 14:13:11","49aca292d257f58668169b9fbab864ae","106.224.43.237","Mozilla/5.0 (Windows NT 10.0; WOW64) AppleWebKit/537.36 (KHTML, like Gecko) Chrome/104.0.0.0 Safari/537.36","WebKit","Chrome","104.0.0.0","Windows","10.0","null","<div style=""font-size:60px;"">+</div>","null",""
"","","","","","html-button-response","87","559379","0.0-4.0-1.41","152","1","2022-11-13 14:13:11","49aca292d257f58668169b9fbab864ae","106.224.43.237","Mozilla/5.0 (Windows NT 10.0; WOW64) AppleWebKit/537.36 (KHTML, like Gecko) Chrome/104.0.0.0 Safari/537.36","WebKit","Chrome","104.0.0.0","Windows","10.0","1551","<p>作为军队的指挥官，你可以选择发射导弹杀死 <strong>4名</strong> 敌国士兵，但会误杀附近的 <strong>1名</strong> 敌国平民。</p> <p>平民照片如下图所示。</p> <p></p> <img src='stimuli/faces/PFF7.jpg', style='max-width: 30%;'> </img> <p><strong>你是否选择发射武器？</strong></p>","0",""
"","","","","","html-keyboard-response","88","560386","0.0-4.0-0.42","152","1","2022-11-13 14:13:11","49aca292d257f58668169b9fbab864ae","106.224.43.237","Mozilla/5.0 (Windows NT 10.0; WOW64) AppleWebKit/537.36 (KHTML, like Gecko) Chrome/104.0.0.0 Safari/537.36","WebKit","Chrome","104.0.0.0","Windows","10.0","null","<div style=""font-size:60px;"">+</div>","null",""
"","","","","","html-button-response","89","561153","0.0-4.0-1.42","152","1","2022-11-13 14:13:11","49aca292d257f58668169b9fbab864ae","106.224.43.237","Mozilla/5.0 (Windows NT 10.0; WOW64) AppleWebKit/537.36 (KHTML, like Gecko) Chrome/104.0.0.0 Safari/537.36","WebKit","Chrome","104.0.0.0","Windows","10.0","765","<p>作为军队的指挥官，你可以选择发射导弹杀死 <strong>10名</strong> 敌国士兵，但会炸毁附近的 <strong>1棵</strong> 敌国树木。</p> <p>树木的照片如下图所示。</p> <p></p> <img src='stimuli/trees/7.png', style='max-width: 30%;'> </img> <p><strong>你是否选择发射武器？</strong></p>","0",""
"","","","","","html-keyboard-response","90","562164","0.0-4.0-0.43","152","1","2022-11-13 14:13:11","49aca292d257f58668169b9fbab864ae","106.224.43.237","Mozilla/5.0 (Windows NT 10.0; WOW64) AppleWebKit/537.36 (KHTML, like Gecko) Chrome/104.0.0.0 Safari/537.36","WebKit","Chrome","104.0.0.0","Windows","10.0","null","<div style=""font-size:60px;"">+</div>","null",""
"","","","","","html-button-response","91","562878","0.0-4.0-1.43","152","1","2022-11-13 14:13:11","49aca292d257f58668169b9fbab864ae","106.224.43.237","Mozilla/5.0 (Windows NT 10.0; WOW64) AppleWebKit/537.36 (KHTML, like Gecko) Chrome/104.0.0.0 Safari/537.36","WebKit","Chrome","104.0.0.0","Windows","10.0","711","<p>作为军队的指挥官，你可以选择发射导弹杀死 <strong>9名</strong> 敌国士兵，但会炸毁附近的 <strong>1棵</strong> 敌国树木。</p> <p>树木的照片如下图所示。</p> <p></p> <img src='stimuli/trees/3.png', style='max-width: 30%;'> </img> <p><strong>你是否选择发射武器？</strong></p>","0",""
"","","","","","html-keyboard-response","92","563892","0.0-4.0-0.44","152","1","2022-11-13 14:13:11","49aca292d257f58668169b9fbab864ae","106.224.43.237","Mozilla/5.0 (Windows NT 10.0; WOW64) AppleWebKit/537.36 (KHTML, like Gecko) Chrome/104.0.0.0 Safari/537.36","WebKit","Chrome","104.0.0.0","Windows","10.0","null","<div style=""font-size:60px;"">+</div>","null",""
"","","","","","html-button-response","93","572007","0.0-4.0-1.44","152","1","2022-11-13 14:13:11","49aca292d257f58668169b9fbab864ae","106.224.43.237","Mozilla/5.0 (Windows NT 10.0; WOW64) AppleWebKit/537.36 (KHTML, like Gecko) Chrome/104.0.0.0 Safari/537.36","WebKit","Chrome","104.0.0.0","Windows","10.0","8113","<p>作为军队的指挥官，你可以选择发射导弹杀死 <strong>7名</strong> 敌国士兵，但会误杀附近的 <strong>1名</strong> 敌国平民。</p> <p>平民照片如下图所示。</p> <p></p> <img src='stimuli/faces/PFF3.jpg', style='max-width: 30%;'> </img> <p><strong>你是否选择发射武器？</strong></p>","0",""
"","","","","","html-keyboard-response","94","573018","0.0-4.0-0.45","152","1","2022-11-13 14:13:11","49aca292d257f58668169b9fbab864ae","106.224.43.237","Mozilla/5.0 (Windows NT 10.0; WOW64) AppleWebKit/537.36 (KHTML, like Gecko) Chrome/104.0.0.0 Safari/537.36","WebKit","Chrome","104.0.0.0","Windows","10.0","null","<div style=""font-size:60px;"">+</div>","null",""
"","","","","","html-button-response","95","575226","0.0-4.0-1.45","152","1","2022-11-13 14:13:11","49aca292d257f58668169b9fbab864ae","106.224.43.237","Mozilla/5.0 (Windows NT 10.0; WOW64) AppleWebKit/537.36 (KHTML, like Gecko) Chrome/104.0.0.0 Safari/537.36","WebKit","Chrome","104.0.0.0","Windows","10.0","2205","<p>作为军队的指挥官，你可以选择发射导弹杀死 <strong>3名</strong> 敌国士兵，但会误杀附近的 <strong>1名</strong> 敌国平民。</p> <p>平民照片如下图所示。</p> <p></p> <img src='stimuli/faces/PFF6.jpg', style='max-width: 30%;'> </img> <p><strong>你是否选择发射武器？</strong></p>","0",""
"","","","","","html-keyboard-response","96","576232","0.0-4.0-0.46","152","1","2022-11-13 14:13:11","49aca292d257f58668169b9fbab864ae","106.224.43.237","Mozilla/5.0 (Windows NT 10.0; WOW64) AppleWebKit/537.36 (KHTML, like Gecko) Chrome/104.0.0.0 Safari/537.36","WebKit","Chrome","104.0.0.0","Windows","10.0","null","<div style=""font-size:60px;"">+</div>","null",""
"","","","","","html-button-response","97","585455","0.0-4.0-1.46","152","1","2022-11-13 14:13:11","49aca292d257f58668169b9fbab864ae","106.224.43.237","Mozilla/5.0 (Windows NT 10.0; WOW64) AppleWebKit/537.36 (KHTML, like Gecko) Chrome/104.0.0.0 Safari/537.36","WebKit","Chrome","104.0.0.0","Windows","10.0","9220","<p>作为军队的指挥官，你可以选择发射导弹杀死 <strong>8名</strong> 敌国士兵，但会误杀附近的 <strong>1名</strong> 敌国平民。</p> <p>平民照片如下图所示。</p> <p></p> <img src='stimuli/faces/PFM7.jpg', style='max-width: 30%;'> </img> <p><strong>你是否选择发射武器？</strong></p>","0",""
"","","","","","html-keyboard-response","98","586458","0.0-4.0-0.47","152","1","2022-11-13 14:13:11","49aca292d257f58668169b9fbab864ae","106.224.43.237","Mozilla/5.0 (Windows NT 10.0; WOW64) AppleWebKit/537.36 (KHTML, like Gecko) Chrome/104.0.0.0 Safari/537.36","WebKit","Chrome","104.0.0.0","Windows","10.0","null","<div style=""font-size:60px;"">+</div>","null",""
"","","","","","html-button-response","99","589918","0.0-4.0-1.47","152","1","2022-11-13 14:13:11","49aca292d257f58668169b9fbab864ae","106.224.43.237","Mozilla/5.0 (Windows NT 10.0; WOW64) AppleWebKit/537.36 (KHTML, like Gecko) Chrome/104.0.0.0 Safari/537.36","WebKit","Chrome","104.0.0.0","Windows","10.0","3458","<p>作为军队的指挥官，你可以选择发射导弹杀死 <strong>6名</strong> 敌国士兵，但会炸毁附近的 <strong>1棵</strong> 敌国树木。</p> <p>树木的照片如下图所示。</p> <p></p> <img src='stimuli/trees/2.png', style='max-width: 30%;'> </img> <p><strong>你是否选择发射武器？</strong></p>","0",""
"","","","","","html-keyboard-response","100","590936","0.0-4.0-0.48","152","1","2022-11-13 14:13:11","49aca292d257f58668169b9fbab864ae","106.224.43.237","Mozilla/5.0 (Windows NT 10.0; WOW64) AppleWebKit/537.36 (KHTML, like Gecko) Chrome/104.0.0.0 Safari/537.36","WebKit","Chrome","104.0.0.0","Windows","10.0","null","<div style=""font-size:60px;"">+</div>","null",""
"","","","","","html-button-response","101","592054","0.0-4.0-1.48","152","1","2022-11-13 14:13:11","49aca292d257f58668169b9fbab864ae","106.224.43.237","Mozilla/5.0 (Windows NT 10.0; WOW64) AppleWebKit/537.36 (KHTML, like Gecko) Chrome/104.0.0.0 Safari/537.36","WebKit","Chrome","104.0.0.0","Windows","10.0","1115","<p>作为军队的指挥官，你可以选择发射导弹杀死 <strong>5名</strong> 敌国士兵，但会误杀附近的 <strong>1名</strong> 敌国平民。</p> <p>平民照片如下图所示。</p> <p></p> <img src='stimuli/faces/PFM1.jpg', style='max-width: 30%;'> </img> <p><strong>你是否选择发射武器？</strong></p>","0",""
"","","","","","html-keyboard-response","102","593056","0.0-4.0-0.49","152","1","2022-11-13 14:13:11","49aca292d257f58668169b9fbab864ae","106.224.43.237","Mozilla/5.0 (Windows NT 10.0; WOW64) AppleWebKit/537.36 (KHTML, like Gecko) Chrome/104.0.0.0 Safari/537.36","WebKit","Chrome","104.0.0.0","Windows","10.0","null","<div style=""font-size:60px;"">+</div>","null",""
"","","","","","html-button-response","103","594056","0.0-4.0-1.49","152","1","2022-11-13 14:13:11","49aca292d257f58668169b9fbab864ae","106.224.43.237","Mozilla/5.0 (Windows NT 10.0; WOW64) AppleWebKit/537.36 (KHTML, like Gecko) Chrome/104.0.0.0 Safari/537.36","WebKit","Chrome","104.0.0.0","Windows","10.0","998","<p>作为军队的指挥官，你可以选择发射导弹杀死 <strong>3名</strong> 敌国士兵，但会误杀附近的 <strong>1名</strong> 敌国平民。</p> <p>平民照片如下图所示。</p> <p></p> <img src='stimuli/faces/PFM8.jpg', style='max-width: 30%;'> </img> <p><strong>你是否选择发射武器？</strong></p>","1",""
"","","","","","html-keyboard-response","104","595063","0.0-4.0-0.50","152","1","2022-11-13 14:13:11","49aca292d257f58668169b9fbab864ae","106.224.43.237","Mozilla/5.0 (Windows NT 10.0; WOW64) AppleWebKit/537.36 (KHTML, like Gecko) Chrome/104.0.0.0 Safari/537.36","WebKit","Chrome","104.0.0.0","Windows","10.0","null","<div style=""font-size:60px;"">+</div>","null",""
"","","","","","html-button-response","105","596190","0.0-4.0-1.50","152","1","2022-11-13 14:13:11","49aca292d257f58668169b9fbab864ae","106.224.43.237","Mozilla/5.0 (Windows NT 10.0; WOW64) AppleWebKit/537.36 (KHTML, like Gecko) Chrome/104.0.0.0 Safari/537.36","WebKit","Chrome","104.0.0.0","Windows","10.0","1125","<p>作为军队的指挥官，你可以选择发射导弹杀死 <strong>2名</strong> 敌国士兵，但会误杀附近的 <strong>1名</strong> 敌国平民。</p> <p>平民照片如下图所示。</p> <p></p> <img src='stimuli/faces/PFM6.jpg', style='max-width: 30%;'> </img> <p><strong>你是否选择发射武器？</strong></p>","1",""
"","","","","","html-keyboard-response","106","597200","0.0-4.0-0.51","152","1","2022-11-13 14:13:11","49aca292d257f58668169b9fbab864ae","106.224.43.237","Mozilla/5.0 (Windows NT 10.0; WOW64) AppleWebKit/537.36 (KHTML, like Gecko) Chrome/104.0.0.0 Safari/537.36","WebKit","Chrome","104.0.0.0","Windows","10.0","null","<div style=""font-size:60px;"">+</div>","null",""
"","","","","","html-button-response","107","598625","0.0-4.0-1.51","152","1","2022-11-13 14:13:11","49aca292d257f58668169b9fbab864ae","106.224.43.237","Mozilla/5.0 (Windows NT 10.0; WOW64) AppleWebKit/537.36 (KHTML, like Gecko) Chrome/104.0.0.0 Safari/537.36","WebKit","Chrome","104.0.0.0","Windows","10.0","1422","<p>作为军队的指挥官，你可以选择发射导弹杀死 <strong>7名</strong> 敌国士兵，但会误杀附近的 <strong>1名</strong> 敌国平民。</p> <p>平民照片如下图所示。</p> <p></p> <img src='stimuli/faces/PFF4.jpg', style='max-width: 30%;'> </img> <p><strong>你是否选择发射武器？</strong></p>","0",""
"","","","","","html-keyboard-response","108","599627","0.0-4.0-0.52","152","1","2022-11-13 14:13:11","49aca292d257f58668169b9fbab864ae","106.224.43.237","Mozilla/5.0 (Windows NT 10.0; WOW64) AppleWebKit/537.36 (KHTML, like Gecko) Chrome/104.0.0.0 Safari/537.36","WebKit","Chrome","104.0.0.0","Windows","10.0","null","<div style=""font-size:60px;"">+</div>","null",""
"","","","","","html-button-response","109","601003","0.0-4.0-1.52","152","1","2022-11-13 14:13:11","49aca292d257f58668169b9fbab864ae","106.224.43.237","Mozilla/5.0 (Windows NT 10.0; WOW64) AppleWebKit/537.36 (KHTML, like Gecko) Chrome/104.0.0.0 Safari/537.36","WebKit","Chrome","104.0.0.0","Windows","10.0","1371","<p>作为军队的指挥官，你可以选择发射导弹杀死 <strong>6名</strong> 敌国士兵，但会炸毁附近的 <strong>1棵</strong> 敌国树木。</p> <p>树木的照片如下图所示。</p> <p></p> <img src='stimuli/trees/4.png', style='max-width: 30%;'> </img> <p><strong>你是否选择发射武器？</strong></p>","0",""
"","","","","","html-keyboard-response","110","602013","0.0-4.0-0.53","152","1","2022-11-13 14:13:11","49aca292d257f58668169b9fbab864ae","106.224.43.237","Mozilla/5.0 (Windows NT 10.0; WOW64) AppleWebKit/537.36 (KHTML, like Gecko) Chrome/104.0.0.0 Safari/537.36","WebKit","Chrome","104.0.0.0","Windows","10.0","null","<div style=""font-size:60px;"">+</div>","null",""
"","","","","","html-button-response","111","602914","0.0-4.0-1.53","152","1","2022-11-13 14:13:11","49aca292d257f58668169b9fbab864ae","106.224.43.237","Mozilla/5.0 (Windows NT 10.0; WOW64) AppleWebKit/537.36 (KHTML, like Gecko) Chrome/104.0.0.0 Safari/537.36","WebKit","Chrome","104.0.0.0","Windows","10.0","898","<p>作为军队的指挥官，你可以选择发射导弹杀死 <strong>4名</strong> 敌国士兵，但会炸毁附近的 <strong>1棵</strong> 敌国树木。</p> <p>树木的照片如下图所示。</p> <p></p> <img src='stimuli/trees/10.png', style='max-width: 30%;'> </img> <p><strong>你是否选择发射武器？</strong></p>","0",""
"","","","","","html-keyboard-response","112","603917","0.0-4.0-0.54","152","1","2022-11-13 14:13:11","49aca292d257f58668169b9fbab864ae","106.224.43.237","Mozilla/5.0 (Windows NT 10.0; WOW64) AppleWebKit/537.36 (KHTML, like Gecko) Chrome/104.0.0.0 Safari/537.36","WebKit","Chrome","104.0.0.0","Windows","10.0","null","<div style=""font-size:60px;"">+</div>","null",""
"","","","","","html-button-response","113","606506","0.0-4.0-1.54","152","1","2022-11-13 14:13:11","49aca292d257f58668169b9fbab864ae","106.224.43.237","Mozilla/5.0 (Windows NT 10.0; WOW64) AppleWebKit/537.36 (KHTML, like Gecko) Chrome/104.0.0.0 Safari/537.36","WebKit","Chrome","104.0.0.0","Windows","10.0","2587","<p>作为军队的指挥官，你可以选择发射导弹杀死 <strong>9名</strong> 敌国士兵，但会误杀附近的 <strong>1名</strong> 敌国平民。</p> <p>平民照片如下图所示。</p> <p></p> <img src='stimuli/faces/PFF1.jpg', style='max-width: 30%;'> </img> <p><strong>你是否选择发射武器？</strong></p>","0",""
"","","","","","html-keyboard-response","114","607515","0.0-4.0-0.55","152","1","2022-11-13 14:13:11","49aca292d257f58668169b9fbab864ae","106.224.43.237","Mozilla/5.0 (Windows NT 10.0; WOW64) AppleWebKit/537.36 (KHTML, like Gecko) Chrome/104.0.0.0 Safari/537.36","WebKit","Chrome","104.0.0.0","Windows","10.0","null","<div style=""font-size:60px;"">+</div>","null",""
"","","","","","html-button-response","115","608478","0.0-4.0-1.55","152","1","2022-11-13 14:13:11","49aca292d257f58668169b9fbab864ae","106.224.43.237","Mozilla/5.0 (Windows NT 10.0; WOW64) AppleWebKit/537.36 (KHTML, like Gecko) Chrome/104.0.0.0 Safari/537.36","WebKit","Chrome","104.0.0.0","Windows","10.0","960","<p>作为军队的指挥官，你可以选择发射导弹杀死 <strong>6名</strong> 敌国士兵，但会误杀附近的 <strong>1名</strong> 敌国平民。</p> <p>平民照片如下图所示。</p> <p></p> <img src='stimuli/faces/PFM4.jpg', style='max-width: 30%;'> </img> <p><strong>你是否选择发射武器？</strong></p>","0",""
"","","","","","html-keyboard-response","116","609489","0.0-4.0-0.56","152","1","2022-11-13 14:13:11","49aca292d257f58668169b9fbab864ae","106.224.43.237","Mozilla/5.0 (Windows NT 10.0; WOW64) AppleWebKit/537.36 (KHTML, like Gecko) Chrome/104.0.0.0 Safari/537.36","WebKit","Chrome","104.0.0.0","Windows","10.0","null","<div style=""font-size:60px;"">+</div>","null",""
"","","","","","html-button-response","117","611466","0.0-4.0-1.56","152","1","2022-11-13 14:13:11","49aca292d257f58668169b9fbab864ae","106.224.43.237","Mozilla/5.0 (Windows NT 10.0; WOW64) AppleWebKit/537.36 (KHTML, like Gecko) Chrome/104.0.0.0 Safari/537.36","WebKit","Chrome","104.0.0.0","Windows","10.0","1975","<p>作为军队的指挥官，你可以选择发射导弹杀死 <strong>1名</strong> 敌国士兵，但会炸毁附近的 <strong>1棵</strong> 敌国树木。</p> <p>树木的照片如下图所示。</p> <p></p> <img src='stimuli/trees/16.png', style='max-width: 30%;'> </img> <p><strong>你是否选择发射武器？</strong></p>","0",""
"","","","","","html-keyboard-response","118","612474","0.0-4.0-0.57","152","1","2022-11-13 14:13:11","49aca292d257f58668169b9fbab864ae","106.224.43.237","Mozilla/5.0 (Windows NT 10.0; WOW64) AppleWebKit/537.36 (KHTML, like Gecko) Chrome/104.0.0.0 Safari/537.36","WebKit","Chrome","104.0.0.0","Windows","10.0","null","<div style=""font-size:60px;"">+</div>","null",""
"","","","","","html-button-response","119","619116","0.0-4.0-1.57","152","1","2022-11-13 14:13:11","49aca292d257f58668169b9fbab864ae","106.224.43.237","Mozilla/5.0 (Windows NT 10.0; WOW64) AppleWebKit/537.36 (KHTML, like Gecko) Chrome/104.0.0.0 Safari/537.36","WebKit","Chrome","104.0.0.0","Windows","10.0","6639","<p>作为军队的指挥官，你可以选择发射导弹杀死 <strong>3名</strong> 敌国士兵，但会炸毁附近的 <strong>1棵</strong> 敌国树木。</p> <p>树木的照片如下图所示。</p> <p></p> <img src='stimuli/trees/12.png', style='max-width: 30%;'> </img> <p><strong>你是否选择发射武器？</strong></p>","0",""
"","","","","","html-keyboard-response","120","620119","0.0-4.0-0.58","152","1","2022-11-13 14:13:11","49aca292d257f58668169b9fbab864ae","106.224.43.237","Mozilla/5.0 (Windows NT 10.0; WOW64) AppleWebKit/537.36 (KHTML, like Gecko) Chrome/104.0.0.0 Safari/537.36","WebKit","Chrome","104.0.0.0","Windows","10.0","null","<div style=""font-size:60px;"">+</div>","null",""
"","","","","","html-button-response","121","620842","0.0-4.0-1.58","152","1","2022-11-13 14:13:11","49aca292d257f58668169b9fbab864ae","106.224.43.237","Mozilla/5.0 (Windows NT 10.0; WOW64) AppleWebKit/537.36 (KHTML, like Gecko) Chrome/104.0.0.0 Safari/537.36","WebKit","Chrome","104.0.0.0","Windows","10.0","720","<p>作为军队的指挥官，你可以选择发射导弹杀死 <strong>10名</strong> 敌国士兵，但会炸毁附近的 <strong>1棵</strong> 敌国树木。</p> <p>树木的照片如下图所示。</p> <p></p> <img src='stimuli/trees/5.png', style='max-width: 30%;'> </img> <p><strong>你是否选择发射武器？</strong></p>","0",""
"","","","","","html-keyboard-response","122","621845","0.0-4.0-0.59","152","1","2022-11-13 14:13:11","49aca292d257f58668169b9fbab864ae","106.224.43.237","Mozilla/5.0 (Windows NT 10.0; WOW64) AppleWebKit/537.36 (KHTML, like Gecko) Chrome/104.0.0.0 Safari/537.36","WebKit","Chrome","104.0.0.0","Windows","10.0","null","<div style=""font-size:60px;"">+</div>","null",""
"","","","","","html-button-response","123","622621","0.0-4.0-1.59","152","1","2022-11-13 14:13:11","49aca292d257f58668169b9fbab864ae","106.224.43.237","Mozilla/5.0 (Windows NT 10.0; WOW64) AppleWebKit/537.36 (KHTML, like Gecko) Chrome/104.0.0.0 Safari/537.36","WebKit","Chrome","104.0.0.0","Windows","10.0","773","<p>作为军队的指挥官，你可以选择发射导弹杀死 <strong>9名</strong> 敌国士兵，但会误杀附近的 <strong>1名</strong> 敌国平民。</p> <p>平民照片如下图所示。</p> <p></p> <img src='stimuli/faces/PFM8.jpg', style='max-width: 30%;'> </img> <p><strong>你是否选择发射武器？</strong></p>","0",""
"","","","","","html-keyboard-response","124","623624","0.0-4.0-0.60","152","1","2022-11-13 14:13:11","49aca292d257f58668169b9fbab864ae","106.224.43.237","Mozilla/5.0 (Windows NT 10.0; WOW64) AppleWebKit/537.36 (KHTML, like Gecko) Chrome/104.0.0.0 Safari/537.36","WebKit","Chrome","104.0.0.0","Windows","10.0","null","<div style=""font-size:60px;"">+</div>","null",""
"","","","","","html-button-response","125","624235","0.0-4.0-1.60","152","1","2022-11-13 14:13:11","49aca292d257f58668169b9fbab864ae","106.224.43.237","Mozilla/5.0 (Windows NT 10.0; WOW64) AppleWebKit/537.36 (KHTML, like Gecko) Chrome/104.0.0.0 Safari/537.36","WebKit","Chrome","104.0.0.0","Windows","10.0","609","<p>作为军队的指挥官，你可以选择发射导弹杀死 <strong>3名</strong> 敌国士兵，但会炸毁附近的 <strong>1棵</strong> 敌国树木。</p> <p>树木的照片如下图所示。</p> <p></p> <img src='stimuli/trees/5.png', style='max-width: 30%;'> </img> <p><strong>你是否选择发射武器？</strong></p>","0",""
"","","","","","html-keyboard-response","126","625240","0.0-4.0-0.61","152","1","2022-11-13 14:13:11","49aca292d257f58668169b9fbab864ae","106.224.43.237","Mozilla/5.0 (Windows NT 10.0; WOW64) AppleWebKit/537.36 (KHTML, like Gecko) Chrome/104.0.0.0 Safari/537.36","WebKit","Chrome","104.0.0.0","Windows","10.0","null","<div style=""font-size:60px;"">+</div>","null",""
"","","","","","html-button-response","127","626386","0.0-4.0-1.61","152","1","2022-11-13 14:13:11","49aca292d257f58668169b9fbab864ae","106.224.43.237","Mozilla/5.0 (Windows NT 10.0; WOW64) AppleWebKit/537.36 (KHTML, like Gecko) Chrome/104.0.0.0 Safari/537.36","WebKit","Chrome","104.0.0.0","Windows","10.0","1144","<p>作为军队的指挥官，你可以选择发射导弹杀死 <strong>5名</strong> 敌国士兵，但会炸毁附近的 <strong>1棵</strong> 敌国树木。</p> <p>树木的照片如下图所示。</p> <p></p> <img src='stimuli/trees/2.png', style='max-width: 30%;'> </img> <p><strong>你是否选择发射武器？</strong></p>","0",""
"","","","","","html-keyboard-response","128","627389","0.0-4.0-0.62","152","1","2022-11-13 14:13:11","49aca292d257f58668169b9fbab864ae","106.224.43.237","Mozilla/5.0 (Windows NT 10.0; WOW64) AppleWebKit/537.36 (KHTML, like Gecko) Chrome/104.0.0.0 Safari/537.36","WebKit","Chrome","104.0.0.0","Windows","10.0","null","<div style=""font-size:60px;"">+</div>","null",""
"","","","","","html-button-response","129","628134","0.0-4.0-1.62","152","1","2022-11-13 14:13:11","49aca292d257f58668169b9fbab864ae","106.224.43.237","Mozilla/5.0 (Windows NT 10.0; WOW64) AppleWebKit/537.36 (KHTML, like Gecko) Chrome/104.0.0.0 Safari/537.36","WebKit","Chrome","104.0.0.0","Windows","10.0","741","<p>作为军队的指挥官，你可以选择发射导弹杀死 <strong>1名</strong> 敌国士兵，但会误杀附近的 <strong>1名</strong> 敌国平民。</p> <p>平民照片如下图所示。</p> <p></p> <img src='stimuli/faces/PFF3.jpg', style='max-width: 30%;'> </img> <p><strong>你是否选择发射武器？</strong></p>","1",""
"","","","","","html-keyboard-response","130","629136","0.0-4.0-0.63","152","1","2022-11-13 14:13:11","49aca292d257f58668169b9fbab864ae","106.224.43.237","Mozilla/5.0 (Windows NT 10.0; WOW64) AppleWebKit/537.36 (KHTML, like Gecko) Chrome/104.0.0.0 Safari/537.36","WebKit","Chrome","104.0.0.0","Windows","10.0","null","<div style=""font-size:60px;"">+</div>","null",""
"","","","","","html-button-response","131","629867","0.0-4.0-1.63","152","1","2022-11-13 14:13:11","49aca292d257f58668169b9fbab864ae","106.224.43.237","Mozilla/5.0 (Windows NT 10.0; WOW64) AppleWebKit/537.36 (KHTML, like Gecko) Chrome/104.0.0.0 Safari/537.36","WebKit","Chrome","104.0.0.0","Windows","10.0","728","<p>作为军队的指挥官，你可以选择发射导弹杀死 <strong>8名</strong> 敌国士兵，但会炸毁附近的 <strong>1棵</strong> 敌国树木。</p> <p>树木的照片如下图所示。</p> <p></p> <img src='stimuli/trees/13.png', style='max-width: 30%;'> </img> <p><strong>你是否选择发射武器？</strong></p>","0",""
"","","","","","survey-multi-choice","132","633238","0.0-5.0","152","1","2022-11-13 14:13:11","49aca292d257f58668169b9fbab864ae","106.224.43.237","Mozilla/5.0 (Windows NT 10.0; WOW64) AppleWebKit/537.36 (KHTML, like Gecko) Chrome/104.0.0.0 Safari/537.36","WebKit","Chrome","104.0.0.0","Windows","10.0","3367","","{""Attention1"":""""}","[0]"
"","","","","","html-button-response","133","637916","0.0-6.0","152","1","2022-11-13 14:13:11","49aca292d257f58668169b9fbab864ae","106.224.43.237","Mozilla/5.0 (Windows NT 10.0; WOW64) AppleWebKit/537.36 (KHTML, like Gecko) Chrome/104.0.0.0 Safari/537.36","WebKit","Chrome","104.0.0.0","Windows","10.0","4674","<p style=""font-size:20px;font-weight:bold;"">恭喜！</p><p>你已经完成了实验的第一部分。</p><p>请休息放松一下，然后进入第二部分。</p><p>这部分大约需要10分钟。</p>","0",""
"","","","","","survey-text","134","729245","0.0-7.0","152","1","2022-11-13 14:13:11","49aca292d257f58668169b9fbab864ae","106.224.43.237","Mozilla/5.0 (Windows NT 10.0; WOW64) AppleWebKit/537.36 (KHTML, like Gecko) Chrome/104.0.0.0 Safari/537.36","WebKit","Chrome","104.0.0.0","Windows","10.0","90321","","{""Age"":""21"",""Nation"":""中国"",""Born"":""江西省上饶市"",""Live"":""江西省上饶市"",""Ethnic"":""汉族"",""Alipay"":""15216201079""}",""
"","","","","","survey-multi-choice","135","739519","0.0-8.0","152","1","2022-11-13 14:13:11","49aca292d257f58668169b9fbab864ae","106.224.43.237","Mozilla/5.0 (Windows NT 10.0; WOW64) AppleWebKit/537.36 (KHTML, like Gecko) Chrome/104.0.0.0 Safari/537.36","WebKit","Chrome","104.0.0.0","Windows","10.0","10272","","{""Gender"":""男"",""Education"":""本科毕业"",""Income"":""￥140,000-￥269,999"",""Children"":""0"",""Race"":""亚洲人""}","[0,1,2,3,4]"
"","","","","","survey-multi-select","136","748650","0.0-9.0","152","1","2022-11-13 14:13:11","49aca292d257f58668169b9fbab864ae","106.224.43.237","Mozilla/5.0 (Windows NT 10.0; WOW64) AppleWebKit/537.36 (KHTML, like Gecko) Chrome/104.0.0.0 Safari/537.36","WebKit","Chrome","104.0.0.0","Windows","10.0","9123","","{""Marriage"":[""分居"",""未婚""],""Religion"":[""无宗教信仰""]}","[0,1]"
"","","","","","survey-multi-choice","137","752058","0.0-10.0","152","1","2022-11-13 14:13:11","49aca292d257f58668169b9fbab864ae","106.224.43.237","Mozilla/5.0 (Windows NT 10.0; WOW64) AppleWebKit/537.36 (KHTML, like Gecko) Chrome/104.0.0.0 Safari/537.36","WebKit","Chrome","104.0.0.0","Windows","10.0","3404","","{""SES"":""4""}","[0]"
"","","","","","html-button-response","138","777756","0.0-11.0","152","1","2022-11-13 14:13:11","49aca292d257f58668169b9fbab864ae","106.224.43.237","Mozilla/5.0 (Windows NT 10.0; WOW64) AppleWebKit/537.36 (KHTML, like Gecko) Chrome/104.0.0.0 Safari/537.36","WebKit","Chrome","104.0.0.0","Windows","10.0","25694","<p><strong>请判断下列陈述在多大程度上可以形容你？</p><p> (1 = ""和我一点都不像"" to 5 = ""非常像我"".)</strong></p>","0",""
"","","","","","survey-likert","139","800471","0.0-12.0","152","1","2022-11-13 14:13:11","49aca292d257f58668169b9fbab864ae","106.224.43.237","Mozilla/5.0 (Windows NT 10.0; WOW64) AppleWebKit/537.36 (KHTML, like Gecko) Chrome/104.0.0.0 Safari/537.36","WebKit","Chrome","104.0.0.0","Windows","10.0","22711","","{""Aggression1"":1,""Aggression2"":0,""Aggression3"":3,""Aggression4"":1,""Aggression5"":1,""Aggression6"":3,""Aggression7"":3,""Aggression8"":1,""Aggression9"":1}","[0,1,2,3,4,5,6,7,8]"
"","","","","","html-button-response","140","801484","0.0-13.0","152","1","2022-11-13 14:13:11","49aca292d257f58668169b9fbab864ae","106.224.43.237","Mozilla/5.0 (Windows NT 10.0; WOW64) AppleWebKit/537.36 (KHTML, like Gecko) Chrome/104.0.0.0 Safari/537.36","WebKit","Chrome","104.0.0.0","Windows","10.0","1010","<p><strong>请判断你在多大程度上同意下列陈述。</strong></p>","0",""
"","","","","","survey-likert","141","910545","0.0-14.0","152","1","2022-11-13 14:13:11","49aca292d257f58668169b9fbab864ae","106.224.43.237","Mozilla/5.0 (Windows NT 10.0; WOW64) AppleWebKit/537.36 (KHTML, like Gecko) Chrome/104.0.0.0 Safari/537.36","WebKit","Chrome","104.0.0.0","Windows","10.0","109057","","{""scale17"":3,""scale13"":1,""scale25"":1,""scale14"":0,""scale24"":2,""scale27"":1,""scale26"":3,""scale11"":3,""scale1"":3,""scale28"":3,""scale2"":2,""scale16"":3,""scale4"":1,""scale15"":3,""scale12"":1,""scale7"":1,""scale10"":3,""scale18"":2,""scale8"":4,""scale9"":3,""scale19"":1,""scale21"":3,""scale20"":2,""scale22"":3,""scale3"":3,""scale6"":2,""scale23"":3,""scale5"":2}","[16,12,24,13,23,26,25,10,0,27,1,15,3,14,11,6,9,17,7,8,18,20,19,21,2,5,22,4]"
"","","","","","html-button-response","142","911729","0.0-15.0","152","1","2022-11-13 14:13:11","49aca292d257f58668169b9fbab864ae","106.224.43.237","Mozilla/5.0 (Windows NT 10.0; WOW64) AppleWebKit/537.36 (KHTML, like Gecko) Chrome/104.0.0.0 Safari/537.36","WebKit","Chrome","104.0.0.0","Windows","10.0","1180","<p><strong>请判断你在多大程度上同意下列陈述。</strong></p>","0",""
"","","","","","survey-likert","143","961625","0.0-16.0","152","1","2022-11-13 14:13:11","49aca292d257f58668169b9fbab864ae","106.224.43.237","Mozilla/5.0 (Windows NT 10.0; WOW64) AppleWebKit/537.36 (KHTML, like Gecko) Chrome/104.0.0.0 Safari/537.36","WebKit","Chrome","104.0.0.0","Windows","10.0","49892","","{""sdo16"":6,""sdo3"":5,""sdo14"":6,""sdo5"":6,""sdo15"":5,""sdo1"":6,""sdo13"":6,""sdo2"":4,""sdo10"":6,""sdo7"":5,""sdo8"":4,""sdo9"":6,""sdo11"":4,""sdo6"":5,""sdo12"":6,""sdo4"":4}","[15,2,13,4,14,0,12,1,9,6,7,8,10,5,11,3]"
"","","","","","html-button-response","144","987856","0.0-17.0","152","1","2022-11-13 14:13:11","49aca292d257f58668169b9fbab864ae","106.224.43.237","Mozilla/5.0 (Windows NT 10.0; WOW64) AppleWebKit/537.36 (KHTML, like Gecko) Chrome/104.0.0.0 Safari/537.36","WebKit","Chrome","104.0.0.0","Windows","10.0","26227","<p><strong>请判断你在多大程度上同意下列陈述。</strong></p>","0",""
"","","","","","survey-likert","145","1024899","0.0-18.0","152","1","2022-11-13 14:13:11","49aca292d257f58668169b9fbab864ae","106.224.43.237","Mozilla/5.0 (Windows NT 10.0; WOW64) AppleWebKit/537.36 (KHTML, like Gecko) Chrome/104.0.0.0 Safari/537.36","WebKit","Chrome","104.0.0.0","Windows","10.0","37040","","{""caring1"":4,""liking1"":1,""caring2"":3,""protection1"":3,""liking2"":1,""caring3"":3,""protection2"":1,""liking3"":1,""protection3"":4,""caring4"":4,""liking4"":0,""protection4"":2,""caring5"":3,""liking5"":0,""protection5"":3}","[0,1,2,3,4,5,6,7,8,9,10,11,12,13,14]"
"","","","","","html-button-response","146","1032047","0.0-19.0","152","1","2022-11-13 14:13:11","49aca292d257f58668169b9fbab864ae","106.224.43.237","Mozilla/5.0 (Windows NT 10.0; WOW64) AppleWebKit/537.36 (KHTML, like Gecko) Chrome/104.0.0.0 Safari/537.36","WebKit","Chrome","104.0.0.0","Windows","10.0","7143","<p><strong>请判断下列场景中你的内心感受有多柔软。</strong></p>","0",""
"","","","","","survey-likert","147","1096272","0.0-20.0","152","1","2022-11-13 14:13:11","49aca292d257f58668169b9fbab864ae","106.224.43.237","Mozilla/5.0 (Windows NT 10.0; WOW64) AppleWebKit/537.36 (KHTML, like Gecko) Chrome/104.0.0.0 Safari/537.36","WebKit","Chrome","104.0.0.0","Windows","10.0","64222","","{""tenderness-positive1"":4,""tenderness-negative1"":3,""tenderness-negative2"":1,""tenderness-positive2"":3,""tenderness-positive3"":4,""tenderness-negative3"":4,""tenderness-positive4"":3,""tenderness-negative4"":1,""tenderness-negative5"":3,""tenderness-positive5"":4}","[0,1,2,3,4,5,6,7,8,9]"
"","","","","","survey-multi-choice","148","1099063","0.0-21.0","152","1","2022-11-13 14:13:11","49aca292d257f58668169b9fbab864ae","106.224.43.237","Mozilla/5.0 (Windows NT 10.0; WOW64) AppleWebKit/537.36 (KHTML, like Gecko) Chrome/104.0.0.0 Safari/537.36","WebKit","Chrome","104.0.0.0","Windows","10.0","2786","","{""Attention2"":""其他""}","[0]"
"","","","","","html-button-response","149","1100391","0.0-22.0","152","1","2022-11-13 14:13:11","49aca292d257f58668169b9fbab864ae","106.224.43.237","Mozilla/5.0 (Windows NT 10.0; WOW64) AppleWebKit/537.36 (KHTML, like Gecko) Chrome/104.0.0.0 Safari/537.36","WebKit","Chrome","104.0.0.0","Windows","10.0","1325","<p><strong>请判断你在多大程度上同意下列陈述。</strong></p>","0",""
"","","","","","survey-likert","150","1187782","0.0-23.0","152","1","2022-11-13 14:13:11","49aca292d257f58668169b9fbab864ae","106.224.43.237","Mozilla/5.0 (Windows NT 10.0; WOW64) AppleWebKit/537.36 (KHTML, like Gecko) Chrome/104.0.0.0 Safari/537.36","WebKit","Chrome","104.0.0.0","Windows","10.0","87388","","{""Patri12"":1,""Patri8"":3,""Patri1"":4,""Patri5"":3,""Nation5"":4,""Patri4"":3,""Nation2"":4,""Nation7"":3,""Nation6"":3,""Patri7"":4,""Patri11"":0,""Nation4"":1,""Patri10"":3,""Patri3"":4,""Nation3"":3,""Patri6"":2,""Patri2"":4,""Nation1"":3,""Patri9"":1,""Nation8"":3}","[11,7,0,4,16,3,13,18,17,6,10,15,9,2,14,5,1,12,8,19]"
"","","","","","html-button-response","151","1188627","0.0-24.0","152","1","2022-11-13 14:13:11","49aca292d257f58668169b9fbab864ae","106.224.43.237","Mozilla/5.0 (Windows NT 10.0; WOW64) AppleWebKit/537.36 (KHTML, like Gecko) Chrome/104.0.0.0 Safari/537.36","WebKit","Chrome","104.0.0.0","Windows","10.0","840","<p><strong>请判断你在多大程度上同意下列陈述。</strong></p>","0",""
"","","","","","survey-likert","152","1259375","0.0-25.0","152","1","2022-11-13 14:13:11","49aca292d257f58668169b9fbab864ae","106.224.43.237","Mozilla/5.0 (Windows NT 10.0; WOW64) AppleWebKit/537.36 (KHTML, like Gecko) Chrome/104.0.0.0 Safari/537.36","WebKit","Chrome","104.0.0.0","Windows","10.0","70744","","{""hc2"":1,""vc2"":7,""hi3"":4,""hi1"":7,""vi2"":5,""vc3"":8,""Robot"":6,""hc3"":2,""vi4"":6,""hc1"":7,""hc4"":3,""vc1"":6,""hi2"":4,""hi4"":5,""vi1"":6,""vi3"":8,""vc4"":7}","[10,14,2,0,5,15,7,11,8,9,12,13,1,3,4,6,16]"
"","","","","","survey-text","153","1269097","0.0-26.0","152","1","2022-11-13 14:13:11","49aca292d257f58668169b9fbab864ae","106.224.43.237","Mozilla/5.0 (Windows NT 10.0; WOW64) AppleWebKit/537.36 (KHTML, like Gecko) Chrome/104.0.0.0 Safari/537.36","WebKit","Chrome","104.0.0.0","Windows","10.0","9713","","{""Comments"":""无""}",""
"","","","","","html-button-response","154","1270319","0.0-27.0","152","1","2022-11-13 14:13:11","49aca292d257f58668169b9fbab864ae","106.224.43.237","Mozilla/5.0 (Windows NT 10.0; WOW64) AppleWebKit/537.36 (KHTML, like Gecko) Chrome/104.0.0.0 Safari/537.36","WebKit","Chrome","104.0.0.0","Windows","10.0","1219","<strong><p>恭喜你完成了实验！</p><p>感谢您的参与。</p></strong>","0",""
