"success","timeout","failed_images","failed_audio","failed_video","trial_type","trial_index","time_elapsed","internal_node_id","run_id","condition","recorded_at","source_code_version","ip","user_agent","device","browser","browser_version","platform","platform_version","rt","stimulus","response","question_order"
"true","false","[]","[]","[]","preload","0","59","0.0-0.0","167","1","2022-11-13 14:51:32","49aca292d257f58668169b9fbab864ae","182.102.57.57","Mozilla/5.0 (Windows NT 10.0; WOW64) AppleWebKit/537.36 (KHTML, like Gecko) Chrome/104.0.0.0 Safari/537.36","WebKit","Chrome","104.0.0.0","Windows","10.0","","","",""
"true","","","","","fullscreen","1","38708","0.0-1.0","167","1","2022-11-13 14:51:32","49aca292d257f58668169b9fbab864ae","182.102.57.57","Mozilla/5.0 (Windows NT 10.0; WOW64) AppleWebKit/537.36 (KHTML, like Gecko) Chrome/104.0.0.0 Safari/537.36","WebKit","Chrome","104.0.0.0","Windows","10.0","","","",""
"","","","","","html-button-response","2","42635","0.0-2.0","167","1","2022-11-13 14:51:32","49aca292d257f58668169b9fbab864ae","182.102.57.57","Mozilla/5.0 (Windows NT 10.0; WOW64) AppleWebKit/537.36 (KHTML, like Gecko) Chrome/104.0.0.0 Safari/537.36","WebKit","Chrome","104.0.0.0","Windows","10.0","3926","<p style=""font-size:20px;font-weight:bold;"">实验知情同意书</p><p style=""text-align:left;""><strong>实验名称：</strong>社会冲突研究</p><p style=""text-align:left;""><strong>主要研究者：</strong>韩晓春副教授（北京师范大学心理学部）</p><p style=""text-align:left;""><strong>联系方式：</strong>发送邮件至xiaochun.han@bnu.edu.cn</p><p style=""text-align:left;""><strong>研究目的：</strong>研究旨在了解人类面对群体冲突时的决策方式，以及相关的心理学特质。实验调查大约需要20分钟。</p><p style=""text-align:left;""><strong>实验流程：</strong>实验包含两部分。第一部分呈现一系列群体冲突场景，请你决定如何对这些冲突进行反应，大约需要10分钟完成。第二部分包含一系列人口统计学信息收集和心理学问卷，大约需要10分钟完成。</p><p style=""text-align:left;""><strong>参加及退出规则：</strong>参加本实验完全取决于您的个人意愿。在参与过程中，您可以随时退出，并且不用承担任何后果。</p><p style=""text-align:left;""><strong>隐私：</strong>本实验完全匿名进行，不会收集您的姓名或其他能够识别您身份的信息。实验中收集的作答仅用作科学研究使用，可能会在学术期刊/书籍上发表，或者用于教学，您的数据未来可能会和其他研究者或实验室分享，但您的个人身份不会被识别。</p><p style=""text-align:left;""><strong>实验报酬：</strong>实验完成后，您将获得15元人民币报酬，以感谢您的时间和努力。调查问卷中包含几道题目用以测验您作答时的认真度。只有完成全部实验，并且正确回答认真度测验的被试才能获得实验报酬。实验报酬将通过支付宝转账发放。</p><p style=""text-align:left;font-size:20px;""><strong>如果您同意以上实验知情同意书的内容，请点击'同意并且开始实验'按钮；否则请关闭浏览器界面，退出实验。</strong></p>","0",""
"","","","","","html-button-response","3","43468","0.0-3.0","167","1","2022-11-13 14:51:32","49aca292d257f58668169b9fbab864ae","182.102.57.57","Mozilla/5.0 (Windows NT 10.0; WOW64) AppleWebKit/537.36 (KHTML, like Gecko) Chrome/104.0.0.0 Safari/537.36","WebKit","Chrome","104.0.0.0","Windows","10.0","832","<p ><strong>实验任务一：</strong></p><p>请想象你的国家与另一个国家发生了军事冲突。</p><p>你是国家军队的指挥官，你将如何在冲突中进行决策。</p><p>具体来说，作为军队指挥官，请你决定是否发射导弹进行打击。</p><p>接下来，你会面对一系列场景，请仔细阅读每个场景，然后进行决策。</p><p>这部分实验任务大约需要10分钟。</p><p><strong>实验过程中，请集中注意力。</strong></p>","0",""
"","","","","","html-keyboard-response","4","44469","0.0-4.0-0.0","167","1","2022-11-13 14:51:32","49aca292d257f58668169b9fbab864ae","182.102.57.57","Mozilla/5.0 (Windows NT 10.0; WOW64) AppleWebKit/537.36 (KHTML, like Gecko) Chrome/104.0.0.0 Safari/537.36","WebKit","Chrome","104.0.0.0","Windows","10.0","null","<div style=""font-size:60px;"">+</div>","null",""
"","","","","","html-button-response","5","46122","0.0-4.0-1.0","167","1","2022-11-13 14:51:32","49aca292d257f58668169b9fbab864ae","182.102.57.57","Mozilla/5.0 (Windows NT 10.0; WOW64) AppleWebKit/537.36 (KHTML, like Gecko) Chrome/104.0.0.0 Safari/537.36","WebKit","Chrome","104.0.0.0","Windows","10.0","1652","<p>作为军队的指挥官，你可以选择发射导弹杀死 <strong>3名</strong> 敌国士兵，但会误杀附近的 <strong>1名</strong> 敌国平民。</p> <p>平民照片如下图所示。</p> <p></p> <img src='stimuli/faces/PFM7.jpg', style='max-width: 30%;'> </img> <p><strong>你是否选择发射武器？</strong></p>","1",""
"","","","","","html-keyboard-response","6","47133","0.0-4.0-0.1","167","1","2022-11-13 14:51:32","49aca292d257f58668169b9fbab864ae","182.102.57.57","Mozilla/5.0 (Windows NT 10.0; WOW64) AppleWebKit/537.36 (KHTML, like Gecko) Chrome/104.0.0.0 Safari/537.36","WebKit","Chrome","104.0.0.0","Windows","10.0","null","<div style=""font-size:60px;"">+</div>","null",""
"","","","","","html-button-response","7","47790","0.0-4.0-1.1","167","1","2022-11-13 14:51:32","49aca292d257f58668169b9fbab864ae","182.102.57.57","Mozilla/5.0 (Windows NT 10.0; WOW64) AppleWebKit/537.36 (KHTML, like Gecko) Chrome/104.0.0.0 Safari/537.36","WebKit","Chrome","104.0.0.0","Windows","10.0","656","<p>作为军队的指挥官，你可以选择发射导弹杀死 <strong>4名</strong> 敌国士兵，但会炸毁附近的 <strong>1棵</strong> 敌国树木。</p> <p>树木的照片如下图所示。</p> <p></p> <img src='stimuli/trees/5.png', style='max-width: 30%;'> </img> <p><strong>你是否选择发射武器？</strong></p>","0",""
"","","","","","html-keyboard-response","8","48791","0.0-4.0-0.2","167","1","2022-11-13 14:51:32","49aca292d257f58668169b9fbab864ae","182.102.57.57","Mozilla/5.0 (Windows NT 10.0; WOW64) AppleWebKit/537.36 (KHTML, like Gecko) Chrome/104.0.0.0 Safari/537.36","WebKit","Chrome","104.0.0.0","Windows","10.0","null","<div style=""font-size:60px;"">+</div>","null",""
"","","","","","html-button-response","9","49474","0.0-4.0-1.2","167","1","2022-11-13 14:51:32","49aca292d257f58668169b9fbab864ae","182.102.57.57","Mozilla/5.0 (Windows NT 10.0; WOW64) AppleWebKit/537.36 (KHTML, like Gecko) Chrome/104.0.0.0 Safari/537.36","WebKit","Chrome","104.0.0.0","Windows","10.0","682","<p>作为军队的指挥官，你可以选择发射导弹杀死 <strong>10名</strong> 敌国士兵，但会炸毁附近的 <strong>1棵</strong> 敌国树木。</p> <p>树木的照片如下图所示。</p> <p></p> <img src='stimuli/trees/15.png', style='max-width: 30%;'> </img> <p><strong>你是否选择发射武器？</strong></p>","0",""
"","","","","","html-keyboard-response","10","50475","0.0-4.0-0.3","167","1","2022-11-13 14:51:32","49aca292d257f58668169b9fbab864ae","182.102.57.57","Mozilla/5.0 (Windows NT 10.0; WOW64) AppleWebKit/537.36 (KHTML, like Gecko) Chrome/104.0.0.0 Safari/537.36","WebKit","Chrome","104.0.0.0","Windows","10.0","null","<div style=""font-size:60px;"">+</div>","null",""
"","","","","","html-button-response","11","51184","0.0-4.0-1.3","167","1","2022-11-13 14:51:32","49aca292d257f58668169b9fbab864ae","182.102.57.57","Mozilla/5.0 (Windows NT 10.0; WOW64) AppleWebKit/537.36 (KHTML, like Gecko) Chrome/104.0.0.0 Safari/537.36","WebKit","Chrome","104.0.0.0","Windows","10.0","707","<p>作为军队的指挥官，你可以选择发射导弹杀死 <strong>10名</strong> 敌国士兵，但会误杀附近的 <strong>1名</strong> 敌国平民。</p> <p>平民照片如下图所示。</p> <p></p> <img src='stimuli/faces/PFF8.jpg', style='max-width: 30%;'> </img> <p><strong>你是否选择发射武器？</strong></p>","0",""
"","","","","","html-keyboard-response","12","52186","0.0-4.0-0.4","167","1","2022-11-13 14:51:32","49aca292d257f58668169b9fbab864ae","182.102.57.57","Mozilla/5.0 (Windows NT 10.0; WOW64) AppleWebKit/537.36 (KHTML, like Gecko) Chrome/104.0.0.0 Safari/537.36","WebKit","Chrome","104.0.0.0","Windows","10.0","null","<div style=""font-size:60px;"">+</div>","null",""
"","","","","","html-button-response","13","53061","0.0-4.0-1.4","167","1","2022-11-13 14:51:32","49aca292d257f58668169b9fbab864ae","182.102.57.57","Mozilla/5.0 (Windows NT 10.0; WOW64) AppleWebKit/537.36 (KHTML, like Gecko) Chrome/104.0.0.0 Safari/537.36","WebKit","Chrome","104.0.0.0","Windows","10.0","874","<p>作为军队的指挥官，你可以选择发射导弹杀死 <strong>2名</strong> 敌国士兵，但会误杀附近的 <strong>1名</strong> 敌国平民。</p> <p>平民照片如下图所示。</p> <p></p> <img src='stimuli/faces/PFF6.jpg', style='max-width: 30%;'> </img> <p><strong>你是否选择发射武器？</strong></p>","1",""
"","","","","","html-keyboard-response","14","54062","0.0-4.0-0.5","167","1","2022-11-13 14:51:32","49aca292d257f58668169b9fbab864ae","182.102.57.57","Mozilla/5.0 (Windows NT 10.0; WOW64) AppleWebKit/537.36 (KHTML, like Gecko) Chrome/104.0.0.0 Safari/537.36","WebKit","Chrome","104.0.0.0","Windows","10.0","null","<div style=""font-size:60px;"">+</div>","null",""
"","","","","","html-button-response","15","55696","0.0-4.0-1.5","167","1","2022-11-13 14:51:32","49aca292d257f58668169b9fbab864ae","182.102.57.57","Mozilla/5.0 (Windows NT 10.0; WOW64) AppleWebKit/537.36 (KHTML, like Gecko) Chrome/104.0.0.0 Safari/537.36","WebKit","Chrome","104.0.0.0","Windows","10.0","1633","<p>作为军队的指挥官，你可以选择发射导弹杀死 <strong>5名</strong> 敌国士兵，但会炸毁附近的 <strong>1棵</strong> 敌国树木。</p> <p>树木的照片如下图所示。</p> <p></p> <img src='stimuli/trees/12.png', style='max-width: 30%;'> </img> <p><strong>你是否选择发射武器？</strong></p>","0",""
"","","","","","html-keyboard-response","16","56700","0.0-4.0-0.6","167","1","2022-11-13 14:51:32","49aca292d257f58668169b9fbab864ae","182.102.57.57","Mozilla/5.0 (Windows NT 10.0; WOW64) AppleWebKit/537.36 (KHTML, like Gecko) Chrome/104.0.0.0 Safari/537.36","WebKit","Chrome","104.0.0.0","Windows","10.0","null","<div style=""font-size:60px;"">+</div>","null",""
"","","","","","html-button-response","17","57525","0.0-4.0-1.6","167","1","2022-11-13 14:51:32","49aca292d257f58668169b9fbab864ae","182.102.57.57","Mozilla/5.0 (Windows NT 10.0; WOW64) AppleWebKit/537.36 (KHTML, like Gecko) Chrome/104.0.0.0 Safari/537.36","WebKit","Chrome","104.0.0.0","Windows","10.0","824","<p>作为军队的指挥官，你可以选择发射导弹杀死 <strong>1名</strong> 敌国士兵，但会误杀附近的 <strong>1名</strong> 敌国平民。</p> <p>平民照片如下图所示。</p> <p></p> <img src='stimuli/faces/PFM1.jpg', style='max-width: 30%;'> </img> <p><strong>你是否选择发射武器？</strong></p>","1",""
"","","","","","html-keyboard-response","18","58530","0.0-4.0-0.7","167","1","2022-11-13 14:51:32","49aca292d257f58668169b9fbab864ae","182.102.57.57","Mozilla/5.0 (Windows NT 10.0; WOW64) AppleWebKit/537.36 (KHTML, like Gecko) Chrome/104.0.0.0 Safari/537.36","WebKit","Chrome","104.0.0.0","Windows","10.0","null","<div style=""font-size:60px;"">+</div>","null",""
"","","","","","html-button-response","19","59071","0.0-4.0-1.7","167","1","2022-11-13 14:51:32","49aca292d257f58668169b9fbab864ae","182.102.57.57","Mozilla/5.0 (Windows NT 10.0; WOW64) AppleWebKit/537.36 (KHTML, like Gecko) Chrome/104.0.0.0 Safari/537.36","WebKit","Chrome","104.0.0.0","Windows","10.0","539","<p>作为军队的指挥官，你可以选择发射导弹杀死 <strong>7名</strong> 敌国士兵，但会炸毁附近的 <strong>1棵</strong> 敌国树木。</p> <p>树木的照片如下图所示。</p> <p></p> <img src='stimuli/trees/4.png', style='max-width: 30%;'> </img> <p><strong>你是否选择发射武器？</strong></p>","0",""
"","","","","","html-keyboard-response","20","60073","0.0-4.0-0.8","167","1","2022-11-13 14:51:32","49aca292d257f58668169b9fbab864ae","182.102.57.57","Mozilla/5.0 (Windows NT 10.0; WOW64) AppleWebKit/537.36 (KHTML, like Gecko) Chrome/104.0.0.0 Safari/537.36","WebKit","Chrome","104.0.0.0","Windows","10.0","null","<div style=""font-size:60px;"">+</div>","null",""
"","","","","","html-button-response","21","60671","0.0-4.0-1.8","167","1","2022-11-13 14:51:32","49aca292d257f58668169b9fbab864ae","182.102.57.57","Mozilla/5.0 (Windows NT 10.0; WOW64) AppleWebKit/537.36 (KHTML, like Gecko) Chrome/104.0.0.0 Safari/537.36","WebKit","Chrome","104.0.0.0","Windows","10.0","597","<p>作为军队的指挥官，你可以选择发射导弹杀死 <strong>5名</strong> 敌国士兵，但会误杀附近的 <strong>1名</strong> 敌国平民。</p> <p>平民照片如下图所示。</p> <p></p> <img src='stimuli/faces/PFF1.jpg', style='max-width: 30%;'> </img> <p><strong>你是否选择发射武器？</strong></p>","0",""
"","","","","","html-keyboard-response","22","61672","0.0-4.0-0.9","167","1","2022-11-13 14:51:32","49aca292d257f58668169b9fbab864ae","182.102.57.57","Mozilla/5.0 (Windows NT 10.0; WOW64) AppleWebKit/537.36 (KHTML, like Gecko) Chrome/104.0.0.0 Safari/537.36","WebKit","Chrome","104.0.0.0","Windows","10.0","null","<div style=""font-size:60px;"">+</div>","null",""
"","","","","","html-button-response","23","62443","0.0-4.0-1.9","167","1","2022-11-13 14:51:32","49aca292d257f58668169b9fbab864ae","182.102.57.57","Mozilla/5.0 (Windows NT 10.0; WOW64) AppleWebKit/537.36 (KHTML, like Gecko) Chrome/104.0.0.0 Safari/537.36","WebKit","Chrome","104.0.0.0","Windows","10.0","769","<p>作为军队的指挥官，你可以选择发射导弹杀死 <strong>6名</strong> 敌国士兵，但会炸毁附近的 <strong>1棵</strong> 敌国树木。</p> <p>树木的照片如下图所示。</p> <p></p> <img src='stimuli/trees/14.png', style='max-width: 30%;'> </img> <p><strong>你是否选择发射武器？</strong></p>","0",""
"","","","","","html-keyboard-response","24","63445","0.0-4.0-0.10","167","1","2022-11-13 14:51:32","49aca292d257f58668169b9fbab864ae","182.102.57.57","Mozilla/5.0 (Windows NT 10.0; WOW64) AppleWebKit/537.36 (KHTML, like Gecko) Chrome/104.0.0.0 Safari/537.36","WebKit","Chrome","104.0.0.0","Windows","10.0","null","<div style=""font-size:60px;"">+</div>","null",""
"","","","","","html-button-response","25","63969","0.0-4.0-1.10","167","1","2022-11-13 14:51:32","49aca292d257f58668169b9fbab864ae","182.102.57.57","Mozilla/5.0 (Windows NT 10.0; WOW64) AppleWebKit/537.36 (KHTML, like Gecko) Chrome/104.0.0.0 Safari/537.36","WebKit","Chrome","104.0.0.0","Windows","10.0","523","<p>作为军队的指挥官，你可以选择发射导弹杀死 <strong>3名</strong> 敌国士兵，但会炸毁附近的 <strong>1棵</strong> 敌国树木。</p> <p>树木的照片如下图所示。</p> <p></p> <img src='stimuli/trees/10.png', style='max-width: 30%;'> </img> <p><strong>你是否选择发射武器？</strong></p>","0",""
"","","","","","html-keyboard-response","26","64971","0.0-4.0-0.11","167","1","2022-11-13 14:51:32","49aca292d257f58668169b9fbab864ae","182.102.57.57","Mozilla/5.0 (Windows NT 10.0; WOW64) AppleWebKit/537.36 (KHTML, like Gecko) Chrome/104.0.0.0 Safari/537.36","WebKit","Chrome","104.0.0.0","Windows","10.0","null","<div style=""font-size:60px;"">+</div>","null",""
"","","","","","html-button-response","27","67003","0.0-4.0-1.11","167","1","2022-11-13 14:51:32","49aca292d257f58668169b9fbab864ae","182.102.57.57","Mozilla/5.0 (Windows NT 10.0; WOW64) AppleWebKit/537.36 (KHTML, like Gecko) Chrome/104.0.0.0 Safari/537.36","WebKit","Chrome","104.0.0.0","Windows","10.0","2030","<p>作为军队的指挥官，你可以选择发射导弹杀死 <strong>3名</strong> 敌国士兵，但会误杀附近的 <strong>1名</strong> 敌国平民。</p> <p>平民照片如下图所示。</p> <p></p> <img src='stimuli/faces/PFM4.jpg', style='max-width: 30%;'> </img> <p><strong>你是否选择发射武器？</strong></p>","0",""
"","","","","","html-keyboard-response","28","68013","0.0-4.0-0.12","167","1","2022-11-13 14:51:32","49aca292d257f58668169b9fbab864ae","182.102.57.57","Mozilla/5.0 (Windows NT 10.0; WOW64) AppleWebKit/537.36 (KHTML, like Gecko) Chrome/104.0.0.0 Safari/537.36","WebKit","Chrome","104.0.0.0","Windows","10.0","null","<div style=""font-size:60px;"">+</div>","null",""
"","","","","","html-button-response","29","69145","0.0-4.0-1.12","167","1","2022-11-13 14:51:32","49aca292d257f58668169b9fbab864ae","182.102.57.57","Mozilla/5.0 (Windows NT 10.0; WOW64) AppleWebKit/537.36 (KHTML, like Gecko) Chrome/104.0.0.0 Safari/537.36","WebKit","Chrome","104.0.0.0","Windows","10.0","1130","<p>作为军队的指挥官，你可以选择发射导弹杀死 <strong>6名</strong> 敌国士兵，但会炸毁附近的 <strong>1棵</strong> 敌国树木。</p> <p>树木的照片如下图所示。</p> <p></p> <img src='stimuli/trees/13.png', style='max-width: 30%;'> </img> <p><strong>你是否选择发射武器？</strong></p>","0",""
"","","","","","html-keyboard-response","30","70146","0.0-4.0-0.13","167","1","2022-11-13 14:51:32","49aca292d257f58668169b9fbab864ae","182.102.57.57","Mozilla/5.0 (Windows NT 10.0; WOW64) AppleWebKit/537.36 (KHTML, like Gecko) Chrome/104.0.0.0 Safari/537.36","WebKit","Chrome","104.0.0.0","Windows","10.0","null","<div style=""font-size:60px;"">+</div>","null",""
"","","","","","html-button-response","31","70907","0.0-4.0-1.13","167","1","2022-11-13 14:51:32","49aca292d257f58668169b9fbab864ae","182.102.57.57","Mozilla/5.0 (Windows NT 10.0; WOW64) AppleWebKit/537.36 (KHTML, like Gecko) Chrome/104.0.0.0 Safari/537.36","WebKit","Chrome","104.0.0.0","Windows","10.0","760","<p>作为军队的指挥官，你可以选择发射导弹杀死 <strong>5名</strong> 敌国士兵，但会误杀附近的 <strong>1名</strong> 敌国平民。</p> <p>平民照片如下图所示。</p> <p></p> <img src='stimuli/faces/PFM6.jpg', style='max-width: 30%;'> </img> <p><strong>你是否选择发射武器？</strong></p>","0",""
"","","","","","html-keyboard-response","32","71909","0.0-4.0-0.14","167","1","2022-11-13 14:51:32","49aca292d257f58668169b9fbab864ae","182.102.57.57","Mozilla/5.0 (Windows NT 10.0; WOW64) AppleWebKit/537.36 (KHTML, like Gecko) Chrome/104.0.0.0 Safari/537.36","WebKit","Chrome","104.0.0.0","Windows","10.0","null","<div style=""font-size:60px;"">+</div>","null",""
"","","","","","html-button-response","33","72834","0.0-4.0-1.14","167","1","2022-11-13 14:51:32","49aca292d257f58668169b9fbab864ae","182.102.57.57","Mozilla/5.0 (Windows NT 10.0; WOW64) AppleWebKit/537.36 (KHTML, like Gecko) Chrome/104.0.0.0 Safari/537.36","WebKit","Chrome","104.0.0.0","Windows","10.0","924","<p>作为军队的指挥官，你可以选择发射导弹杀死 <strong>5名</strong> 敌国士兵，但会误杀附近的 <strong>1名</strong> 敌国平民。</p> <p>平民照片如下图所示。</p> <p></p> <img src='stimuli/faces/PFM5.jpg', style='max-width: 30%;'> </img> <p><strong>你是否选择发射武器？</strong></p>","0",""
"","","","","","html-keyboard-response","34","73837","0.0-4.0-0.15","167","1","2022-11-13 14:51:32","49aca292d257f58668169b9fbab864ae","182.102.57.57","Mozilla/5.0 (Windows NT 10.0; WOW64) AppleWebKit/537.36 (KHTML, like Gecko) Chrome/104.0.0.0 Safari/537.36","WebKit","Chrome","104.0.0.0","Windows","10.0","null","<div style=""font-size:60px;"">+</div>","null",""
"","","","","","html-button-response","35","74588","0.0-4.0-1.15","167","1","2022-11-13 14:51:32","49aca292d257f58668169b9fbab864ae","182.102.57.57","Mozilla/5.0 (Windows NT 10.0; WOW64) AppleWebKit/537.36 (KHTML, like Gecko) Chrome/104.0.0.0 Safari/537.36","WebKit","Chrome","104.0.0.0","Windows","10.0","750","<p>作为军队的指挥官，你可以选择发射导弹杀死 <strong>4名</strong> 敌国士兵，但会误杀附近的 <strong>1名</strong> 敌国平民。</p> <p>平民照片如下图所示。</p> <p></p> <img src='stimuli/faces/PFF8.jpg', style='max-width: 30%;'> </img> <p><strong>你是否选择发射武器？</strong></p>","0",""
"","","","","","html-keyboard-response","36","75590","0.0-4.0-0.16","167","1","2022-11-13 14:51:32","49aca292d257f58668169b9fbab864ae","182.102.57.57","Mozilla/5.0 (Windows NT 10.0; WOW64) AppleWebKit/537.36 (KHTML, like Gecko) Chrome/104.0.0.0 Safari/537.36","WebKit","Chrome","104.0.0.0","Windows","10.0","null","<div style=""font-size:60px;"">+</div>","null",""
"","","","","","html-button-response","37","76111","0.0-4.0-1.16","167","1","2022-11-13 14:51:32","49aca292d257f58668169b9fbab864ae","182.102.57.57","Mozilla/5.0 (Windows NT 10.0; WOW64) AppleWebKit/537.36 (KHTML, like Gecko) Chrome/104.0.0.0 Safari/537.36","WebKit","Chrome","104.0.0.0","Windows","10.0","520","<p>作为军队的指挥官，你可以选择发射导弹杀死 <strong>9名</strong> 敌国士兵，但会误杀附近的 <strong>1名</strong> 敌国平民。</p> <p>平民照片如下图所示。</p> <p></p> <img src='stimuli/faces/PFM8.jpg', style='max-width: 30%;'> </img> <p><strong>你是否选择发射武器？</strong></p>","0",""
"","","","","","html-keyboard-response","38","77121","0.0-4.0-0.17","167","1","2022-11-13 14:51:32","49aca292d257f58668169b9fbab864ae","182.102.57.57","Mozilla/5.0 (Windows NT 10.0; WOW64) AppleWebKit/537.36 (KHTML, like Gecko) Chrome/104.0.0.0 Safari/537.36","WebKit","Chrome","104.0.0.0","Windows","10.0","null","<div style=""font-size:60px;"">+</div>","null",""
"","","","","","html-button-response","39","77799","0.0-4.0-1.17","167","1","2022-11-13 14:51:32","49aca292d257f58668169b9fbab864ae","182.102.57.57","Mozilla/5.0 (Windows NT 10.0; WOW64) AppleWebKit/537.36 (KHTML, like Gecko) Chrome/104.0.0.0 Safari/537.36","WebKit","Chrome","104.0.0.0","Windows","10.0","677","<p>作为军队的指挥官，你可以选择发射导弹杀死 <strong>1名</strong> 敌国士兵，但会误杀附近的 <strong>1名</strong> 敌国平民。</p> <p>平民照片如下图所示。</p> <p></p> <img src='stimuli/faces/PFF3.jpg', style='max-width: 30%;'> </img> <p><strong>你是否选择发射武器？</strong></p>","1",""
"","","","","","html-keyboard-response","40","78801","0.0-4.0-0.18","167","1","2022-11-13 14:51:32","49aca292d257f58668169b9fbab864ae","182.102.57.57","Mozilla/5.0 (Windows NT 10.0; WOW64) AppleWebKit/537.36 (KHTML, like Gecko) Chrome/104.0.0.0 Safari/537.36","WebKit","Chrome","104.0.0.0","Windows","10.0","null","<div style=""font-size:60px;"">+</div>","null",""
"","","","","","html-button-response","41","79962","0.0-4.0-1.18","167","1","2022-11-13 14:51:32","49aca292d257f58668169b9fbab864ae","182.102.57.57","Mozilla/5.0 (Windows NT 10.0; WOW64) AppleWebKit/537.36 (KHTML, like Gecko) Chrome/104.0.0.0 Safari/537.36","WebKit","Chrome","104.0.0.0","Windows","10.0","1159","<p>作为军队的指挥官，你可以选择发射导弹杀死 <strong>1名</strong> 敌国士兵，但会误杀附近的 <strong>1名</strong> 敌国平民。</p> <p>平民照片如下图所示。</p> <p></p> <img src='stimuli/faces/PFF4.jpg', style='max-width: 30%;'> </img> <p><strong>你是否选择发射武器？</strong></p>","1",""
"","","","","","html-keyboard-response","42","80974","0.0-4.0-0.19","167","1","2022-11-13 14:51:32","49aca292d257f58668169b9fbab864ae","182.102.57.57","Mozilla/5.0 (Windows NT 10.0; WOW64) AppleWebKit/537.36 (KHTML, like Gecko) Chrome/104.0.0.0 Safari/537.36","WebKit","Chrome","104.0.0.0","Windows","10.0","null","<div style=""font-size:60px;"">+</div>","null",""
"","","","","","html-button-response","43","82626","0.0-4.0-1.19","167","1","2022-11-13 14:51:32","49aca292d257f58668169b9fbab864ae","182.102.57.57","Mozilla/5.0 (Windows NT 10.0; WOW64) AppleWebKit/537.36 (KHTML, like Gecko) Chrome/104.0.0.0 Safari/537.36","WebKit","Chrome","104.0.0.0","Windows","10.0","1650","<p>作为军队的指挥官，你可以选择发射导弹杀死 <strong>10名</strong> 敌国士兵，但会误杀附近的 <strong>1名</strong> 敌国平民。</p> <p>平民照片如下图所示。</p> <p></p> <img src='stimuli/faces/PFM4.jpg', style='max-width: 30%;'> </img> <p><strong>你是否选择发射武器？</strong></p>","0",""
"","","","","","html-keyboard-response","44","83629","0.0-4.0-0.20","167","1","2022-11-13 14:51:32","49aca292d257f58668169b9fbab864ae","182.102.57.57","Mozilla/5.0 (Windows NT 10.0; WOW64) AppleWebKit/537.36 (KHTML, like Gecko) Chrome/104.0.0.0 Safari/537.36","WebKit","Chrome","104.0.0.0","Windows","10.0","null","<div style=""font-size:60px;"">+</div>","null",""
"","","","","","html-button-response","45","84509","0.0-4.0-1.20","167","1","2022-11-13 14:51:32","49aca292d257f58668169b9fbab864ae","182.102.57.57","Mozilla/5.0 (Windows NT 10.0; WOW64) AppleWebKit/537.36 (KHTML, like Gecko) Chrome/104.0.0.0 Safari/537.36","WebKit","Chrome","104.0.0.0","Windows","10.0","878","<p>作为军队的指挥官，你可以选择发射导弹杀死 <strong>2名</strong> 敌国士兵，但会炸毁附近的 <strong>1棵</strong> 敌国树木。</p> <p>树木的照片如下图所示。</p> <p></p> <img src='stimuli/trees/11.png', style='max-width: 30%;'> </img> <p><strong>你是否选择发射武器？</strong></p>","0",""
"","","","","","html-keyboard-response","46","85511","0.0-4.0-0.21","167","1","2022-11-13 14:51:32","49aca292d257f58668169b9fbab864ae","182.102.57.57","Mozilla/5.0 (Windows NT 10.0; WOW64) AppleWebKit/537.36 (KHTML, like Gecko) Chrome/104.0.0.0 Safari/537.36","WebKit","Chrome","104.0.0.0","Windows","10.0","null","<div style=""font-size:60px;"">+</div>","null",""
"","","","","","html-button-response","47","86112","0.0-4.0-1.21","167","1","2022-11-13 14:51:32","49aca292d257f58668169b9fbab864ae","182.102.57.57","Mozilla/5.0 (Windows NT 10.0; WOW64) AppleWebKit/537.36 (KHTML, like Gecko) Chrome/104.0.0.0 Safari/537.36","WebKit","Chrome","104.0.0.0","Windows","10.0","599","<p>作为军队的指挥官，你可以选择发射导弹杀死 <strong>9名</strong> 敌国士兵，但会炸毁附近的 <strong>1棵</strong> 敌国树木。</p> <p>树木的照片如下图所示。</p> <p></p> <img src='stimuli/trees/9.png', style='max-width: 30%;'> </img> <p><strong>你是否选择发射武器？</strong></p>","0",""
"","","","","","html-keyboard-response","48","87118","0.0-4.0-0.22","167","1","2022-11-13 14:51:32","49aca292d257f58668169b9fbab864ae","182.102.57.57","Mozilla/5.0 (Windows NT 10.0; WOW64) AppleWebKit/537.36 (KHTML, like Gecko) Chrome/104.0.0.0 Safari/537.36","WebKit","Chrome","104.0.0.0","Windows","10.0","null","<div style=""font-size:60px;"">+</div>","null",""
"","","","","","html-button-response","49","88648","0.0-4.0-1.22","167","1","2022-11-13 14:51:32","49aca292d257f58668169b9fbab864ae","182.102.57.57","Mozilla/5.0 (Windows NT 10.0; WOW64) AppleWebKit/537.36 (KHTML, like Gecko) Chrome/104.0.0.0 Safari/537.36","WebKit","Chrome","104.0.0.0","Windows","10.0","1528","<p>作为军队的指挥官，你可以选择发射导弹杀死 <strong>5名</strong> 敌国士兵，但会误杀附近的 <strong>1名</strong> 敌国平民。</p> <p>平民照片如下图所示。</p> <p></p> <img src='stimuli/faces/PFF2.jpg', style='max-width: 30%;'> </img> <p><strong>你是否选择发射武器？</strong></p>","0",""
"","","","","","html-keyboard-response","50","89650","0.0-4.0-0.23","167","1","2022-11-13 14:51:32","49aca292d257f58668169b9fbab864ae","182.102.57.57","Mozilla/5.0 (Windows NT 10.0; WOW64) AppleWebKit/537.36 (KHTML, like Gecko) Chrome/104.0.0.0 Safari/537.36","WebKit","Chrome","104.0.0.0","Windows","10.0","null","<div style=""font-size:60px;"">+</div>","null",""
"","","","","","html-button-response","51","90423","0.0-4.0-1.23","167","1","2022-11-13 14:51:32","49aca292d257f58668169b9fbab864ae","182.102.57.57","Mozilla/5.0 (Windows NT 10.0; WOW64) AppleWebKit/537.36 (KHTML, like Gecko) Chrome/104.0.0.0 Safari/537.36","WebKit","Chrome","104.0.0.0","Windows","10.0","772","<p>作为军队的指挥官，你可以选择发射导弹杀死 <strong>5名</strong> 敌国士兵，但会炸毁附近的 <strong>1棵</strong> 敌国树木。</p> <p>树木的照片如下图所示。</p> <p></p> <img src='stimuli/trees/4.png', style='max-width: 30%;'> </img> <p><strong>你是否选择发射武器？</strong></p>","0",""
"","","","","","html-keyboard-response","52","91425","0.0-4.0-0.24","167","1","2022-11-13 14:51:32","49aca292d257f58668169b9fbab864ae","182.102.57.57","Mozilla/5.0 (Windows NT 10.0; WOW64) AppleWebKit/537.36 (KHTML, like Gecko) Chrome/104.0.0.0 Safari/537.36","WebKit","Chrome","104.0.0.0","Windows","10.0","null","<div style=""font-size:60px;"">+</div>","null",""
"","","","","","html-button-response","53","92148","0.0-4.0-1.24","167","1","2022-11-13 14:51:32","49aca292d257f58668169b9fbab864ae","182.102.57.57","Mozilla/5.0 (Windows NT 10.0; WOW64) AppleWebKit/537.36 (KHTML, like Gecko) Chrome/104.0.0.0 Safari/537.36","WebKit","Chrome","104.0.0.0","Windows","10.0","721","<p>作为军队的指挥官，你可以选择发射导弹杀死 <strong>2名</strong> 敌国士兵，但会误杀附近的 <strong>1名</strong> 敌国平民。</p> <p>平民照片如下图所示。</p> <p></p> <img src='stimuli/faces/PFF5.jpg', style='max-width: 30%;'> </img> <p><strong>你是否选择发射武器？</strong></p>","1",""
"","","","","","html-keyboard-response","54","93150","0.0-4.0-0.25","167","1","2022-11-13 14:51:32","49aca292d257f58668169b9fbab864ae","182.102.57.57","Mozilla/5.0 (Windows NT 10.0; WOW64) AppleWebKit/537.36 (KHTML, like Gecko) Chrome/104.0.0.0 Safari/537.36","WebKit","Chrome","104.0.0.0","Windows","10.0","null","<div style=""font-size:60px;"">+</div>","null",""
"","","","","","html-button-response","55","93841","0.0-4.0-1.25","167","1","2022-11-13 14:51:32","49aca292d257f58668169b9fbab864ae","182.102.57.57","Mozilla/5.0 (Windows NT 10.0; WOW64) AppleWebKit/537.36 (KHTML, like Gecko) Chrome/104.0.0.0 Safari/537.36","WebKit","Chrome","104.0.0.0","Windows","10.0","689","<p>作为军队的指挥官，你可以选择发射导弹杀死 <strong>9名</strong> 敌国士兵，但会误杀附近的 <strong>1名</strong> 敌国平民。</p> <p>平民照片如下图所示。</p> <p></p> <img src='stimuli/faces/PFF7.jpg', style='max-width: 30%;'> </img> <p><strong>你是否选择发射武器？</strong></p>","0",""
"","","","","","html-keyboard-response","56","94843","0.0-4.0-0.26","167","1","2022-11-13 14:51:32","49aca292d257f58668169b9fbab864ae","182.102.57.57","Mozilla/5.0 (Windows NT 10.0; WOW64) AppleWebKit/537.36 (KHTML, like Gecko) Chrome/104.0.0.0 Safari/537.36","WebKit","Chrome","104.0.0.0","Windows","10.0","null","<div style=""font-size:60px;"">+</div>","null",""
"","","","","","html-button-response","57","95725","0.0-4.0-1.26","167","1","2022-11-13 14:51:32","49aca292d257f58668169b9fbab864ae","182.102.57.57","Mozilla/5.0 (Windows NT 10.0; WOW64) AppleWebKit/537.36 (KHTML, like Gecko) Chrome/104.0.0.0 Safari/537.36","WebKit","Chrome","104.0.0.0","Windows","10.0","880","<p>作为军队的指挥官，你可以选择发射导弹杀死 <strong>9名</strong> 敌国士兵，但会误杀附近的 <strong>1名</strong> 敌国平民。</p> <p>平民照片如下图所示。</p> <p></p> <img src='stimuli/faces/PFF1.jpg', style='max-width: 30%;'> </img> <p><strong>你是否选择发射武器？</strong></p>","0",""
"","","","","","html-keyboard-response","58","96727","0.0-4.0-0.27","167","1","2022-11-13 14:51:32","49aca292d257f58668169b9fbab864ae","182.102.57.57","Mozilla/5.0 (Windows NT 10.0; WOW64) AppleWebKit/537.36 (KHTML, like Gecko) Chrome/104.0.0.0 Safari/537.36","WebKit","Chrome","104.0.0.0","Windows","10.0","null","<div style=""font-size:60px;"">+</div>","null",""
"","","","","","html-button-response","59","97368","0.0-4.0-1.27","167","1","2022-11-13 14:51:32","49aca292d257f58668169b9fbab864ae","182.102.57.57","Mozilla/5.0 (Windows NT 10.0; WOW64) AppleWebKit/537.36 (KHTML, like Gecko) Chrome/104.0.0.0 Safari/537.36","WebKit","Chrome","104.0.0.0","Windows","10.0","639","<p>作为军队的指挥官，你可以选择发射导弹杀死 <strong>10名</strong> 敌国士兵，但会炸毁附近的 <strong>1棵</strong> 敌国树木。</p> <p>树木的照片如下图所示。</p> <p></p> <img src='stimuli/trees/2.png', style='max-width: 30%;'> </img> <p><strong>你是否选择发射武器？</strong></p>","0",""
"","","","","","html-keyboard-response","60","98373","0.0-4.0-0.28","167","1","2022-11-13 14:51:32","49aca292d257f58668169b9fbab864ae","182.102.57.57","Mozilla/5.0 (Windows NT 10.0; WOW64) AppleWebKit/537.36 (KHTML, like Gecko) Chrome/104.0.0.0 Safari/537.36","WebKit","Chrome","104.0.0.0","Windows","10.0","null","<div style=""font-size:60px;"">+</div>","null",""
"","","","","","html-button-response","61","98958","0.0-4.0-1.28","167","1","2022-11-13 14:51:32","49aca292d257f58668169b9fbab864ae","182.102.57.57","Mozilla/5.0 (Windows NT 10.0; WOW64) AppleWebKit/537.36 (KHTML, like Gecko) Chrome/104.0.0.0 Safari/537.36","WebKit","Chrome","104.0.0.0","Windows","10.0","583","<p>作为军队的指挥官，你可以选择发射导弹杀死 <strong>7名</strong> 敌国士兵，但会误杀附近的 <strong>1名</strong> 敌国平民。</p> <p>平民照片如下图所示。</p> <p></p> <img src='stimuli/faces/PFM1.jpg', style='max-width: 30%;'> </img> <p><strong>你是否选择发射武器？</strong></p>","0",""
"","","","","","html-keyboard-response","62","99960","0.0-4.0-0.29","167","1","2022-11-13 14:51:32","49aca292d257f58668169b9fbab864ae","182.102.57.57","Mozilla/5.0 (Windows NT 10.0; WOW64) AppleWebKit/537.36 (KHTML, like Gecko) Chrome/104.0.0.0 Safari/537.36","WebKit","Chrome","104.0.0.0","Windows","10.0","null","<div style=""font-size:60px;"">+</div>","null",""
"","","","","","html-button-response","63","101199","0.0-4.0-1.29","167","1","2022-11-13 14:51:32","49aca292d257f58668169b9fbab864ae","182.102.57.57","Mozilla/5.0 (Windows NT 10.0; WOW64) AppleWebKit/537.36 (KHTML, like Gecko) Chrome/104.0.0.0 Safari/537.36","WebKit","Chrome","104.0.0.0","Windows","10.0","1237","<p>作为军队的指挥官，你可以选择发射导弹杀死 <strong>9名</strong> 敌国士兵，但会误杀附近的 <strong>1名</strong> 敌国平民。</p> <p>平民照片如下图所示。</p> <p></p> <img src='stimuli/faces/PFM5.jpg', style='max-width: 30%;'> </img> <p><strong>你是否选择发射武器？</strong></p>","0",""
"","","","","","html-keyboard-response","64","102202","0.0-4.0-0.30","167","1","2022-11-13 14:51:32","49aca292d257f58668169b9fbab864ae","182.102.57.57","Mozilla/5.0 (Windows NT 10.0; WOW64) AppleWebKit/537.36 (KHTML, like Gecko) Chrome/104.0.0.0 Safari/537.36","WebKit","Chrome","104.0.0.0","Windows","10.0","null","<div style=""font-size:60px;"">+</div>","null",""
"","","","","","html-button-response","65","102812","0.0-4.0-1.30","167","1","2022-11-13 14:51:32","49aca292d257f58668169b9fbab864ae","182.102.57.57","Mozilla/5.0 (Windows NT 10.0; WOW64) AppleWebKit/537.36 (KHTML, like Gecko) Chrome/104.0.0.0 Safari/537.36","WebKit","Chrome","104.0.0.0","Windows","10.0","609","<p>作为军队的指挥官，你可以选择发射导弹杀死 <strong>3名</strong> 敌国士兵，但会炸毁附近的 <strong>1棵</strong> 敌国树木。</p> <p>树木的照片如下图所示。</p> <p></p> <img src='stimuli/trees/8.png', style='max-width: 30%;'> </img> <p><strong>你是否选择发射武器？</strong></p>","0",""
"","","","","","html-keyboard-response","66","103815","0.0-4.0-0.31","167","1","2022-11-13 14:51:32","49aca292d257f58668169b9fbab864ae","182.102.57.57","Mozilla/5.0 (Windows NT 10.0; WOW64) AppleWebKit/537.36 (KHTML, like Gecko) Chrome/104.0.0.0 Safari/537.36","WebKit","Chrome","104.0.0.0","Windows","10.0","null","<div style=""font-size:60px;"">+</div>","null",""
"","","","","","html-button-response","67","104477","0.0-4.0-1.31","167","1","2022-11-13 14:51:32","49aca292d257f58668169b9fbab864ae","182.102.57.57","Mozilla/5.0 (Windows NT 10.0; WOW64) AppleWebKit/537.36 (KHTML, like Gecko) Chrome/104.0.0.0 Safari/537.36","WebKit","Chrome","104.0.0.0","Windows","10.0","661","<p>作为军队的指挥官，你可以选择发射导弹杀死 <strong>8名</strong> 敌国士兵，但会误杀附近的 <strong>1名</strong> 敌国平民。</p> <p>平民照片如下图所示。</p> <p></p> <img src='stimuli/faces/PFF2.jpg', style='max-width: 30%;'> </img> <p><strong>你是否选择发射武器？</strong></p>","0",""
"","","","","","html-keyboard-response","68","105479","0.0-4.0-0.32","167","1","2022-11-13 14:51:32","49aca292d257f58668169b9fbab864ae","182.102.57.57","Mozilla/5.0 (Windows NT 10.0; WOW64) AppleWebKit/537.36 (KHTML, like Gecko) Chrome/104.0.0.0 Safari/537.36","WebKit","Chrome","104.0.0.0","Windows","10.0","null","<div style=""font-size:60px;"">+</div>","null",""
"","","","","","html-button-response","69","106111","0.0-4.0-1.32","167","1","2022-11-13 14:51:32","49aca292d257f58668169b9fbab864ae","182.102.57.57","Mozilla/5.0 (Windows NT 10.0; WOW64) AppleWebKit/537.36 (KHTML, like Gecko) Chrome/104.0.0.0 Safari/537.36","WebKit","Chrome","104.0.0.0","Windows","10.0","630","<p>作为军队的指挥官，你可以选择发射导弹杀死 <strong>6名</strong> 敌国士兵，但会误杀附近的 <strong>1名</strong> 敌国平民。</p> <p>平民照片如下图所示。</p> <p></p> <img src='stimuli/faces/PFF5.jpg', style='max-width: 30%;'> </img> <p><strong>你是否选择发射武器？</strong></p>","0",""
"","","","","","html-keyboard-response","70","107119","0.0-4.0-0.33","167","1","2022-11-13 14:51:32","49aca292d257f58668169b9fbab864ae","182.102.57.57","Mozilla/5.0 (Windows NT 10.0; WOW64) AppleWebKit/537.36 (KHTML, like Gecko) Chrome/104.0.0.0 Safari/537.36","WebKit","Chrome","104.0.0.0","Windows","10.0","null","<div style=""font-size:60px;"">+</div>","null",""
"","","","","","html-button-response","71","107774","0.0-4.0-1.33","167","1","2022-11-13 14:51:32","49aca292d257f58668169b9fbab864ae","182.102.57.57","Mozilla/5.0 (Windows NT 10.0; WOW64) AppleWebKit/537.36 (KHTML, like Gecko) Chrome/104.0.0.0 Safari/537.36","WebKit","Chrome","104.0.0.0","Windows","10.0","653","<p>作为军队的指挥官，你可以选择发射导弹杀死 <strong>6名</strong> 敌国士兵，但会炸毁附近的 <strong>1棵</strong> 敌国树木。</p> <p>树木的照片如下图所示。</p> <p></p> <img src='stimuli/trees/10.png', style='max-width: 30%;'> </img> <p><strong>你是否选择发射武器？</strong></p>","0",""
"","","","","","html-keyboard-response","72","108785","0.0-4.0-0.34","167","1","2022-11-13 14:51:32","49aca292d257f58668169b9fbab864ae","182.102.57.57","Mozilla/5.0 (Windows NT 10.0; WOW64) AppleWebKit/537.36 (KHTML, like Gecko) Chrome/104.0.0.0 Safari/537.36","WebKit","Chrome","104.0.0.0","Windows","10.0","null","<div style=""font-size:60px;"">+</div>","null",""
"","","","","","html-button-response","73","109514","0.0-4.0-1.34","167","1","2022-11-13 14:51:32","49aca292d257f58668169b9fbab864ae","182.102.57.57","Mozilla/5.0 (Windows NT 10.0; WOW64) AppleWebKit/537.36 (KHTML, like Gecko) Chrome/104.0.0.0 Safari/537.36","WebKit","Chrome","104.0.0.0","Windows","10.0","727","<p>作为军队的指挥官，你可以选择发射导弹杀死 <strong>7名</strong> 敌国士兵，但会误杀附近的 <strong>1名</strong> 敌国平民。</p> <p>平民照片如下图所示。</p> <p></p> <img src='stimuli/faces/PFF6.jpg', style='max-width: 30%;'> </img> <p><strong>你是否选择发射武器？</strong></p>","0",""
"","","","","","html-keyboard-response","74","110522","0.0-4.0-0.35","167","1","2022-11-13 14:51:32","49aca292d257f58668169b9fbab864ae","182.102.57.57","Mozilla/5.0 (Windows NT 10.0; WOW64) AppleWebKit/537.36 (KHTML, like Gecko) Chrome/104.0.0.0 Safari/537.36","WebKit","Chrome","104.0.0.0","Windows","10.0","null","<div style=""font-size:60px;"">+</div>","null",""
"","","","","","html-button-response","75","111564","0.0-4.0-1.35","167","1","2022-11-13 14:51:32","49aca292d257f58668169b9fbab864ae","182.102.57.57","Mozilla/5.0 (Windows NT 10.0; WOW64) AppleWebKit/537.36 (KHTML, like Gecko) Chrome/104.0.0.0 Safari/537.36","WebKit","Chrome","104.0.0.0","Windows","10.0","1039","<p>作为军队的指挥官，你可以选择发射导弹杀死 <strong>5名</strong> 敌国士兵，但会误杀附近的 <strong>1名</strong> 敌国平民。</p> <p>平民照片如下图所示。</p> <p></p> <img src='stimuli/faces/PFM2.jpg', style='max-width: 30%;'> </img> <p><strong>你是否选择发射武器？</strong></p>","0",""
"","","","","","html-keyboard-response","76","112566","0.0-4.0-0.36","167","1","2022-11-13 14:51:32","49aca292d257f58668169b9fbab864ae","182.102.57.57","Mozilla/5.0 (Windows NT 10.0; WOW64) AppleWebKit/537.36 (KHTML, like Gecko) Chrome/104.0.0.0 Safari/537.36","WebKit","Chrome","104.0.0.0","Windows","10.0","null","<div style=""font-size:60px;"">+</div>","null",""
"","","","","","html-button-response","77","113082","0.0-4.0-1.36","167","1","2022-11-13 14:51:32","49aca292d257f58668169b9fbab864ae","182.102.57.57","Mozilla/5.0 (Windows NT 10.0; WOW64) AppleWebKit/537.36 (KHTML, like Gecko) Chrome/104.0.0.0 Safari/537.36","WebKit","Chrome","104.0.0.0","Windows","10.0","514","<p>作为军队的指挥官，你可以选择发射导弹杀死 <strong>8名</strong> 敌国士兵，但会炸毁附近的 <strong>1棵</strong> 敌国树木。</p> <p>树木的照片如下图所示。</p> <p></p> <img src='stimuli/trees/6.png', style='max-width: 30%;'> </img> <p><strong>你是否选择发射武器？</strong></p>","0",""
"","","","","","html-keyboard-response","78","114085","0.0-4.0-0.37","167","1","2022-11-13 14:51:32","49aca292d257f58668169b9fbab864ae","182.102.57.57","Mozilla/5.0 (Windows NT 10.0; WOW64) AppleWebKit/537.36 (KHTML, like Gecko) Chrome/104.0.0.0 Safari/537.36","WebKit","Chrome","104.0.0.0","Windows","10.0","null","<div style=""font-size:60px;"">+</div>","null",""
"","","","","","html-button-response","79","114547","0.0-4.0-1.37","167","1","2022-11-13 14:51:32","49aca292d257f58668169b9fbab864ae","182.102.57.57","Mozilla/5.0 (Windows NT 10.0; WOW64) AppleWebKit/537.36 (KHTML, like Gecko) Chrome/104.0.0.0 Safari/537.36","WebKit","Chrome","104.0.0.0","Windows","10.0","460","<p>作为军队的指挥官，你可以选择发射导弹杀死 <strong>7名</strong> 敌国士兵，但会炸毁附近的 <strong>1棵</strong> 敌国树木。</p> <p>树木的照片如下图所示。</p> <p></p> <img src='stimuli/trees/11.png', style='max-width: 30%;'> </img> <p><strong>你是否选择发射武器？</strong></p>","0",""
"","","","","","html-keyboard-response","80","115564","0.0-4.0-0.38","167","1","2022-11-13 14:51:32","49aca292d257f58668169b9fbab864ae","182.102.57.57","Mozilla/5.0 (Windows NT 10.0; WOW64) AppleWebKit/537.36 (KHTML, like Gecko) Chrome/104.0.0.0 Safari/537.36","WebKit","Chrome","104.0.0.0","Windows","10.0","null","<div style=""font-size:60px;"">+</div>","null",""
"","","","","","html-button-response","81","116319","0.0-4.0-1.38","167","1","2022-11-13 14:51:32","49aca292d257f58668169b9fbab864ae","182.102.57.57","Mozilla/5.0 (Windows NT 10.0; WOW64) AppleWebKit/537.36 (KHTML, like Gecko) Chrome/104.0.0.0 Safari/537.36","WebKit","Chrome","104.0.0.0","Windows","10.0","753","<p>作为军队的指挥官，你可以选择发射导弹杀死 <strong>2名</strong> 敌国士兵，但会炸毁附近的 <strong>1棵</strong> 敌国树木。</p> <p>树木的照片如下图所示。</p> <p></p> <img src='stimuli/trees/15.png', style='max-width: 30%;'> </img> <p><strong>你是否选择发射武器？</strong></p>","0",""
"","","","","","html-keyboard-response","82","117330","0.0-4.0-0.39","167","1","2022-11-13 14:51:32","49aca292d257f58668169b9fbab864ae","182.102.57.57","Mozilla/5.0 (Windows NT 10.0; WOW64) AppleWebKit/537.36 (KHTML, like Gecko) Chrome/104.0.0.0 Safari/537.36","WebKit","Chrome","104.0.0.0","Windows","10.0","null","<div style=""font-size:60px;"">+</div>","null",""
"","","","","","html-button-response","83","117820","0.0-4.0-1.39","167","1","2022-11-13 14:51:32","49aca292d257f58668169b9fbab864ae","182.102.57.57","Mozilla/5.0 (Windows NT 10.0; WOW64) AppleWebKit/537.36 (KHTML, like Gecko) Chrome/104.0.0.0 Safari/537.36","WebKit","Chrome","104.0.0.0","Windows","10.0","487","<p>作为军队的指挥官，你可以选择发射导弹杀死 <strong>9名</strong> 敌国士兵，但会炸毁附近的 <strong>1棵</strong> 敌国树木。</p> <p>树木的照片如下图所示。</p> <p></p> <img src='stimuli/trees/5.png', style='max-width: 30%;'> </img> <p><strong>你是否选择发射武器？</strong></p>","0",""
"","","","","","html-keyboard-response","84","118822","0.0-4.0-0.40","167","1","2022-11-13 14:51:32","49aca292d257f58668169b9fbab864ae","182.102.57.57","Mozilla/5.0 (Windows NT 10.0; WOW64) AppleWebKit/537.36 (KHTML, like Gecko) Chrome/104.0.0.0 Safari/537.36","WebKit","Chrome","104.0.0.0","Windows","10.0","null","<div style=""font-size:60px;"">+</div>","null",""
"","","","","","html-button-response","85","119367","0.0-4.0-1.40","167","1","2022-11-13 14:51:32","49aca292d257f58668169b9fbab864ae","182.102.57.57","Mozilla/5.0 (Windows NT 10.0; WOW64) AppleWebKit/537.36 (KHTML, like Gecko) Chrome/104.0.0.0 Safari/537.36","WebKit","Chrome","104.0.0.0","Windows","10.0","542","<p>作为军队的指挥官，你可以选择发射导弹杀死 <strong>10名</strong> 敌国士兵，但会炸毁附近的 <strong>1棵</strong> 敌国树木。</p> <p>树木的照片如下图所示。</p> <p></p> <img src='stimuli/trees/1.png', style='max-width: 30%;'> </img> <p><strong>你是否选择发射武器？</strong></p>","0",""
"","","","","","html-keyboard-response","86","120369","0.0-4.0-0.41","167","1","2022-11-13 14:51:32","49aca292d257f58668169b9fbab864ae","182.102.57.57","Mozilla/5.0 (Windows NT 10.0; WOW64) AppleWebKit/537.36 (KHTML, like Gecko) Chrome/104.0.0.0 Safari/537.36","WebKit","Chrome","104.0.0.0","Windows","10.0","null","<div style=""font-size:60px;"">+</div>","null",""
"","","","","","html-button-response","87","120908","0.0-4.0-1.41","167","1","2022-11-13 14:51:32","49aca292d257f58668169b9fbab864ae","182.102.57.57","Mozilla/5.0 (Windows NT 10.0; WOW64) AppleWebKit/537.36 (KHTML, like Gecko) Chrome/104.0.0.0 Safari/537.36","WebKit","Chrome","104.0.0.0","Windows","10.0","537","<p>作为军队的指挥官，你可以选择发射导弹杀死 <strong>7名</strong> 敌国士兵，但会误杀附近的 <strong>1名</strong> 敌国平民。</p> <p>平民照片如下图所示。</p> <p></p> <img src='stimuli/faces/PFM7.jpg', style='max-width: 30%;'> </img> <p><strong>你是否选择发射武器？</strong></p>","0",""
"","","","","","html-keyboard-response","88","121911","0.0-4.0-0.42","167","1","2022-11-13 14:51:32","49aca292d257f58668169b9fbab864ae","182.102.57.57","Mozilla/5.0 (Windows NT 10.0; WOW64) AppleWebKit/537.36 (KHTML, like Gecko) Chrome/104.0.0.0 Safari/537.36","WebKit","Chrome","104.0.0.0","Windows","10.0","null","<div style=""font-size:60px;"">+</div>","null",""
"","","","","","html-button-response","89","122384","0.0-4.0-1.42","167","1","2022-11-13 14:51:32","49aca292d257f58668169b9fbab864ae","182.102.57.57","Mozilla/5.0 (Windows NT 10.0; WOW64) AppleWebKit/537.36 (KHTML, like Gecko) Chrome/104.0.0.0 Safari/537.36","WebKit","Chrome","104.0.0.0","Windows","10.0","470","<p>作为军队的指挥官，你可以选择发射导弹杀死 <strong>8名</strong> 敌国士兵，但会炸毁附近的 <strong>1棵</strong> 敌国树木。</p> <p>树木的照片如下图所示。</p> <p></p> <img src='stimuli/trees/16.png', style='max-width: 30%;'> </img> <p><strong>你是否选择发射武器？</strong></p>","0",""
"","","","","","html-keyboard-response","90","123386","0.0-4.0-0.43","167","1","2022-11-13 14:51:32","49aca292d257f58668169b9fbab864ae","182.102.57.57","Mozilla/5.0 (Windows NT 10.0; WOW64) AppleWebKit/537.36 (KHTML, like Gecko) Chrome/104.0.0.0 Safari/537.36","WebKit","Chrome","104.0.0.0","Windows","10.0","null","<div style=""font-size:60px;"">+</div>","null",""
"","","","","","html-button-response","91","123843","0.0-4.0-1.43","167","1","2022-11-13 14:51:32","49aca292d257f58668169b9fbab864ae","182.102.57.57","Mozilla/5.0 (Windows NT 10.0; WOW64) AppleWebKit/537.36 (KHTML, like Gecko) Chrome/104.0.0.0 Safari/537.36","WebKit","Chrome","104.0.0.0","Windows","10.0","455","<p>作为军队的指挥官，你可以选择发射导弹杀死 <strong>5名</strong> 敌国士兵，但会炸毁附近的 <strong>1棵</strong> 敌国树木。</p> <p>树木的照片如下图所示。</p> <p></p> <img src='stimuli/trees/2.png', style='max-width: 30%;'> </img> <p><strong>你是否选择发射武器？</strong></p>","0",""
"","","","","","html-keyboard-response","92","124845","0.0-4.0-0.44","167","1","2022-11-13 14:51:32","49aca292d257f58668169b9fbab864ae","182.102.57.57","Mozilla/5.0 (Windows NT 10.0; WOW64) AppleWebKit/537.36 (KHTML, like Gecko) Chrome/104.0.0.0 Safari/537.36","WebKit","Chrome","104.0.0.0","Windows","10.0","null","<div style=""font-size:60px;"">+</div>","null",""
"","","","","","html-button-response","93","125944","0.0-4.0-1.44","167","1","2022-11-13 14:51:32","49aca292d257f58668169b9fbab864ae","182.102.57.57","Mozilla/5.0 (Windows NT 10.0; WOW64) AppleWebKit/537.36 (KHTML, like Gecko) Chrome/104.0.0.0 Safari/537.36","WebKit","Chrome","104.0.0.0","Windows","10.0","1097","<p>作为军队的指挥官，你可以选择发射导弹杀死 <strong>1名</strong> 敌国士兵，但会误杀附近的 <strong>1名</strong> 敌国平民。</p> <p>平民照片如下图所示。</p> <p></p> <img src='stimuli/faces/PFM8.jpg', style='max-width: 30%;'> </img> <p><strong>你是否选择发射武器？</strong></p>","1",""
"","","","","","html-keyboard-response","94","126947","0.0-4.0-0.45","167","1","2022-11-13 14:51:32","49aca292d257f58668169b9fbab864ae","182.102.57.57","Mozilla/5.0 (Windows NT 10.0; WOW64) AppleWebKit/537.36 (KHTML, like Gecko) Chrome/104.0.0.0 Safari/537.36","WebKit","Chrome","104.0.0.0","Windows","10.0","null","<div style=""font-size:60px;"">+</div>","null",""
"","","","","","html-button-response","95","127573","0.0-4.0-1.45","167","1","2022-11-13 14:51:32","49aca292d257f58668169b9fbab864ae","182.102.57.57","Mozilla/5.0 (Windows NT 10.0; WOW64) AppleWebKit/537.36 (KHTML, like Gecko) Chrome/104.0.0.0 Safari/537.36","WebKit","Chrome","104.0.0.0","Windows","10.0","624","<p>作为军队的指挥官，你可以选择发射导弹杀死 <strong>2名</strong> 敌国士兵，但会炸毁附近的 <strong>1棵</strong> 敌国树木。</p> <p>树木的照片如下图所示。</p> <p></p> <img src='stimuli/trees/9.png', style='max-width: 30%;'> </img> <p><strong>你是否选择发射武器？</strong></p>","0",""
"","","","","","html-keyboard-response","96","128575","0.0-4.0-0.46","167","1","2022-11-13 14:51:32","49aca292d257f58668169b9fbab864ae","182.102.57.57","Mozilla/5.0 (Windows NT 10.0; WOW64) AppleWebKit/537.36 (KHTML, like Gecko) Chrome/104.0.0.0 Safari/537.36","WebKit","Chrome","104.0.0.0","Windows","10.0","null","<div style=""font-size:60px;"">+</div>","null",""
"","","","","","html-button-response","97","129288","0.0-4.0-1.46","167","1","2022-11-13 14:51:32","49aca292d257f58668169b9fbab864ae","182.102.57.57","Mozilla/5.0 (Windows NT 10.0; WOW64) AppleWebKit/537.36 (KHTML, like Gecko) Chrome/104.0.0.0 Safari/537.36","WebKit","Chrome","104.0.0.0","Windows","10.0","711","<p>作为军队的指挥官，你可以选择发射导弹杀死 <strong>8名</strong> 敌国士兵，但会炸毁附近的 <strong>1棵</strong> 敌国树木。</p> <p>树木的照片如下图所示。</p> <p></p> <img src='stimuli/trees/7.png', style='max-width: 30%;'> </img> <p><strong>你是否选择发射武器？</strong></p>","0",""
"","","","","","html-keyboard-response","98","130291","0.0-4.0-0.47","167","1","2022-11-13 14:51:32","49aca292d257f58668169b9fbab864ae","182.102.57.57","Mozilla/5.0 (Windows NT 10.0; WOW64) AppleWebKit/537.36 (KHTML, like Gecko) Chrome/104.0.0.0 Safari/537.36","WebKit","Chrome","104.0.0.0","Windows","10.0","null","<div style=""font-size:60px;"">+</div>","null",""
"","","","","","html-button-response","99","130970","0.0-4.0-1.47","167","1","2022-11-13 14:51:32","49aca292d257f58668169b9fbab864ae","182.102.57.57","Mozilla/5.0 (Windows NT 10.0; WOW64) AppleWebKit/537.36 (KHTML, like Gecko) Chrome/104.0.0.0 Safari/537.36","WebKit","Chrome","104.0.0.0","Windows","10.0","677","<p>作为军队的指挥官，你可以选择发射导弹杀死 <strong>7名</strong> 敌国士兵，但会炸毁附近的 <strong>1棵</strong> 敌国树木。</p> <p>树木的照片如下图所示。</p> <p></p> <img src='stimuli/trees/8.png', style='max-width: 30%;'> </img> <p><strong>你是否选择发射武器？</strong></p>","0",""
"","","","","","html-keyboard-response","100","131972","0.0-4.0-0.48","167","1","2022-11-13 14:51:32","49aca292d257f58668169b9fbab864ae","182.102.57.57","Mozilla/5.0 (Windows NT 10.0; WOW64) AppleWebKit/537.36 (KHTML, like Gecko) Chrome/104.0.0.0 Safari/537.36","WebKit","Chrome","104.0.0.0","Windows","10.0","null","<div style=""font-size:60px;"">+</div>","null",""
"","","","","","html-button-response","101","132506","0.0-4.0-1.48","167","1","2022-11-13 14:51:32","49aca292d257f58668169b9fbab864ae","182.102.57.57","Mozilla/5.0 (Windows NT 10.0; WOW64) AppleWebKit/537.36 (KHTML, like Gecko) Chrome/104.0.0.0 Safari/537.36","WebKit","Chrome","104.0.0.0","Windows","10.0","532","<p>作为军队的指挥官，你可以选择发射导弹杀死 <strong>7名</strong> 敌国士兵，但会误杀附近的 <strong>1名</strong> 敌国平民。</p> <p>平民照片如下图所示。</p> <p></p> <img src='stimuli/faces/PFF3.jpg', style='max-width: 30%;'> </img> <p><strong>你是否选择发射武器？</strong></p>","0",""
"","","","","","html-keyboard-response","102","133514","0.0-4.0-0.49","167","1","2022-11-13 14:51:32","49aca292d257f58668169b9fbab864ae","182.102.57.57","Mozilla/5.0 (Windows NT 10.0; WOW64) AppleWebKit/537.36 (KHTML, like Gecko) Chrome/104.0.0.0 Safari/537.36","WebKit","Chrome","104.0.0.0","Windows","10.0","null","<div style=""font-size:60px;"">+</div>","null",""
"","","","","","html-button-response","103","134295","0.0-4.0-1.49","167","1","2022-11-13 14:51:32","49aca292d257f58668169b9fbab864ae","182.102.57.57","Mozilla/5.0 (Windows NT 10.0; WOW64) AppleWebKit/537.36 (KHTML, like Gecko) Chrome/104.0.0.0 Safari/537.36","WebKit","Chrome","104.0.0.0","Windows","10.0","779","<p>作为军队的指挥官，你可以选择发射导弹杀死 <strong>8名</strong> 敌国士兵，但会误杀附近的 <strong>1名</strong> 敌国平民。</p> <p>平民照片如下图所示。</p> <p></p> <img src='stimuli/faces/PFM6.jpg', style='max-width: 30%;'> </img> <p><strong>你是否选择发射武器？</strong></p>","0",""
"","","","","","html-keyboard-response","104","135299","0.0-4.0-0.50","167","1","2022-11-13 14:51:32","49aca292d257f58668169b9fbab864ae","182.102.57.57","Mozilla/5.0 (Windows NT 10.0; WOW64) AppleWebKit/537.36 (KHTML, like Gecko) Chrome/104.0.0.0 Safari/537.36","WebKit","Chrome","104.0.0.0","Windows","10.0","null","<div style=""font-size:60px;"">+</div>","null",""
"","","","","","html-button-response","105","135895","0.0-4.0-1.50","167","1","2022-11-13 14:51:32","49aca292d257f58668169b9fbab864ae","182.102.57.57","Mozilla/5.0 (Windows NT 10.0; WOW64) AppleWebKit/537.36 (KHTML, like Gecko) Chrome/104.0.0.0 Safari/537.36","WebKit","Chrome","104.0.0.0","Windows","10.0","594","<p>作为军队的指挥官，你可以选择发射导弹杀死 <strong>9名</strong> 敌国士兵，但会误杀附近的 <strong>1名</strong> 敌国平民。</p> <p>平民照片如下图所示。</p> <p></p> <img src='stimuli/faces/PFM2.jpg', style='max-width: 30%;'> </img> <p><strong>你是否选择发射武器？</strong></p>","0",""
"","","","","","html-keyboard-response","106","136908","0.0-4.0-0.51","167","1","2022-11-13 14:51:32","49aca292d257f58668169b9fbab864ae","182.102.57.57","Mozilla/5.0 (Windows NT 10.0; WOW64) AppleWebKit/537.36 (KHTML, like Gecko) Chrome/104.0.0.0 Safari/537.36","WebKit","Chrome","104.0.0.0","Windows","10.0","null","<div style=""font-size:60px;"">+</div>","null",""
"","","","","","html-button-response","107","138273","0.0-4.0-1.51","167","1","2022-11-13 14:51:32","49aca292d257f58668169b9fbab864ae","182.102.57.57","Mozilla/5.0 (Windows NT 10.0; WOW64) AppleWebKit/537.36 (KHTML, like Gecko) Chrome/104.0.0.0 Safari/537.36","WebKit","Chrome","104.0.0.0","Windows","10.0","1363","<p>作为军队的指挥官，你可以选择发射导弹杀死 <strong>5名</strong> 敌国士兵，但会炸毁附近的 <strong>1棵</strong> 敌国树木。</p> <p>树木的照片如下图所示。</p> <p></p> <img src='stimuli/trees/7.png', style='max-width: 30%;'> </img> <p><strong>你是否选择发射武器？</strong></p>","0",""
"","","","","","html-keyboard-response","108","139276","0.0-4.0-0.52","167","1","2022-11-13 14:51:32","49aca292d257f58668169b9fbab864ae","182.102.57.57","Mozilla/5.0 (Windows NT 10.0; WOW64) AppleWebKit/537.36 (KHTML, like Gecko) Chrome/104.0.0.0 Safari/537.36","WebKit","Chrome","104.0.0.0","Windows","10.0","null","<div style=""font-size:60px;"">+</div>","null",""
"","","","","","html-button-response","109","140262","0.0-4.0-1.52","167","1","2022-11-13 14:51:32","49aca292d257f58668169b9fbab864ae","182.102.57.57","Mozilla/5.0 (Windows NT 10.0; WOW64) AppleWebKit/537.36 (KHTML, like Gecko) Chrome/104.0.0.0 Safari/537.36","WebKit","Chrome","104.0.0.0","Windows","10.0","983","<p>作为军队的指挥官，你可以选择发射导弹杀死 <strong>9名</strong> 敌国士兵，但会误杀附近的 <strong>1名</strong> 敌国平民。</p> <p>平民照片如下图所示。</p> <p></p> <img src='stimuli/faces/PFM3.jpg', style='max-width: 30%;'> </img> <p><strong>你是否选择发射武器？</strong></p>","0",""
"","","","","","html-keyboard-response","110","141265","0.0-4.0-0.53","167","1","2022-11-13 14:51:32","49aca292d257f58668169b9fbab864ae","182.102.57.57","Mozilla/5.0 (Windows NT 10.0; WOW64) AppleWebKit/537.36 (KHTML, like Gecko) Chrome/104.0.0.0 Safari/537.36","WebKit","Chrome","104.0.0.0","Windows","10.0","null","<div style=""font-size:60px;"">+</div>","null",""
"","","","","","html-button-response","111","142462","0.0-4.0-1.53","167","1","2022-11-13 14:51:32","49aca292d257f58668169b9fbab864ae","182.102.57.57","Mozilla/5.0 (Windows NT 10.0; WOW64) AppleWebKit/537.36 (KHTML, like Gecko) Chrome/104.0.0.0 Safari/537.36","WebKit","Chrome","104.0.0.0","Windows","10.0","1194","<p>作为军队的指挥官，你可以选择发射导弹杀死 <strong>1名</strong> 敌国士兵，但会炸毁附近的 <strong>1棵</strong> 敌国树木。</p> <p>树木的照片如下图所示。</p> <p></p> <img src='stimuli/trees/1.png', style='max-width: 30%;'> </img> <p><strong>你是否选择发射武器？</strong></p>","0",""
"","","","","","html-keyboard-response","112","143464","0.0-4.0-0.54","167","1","2022-11-13 14:51:32","49aca292d257f58668169b9fbab864ae","182.102.57.57","Mozilla/5.0 (Windows NT 10.0; WOW64) AppleWebKit/537.36 (KHTML, like Gecko) Chrome/104.0.0.0 Safari/537.36","WebKit","Chrome","104.0.0.0","Windows","10.0","null","<div style=""font-size:60px;"">+</div>","null",""
"","","","","","html-button-response","113","143983","0.0-4.0-1.54","167","1","2022-11-13 14:51:32","49aca292d257f58668169b9fbab864ae","182.102.57.57","Mozilla/5.0 (Windows NT 10.0; WOW64) AppleWebKit/537.36 (KHTML, like Gecko) Chrome/104.0.0.0 Safari/537.36","WebKit","Chrome","104.0.0.0","Windows","10.0","517","<p>作为军队的指挥官，你可以选择发射导弹杀死 <strong>9名</strong> 敌国士兵，但会炸毁附近的 <strong>1棵</strong> 敌国树木。</p> <p>树木的照片如下图所示。</p> <p></p> <img src='stimuli/trees/3.png', style='max-width: 30%;'> </img> <p><strong>你是否选择发射武器？</strong></p>","0",""
"","","","","","html-keyboard-response","114","144985","0.0-4.0-0.55","167","1","2022-11-13 14:51:32","49aca292d257f58668169b9fbab864ae","182.102.57.57","Mozilla/5.0 (Windows NT 10.0; WOW64) AppleWebKit/537.36 (KHTML, like Gecko) Chrome/104.0.0.0 Safari/537.36","WebKit","Chrome","104.0.0.0","Windows","10.0","null","<div style=""font-size:60px;"">+</div>","null",""
"","","","","","html-button-response","115","145743","0.0-4.0-1.55","167","1","2022-11-13 14:51:32","49aca292d257f58668169b9fbab864ae","182.102.57.57","Mozilla/5.0 (Windows NT 10.0; WOW64) AppleWebKit/537.36 (KHTML, like Gecko) Chrome/104.0.0.0 Safari/537.36","WebKit","Chrome","104.0.0.0","Windows","10.0","756","<p>作为军队的指挥官，你可以选择发射导弹杀死 <strong>3名</strong> 敌国士兵，但会炸毁附近的 <strong>1棵</strong> 敌国树木。</p> <p>树木的照片如下图所示。</p> <p></p> <img src='stimuli/trees/6.png', style='max-width: 30%;'> </img> <p><strong>你是否选择发射武器？</strong></p>","0",""
"","","","","","html-keyboard-response","116","146745","0.0-4.0-0.56","167","1","2022-11-13 14:51:32","49aca292d257f58668169b9fbab864ae","182.102.57.57","Mozilla/5.0 (Windows NT 10.0; WOW64) AppleWebKit/537.36 (KHTML, like Gecko) Chrome/104.0.0.0 Safari/537.36","WebKit","Chrome","104.0.0.0","Windows","10.0","null","<div style=""font-size:60px;"">+</div>","null",""
"","","","","","html-button-response","117","147865","0.0-4.0-1.56","167","1","2022-11-13 14:51:32","49aca292d257f58668169b9fbab864ae","182.102.57.57","Mozilla/5.0 (Windows NT 10.0; WOW64) AppleWebKit/537.36 (KHTML, like Gecko) Chrome/104.0.0.0 Safari/537.36","WebKit","Chrome","104.0.0.0","Windows","10.0","1117","<p>作为军队的指挥官，你可以选择发射导弹杀死 <strong>10名</strong> 敌国士兵，但会炸毁附近的 <strong>1棵</strong> 敌国树木。</p> <p>树木的照片如下图所示。</p> <p></p> <img src='stimuli/trees/12.png', style='max-width: 30%;'> </img> <p><strong>你是否选择发射武器？</strong></p>","0",""
"","","","","","html-keyboard-response","118","148867","0.0-4.0-0.57","167","1","2022-11-13 14:51:32","49aca292d257f58668169b9fbab864ae","182.102.57.57","Mozilla/5.0 (Windows NT 10.0; WOW64) AppleWebKit/537.36 (KHTML, like Gecko) Chrome/104.0.0.0 Safari/537.36","WebKit","Chrome","104.0.0.0","Windows","10.0","null","<div style=""font-size:60px;"">+</div>","null",""
"","","","","","html-button-response","119","149312","0.0-4.0-1.57","167","1","2022-11-13 14:51:32","49aca292d257f58668169b9fbab864ae","182.102.57.57","Mozilla/5.0 (Windows NT 10.0; WOW64) AppleWebKit/537.36 (KHTML, like Gecko) Chrome/104.0.0.0 Safari/537.36","WebKit","Chrome","104.0.0.0","Windows","10.0","442","<p>作为军队的指挥官，你可以选择发射导弹杀死 <strong>3名</strong> 敌国士兵，但会炸毁附近的 <strong>1棵</strong> 敌国树木。</p> <p>树木的照片如下图所示。</p> <p></p> <img src='stimuli/trees/3.png', style='max-width: 30%;'> </img> <p><strong>你是否选择发射武器？</strong></p>","0",""
"","","","","","html-keyboard-response","120","150315","0.0-4.0-0.58","167","1","2022-11-13 14:51:32","49aca292d257f58668169b9fbab864ae","182.102.57.57","Mozilla/5.0 (Windows NT 10.0; WOW64) AppleWebKit/537.36 (KHTML, like Gecko) Chrome/104.0.0.0 Safari/537.36","WebKit","Chrome","104.0.0.0","Windows","10.0","null","<div style=""font-size:60px;"">+</div>","null",""
"","","","","","html-button-response","121","151160","0.0-4.0-1.58","167","1","2022-11-13 14:51:32","49aca292d257f58668169b9fbab864ae","182.102.57.57","Mozilla/5.0 (Windows NT 10.0; WOW64) AppleWebKit/537.36 (KHTML, like Gecko) Chrome/104.0.0.0 Safari/537.36","WebKit","Chrome","104.0.0.0","Windows","10.0","843","<p>作为军队的指挥官，你可以选择发射导弹杀死 <strong>5名</strong> 敌国士兵，但会误杀附近的 <strong>1名</strong> 敌国平民。</p> <p>平民照片如下图所示。</p> <p></p> <img src='stimuli/faces/PFF7.jpg', style='max-width: 30%;'> </img> <p><strong>你是否选择发射武器？</strong></p>","0",""
"","","","","","html-keyboard-response","122","152163","0.0-4.0-0.59","167","1","2022-11-13 14:51:32","49aca292d257f58668169b9fbab864ae","182.102.57.57","Mozilla/5.0 (Windows NT 10.0; WOW64) AppleWebKit/537.36 (KHTML, like Gecko) Chrome/104.0.0.0 Safari/537.36","WebKit","Chrome","104.0.0.0","Windows","10.0","null","<div style=""font-size:60px;"">+</div>","null",""
"","","","","","html-button-response","123","152614","0.0-4.0-1.59","167","1","2022-11-13 14:51:32","49aca292d257f58668169b9fbab864ae","182.102.57.57","Mozilla/5.0 (Windows NT 10.0; WOW64) AppleWebKit/537.36 (KHTML, like Gecko) Chrome/104.0.0.0 Safari/537.36","WebKit","Chrome","104.0.0.0","Windows","10.0","448","<p>作为军队的指挥官，你可以选择发射导弹杀死 <strong>2名</strong> 敌国士兵，但会炸毁附近的 <strong>1棵</strong> 敌国树木。</p> <p>树木的照片如下图所示。</p> <p></p> <img src='stimuli/trees/13.png', style='max-width: 30%;'> </img> <p><strong>你是否选择发射武器？</strong></p>","0",""
"","","","","","html-keyboard-response","124","153616","0.0-4.0-0.60","167","1","2022-11-13 14:51:32","49aca292d257f58668169b9fbab864ae","182.102.57.57","Mozilla/5.0 (Windows NT 10.0; WOW64) AppleWebKit/537.36 (KHTML, like Gecko) Chrome/104.0.0.0 Safari/537.36","WebKit","Chrome","104.0.0.0","Windows","10.0","null","<div style=""font-size:60px;"">+</div>","null",""
"","","","","","html-button-response","125","155447","0.0-4.0-1.60","167","1","2022-11-13 14:51:32","49aca292d257f58668169b9fbab864ae","182.102.57.57","Mozilla/5.0 (Windows NT 10.0; WOW64) AppleWebKit/537.36 (KHTML, like Gecko) Chrome/104.0.0.0 Safari/537.36","WebKit","Chrome","104.0.0.0","Windows","10.0","1829","<p>作为军队的指挥官，你可以选择发射导弹杀死 <strong>1名</strong> 敌国士兵，但会误杀附近的 <strong>1名</strong> 敌国平民。</p> <p>平民照片如下图所示。</p> <p></p> <img src='stimuli/faces/PFM3.jpg', style='max-width: 30%;'> </img> <p><strong>你是否选择发射武器？</strong></p>","1",""
"","","","","","html-keyboard-response","126","156451","0.0-4.0-0.61","167","1","2022-11-13 14:51:32","49aca292d257f58668169b9fbab864ae","182.102.57.57","Mozilla/5.0 (Windows NT 10.0; WOW64) AppleWebKit/537.36 (KHTML, like Gecko) Chrome/104.0.0.0 Safari/537.36","WebKit","Chrome","104.0.0.0","Windows","10.0","null","<div style=""font-size:60px;"">+</div>","null",""
"","","","","","html-button-response","127","157129","0.0-4.0-1.61","167","1","2022-11-13 14:51:32","49aca292d257f58668169b9fbab864ae","182.102.57.57","Mozilla/5.0 (Windows NT 10.0; WOW64) AppleWebKit/537.36 (KHTML, like Gecko) Chrome/104.0.0.0 Safari/537.36","WebKit","Chrome","104.0.0.0","Windows","10.0","676","<p>作为军队的指挥官，你可以选择发射导弹杀死 <strong>7名</strong> 敌国士兵，但会误杀附近的 <strong>1名</strong> 敌国平民。</p> <p>平民照片如下图所示。</p> <p></p> <img src='stimuli/faces/PFF4.jpg', style='max-width: 30%;'> </img> <p><strong>你是否选择发射武器？</strong></p>","0",""
"","","","","","html-keyboard-response","128","158132","0.0-4.0-0.62","167","1","2022-11-13 14:51:32","49aca292d257f58668169b9fbab864ae","182.102.57.57","Mozilla/5.0 (Windows NT 10.0; WOW64) AppleWebKit/537.36 (KHTML, like Gecko) Chrome/104.0.0.0 Safari/537.36","WebKit","Chrome","104.0.0.0","Windows","10.0","null","<div style=""font-size:60px;"">+</div>","null",""
"","","","","","html-button-response","129","158867","0.0-4.0-1.62","167","1","2022-11-13 14:51:32","49aca292d257f58668169b9fbab864ae","182.102.57.57","Mozilla/5.0 (Windows NT 10.0; WOW64) AppleWebKit/537.36 (KHTML, like Gecko) Chrome/104.0.0.0 Safari/537.36","WebKit","Chrome","104.0.0.0","Windows","10.0","731","<p>作为军队的指挥官，你可以选择发射导弹杀死 <strong>1名</strong> 敌国士兵，但会炸毁附近的 <strong>1棵</strong> 敌国树木。</p> <p>树木的照片如下图所示。</p> <p></p> <img src='stimuli/trees/14.png', style='max-width: 30%;'> </img> <p><strong>你是否选择发射武器？</strong></p>","1",""
"","","","","","html-keyboard-response","130","159884","0.0-4.0-0.63","167","1","2022-11-13 14:51:32","49aca292d257f58668169b9fbab864ae","182.102.57.57","Mozilla/5.0 (Windows NT 10.0; WOW64) AppleWebKit/537.36 (KHTML, like Gecko) Chrome/104.0.0.0 Safari/537.36","WebKit","Chrome","104.0.0.0","Windows","10.0","null","<div style=""font-size:60px;"">+</div>","null",""
"","","","","","html-button-response","131","160359","0.0-4.0-1.63","167","1","2022-11-13 14:51:32","49aca292d257f58668169b9fbab864ae","182.102.57.57","Mozilla/5.0 (Windows NT 10.0; WOW64) AppleWebKit/537.36 (KHTML, like Gecko) Chrome/104.0.0.0 Safari/537.36","WebKit","Chrome","104.0.0.0","Windows","10.0","472","<p>作为军队的指挥官，你可以选择发射导弹杀死 <strong>4名</strong> 敌国士兵，但会炸毁附近的 <strong>1棵</strong> 敌国树木。</p> <p>树木的照片如下图所示。</p> <p></p> <img src='stimuli/trees/16.png', style='max-width: 30%;'> </img> <p><strong>你是否选择发射武器？</strong></p>","0",""
"","","","","","survey-multi-choice","132","161983","0.0-5.0","167","1","2022-11-13 14:51:32","49aca292d257f58668169b9fbab864ae","182.102.57.57","Mozilla/5.0 (Windows NT 10.0; WOW64) AppleWebKit/537.36 (KHTML, like Gecko) Chrome/104.0.0.0 Safari/537.36","WebKit","Chrome","104.0.0.0","Windows","10.0","1621","","{""Attention1"":""""}","[0]"
"","","","","","html-button-response","133","162802","0.0-6.0","167","1","2022-11-13 14:51:32","49aca292d257f58668169b9fbab864ae","182.102.57.57","Mozilla/5.0 (Windows NT 10.0; WOW64) AppleWebKit/537.36 (KHTML, like Gecko) Chrome/104.0.0.0 Safari/537.36","WebKit","Chrome","104.0.0.0","Windows","10.0","815","<p style=""font-size:20px;font-weight:bold;"">恭喜！</p><p>你已经完成了实验的第一部分。</p><p>请休息放松一下，然后进入第二部分。</p><p>这部分大约需要10分钟。</p>","0",""
"","","","","","survey-text","134","225292","0.0-7.0","167","1","2022-11-13 14:51:32","49aca292d257f58668169b9fbab864ae","182.102.57.57","Mozilla/5.0 (Windows NT 10.0; WOW64) AppleWebKit/537.36 (KHTML, like Gecko) Chrome/104.0.0.0 Safari/537.36","WebKit","Chrome","104.0.0.0","Windows","10.0","61483","","{""Age"":""19"",""Nation"":""中国"",""Born"":""江西省宜春市"",""Live"":""江西省宜春市"",""Ethnic"":""汉族"",""Alipay"":""18470522912""}",""
"","","","","","survey-multi-choice","135","261477","0.0-8.0","167","1","2022-11-13 14:51:32","49aca292d257f58668169b9fbab864ae","182.102.57.57","Mozilla/5.0 (Windows NT 10.0; WOW64) AppleWebKit/537.36 (KHTML, like Gecko) Chrome/104.0.0.0 Safari/537.36","WebKit","Chrome","104.0.0.0","Windows","10.0","36183","","{""Gender"":""男"",""Education"":""本科毕业"",""Income"":""￥270,000-￥489,999"",""Children"":""0"",""Race"":""亚洲人""}","[0,1,2,3,4]"
"","","","","","survey-multi-select","136","264724","0.0-9.0","167","1","2022-11-13 14:51:32","49aca292d257f58668169b9fbab864ae","182.102.57.57","Mozilla/5.0 (Windows NT 10.0; WOW64) AppleWebKit/537.36 (KHTML, like Gecko) Chrome/104.0.0.0 Safari/537.36","WebKit","Chrome","104.0.0.0","Windows","10.0","3239","","{""Marriage"":[""未婚""],""Religion"":[""无宗教信仰""]}","[0,1]"
"","","","","","survey-multi-choice","137","267741","0.0-10.0","167","1","2022-11-13 14:51:32","49aca292d257f58668169b9fbab864ae","182.102.57.57","Mozilla/5.0 (Windows NT 10.0; WOW64) AppleWebKit/537.36 (KHTML, like Gecko) Chrome/104.0.0.0 Safari/537.36","WebKit","Chrome","104.0.0.0","Windows","10.0","3013","","{""SES"":""5""}","[0]"
"","","","","","html-button-response","138","268975","0.0-11.0","167","1","2022-11-13 14:51:32","49aca292d257f58668169b9fbab864ae","182.102.57.57","Mozilla/5.0 (Windows NT 10.0; WOW64) AppleWebKit/537.36 (KHTML, like Gecko) Chrome/104.0.0.0 Safari/537.36","WebKit","Chrome","104.0.0.0","Windows","10.0","1230","<p><strong>请判断下列陈述在多大程度上可以形容你？</p><p> (1 = ""和我一点都不像"" to 5 = ""非常像我"".)</strong></p>","0",""
"","","","","","survey-likert","139","323715","0.0-12.0","167","1","2022-11-13 14:51:32","49aca292d257f58668169b9fbab864ae","182.102.57.57","Mozilla/5.0 (Windows NT 10.0; WOW64) AppleWebKit/537.36 (KHTML, like Gecko) Chrome/104.0.0.0 Safari/537.36","WebKit","Chrome","104.0.0.0","Windows","10.0","54737","","{""Aggression1"":1,""Aggression2"":3,""Aggression3"":4,""Aggression4"":2,""Aggression5"":3,""Aggression6"":3,""Aggression7"":2,""Aggression8"":1,""Aggression9"":1}","[0,1,2,3,4,5,6,7,8]"
"","","","","","html-button-response","140","325001","0.0-13.0","167","1","2022-11-13 14:51:32","49aca292d257f58668169b9fbab864ae","182.102.57.57","Mozilla/5.0 (Windows NT 10.0; WOW64) AppleWebKit/537.36 (KHTML, like Gecko) Chrome/104.0.0.0 Safari/537.36","WebKit","Chrome","104.0.0.0","Windows","10.0","1282","<p><strong>请判断你在多大程度上同意下列陈述。</strong></p>","0",""
"","","","","","survey-likert","141","413508","0.0-14.0","167","1","2022-11-13 14:51:32","49aca292d257f58668169b9fbab864ae","182.102.57.57","Mozilla/5.0 (Windows NT 10.0; WOW64) AppleWebKit/537.36 (KHTML, like Gecko) Chrome/104.0.0.0 Safari/537.36","WebKit","Chrome","104.0.0.0","Windows","10.0","88503","","{""scale11"":3,""scale25"":4,""scale17"":3,""scale5"":1,""scale19"":3,""scale1"":1,""scale14"":3,""scale10"":3,""scale21"":4,""scale18"":3,""scale2"":4,""scale20"":1,""scale24"":3,""scale8"":4,""scale7"":3,""scale15"":4,""scale27"":0,""scale13"":2,""scale26"":1,""scale16"":1,""scale12"":3,""scale22"":2,""scale23"":1,""scale28"":3,""scale4"":4,""scale3"":3,""scale9"":4,""scale6"":3}","[10,24,16,4,18,0,13,9,20,17,1,19,23,7,6,14,26,12,25,15,11,21,22,27,3,2,8,5]"
"","","","","","html-button-response","142","414261","0.0-15.0","167","1","2022-11-13 14:51:32","49aca292d257f58668169b9fbab864ae","182.102.57.57","Mozilla/5.0 (Windows NT 10.0; WOW64) AppleWebKit/537.36 (KHTML, like Gecko) Chrome/104.0.0.0 Safari/537.36","WebKit","Chrome","104.0.0.0","Windows","10.0","749","<p><strong>请判断你在多大程度上同意下列陈述。</strong></p>","0",""
"","","","","","survey-likert","143","531068","0.0-16.0","167","1","2022-11-13 14:51:32","49aca292d257f58668169b9fbab864ae","182.102.57.57","Mozilla/5.0 (Windows NT 10.0; WOW64) AppleWebKit/537.36 (KHTML, like Gecko) Chrome/104.0.0.0 Safari/537.36","WebKit","Chrome","104.0.0.0","Windows","10.0","116803","","{""sdo10"":6,""sdo7"":3,""sdo13"":5,""sdo2"":4,""sdo6"":4,""sdo16"":4,""sdo3"":3,""sdo12"":5,""sdo9"":5,""sdo14"":4,""sdo4"":3,""sdo1"":2,""sdo11"":3,""sdo8"":4,""sdo5"":6,""sdo15"":4}","[9,6,12,1,5,15,2,11,8,13,3,0,10,7,4,14]"
"","","","","","html-button-response","144","532268","0.0-17.0","167","1","2022-11-13 14:51:32","49aca292d257f58668169b9fbab864ae","182.102.57.57","Mozilla/5.0 (Windows NT 10.0; WOW64) AppleWebKit/537.36 (KHTML, like Gecko) Chrome/104.0.0.0 Safari/537.36","WebKit","Chrome","104.0.0.0","Windows","10.0","1196","<p><strong>请判断你在多大程度上同意下列陈述。</strong></p>","0",""
"","","","","","survey-likert","145","630660","0.0-18.0","167","1","2022-11-13 14:51:32","49aca292d257f58668169b9fbab864ae","182.102.57.57","Mozilla/5.0 (Windows NT 10.0; WOW64) AppleWebKit/537.36 (KHTML, like Gecko) Chrome/104.0.0.0 Safari/537.36","WebKit","Chrome","104.0.0.0","Windows","10.0","98388","","{""caring1"":2,""liking1"":1,""caring2"":3,""protection1"":3,""liking2"":3,""caring3"":2,""protection2"":3,""liking3"":3,""protection3"":4,""caring4"":3,""liking4"":2,""protection4"":3,""caring5"":2,""liking5"":3,""protection5"":4}","[0,1,2,3,4,5,6,7,8,9,10,11,12,13,14]"
"","","","","","html-button-response","146","631460","0.0-19.0","167","1","2022-11-13 14:51:32","49aca292d257f58668169b9fbab864ae","182.102.57.57","Mozilla/5.0 (Windows NT 10.0; WOW64) AppleWebKit/537.36 (KHTML, like Gecko) Chrome/104.0.0.0 Safari/537.36","WebKit","Chrome","104.0.0.0","Windows","10.0","796","<p><strong>请判断下列场景中你的内心感受有多柔软。</strong></p>","0",""
"","","","","","survey-likert","147","649873","0.0-20.0","167","1","2022-11-13 14:51:32","49aca292d257f58668169b9fbab864ae","182.102.57.57","Mozilla/5.0 (Windows NT 10.0; WOW64) AppleWebKit/537.36 (KHTML, like Gecko) Chrome/104.0.0.0 Safari/537.36","WebKit","Chrome","104.0.0.0","Windows","10.0","18410","","{""tenderness-positive1"":4,""tenderness-negative1"":1,""tenderness-negative2"":0,""tenderness-positive2"":3,""tenderness-positive3"":3,""tenderness-negative3"":2,""tenderness-positive4"":4,""tenderness-negative4"":2,""tenderness-negative5"":1,""tenderness-positive5"":4}","[0,1,2,3,4,5,6,7,8,9]"
"","","","","","survey-multi-choice","148","652714","0.0-21.0","167","1","2022-11-13 14:51:32","49aca292d257f58668169b9fbab864ae","182.102.57.57","Mozilla/5.0 (Windows NT 10.0; WOW64) AppleWebKit/537.36 (KHTML, like Gecko) Chrome/104.0.0.0 Safari/537.36","WebKit","Chrome","104.0.0.0","Windows","10.0","2836","","{""Attention2"":""其他""}","[0]"
"","","","","","html-button-response","149","653947","0.0-22.0","167","1","2022-11-13 14:51:32","49aca292d257f58668169b9fbab864ae","182.102.57.57","Mozilla/5.0 (Windows NT 10.0; WOW64) AppleWebKit/537.36 (KHTML, like Gecko) Chrome/104.0.0.0 Safari/537.36","WebKit","Chrome","104.0.0.0","Windows","10.0","1229","<p><strong>请判断你在多大程度上同意下列陈述。</strong></p>","0",""
"","","","","","survey-likert","150","743915","0.0-23.0","167","1","2022-11-13 14:51:32","49aca292d257f58668169b9fbab864ae","182.102.57.57","Mozilla/5.0 (Windows NT 10.0; WOW64) AppleWebKit/537.36 (KHTML, like Gecko) Chrome/104.0.0.0 Safari/537.36","WebKit","Chrome","104.0.0.0","Windows","10.0","89965","","{""Nation1"":4,""Patri11"":0,""Nation4"":2,""Nation8"":3,""Nation2"":4,""Patri3"":3,""Patri12"":4,""Nation6"":3,""Patri4"":4,""Nation3"":3,""Nation5"":4,""Patri2"":4,""Patri8"":3,""Patri6"":4,""Patri1"":4,""Patri10"":3,""Patri5"":3,""Patri9"":4,""Patri7"":3,""Nation7"":4}","[12,10,15,19,13,2,11,17,3,14,16,1,7,5,0,9,4,8,6,18]"
"","","","","","html-button-response","151","745155","0.0-24.0","167","1","2022-11-13 14:51:32","49aca292d257f58668169b9fbab864ae","182.102.57.57","Mozilla/5.0 (Windows NT 10.0; WOW64) AppleWebKit/537.36 (KHTML, like Gecko) Chrome/104.0.0.0 Safari/537.36","WebKit","Chrome","104.0.0.0","Windows","10.0","1235","<p><strong>请判断你在多大程度上同意下列陈述。</strong></p>","0",""
"","","","","","survey-likert","152","794099","0.0-25.0","167","1","2022-11-13 14:51:32","49aca292d257f58668169b9fbab864ae","182.102.57.57","Mozilla/5.0 (Windows NT 10.0; WOW64) AppleWebKit/537.36 (KHTML, like Gecko) Chrome/104.0.0.0 Safari/537.36","WebKit","Chrome","104.0.0.0","Windows","10.0","48939","","{""vc4"":8,""vi4"":6,""hi4"":7,""hi1"":8,""vi1"":6,""hi2"":7,""hi3"":5,""vc1"":7,""hc1"":5,""hc2"":6,""hc4"":7,""vi2"":5,""vc3"":7,""vi3"":8,""vc2"":7,""Robot"":6,""hc3"":8}","[16,8,3,0,4,1,2,13,9,10,12,5,15,6,14,7,11]"
"","","","","","survey-text","153","819633","0.0-26.0","167","1","2022-11-13 14:51:32","49aca292d257f58668169b9fbab864ae","182.102.57.57","Mozilla/5.0 (Windows NT 10.0; WOW64) AppleWebKit/537.36 (KHTML, like Gecko) Chrome/104.0.0.0 Safari/537.36","WebKit","Chrome","104.0.0.0","Windows","10.0","25524","","{""Comments"":""这个问卷题目出的很好""}",""
"","","","","","html-button-response","154","820360","0.0-27.0","167","1","2022-11-13 14:51:32","49aca292d257f58668169b9fbab864ae","182.102.57.57","Mozilla/5.0 (Windows NT 10.0; WOW64) AppleWebKit/537.36 (KHTML, like Gecko) Chrome/104.0.0.0 Safari/537.36","WebKit","Chrome","104.0.0.0","Windows","10.0","724","<strong><p>恭喜你完成了实验！</p><p>感谢您的参与。</p></strong>","0",""
