"success","timeout","failed_images","failed_audio","failed_video","trial_type","trial_index","time_elapsed","internal_node_id","run_id","condition","recorded_at","source_code_version","ip","user_agent","device","browser","browser_version","platform","platform_version","rt","stimulus","response","question_order"
"true","false","[]","[]","[]","preload","0","63","0.0-0.0","198","1","2022-11-14 04:24:26","49aca292d257f58668169b9fbab864ae","182.102.193.220","Mozilla/5.0 (Windows NT 10.0; WOW64) AppleWebKit/537.36 (KHTML, like Gecko) Chrome/104.0.0.0 Safari/537.36","WebKit","Chrome","104.0.0.0","Windows","10.0","","","",""
"true","","","","","fullscreen","1","2418","0.0-1.0","198","1","2022-11-14 04:24:26","49aca292d257f58668169b9fbab864ae","182.102.193.220","Mozilla/5.0 (Windows NT 10.0; WOW64) AppleWebKit/537.36 (KHTML, like Gecko) Chrome/104.0.0.0 Safari/537.36","WebKit","Chrome","104.0.0.0","Windows","10.0","","","",""
"","","","","","html-button-response","2","71978","0.0-2.0","198","1","2022-11-14 04:24:26","49aca292d257f58668169b9fbab864ae","182.102.193.220","Mozilla/5.0 (Windows NT 10.0; WOW64) AppleWebKit/537.36 (KHTML, like Gecko) Chrome/104.0.0.0 Safari/537.36","WebKit","Chrome","104.0.0.0","Windows","10.0","69559","<p style=""font-size:20px;font-weight:bold;"">实验知情同意书</p><p style=""text-align:left;""><strong>实验名称：</strong>社会冲突研究</p><p style=""text-align:left;""><strong>主要研究者：</strong>韩晓春副教授（北京师范大学心理学部）</p><p style=""text-align:left;""><strong>联系方式：</strong>发送邮件至xiaochun.han@bnu.edu.cn</p><p style=""text-align:left;""><strong>研究目的：</strong>研究旨在了解人类面对群体冲突时的决策方式，以及相关的心理学特质。实验调查大约需要20分钟。</p><p style=""text-align:left;""><strong>实验流程：</strong>实验包含两部分。第一部分呈现一系列群体冲突场景，请你决定如何对这些冲突进行反应，大约需要10分钟完成。第二部分包含一系列人口统计学信息收集和心理学问卷，大约需要10分钟完成。</p><p style=""text-align:left;""><strong>参加及退出规则：</strong>参加本实验完全取决于您的个人意愿。在参与过程中，您可以随时退出，并且不用承担任何后果。</p><p style=""text-align:left;""><strong>隐私：</strong>本实验完全匿名进行，不会收集您的姓名或其他能够识别您身份的信息。实验中收集的作答仅用作科学研究使用，可能会在学术期刊/书籍上发表，或者用于教学，您的数据未来可能会和其他研究者或实验室分享，但您的个人身份不会被识别。</p><p style=""text-align:left;""><strong>实验报酬：</strong>实验完成后，您将获得15元人民币报酬，以感谢您的时间和努力。调查问卷中包含几道题目用以测验您作答时的认真度。只有完成全部实验，并且正确回答认真度测验的被试才能获得实验报酬。实验报酬将通过支付宝转账发放。</p><p style=""text-align:left;font-size:20px;""><strong>如果您同意以上实验知情同意书的内容，请点击'同意并且开始实验'按钮；否则请关闭浏览器界面，退出实验。</strong></p>","0",""
"","","","","","html-button-response","3","72965","0.0-3.0","198","1","2022-11-14 04:24:26","49aca292d257f58668169b9fbab864ae","182.102.193.220","Mozilla/5.0 (Windows NT 10.0; WOW64) AppleWebKit/537.36 (KHTML, like Gecko) Chrome/104.0.0.0 Safari/537.36","WebKit","Chrome","104.0.0.0","Windows","10.0","986","<p ><strong>实验任务一：</strong></p><p>请想象你的国家与另一个国家发生了军事冲突。</p><p>你是国家军队的指挥官，你将如何在冲突中进行决策。</p><p>具体来说，作为军队指挥官，请你决定是否发射导弹进行打击。</p><p>接下来，你会面对一系列场景，请仔细阅读每个场景，然后进行决策。</p><p>这部分实验任务大约需要10分钟。</p><p><strong>实验过程中，请集中注意力。</strong></p>","0",""
"","","","","","html-keyboard-response","4","73979","0.0-4.0-0.0","198","1","2022-11-14 04:24:26","49aca292d257f58668169b9fbab864ae","182.102.193.220","Mozilla/5.0 (Windows NT 10.0; WOW64) AppleWebKit/537.36 (KHTML, like Gecko) Chrome/104.0.0.0 Safari/537.36","WebKit","Chrome","104.0.0.0","Windows","10.0","null","<div style=""font-size:60px;"">+</div>","null",""
"","","","","","html-button-response","5","75372","0.0-4.0-1.0","198","1","2022-11-14 04:24:26","49aca292d257f58668169b9fbab864ae","182.102.193.220","Mozilla/5.0 (Windows NT 10.0; WOW64) AppleWebKit/537.36 (KHTML, like Gecko) Chrome/104.0.0.0 Safari/537.36","WebKit","Chrome","104.0.0.0","Windows","10.0","1392","<p>作为军队的指挥官，你可以选择发射导弹杀死 <strong>7名</strong> 敌国士兵，但会误杀附近的 <strong>1名</strong> 敌国平民。</p> <p>平民照片如下图所示。</p> <p></p> <img src='stimuli/faces/PFM3.jpg', style='max-width: 30%;'> </img> <p><strong>你是否选择发射武器？</strong></p>","0",""
"","","","","","html-keyboard-response","6","76379","0.0-4.0-0.1","198","1","2022-11-14 04:24:26","49aca292d257f58668169b9fbab864ae","182.102.193.220","Mozilla/5.0 (Windows NT 10.0; WOW64) AppleWebKit/537.36 (KHTML, like Gecko) Chrome/104.0.0.0 Safari/537.36","WebKit","Chrome","104.0.0.0","Windows","10.0","null","<div style=""font-size:60px;"">+</div>","null",""
"","","","","","html-button-response","7","77063","0.0-4.0-1.1","198","1","2022-11-14 04:24:26","49aca292d257f58668169b9fbab864ae","182.102.193.220","Mozilla/5.0 (Windows NT 10.0; WOW64) AppleWebKit/537.36 (KHTML, like Gecko) Chrome/104.0.0.0 Safari/537.36","WebKit","Chrome","104.0.0.0","Windows","10.0","683","<p>作为军队的指挥官，你可以选择发射导弹杀死 <strong>5名</strong> 敌国士兵，但会炸毁附近的 <strong>1棵</strong> 敌国树木。</p> <p>树木的照片如下图所示。</p> <p></p> <img src='stimuli/trees/8.png', style='max-width: 30%;'> </img> <p><strong>你是否选择发射武器？</strong></p>","0",""
"","","","","","html-keyboard-response","8","78071","0.0-4.0-0.2","198","1","2022-11-14 04:24:26","49aca292d257f58668169b9fbab864ae","182.102.193.220","Mozilla/5.0 (Windows NT 10.0; WOW64) AppleWebKit/537.36 (KHTML, like Gecko) Chrome/104.0.0.0 Safari/537.36","WebKit","Chrome","104.0.0.0","Windows","10.0","null","<div style=""font-size:60px;"">+</div>","null",""
"","","","","","html-button-response","9","80305","0.0-4.0-1.2","198","1","2022-11-14 04:24:26","49aca292d257f58668169b9fbab864ae","182.102.193.220","Mozilla/5.0 (Windows NT 10.0; WOW64) AppleWebKit/537.36 (KHTML, like Gecko) Chrome/104.0.0.0 Safari/537.36","WebKit","Chrome","104.0.0.0","Windows","10.0","2233","<p>作为军队的指挥官，你可以选择发射导弹杀死 <strong>4名</strong> 敌国士兵，但会炸毁附近的 <strong>1棵</strong> 敌国树木。</p> <p>树木的照片如下图所示。</p> <p></p> <img src='stimuli/trees/4.png', style='max-width: 30%;'> </img> <p><strong>你是否选择发射武器？</strong></p>","0",""
"","","","","","html-keyboard-response","10","81319","0.0-4.0-0.3","198","1","2022-11-14 04:24:26","49aca292d257f58668169b9fbab864ae","182.102.193.220","Mozilla/5.0 (Windows NT 10.0; WOW64) AppleWebKit/537.36 (KHTML, like Gecko) Chrome/104.0.0.0 Safari/537.36","WebKit","Chrome","104.0.0.0","Windows","10.0","null","<div style=""font-size:60px;"">+</div>","null",""
"","","","","","html-button-response","11","81923","0.0-4.0-1.3","198","1","2022-11-14 04:24:26","49aca292d257f58668169b9fbab864ae","182.102.193.220","Mozilla/5.0 (Windows NT 10.0; WOW64) AppleWebKit/537.36 (KHTML, like Gecko) Chrome/104.0.0.0 Safari/537.36","WebKit","Chrome","104.0.0.0","Windows","10.0","603","<p>作为军队的指挥官，你可以选择发射导弹杀死 <strong>7名</strong> 敌国士兵，但会炸毁附近的 <strong>1棵</strong> 敌国树木。</p> <p>树木的照片如下图所示。</p> <p></p> <img src='stimuli/trees/10.png', style='max-width: 30%;'> </img> <p><strong>你是否选择发射武器？</strong></p>","0",""
"","","","","","html-keyboard-response","12","82924","0.0-4.0-0.4","198","1","2022-11-14 04:24:26","49aca292d257f58668169b9fbab864ae","182.102.193.220","Mozilla/5.0 (Windows NT 10.0; WOW64) AppleWebKit/537.36 (KHTML, like Gecko) Chrome/104.0.0.0 Safari/537.36","WebKit","Chrome","104.0.0.0","Windows","10.0","null","<div style=""font-size:60px;"">+</div>","null",""
"","","","","","html-button-response","13","83663","0.0-4.0-1.4","198","1","2022-11-14 04:24:26","49aca292d257f58668169b9fbab864ae","182.102.193.220","Mozilla/5.0 (Windows NT 10.0; WOW64) AppleWebKit/537.36 (KHTML, like Gecko) Chrome/104.0.0.0 Safari/537.36","WebKit","Chrome","104.0.0.0","Windows","10.0","738","<p>作为军队的指挥官，你可以选择发射导弹杀死 <strong>4名</strong> 敌国士兵，但会误杀附近的 <strong>1名</strong> 敌国平民。</p> <p>平民照片如下图所示。</p> <p></p> <img src='stimuli/faces/PFM4.jpg', style='max-width: 30%;'> </img> <p><strong>你是否选择发射武器？</strong></p>","0",""
"","","","","","html-keyboard-response","14","84674","0.0-4.0-0.5","198","1","2022-11-14 04:24:26","49aca292d257f58668169b9fbab864ae","182.102.193.220","Mozilla/5.0 (Windows NT 10.0; WOW64) AppleWebKit/537.36 (KHTML, like Gecko) Chrome/104.0.0.0 Safari/537.36","WebKit","Chrome","104.0.0.0","Windows","10.0","null","<div style=""font-size:60px;"">+</div>","null",""
"","","","","","html-button-response","15","85326","0.0-4.0-1.5","198","1","2022-11-14 04:24:26","49aca292d257f58668169b9fbab864ae","182.102.193.220","Mozilla/5.0 (Windows NT 10.0; WOW64) AppleWebKit/537.36 (KHTML, like Gecko) Chrome/104.0.0.0 Safari/537.36","WebKit","Chrome","104.0.0.0","Windows","10.0","651","<p>作为军队的指挥官，你可以选择发射导弹杀死 <strong>9名</strong> 敌国士兵，但会误杀附近的 <strong>1名</strong> 敌国平民。</p> <p>平民照片如下图所示。</p> <p></p> <img src='stimuli/faces/PFM7.jpg', style='max-width: 30%;'> </img> <p><strong>你是否选择发射武器？</strong></p>","0",""
"","","","","","html-keyboard-response","16","86328","0.0-4.0-0.6","198","1","2022-11-14 04:24:26","49aca292d257f58668169b9fbab864ae","182.102.193.220","Mozilla/5.0 (Windows NT 10.0; WOW64) AppleWebKit/537.36 (KHTML, like Gecko) Chrome/104.0.0.0 Safari/537.36","WebKit","Chrome","104.0.0.0","Windows","10.0","null","<div style=""font-size:60px;"">+</div>","null",""
"","","","","","html-button-response","17","87293","0.0-4.0-1.6","198","1","2022-11-14 04:24:26","49aca292d257f58668169b9fbab864ae","182.102.193.220","Mozilla/5.0 (Windows NT 10.0; WOW64) AppleWebKit/537.36 (KHTML, like Gecko) Chrome/104.0.0.0 Safari/537.36","WebKit","Chrome","104.0.0.0","Windows","10.0","964","<p>作为军队的指挥官，你可以选择发射导弹杀死 <strong>7名</strong> 敌国士兵，但会炸毁附近的 <strong>1棵</strong> 敌国树木。</p> <p>树木的照片如下图所示。</p> <p></p> <img src='stimuli/trees/1.png', style='max-width: 30%;'> </img> <p><strong>你是否选择发射武器？</strong></p>","0",""
"","","","","","html-keyboard-response","18","88304","0.0-4.0-0.7","198","1","2022-11-14 04:24:26","49aca292d257f58668169b9fbab864ae","182.102.193.220","Mozilla/5.0 (Windows NT 10.0; WOW64) AppleWebKit/537.36 (KHTML, like Gecko) Chrome/104.0.0.0 Safari/537.36","WebKit","Chrome","104.0.0.0","Windows","10.0","null","<div style=""font-size:60px;"">+</div>","null",""
"","","","","","html-button-response","19","89466","0.0-4.0-1.7","198","1","2022-11-14 04:24:26","49aca292d257f58668169b9fbab864ae","182.102.193.220","Mozilla/5.0 (Windows NT 10.0; WOW64) AppleWebKit/537.36 (KHTML, like Gecko) Chrome/104.0.0.0 Safari/537.36","WebKit","Chrome","104.0.0.0","Windows","10.0","1161","<p>作为军队的指挥官，你可以选择发射导弹杀死 <strong>1名</strong> 敌国士兵，但会误杀附近的 <strong>1名</strong> 敌国平民。</p> <p>平民照片如下图所示。</p> <p></p> <img src='stimuli/faces/PFF2.jpg', style='max-width: 30%;'> </img> <p><strong>你是否选择发射武器？</strong></p>","1",""
"","","","","","html-keyboard-response","20","90476","0.0-4.0-0.8","198","1","2022-11-14 04:24:26","49aca292d257f58668169b9fbab864ae","182.102.193.220","Mozilla/5.0 (Windows NT 10.0; WOW64) AppleWebKit/537.36 (KHTML, like Gecko) Chrome/104.0.0.0 Safari/537.36","WebKit","Chrome","104.0.0.0","Windows","10.0","null","<div style=""font-size:60px;"">+</div>","null",""
"","","","","","html-button-response","21","91083","0.0-4.0-1.8","198","1","2022-11-14 04:24:26","49aca292d257f58668169b9fbab864ae","182.102.193.220","Mozilla/5.0 (Windows NT 10.0; WOW64) AppleWebKit/537.36 (KHTML, like Gecko) Chrome/104.0.0.0 Safari/537.36","WebKit","Chrome","104.0.0.0","Windows","10.0","605","<p>作为军队的指挥官，你可以选择发射导弹杀死 <strong>10名</strong> 敌国士兵，但会误杀附近的 <strong>1名</strong> 敌国平民。</p> <p>平民照片如下图所示。</p> <p></p> <img src='stimuli/faces/PFF8.jpg', style='max-width: 30%;'> </img> <p><strong>你是否选择发射武器？</strong></p>","0",""
"","","","","","html-keyboard-response","22","92100","0.0-4.0-0.9","198","1","2022-11-14 04:24:26","49aca292d257f58668169b9fbab864ae","182.102.193.220","Mozilla/5.0 (Windows NT 10.0; WOW64) AppleWebKit/537.36 (KHTML, like Gecko) Chrome/104.0.0.0 Safari/537.36","WebKit","Chrome","104.0.0.0","Windows","10.0","null","<div style=""font-size:60px;"">+</div>","null",""
"","","","","","html-button-response","23","92673","0.0-4.0-1.9","198","1","2022-11-14 04:24:26","49aca292d257f58668169b9fbab864ae","182.102.193.220","Mozilla/5.0 (Windows NT 10.0; WOW64) AppleWebKit/537.36 (KHTML, like Gecko) Chrome/104.0.0.0 Safari/537.36","WebKit","Chrome","104.0.0.0","Windows","10.0","572","<p>作为军队的指挥官，你可以选择发射导弹杀死 <strong>2名</strong> 敌国士兵，但会炸毁附近的 <strong>1棵</strong> 敌国树木。</p> <p>树木的照片如下图所示。</p> <p></p> <img src='stimuli/trees/16.png', style='max-width: 30%;'> </img> <p><strong>你是否选择发射武器？</strong></p>","0",""
"","","","","","html-keyboard-response","24","93676","0.0-4.0-0.10","198","1","2022-11-14 04:24:26","49aca292d257f58668169b9fbab864ae","182.102.193.220","Mozilla/5.0 (Windows NT 10.0; WOW64) AppleWebKit/537.36 (KHTML, like Gecko) Chrome/104.0.0.0 Safari/537.36","WebKit","Chrome","104.0.0.0","Windows","10.0","null","<div style=""font-size:60px;"">+</div>","null",""
"","","","","","html-button-response","25","94924","0.0-4.0-1.10","198","1","2022-11-14 04:24:26","49aca292d257f58668169b9fbab864ae","182.102.193.220","Mozilla/5.0 (Windows NT 10.0; WOW64) AppleWebKit/537.36 (KHTML, like Gecko) Chrome/104.0.0.0 Safari/537.36","WebKit","Chrome","104.0.0.0","Windows","10.0","1247","<p>作为军队的指挥官，你可以选择发射导弹杀死 <strong>1名</strong> 敌国士兵，但会误杀附近的 <strong>1名</strong> 敌国平民。</p> <p>平民照片如下图所示。</p> <p></p> <img src='stimuli/faces/PFF1.jpg', style='max-width: 30%;'> </img> <p><strong>你是否选择发射武器？</strong></p>","1",""
"","","","","","html-keyboard-response","26","95930","0.0-4.0-0.11","198","1","2022-11-14 04:24:26","49aca292d257f58668169b9fbab864ae","182.102.193.220","Mozilla/5.0 (Windows NT 10.0; WOW64) AppleWebKit/537.36 (KHTML, like Gecko) Chrome/104.0.0.0 Safari/537.36","WebKit","Chrome","104.0.0.0","Windows","10.0","null","<div style=""font-size:60px;"">+</div>","null",""
"","","","","","html-button-response","27","96479","0.0-4.0-1.11","198","1","2022-11-14 04:24:26","49aca292d257f58668169b9fbab864ae","182.102.193.220","Mozilla/5.0 (Windows NT 10.0; WOW64) AppleWebKit/537.36 (KHTML, like Gecko) Chrome/104.0.0.0 Safari/537.36","WebKit","Chrome","104.0.0.0","Windows","10.0","547","<p>作为军队的指挥官，你可以选择发射导弹杀死 <strong>4名</strong> 敌国士兵，但会炸毁附近的 <strong>1棵</strong> 敌国树木。</p> <p>树木的照片如下图所示。</p> <p></p> <img src='stimuli/trees/11.png', style='max-width: 30%;'> </img> <p><strong>你是否选择发射武器？</strong></p>","0",""
"","","","","","html-keyboard-response","28","97481","0.0-4.0-0.12","198","1","2022-11-14 04:24:26","49aca292d257f58668169b9fbab864ae","182.102.193.220","Mozilla/5.0 (Windows NT 10.0; WOW64) AppleWebKit/537.36 (KHTML, like Gecko) Chrome/104.0.0.0 Safari/537.36","WebKit","Chrome","104.0.0.0","Windows","10.0","null","<div style=""font-size:60px;"">+</div>","null",""
"","","","","","html-button-response","29","98416","0.0-4.0-1.12","198","1","2022-11-14 04:24:26","49aca292d257f58668169b9fbab864ae","182.102.193.220","Mozilla/5.0 (Windows NT 10.0; WOW64) AppleWebKit/537.36 (KHTML, like Gecko) Chrome/104.0.0.0 Safari/537.36","WebKit","Chrome","104.0.0.0","Windows","10.0","934","<p>作为军队的指挥官，你可以选择发射导弹杀死 <strong>10名</strong> 敌国士兵，但会炸毁附近的 <strong>1棵</strong> 敌国树木。</p> <p>树木的照片如下图所示。</p> <p></p> <img src='stimuli/trees/4.png', style='max-width: 30%;'> </img> <p><strong>你是否选择发射武器？</strong></p>","0",""
"","","","","","html-keyboard-response","30","99418","0.0-4.0-0.13","198","1","2022-11-14 04:24:26","49aca292d257f58668169b9fbab864ae","182.102.193.220","Mozilla/5.0 (Windows NT 10.0; WOW64) AppleWebKit/537.36 (KHTML, like Gecko) Chrome/104.0.0.0 Safari/537.36","WebKit","Chrome","104.0.0.0","Windows","10.0","null","<div style=""font-size:60px;"">+</div>","null",""
"","","","","","html-button-response","31","100478","0.0-4.0-1.13","198","1","2022-11-14 04:24:26","49aca292d257f58668169b9fbab864ae","182.102.193.220","Mozilla/5.0 (Windows NT 10.0; WOW64) AppleWebKit/537.36 (KHTML, like Gecko) Chrome/104.0.0.0 Safari/537.36","WebKit","Chrome","104.0.0.0","Windows","10.0","1059","<p>作为军队的指挥官，你可以选择发射导弹杀死 <strong>5名</strong> 敌国士兵，但会炸毁附近的 <strong>1棵</strong> 敌国树木。</p> <p>树木的照片如下图所示。</p> <p></p> <img src='stimuli/trees/6.png', style='max-width: 30%;'> </img> <p><strong>你是否选择发射武器？</strong></p>","0",""
"","","","","","html-keyboard-response","32","101480","0.0-4.0-0.14","198","1","2022-11-14 04:24:26","49aca292d257f58668169b9fbab864ae","182.102.193.220","Mozilla/5.0 (Windows NT 10.0; WOW64) AppleWebKit/537.36 (KHTML, like Gecko) Chrome/104.0.0.0 Safari/537.36","WebKit","Chrome","104.0.0.0","Windows","10.0","null","<div style=""font-size:60px;"">+</div>","null",""
"","","","","","html-button-response","33","102124","0.0-4.0-1.14","198","1","2022-11-14 04:24:26","49aca292d257f58668169b9fbab864ae","182.102.193.220","Mozilla/5.0 (Windows NT 10.0; WOW64) AppleWebKit/537.36 (KHTML, like Gecko) Chrome/104.0.0.0 Safari/537.36","WebKit","Chrome","104.0.0.0","Windows","10.0","643","<p>作为军队的指挥官，你可以选择发射导弹杀死 <strong>5名</strong> 敌国士兵，但会误杀附近的 <strong>1名</strong> 敌国平民。</p> <p>平民照片如下图所示。</p> <p></p> <img src='stimuli/faces/PFM6.jpg', style='max-width: 30%;'> </img> <p><strong>你是否选择发射武器？</strong></p>","0",""
"","","","","","html-keyboard-response","34","103125","0.0-4.0-0.15","198","1","2022-11-14 04:24:26","49aca292d257f58668169b9fbab864ae","182.102.193.220","Mozilla/5.0 (Windows NT 10.0; WOW64) AppleWebKit/537.36 (KHTML, like Gecko) Chrome/104.0.0.0 Safari/537.36","WebKit","Chrome","104.0.0.0","Windows","10.0","null","<div style=""font-size:60px;"">+</div>","null",""
"","","","","","html-button-response","35","103737","0.0-4.0-1.15","198","1","2022-11-14 04:24:26","49aca292d257f58668169b9fbab864ae","182.102.193.220","Mozilla/5.0 (Windows NT 10.0; WOW64) AppleWebKit/537.36 (KHTML, like Gecko) Chrome/104.0.0.0 Safari/537.36","WebKit","Chrome","104.0.0.0","Windows","10.0","611","<p>作为军队的指挥官，你可以选择发射导弹杀死 <strong>7名</strong> 敌国士兵，但会炸毁附近的 <strong>1棵</strong> 敌国树木。</p> <p>树木的照片如下图所示。</p> <p></p> <img src='stimuli/trees/11.png', style='max-width: 30%;'> </img> <p><strong>你是否选择发射武器？</strong></p>","0",""
"","","","","","html-keyboard-response","36","104739","0.0-4.0-0.16","198","1","2022-11-14 04:24:26","49aca292d257f58668169b9fbab864ae","182.102.193.220","Mozilla/5.0 (Windows NT 10.0; WOW64) AppleWebKit/537.36 (KHTML, like Gecko) Chrome/104.0.0.0 Safari/537.36","WebKit","Chrome","104.0.0.0","Windows","10.0","null","<div style=""font-size:60px;"">+</div>","null",""
"","","","","","html-button-response","37","105227","0.0-4.0-1.16","198","1","2022-11-14 04:24:26","49aca292d257f58668169b9fbab864ae","182.102.193.220","Mozilla/5.0 (Windows NT 10.0; WOW64) AppleWebKit/537.36 (KHTML, like Gecko) Chrome/104.0.0.0 Safari/537.36","WebKit","Chrome","104.0.0.0","Windows","10.0","487","<p>作为军队的指挥官，你可以选择发射导弹杀死 <strong>4名</strong> 敌国士兵，但会炸毁附近的 <strong>1棵</strong> 敌国树木。</p> <p>树木的照片如下图所示。</p> <p></p> <img src='stimuli/trees/14.png', style='max-width: 30%;'> </img> <p><strong>你是否选择发射武器？</strong></p>","0",""
"","","","","","html-keyboard-response","38","106229","0.0-4.0-0.17","198","1","2022-11-14 04:24:26","49aca292d257f58668169b9fbab864ae","182.102.193.220","Mozilla/5.0 (Windows NT 10.0; WOW64) AppleWebKit/537.36 (KHTML, like Gecko) Chrome/104.0.0.0 Safari/537.36","WebKit","Chrome","104.0.0.0","Windows","10.0","null","<div style=""font-size:60px;"">+</div>","null",""
"","","","","","html-button-response","39","106618","0.0-4.0-1.17","198","1","2022-11-14 04:24:26","49aca292d257f58668169b9fbab864ae","182.102.193.220","Mozilla/5.0 (Windows NT 10.0; WOW64) AppleWebKit/537.36 (KHTML, like Gecko) Chrome/104.0.0.0 Safari/537.36","WebKit","Chrome","104.0.0.0","Windows","10.0","387","<p>作为军队的指挥官，你可以选择发射导弹杀死 <strong>6名</strong> 敌国士兵，但会误杀附近的 <strong>1名</strong> 敌国平民。</p> <p>平民照片如下图所示。</p> <p></p> <img src='stimuli/faces/PFF6.jpg', style='max-width: 30%;'> </img> <p><strong>你是否选择发射武器？</strong></p>","0",""
"","","","","","html-keyboard-response","40","107621","0.0-4.0-0.18","198","1","2022-11-14 04:24:26","49aca292d257f58668169b9fbab864ae","182.102.193.220","Mozilla/5.0 (Windows NT 10.0; WOW64) AppleWebKit/537.36 (KHTML, like Gecko) Chrome/104.0.0.0 Safari/537.36","WebKit","Chrome","104.0.0.0","Windows","10.0","null","<div style=""font-size:60px;"">+</div>","null",""
"","","","","","html-button-response","41","107985","0.0-4.0-1.18","198","1","2022-11-14 04:24:26","49aca292d257f58668169b9fbab864ae","182.102.193.220","Mozilla/5.0 (Windows NT 10.0; WOW64) AppleWebKit/537.36 (KHTML, like Gecko) Chrome/104.0.0.0 Safari/537.36","WebKit","Chrome","104.0.0.0","Windows","10.0","362","<p>作为军队的指挥官，你可以选择发射导弹杀死 <strong>4名</strong> 敌国士兵，但会误杀附近的 <strong>1名</strong> 敌国平民。</p> <p>平民照片如下图所示。</p> <p></p> <img src='stimuli/faces/PFM5.jpg', style='max-width: 30%;'> </img> <p><strong>你是否选择发射武器？</strong></p>","0",""
"","","","","","html-keyboard-response","42","108991","0.0-4.0-0.19","198","1","2022-11-14 04:24:26","49aca292d257f58668169b9fbab864ae","182.102.193.220","Mozilla/5.0 (Windows NT 10.0; WOW64) AppleWebKit/537.36 (KHTML, like Gecko) Chrome/104.0.0.0 Safari/537.36","WebKit","Chrome","104.0.0.0","Windows","10.0","null","<div style=""font-size:60px;"">+</div>","null",""
"","","","","","html-button-response","43","109358","0.0-4.0-1.19","198","1","2022-11-14 04:24:26","49aca292d257f58668169b9fbab864ae","182.102.193.220","Mozilla/5.0 (Windows NT 10.0; WOW64) AppleWebKit/537.36 (KHTML, like Gecko) Chrome/104.0.0.0 Safari/537.36","WebKit","Chrome","104.0.0.0","Windows","10.0","366","<p>作为军队的指挥官，你可以选择发射导弹杀死 <strong>7名</strong> 敌国士兵，但会炸毁附近的 <strong>1棵</strong> 敌国树木。</p> <p>树木的照片如下图所示。</p> <p></p> <img src='stimuli/trees/5.png', style='max-width: 30%;'> </img> <p><strong>你是否选择发射武器？</strong></p>","0",""
"","","","","","html-keyboard-response","44","110364","0.0-4.0-0.20","198","1","2022-11-14 04:24:26","49aca292d257f58668169b9fbab864ae","182.102.193.220","Mozilla/5.0 (Windows NT 10.0; WOW64) AppleWebKit/537.36 (KHTML, like Gecko) Chrome/104.0.0.0 Safari/537.36","WebKit","Chrome","104.0.0.0","Windows","10.0","null","<div style=""font-size:60px;"">+</div>","null",""
"","","","","","html-button-response","45","110839","0.0-4.0-1.20","198","1","2022-11-14 04:24:26","49aca292d257f58668169b9fbab864ae","182.102.193.220","Mozilla/5.0 (Windows NT 10.0; WOW64) AppleWebKit/537.36 (KHTML, like Gecko) Chrome/104.0.0.0 Safari/537.36","WebKit","Chrome","104.0.0.0","Windows","10.0","474","<p>作为军队的指挥官，你可以选择发射导弹杀死 <strong>5名</strong> 敌国士兵，但会误杀附近的 <strong>1名</strong> 敌国平民。</p> <p>平民照片如下图所示。</p> <p></p> <img src='stimuli/faces/PFF3.jpg', style='max-width: 30%;'> </img> <p><strong>你是否选择发射武器？</strong></p>","0",""
"","","","","","html-keyboard-response","46","111842","0.0-4.0-0.21","198","1","2022-11-14 04:24:26","49aca292d257f58668169b9fbab864ae","182.102.193.220","Mozilla/5.0 (Windows NT 10.0; WOW64) AppleWebKit/537.36 (KHTML, like Gecko) Chrome/104.0.0.0 Safari/537.36","WebKit","Chrome","104.0.0.0","Windows","10.0","null","<div style=""font-size:60px;"">+</div>","null",""
"","","","","","html-button-response","47","112339","0.0-4.0-1.21","198","1","2022-11-14 04:24:26","49aca292d257f58668169b9fbab864ae","182.102.193.220","Mozilla/5.0 (Windows NT 10.0; WOW64) AppleWebKit/537.36 (KHTML, like Gecko) Chrome/104.0.0.0 Safari/537.36","WebKit","Chrome","104.0.0.0","Windows","10.0","496","<p>作为军队的指挥官，你可以选择发射导弹杀死 <strong>9名</strong> 敌国士兵，但会炸毁附近的 <strong>1棵</strong> 敌国树木。</p> <p>树木的照片如下图所示。</p> <p></p> <img src='stimuli/trees/7.png', style='max-width: 30%;'> </img> <p><strong>你是否选择发射武器？</strong></p>","0",""
"","","","","","html-keyboard-response","48","113342","0.0-4.0-0.22","198","1","2022-11-14 04:24:26","49aca292d257f58668169b9fbab864ae","182.102.193.220","Mozilla/5.0 (Windows NT 10.0; WOW64) AppleWebKit/537.36 (KHTML, like Gecko) Chrome/104.0.0.0 Safari/537.36","WebKit","Chrome","104.0.0.0","Windows","10.0","null","<div style=""font-size:60px;"">+</div>","null",""
"","","","","","html-button-response","49","113742","0.0-4.0-1.22","198","1","2022-11-14 04:24:26","49aca292d257f58668169b9fbab864ae","182.102.193.220","Mozilla/5.0 (Windows NT 10.0; WOW64) AppleWebKit/537.36 (KHTML, like Gecko) Chrome/104.0.0.0 Safari/537.36","WebKit","Chrome","104.0.0.0","Windows","10.0","399","<p>作为军队的指挥官，你可以选择发射导弹杀死 <strong>3名</strong> 敌国士兵，但会误杀附近的 <strong>1名</strong> 敌国平民。</p> <p>平民照片如下图所示。</p> <p></p> <img src='stimuli/faces/PFM3.jpg', style='max-width: 30%;'> </img> <p><strong>你是否选择发射武器？</strong></p>","0",""
"","","","","","html-keyboard-response","50","114748","0.0-4.0-0.23","198","1","2022-11-14 04:24:26","49aca292d257f58668169b9fbab864ae","182.102.193.220","Mozilla/5.0 (Windows NT 10.0; WOW64) AppleWebKit/537.36 (KHTML, like Gecko) Chrome/104.0.0.0 Safari/537.36","WebKit","Chrome","104.0.0.0","Windows","10.0","null","<div style=""font-size:60px;"">+</div>","null",""
"","","","","","html-button-response","51","115337","0.0-4.0-1.23","198","1","2022-11-14 04:24:26","49aca292d257f58668169b9fbab864ae","182.102.193.220","Mozilla/5.0 (Windows NT 10.0; WOW64) AppleWebKit/537.36 (KHTML, like Gecko) Chrome/104.0.0.0 Safari/537.36","WebKit","Chrome","104.0.0.0","Windows","10.0","587","<p>作为军队的指挥官，你可以选择发射导弹杀死 <strong>4名</strong> 敌国士兵，但会炸毁附近的 <strong>1棵</strong> 敌国树木。</p> <p>树木的照片如下图所示。</p> <p></p> <img src='stimuli/trees/10.png', style='max-width: 30%;'> </img> <p><strong>你是否选择发射武器？</strong></p>","0",""
"","","","","","html-keyboard-response","52","116339","0.0-4.0-0.24","198","1","2022-11-14 04:24:26","49aca292d257f58668169b9fbab864ae","182.102.193.220","Mozilla/5.0 (Windows NT 10.0; WOW64) AppleWebKit/537.36 (KHTML, like Gecko) Chrome/104.0.0.0 Safari/537.36","WebKit","Chrome","104.0.0.0","Windows","10.0","null","<div style=""font-size:60px;"">+</div>","null",""
"","","","","","html-button-response","53","117143","0.0-4.0-1.24","198","1","2022-11-14 04:24:26","49aca292d257f58668169b9fbab864ae","182.102.193.220","Mozilla/5.0 (Windows NT 10.0; WOW64) AppleWebKit/537.36 (KHTML, like Gecko) Chrome/104.0.0.0 Safari/537.36","WebKit","Chrome","104.0.0.0","Windows","10.0","802","<p>作为军队的指挥官，你可以选择发射导弹杀死 <strong>3名</strong> 敌国士兵，但会误杀附近的 <strong>1名</strong> 敌国平民。</p> <p>平民照片如下图所示。</p> <p></p> <img src='stimuli/faces/PFM7.jpg', style='max-width: 30%;'> </img> <p><strong>你是否选择发射武器？</strong></p>","1",""
"","","","","","html-keyboard-response","54","118154","0.0-4.0-0.25","198","1","2022-11-14 04:24:26","49aca292d257f58668169b9fbab864ae","182.102.193.220","Mozilla/5.0 (Windows NT 10.0; WOW64) AppleWebKit/537.36 (KHTML, like Gecko) Chrome/104.0.0.0 Safari/537.36","WebKit","Chrome","104.0.0.0","Windows","10.0","null","<div style=""font-size:60px;"">+</div>","null",""
"","","","","","html-button-response","55","119294","0.0-4.0-1.25","198","1","2022-11-14 04:24:26","49aca292d257f58668169b9fbab864ae","182.102.193.220","Mozilla/5.0 (Windows NT 10.0; WOW64) AppleWebKit/537.36 (KHTML, like Gecko) Chrome/104.0.0.0 Safari/537.36","WebKit","Chrome","104.0.0.0","Windows","10.0","1138","<p>作为军队的指挥官，你可以选择发射导弹杀死 <strong>2名</strong> 敌国士兵，但会误杀附近的 <strong>1名</strong> 敌国平民。</p> <p>平民照片如下图所示。</p> <p></p> <img src='stimuli/faces/PFF8.jpg', style='max-width: 30%;'> </img> <p><strong>你是否选择发射武器？</strong></p>","1",""
"","","","","","html-keyboard-response","56","120299","0.0-4.0-0.26","198","1","2022-11-14 04:24:26","49aca292d257f58668169b9fbab864ae","182.102.193.220","Mozilla/5.0 (Windows NT 10.0; WOW64) AppleWebKit/537.36 (KHTML, like Gecko) Chrome/104.0.0.0 Safari/537.36","WebKit","Chrome","104.0.0.0","Windows","10.0","null","<div style=""font-size:60px;"">+</div>","null",""
"","","","","","html-button-response","57","120840","0.0-4.0-1.26","198","1","2022-11-14 04:24:26","49aca292d257f58668169b9fbab864ae","182.102.193.220","Mozilla/5.0 (Windows NT 10.0; WOW64) AppleWebKit/537.36 (KHTML, like Gecko) Chrome/104.0.0.0 Safari/537.36","WebKit","Chrome","104.0.0.0","Windows","10.0","539","<p>作为军队的指挥官，你可以选择发射导弹杀死 <strong>9名</strong> 敌国士兵，但会误杀附近的 <strong>1名</strong> 敌国平民。</p> <p>平民照片如下图所示。</p> <p></p> <img src='stimuli/faces/PFM8.jpg', style='max-width: 30%;'> </img> <p><strong>你是否选择发射武器？</strong></p>","0",""
"","","","","","html-keyboard-response","58","121857","0.0-4.0-0.27","198","1","2022-11-14 04:24:26","49aca292d257f58668169b9fbab864ae","182.102.193.220","Mozilla/5.0 (Windows NT 10.0; WOW64) AppleWebKit/537.36 (KHTML, like Gecko) Chrome/104.0.0.0 Safari/537.36","WebKit","Chrome","104.0.0.0","Windows","10.0","null","<div style=""font-size:60px;"">+</div>","null",""
"","","","","","html-button-response","59","122939","0.0-4.0-1.27","198","1","2022-11-14 04:24:26","49aca292d257f58668169b9fbab864ae","182.102.193.220","Mozilla/5.0 (Windows NT 10.0; WOW64) AppleWebKit/537.36 (KHTML, like Gecko) Chrome/104.0.0.0 Safari/537.36","WebKit","Chrome","104.0.0.0","Windows","10.0","1080","<p>作为军队的指挥官，你可以选择发射导弹杀死 <strong>4名</strong> 敌国士兵，但会误杀附近的 <strong>1名</strong> 敌国平民。</p> <p>平民照片如下图所示。</p> <p></p> <img src='stimuli/faces/PFF7.jpg', style='max-width: 30%;'> </img> <p><strong>你是否选择发射武器？</strong></p>","0",""
"","","","","","html-keyboard-response","60","123943","0.0-4.0-0.28","198","1","2022-11-14 04:24:26","49aca292d257f58668169b9fbab864ae","182.102.193.220","Mozilla/5.0 (Windows NT 10.0; WOW64) AppleWebKit/537.36 (KHTML, like Gecko) Chrome/104.0.0.0 Safari/537.36","WebKit","Chrome","104.0.0.0","Windows","10.0","null","<div style=""font-size:60px;"">+</div>","null",""
"","","","","","html-button-response","61","124438","0.0-4.0-1.28","198","1","2022-11-14 04:24:26","49aca292d257f58668169b9fbab864ae","182.102.193.220","Mozilla/5.0 (Windows NT 10.0; WOW64) AppleWebKit/537.36 (KHTML, like Gecko) Chrome/104.0.0.0 Safari/537.36","WebKit","Chrome","104.0.0.0","Windows","10.0","493","<p>作为军队的指挥官，你可以选择发射导弹杀死 <strong>5名</strong> 敌国士兵，但会误杀附近的 <strong>1名</strong> 敌国平民。</p> <p>平民照片如下图所示。</p> <p></p> <img src='stimuli/faces/PFF6.jpg', style='max-width: 30%;'> </img> <p><strong>你是否选择发射武器？</strong></p>","0",""
"","","","","","html-keyboard-response","62","125440","0.0-4.0-0.29","198","1","2022-11-14 04:24:26","49aca292d257f58668169b9fbab864ae","182.102.193.220","Mozilla/5.0 (Windows NT 10.0; WOW64) AppleWebKit/537.36 (KHTML, like Gecko) Chrome/104.0.0.0 Safari/537.36","WebKit","Chrome","104.0.0.0","Windows","10.0","null","<div style=""font-size:60px;"">+</div>","null",""
"","","","","","html-button-response","63","126208","0.0-4.0-1.29","198","1","2022-11-14 04:24:26","49aca292d257f58668169b9fbab864ae","182.102.193.220","Mozilla/5.0 (Windows NT 10.0; WOW64) AppleWebKit/537.36 (KHTML, like Gecko) Chrome/104.0.0.0 Safari/537.36","WebKit","Chrome","104.0.0.0","Windows","10.0","766","<p>作为军队的指挥官，你可以选择发射导弹杀死 <strong>1名</strong> 敌国士兵，但会误杀附近的 <strong>1名</strong> 敌国平民。</p> <p>平民照片如下图所示。</p> <p></p> <img src='stimuli/faces/PFM2.jpg', style='max-width: 30%;'> </img> <p><strong>你是否选择发射武器？</strong></p>","1",""
"","","","","","html-keyboard-response","64","127221","0.0-4.0-0.30","198","1","2022-11-14 04:24:26","49aca292d257f58668169b9fbab864ae","182.102.193.220","Mozilla/5.0 (Windows NT 10.0; WOW64) AppleWebKit/537.36 (KHTML, like Gecko) Chrome/104.0.0.0 Safari/537.36","WebKit","Chrome","104.0.0.0","Windows","10.0","null","<div style=""font-size:60px;"">+</div>","null",""
"","","","","","html-button-response","65","127870","0.0-4.0-1.30","198","1","2022-11-14 04:24:26","49aca292d257f58668169b9fbab864ae","182.102.193.220","Mozilla/5.0 (Windows NT 10.0; WOW64) AppleWebKit/537.36 (KHTML, like Gecko) Chrome/104.0.0.0 Safari/537.36","WebKit","Chrome","104.0.0.0","Windows","10.0","647","<p>作为军队的指挥官，你可以选择发射导弹杀死 <strong>5名</strong> 敌国士兵，但会误杀附近的 <strong>1名</strong> 敌国平民。</p> <p>平民照片如下图所示。</p> <p></p> <img src='stimuli/faces/PFF4.jpg', style='max-width: 30%;'> </img> <p><strong>你是否选择发射武器？</strong></p>","0",""
"","","","","","html-keyboard-response","66","128875","0.0-4.0-0.31","198","1","2022-11-14 04:24:26","49aca292d257f58668169b9fbab864ae","182.102.193.220","Mozilla/5.0 (Windows NT 10.0; WOW64) AppleWebKit/537.36 (KHTML, like Gecko) Chrome/104.0.0.0 Safari/537.36","WebKit","Chrome","104.0.0.0","Windows","10.0","null","<div style=""font-size:60px;"">+</div>","null",""
"","","","","","html-button-response","67","129551","0.0-4.0-1.31","198","1","2022-11-14 04:24:26","49aca292d257f58668169b9fbab864ae","182.102.193.220","Mozilla/5.0 (Windows NT 10.0; WOW64) AppleWebKit/537.36 (KHTML, like Gecko) Chrome/104.0.0.0 Safari/537.36","WebKit","Chrome","104.0.0.0","Windows","10.0","674","<p>作为军队的指挥官，你可以选择发射导弹杀死 <strong>7名</strong> 敌国士兵，但会炸毁附近的 <strong>1棵</strong> 敌国树木。</p> <p>树木的照片如下图所示。</p> <p></p> <img src='stimuli/trees/15.png', style='max-width: 30%;'> </img> <p><strong>你是否选择发射武器？</strong></p>","0",""
"","","","","","html-keyboard-response","68","130554","0.0-4.0-0.32","198","1","2022-11-14 04:24:26","49aca292d257f58668169b9fbab864ae","182.102.193.220","Mozilla/5.0 (Windows NT 10.0; WOW64) AppleWebKit/537.36 (KHTML, like Gecko) Chrome/104.0.0.0 Safari/537.36","WebKit","Chrome","104.0.0.0","Windows","10.0","null","<div style=""font-size:60px;"">+</div>","null",""
"","","","","","html-button-response","69","132686","0.0-4.0-1.32","198","1","2022-11-14 04:24:26","49aca292d257f58668169b9fbab864ae","182.102.193.220","Mozilla/5.0 (Windows NT 10.0; WOW64) AppleWebKit/537.36 (KHTML, like Gecko) Chrome/104.0.0.0 Safari/537.36","WebKit","Chrome","104.0.0.0","Windows","10.0","2131","<p>作为军队的指挥官，你可以选择发射导弹杀死 <strong>2名</strong> 敌国士兵，但会炸毁附近的 <strong>1棵</strong> 敌国树木。</p> <p>树木的照片如下图所示。</p> <p></p> <img src='stimuli/trees/13.png', style='max-width: 30%;'> </img> <p><strong>你是否选择发射武器？</strong></p>","0",""
"","","","","","html-keyboard-response","70","133699","0.0-4.0-0.33","198","1","2022-11-14 04:24:26","49aca292d257f58668169b9fbab864ae","182.102.193.220","Mozilla/5.0 (Windows NT 10.0; WOW64) AppleWebKit/537.36 (KHTML, like Gecko) Chrome/104.0.0.0 Safari/537.36","WebKit","Chrome","104.0.0.0","Windows","10.0","null","<div style=""font-size:60px;"">+</div>","null",""
"","","","","","html-button-response","71","134152","0.0-4.0-1.33","198","1","2022-11-14 04:24:26","49aca292d257f58668169b9fbab864ae","182.102.193.220","Mozilla/5.0 (Windows NT 10.0; WOW64) AppleWebKit/537.36 (KHTML, like Gecko) Chrome/104.0.0.0 Safari/537.36","WebKit","Chrome","104.0.0.0","Windows","10.0","451","<p>作为军队的指挥官，你可以选择发射导弹杀死 <strong>3名</strong> 敌国士兵，但会炸毁附近的 <strong>1棵</strong> 敌国树木。</p> <p>树木的照片如下图所示。</p> <p></p> <img src='stimuli/trees/1.png', style='max-width: 30%;'> </img> <p><strong>你是否选择发射武器？</strong></p>","0",""
"","","","","","html-keyboard-response","72","135172","0.0-4.0-0.34","198","1","2022-11-14 04:24:26","49aca292d257f58668169b9fbab864ae","182.102.193.220","Mozilla/5.0 (Windows NT 10.0; WOW64) AppleWebKit/537.36 (KHTML, like Gecko) Chrome/104.0.0.0 Safari/537.36","WebKit","Chrome","104.0.0.0","Windows","10.0","null","<div style=""font-size:60px;"">+</div>","null",""
"","","","","","html-button-response","73","135925","0.0-4.0-1.34","198","1","2022-11-14 04:24:26","49aca292d257f58668169b9fbab864ae","182.102.193.220","Mozilla/5.0 (Windows NT 10.0; WOW64) AppleWebKit/537.36 (KHTML, like Gecko) Chrome/104.0.0.0 Safari/537.36","WebKit","Chrome","104.0.0.0","Windows","10.0","752","<p>作为军队的指挥官，你可以选择发射导弹杀死 <strong>9名</strong> 敌国士兵，但会炸毁附近的 <strong>1棵</strong> 敌国树木。</p> <p>树木的照片如下图所示。</p> <p></p> <img src='stimuli/trees/14.png', style='max-width: 30%;'> </img> <p><strong>你是否选择发射武器？</strong></p>","0",""
"","","","","","html-keyboard-response","74","136939","0.0-4.0-0.35","198","1","2022-11-14 04:24:26","49aca292d257f58668169b9fbab864ae","182.102.193.220","Mozilla/5.0 (Windows NT 10.0; WOW64) AppleWebKit/537.36 (KHTML, like Gecko) Chrome/104.0.0.0 Safari/537.36","WebKit","Chrome","104.0.0.0","Windows","10.0","null","<div style=""font-size:60px;"">+</div>","null",""
"","","","","","html-button-response","75","137590","0.0-4.0-1.35","198","1","2022-11-14 04:24:26","49aca292d257f58668169b9fbab864ae","182.102.193.220","Mozilla/5.0 (Windows NT 10.0; WOW64) AppleWebKit/537.36 (KHTML, like Gecko) Chrome/104.0.0.0 Safari/537.36","WebKit","Chrome","104.0.0.0","Windows","10.0","649","<p>作为军队的指挥官，你可以选择发射导弹杀死 <strong>8名</strong> 敌国士兵，但会误杀附近的 <strong>1名</strong> 敌国平民。</p> <p>平民照片如下图所示。</p> <p></p> <img src='stimuli/faces/PFM6.jpg', style='max-width: 30%;'> </img> <p><strong>你是否选择发射武器？</strong></p>","0",""
"","","","","","html-keyboard-response","76","138605","0.0-4.0-0.36","198","1","2022-11-14 04:24:26","49aca292d257f58668169b9fbab864ae","182.102.193.220","Mozilla/5.0 (Windows NT 10.0; WOW64) AppleWebKit/537.36 (KHTML, like Gecko) Chrome/104.0.0.0 Safari/537.36","WebKit","Chrome","104.0.0.0","Windows","10.0","null","<div style=""font-size:60px;"">+</div>","null",""
"","","","","","html-button-response","77","140105","0.0-4.0-1.36","198","1","2022-11-14 04:24:26","49aca292d257f58668169b9fbab864ae","182.102.193.220","Mozilla/5.0 (Windows NT 10.0; WOW64) AppleWebKit/537.36 (KHTML, like Gecko) Chrome/104.0.0.0 Safari/537.36","WebKit","Chrome","104.0.0.0","Windows","10.0","1498","<p>作为军队的指挥官，你可以选择发射导弹杀死 <strong>6名</strong> 敌国士兵，但会炸毁附近的 <strong>1棵</strong> 敌国树木。</p> <p>树木的照片如下图所示。</p> <p></p> <img src='stimuli/trees/6.png', style='max-width: 30%;'> </img> <p><strong>你是否选择发射武器？</strong></p>","0",""
"","","","","","html-keyboard-response","78","141113","0.0-4.0-0.37","198","1","2022-11-14 04:24:26","49aca292d257f58668169b9fbab864ae","182.102.193.220","Mozilla/5.0 (Windows NT 10.0; WOW64) AppleWebKit/537.36 (KHTML, like Gecko) Chrome/104.0.0.0 Safari/537.36","WebKit","Chrome","104.0.0.0","Windows","10.0","null","<div style=""font-size:60px;"">+</div>","null",""
"","","","","","html-button-response","79","141604","0.0-4.0-1.37","198","1","2022-11-14 04:24:26","49aca292d257f58668169b9fbab864ae","182.102.193.220","Mozilla/5.0 (Windows NT 10.0; WOW64) AppleWebKit/537.36 (KHTML, like Gecko) Chrome/104.0.0.0 Safari/537.36","WebKit","Chrome","104.0.0.0","Windows","10.0","488","<p>作为军队的指挥官，你可以选择发射导弹杀死 <strong>2名</strong> 敌国士兵，但会炸毁附近的 <strong>1棵</strong> 敌国树木。</p> <p>树木的照片如下图所示。</p> <p></p> <img src='stimuli/trees/9.png', style='max-width: 30%;'> </img> <p><strong>你是否选择发射武器？</strong></p>","0",""
"","","","","","html-keyboard-response","80","142620","0.0-4.0-0.38","198","1","2022-11-14 04:24:26","49aca292d257f58668169b9fbab864ae","182.102.193.220","Mozilla/5.0 (Windows NT 10.0; WOW64) AppleWebKit/537.36 (KHTML, like Gecko) Chrome/104.0.0.0 Safari/537.36","WebKit","Chrome","104.0.0.0","Windows","10.0","null","<div style=""font-size:60px;"">+</div>","null",""
"","","","","","html-button-response","81","142951","0.0-4.0-1.38","198","1","2022-11-14 04:24:26","49aca292d257f58668169b9fbab864ae","182.102.193.220","Mozilla/5.0 (Windows NT 10.0; WOW64) AppleWebKit/537.36 (KHTML, like Gecko) Chrome/104.0.0.0 Safari/537.36","WebKit","Chrome","104.0.0.0","Windows","10.0","329","<p>作为军队的指挥官，你可以选择发射导弹杀死 <strong>1名</strong> 敌国士兵，但会炸毁附近的 <strong>1棵</strong> 敌国树木。</p> <p>树木的照片如下图所示。</p> <p></p> <img src='stimuli/trees/2.png', style='max-width: 30%;'> </img> <p><strong>你是否选择发射武器？</strong></p>","0",""
"","","","","","html-keyboard-response","82","143965","0.0-4.0-0.39","198","1","2022-11-14 04:24:26","49aca292d257f58668169b9fbab864ae","182.102.193.220","Mozilla/5.0 (Windows NT 10.0; WOW64) AppleWebKit/537.36 (KHTML, like Gecko) Chrome/104.0.0.0 Safari/537.36","WebKit","Chrome","104.0.0.0","Windows","10.0","null","<div style=""font-size:60px;"">+</div>","null",""
"","","","","","html-button-response","83","144450","0.0-4.0-1.39","198","1","2022-11-14 04:24:26","49aca292d257f58668169b9fbab864ae","182.102.193.220","Mozilla/5.0 (Windows NT 10.0; WOW64) AppleWebKit/537.36 (KHTML, like Gecko) Chrome/104.0.0.0 Safari/537.36","WebKit","Chrome","104.0.0.0","Windows","10.0","483","<p>作为军队的指挥官，你可以选择发射导弹杀死 <strong>1名</strong> 敌国士兵，但会炸毁附近的 <strong>1棵</strong> 敌国树木。</p> <p>树木的照片如下图所示。</p> <p></p> <img src='stimuli/trees/5.png', style='max-width: 30%;'> </img> <p><strong>你是否选择发射武器？</strong></p>","0",""
"","","","","","html-keyboard-response","84","145462","0.0-4.0-0.40","198","1","2022-11-14 04:24:26","49aca292d257f58668169b9fbab864ae","182.102.193.220","Mozilla/5.0 (Windows NT 10.0; WOW64) AppleWebKit/537.36 (KHTML, like Gecko) Chrome/104.0.0.0 Safari/537.36","WebKit","Chrome","104.0.0.0","Windows","10.0","null","<div style=""font-size:60px;"">+</div>","null",""
"","","","","","html-button-response","85","146254","0.0-4.0-1.40","198","1","2022-11-14 04:24:26","49aca292d257f58668169b9fbab864ae","182.102.193.220","Mozilla/5.0 (Windows NT 10.0; WOW64) AppleWebKit/537.36 (KHTML, like Gecko) Chrome/104.0.0.0 Safari/537.36","WebKit","Chrome","104.0.0.0","Windows","10.0","790","<p>作为军队的指挥官，你可以选择发射导弹杀死 <strong>7名</strong> 敌国士兵，但会误杀附近的 <strong>1名</strong> 敌国平民。</p> <p>平民照片如下图所示。</p> <p></p> <img src='stimuli/faces/PFF3.jpg', style='max-width: 30%;'> </img> <p><strong>你是否选择发射武器？</strong></p>","0",""
"","","","","","html-keyboard-response","86","147268","0.0-4.0-0.41","198","1","2022-11-14 04:24:26","49aca292d257f58668169b9fbab864ae","182.102.193.220","Mozilla/5.0 (Windows NT 10.0; WOW64) AppleWebKit/537.36 (KHTML, like Gecko) Chrome/104.0.0.0 Safari/537.36","WebKit","Chrome","104.0.0.0","Windows","10.0","null","<div style=""font-size:60px;"">+</div>","null",""
"","","","","","html-button-response","87","147972","0.0-4.0-1.41","198","1","2022-11-14 04:24:26","49aca292d257f58668169b9fbab864ae","182.102.193.220","Mozilla/5.0 (Windows NT 10.0; WOW64) AppleWebKit/537.36 (KHTML, like Gecko) Chrome/104.0.0.0 Safari/537.36","WebKit","Chrome","104.0.0.0","Windows","10.0","702","<p>作为军队的指挥官，你可以选择发射导弹杀死 <strong>6名</strong> 敌国士兵，但会误杀附近的 <strong>1名</strong> 敌国平民。</p> <p>平民照片如下图所示。</p> <p></p> <img src='stimuli/faces/PFM1.jpg', style='max-width: 30%;'> </img> <p><strong>你是否选择发射武器？</strong></p>","0",""
"","","","","","html-keyboard-response","88","148975","0.0-4.0-0.42","198","1","2022-11-14 04:24:26","49aca292d257f58668169b9fbab864ae","182.102.193.220","Mozilla/5.0 (Windows NT 10.0; WOW64) AppleWebKit/537.36 (KHTML, like Gecko) Chrome/104.0.0.0 Safari/537.36","WebKit","Chrome","104.0.0.0","Windows","10.0","null","<div style=""font-size:60px;"">+</div>","null",""
"","","","","","html-button-response","89","150648","0.0-4.0-1.42","198","1","2022-11-14 04:24:26","49aca292d257f58668169b9fbab864ae","182.102.193.220","Mozilla/5.0 (Windows NT 10.0; WOW64) AppleWebKit/537.36 (KHTML, like Gecko) Chrome/104.0.0.0 Safari/537.36","WebKit","Chrome","104.0.0.0","Windows","10.0","1671","<p>作为军队的指挥官，你可以选择发射导弹杀死 <strong>6名</strong> 敌国士兵，但会炸毁附近的 <strong>1棵</strong> 敌国树木。</p> <p>树木的照片如下图所示。</p> <p></p> <img src='stimuli/trees/2.png', style='max-width: 30%;'> </img> <p><strong>你是否选择发射武器？</strong></p>","0",""
"","","","","","html-keyboard-response","90","151662","0.0-4.0-0.43","198","1","2022-11-14 04:24:26","49aca292d257f58668169b9fbab864ae","182.102.193.220","Mozilla/5.0 (Windows NT 10.0; WOW64) AppleWebKit/537.36 (KHTML, like Gecko) Chrome/104.0.0.0 Safari/537.36","WebKit","Chrome","104.0.0.0","Windows","10.0","null","<div style=""font-size:60px;"">+</div>","null",""
"","","","","","html-button-response","91","152365","0.0-4.0-1.43","198","1","2022-11-14 04:24:26","49aca292d257f58668169b9fbab864ae","182.102.193.220","Mozilla/5.0 (Windows NT 10.0; WOW64) AppleWebKit/537.36 (KHTML, like Gecko) Chrome/104.0.0.0 Safari/537.36","WebKit","Chrome","104.0.0.0","Windows","10.0","701","<p>作为军队的指挥官，你可以选择发射导弹杀死 <strong>10名</strong> 敌国士兵，但会误杀附近的 <strong>1名</strong> 敌国平民。</p> <p>平民照片如下图所示。</p> <p></p> <img src='stimuli/faces/PFF7.jpg', style='max-width: 30%;'> </img> <p><strong>你是否选择发射武器？</strong></p>","0",""
"","","","","","html-keyboard-response","92","153379","0.0-4.0-0.44","198","1","2022-11-14 04:24:26","49aca292d257f58668169b9fbab864ae","182.102.193.220","Mozilla/5.0 (Windows NT 10.0; WOW64) AppleWebKit/537.36 (KHTML, like Gecko) Chrome/104.0.0.0 Safari/537.36","WebKit","Chrome","104.0.0.0","Windows","10.0","null","<div style=""font-size:60px;"">+</div>","null",""
"","","","","","html-button-response","93","156288","0.0-4.0-1.44","198","1","2022-11-14 04:24:26","49aca292d257f58668169b9fbab864ae","182.102.193.220","Mozilla/5.0 (Windows NT 10.0; WOW64) AppleWebKit/537.36 (KHTML, like Gecko) Chrome/104.0.0.0 Safari/537.36","WebKit","Chrome","104.0.0.0","Windows","10.0","2907","<p>作为军队的指挥官，你可以选择发射导弹杀死 <strong>2名</strong> 敌国士兵，但会误杀附近的 <strong>1名</strong> 敌国平民。</p> <p>平民照片如下图所示。</p> <p></p> <img src='stimuli/faces/PFM8.jpg', style='max-width: 30%;'> </img> <p><strong>你是否选择发射武器？</strong></p>","1",""
"","","","","","html-keyboard-response","94","157292","0.0-4.0-0.45","198","1","2022-11-14 04:24:26","49aca292d257f58668169b9fbab864ae","182.102.193.220","Mozilla/5.0 (Windows NT 10.0; WOW64) AppleWebKit/537.36 (KHTML, like Gecko) Chrome/104.0.0.0 Safari/537.36","WebKit","Chrome","104.0.0.0","Windows","10.0","null","<div style=""font-size:60px;"">+</div>","null",""
"","","","","","html-button-response","95","216391","0.0-4.0-1.45","198","1","2022-11-14 04:24:26","49aca292d257f58668169b9fbab864ae","182.102.193.220","Mozilla/5.0 (Windows NT 10.0; WOW64) AppleWebKit/537.36 (KHTML, like Gecko) Chrome/104.0.0.0 Safari/537.36","WebKit","Chrome","104.0.0.0","Windows","10.0","59096","<p>作为军队的指挥官，你可以选择发射导弹杀死 <strong>10名</strong> 敌国士兵，但会误杀附近的 <strong>1名</strong> 敌国平民。</p> <p>平民照片如下图所示。</p> <p></p> <img src='stimuli/faces/PFF5.jpg', style='max-width: 30%;'> </img> <p><strong>你是否选择发射武器？</strong></p>","0",""
"","","","","","html-keyboard-response","96","217394","0.0-4.0-0.46","198","1","2022-11-14 04:24:26","49aca292d257f58668169b9fbab864ae","182.102.193.220","Mozilla/5.0 (Windows NT 10.0; WOW64) AppleWebKit/537.36 (KHTML, like Gecko) Chrome/104.0.0.0 Safari/537.36","WebKit","Chrome","104.0.0.0","Windows","10.0","null","<div style=""font-size:60px;"">+</div>","null",""
"","","","","","html-button-response","97","218033","0.0-4.0-1.46","198","1","2022-11-14 04:24:26","49aca292d257f58668169b9fbab864ae","182.102.193.220","Mozilla/5.0 (Windows NT 10.0; WOW64) AppleWebKit/537.36 (KHTML, like Gecko) Chrome/104.0.0.0 Safari/537.36","WebKit","Chrome","104.0.0.0","Windows","10.0","637","<p>作为军队的指挥官，你可以选择发射导弹杀死 <strong>6名</strong> 敌国士兵，但会炸毁附近的 <strong>1棵</strong> 敌国树木。</p> <p>树木的照片如下图所示。</p> <p></p> <img src='stimuli/trees/8.png', style='max-width: 30%;'> </img> <p><strong>你是否选择发射武器？</strong></p>","0",""
"","","","","","html-keyboard-response","98","219046","0.0-4.0-0.47","198","1","2022-11-14 04:24:26","49aca292d257f58668169b9fbab864ae","182.102.193.220","Mozilla/5.0 (Windows NT 10.0; WOW64) AppleWebKit/537.36 (KHTML, like Gecko) Chrome/104.0.0.0 Safari/537.36","WebKit","Chrome","104.0.0.0","Windows","10.0","null","<div style=""font-size:60px;"">+</div>","null",""
"","","","","","html-button-response","99","219605","0.0-4.0-1.47","198","1","2022-11-14 04:24:26","49aca292d257f58668169b9fbab864ae","182.102.193.220","Mozilla/5.0 (Windows NT 10.0; WOW64) AppleWebKit/537.36 (KHTML, like Gecko) Chrome/104.0.0.0 Safari/537.36","WebKit","Chrome","104.0.0.0","Windows","10.0","557","<p>作为军队的指挥官，你可以选择发射导弹杀死 <strong>6名</strong> 敌国士兵，但会误杀附近的 <strong>1名</strong> 敌国平民。</p> <p>平民照片如下图所示。</p> <p></p> <img src='stimuli/faces/PFF1.jpg', style='max-width: 30%;'> </img> <p><strong>你是否选择发射武器？</strong></p>","0",""
"","","","","","html-keyboard-response","100","220607","0.0-4.0-0.48","198","1","2022-11-14 04:24:26","49aca292d257f58668169b9fbab864ae","182.102.193.220","Mozilla/5.0 (Windows NT 10.0; WOW64) AppleWebKit/537.36 (KHTML, like Gecko) Chrome/104.0.0.0 Safari/537.36","WebKit","Chrome","104.0.0.0","Windows","10.0","null","<div style=""font-size:60px;"">+</div>","null",""
"","","","","","html-button-response","101","221181","0.0-4.0-1.48","198","1","2022-11-14 04:24:26","49aca292d257f58668169b9fbab864ae","182.102.193.220","Mozilla/5.0 (Windows NT 10.0; WOW64) AppleWebKit/537.36 (KHTML, like Gecko) Chrome/104.0.0.0 Safari/537.36","WebKit","Chrome","104.0.0.0","Windows","10.0","572","<p>作为军队的指挥官，你可以选择发射导弹杀死 <strong>2名</strong> 敌国士兵，但会炸毁附近的 <strong>1棵</strong> 敌国树木。</p> <p>树木的照片如下图所示。</p> <p></p> <img src='stimuli/trees/15.png', style='max-width: 30%;'> </img> <p><strong>你是否选择发射武器？</strong></p>","0",""
"","","","","","html-keyboard-response","102","222194","0.0-4.0-0.49","198","1","2022-11-14 04:24:26","49aca292d257f58668169b9fbab864ae","182.102.193.220","Mozilla/5.0 (Windows NT 10.0; WOW64) AppleWebKit/537.36 (KHTML, like Gecko) Chrome/104.0.0.0 Safari/537.36","WebKit","Chrome","104.0.0.0","Windows","10.0","null","<div style=""font-size:60px;"">+</div>","null",""
"","","","","","html-button-response","103","223001","0.0-4.0-1.49","198","1","2022-11-14 04:24:26","49aca292d257f58668169b9fbab864ae","182.102.193.220","Mozilla/5.0 (Windows NT 10.0; WOW64) AppleWebKit/537.36 (KHTML, like Gecko) Chrome/104.0.0.0 Safari/537.36","WebKit","Chrome","104.0.0.0","Windows","10.0","804","<p>作为军队的指挥官，你可以选择发射导弹杀死 <strong>6名</strong> 敌国士兵，但会误杀附近的 <strong>1名</strong> 敌国平民。</p> <p>平民照片如下图所示。</p> <p></p> <img src='stimuli/faces/PFM2.jpg', style='max-width: 30%;'> </img> <p><strong>你是否选择发射武器？</strong></p>","0",""
"","","","","","html-keyboard-response","104","224003","0.0-4.0-0.50","198","1","2022-11-14 04:24:26","49aca292d257f58668169b9fbab864ae","182.102.193.220","Mozilla/5.0 (Windows NT 10.0; WOW64) AppleWebKit/537.36 (KHTML, like Gecko) Chrome/104.0.0.0 Safari/537.36","WebKit","Chrome","104.0.0.0","Windows","10.0","null","<div style=""font-size:60px;"">+</div>","null",""
"","","","","","html-button-response","105","224493","0.0-4.0-1.50","198","1","2022-11-14 04:24:26","49aca292d257f58668169b9fbab864ae","182.102.193.220","Mozilla/5.0 (Windows NT 10.0; WOW64) AppleWebKit/537.36 (KHTML, like Gecko) Chrome/104.0.0.0 Safari/537.36","WebKit","Chrome","104.0.0.0","Windows","10.0","487","<p>作为军队的指挥官，你可以选择发射导弹杀死 <strong>10名</strong> 敌国士兵，但会误杀附近的 <strong>1名</strong> 敌国平民。</p> <p>平民照片如下图所示。</p> <p></p> <img src='stimuli/faces/PFM4.jpg', style='max-width: 30%;'> </img> <p><strong>你是否选择发射武器？</strong></p>","0",""
"","","","","","html-keyboard-response","106","225497","0.0-4.0-0.51","198","1","2022-11-14 04:24:26","49aca292d257f58668169b9fbab864ae","182.102.193.220","Mozilla/5.0 (Windows NT 10.0; WOW64) AppleWebKit/537.36 (KHTML, like Gecko) Chrome/104.0.0.0 Safari/537.36","WebKit","Chrome","104.0.0.0","Windows","10.0","null","<div style=""font-size:60px;"">+</div>","null",""
"","","","","","html-button-response","107","226147","0.0-4.0-1.51","198","1","2022-11-14 04:24:26","49aca292d257f58668169b9fbab864ae","182.102.193.220","Mozilla/5.0 (Windows NT 10.0; WOW64) AppleWebKit/537.36 (KHTML, like Gecko) Chrome/104.0.0.0 Safari/537.36","WebKit","Chrome","104.0.0.0","Windows","10.0","648","<p>作为军队的指挥官，你可以选择发射导弹杀死 <strong>4名</strong> 敌国士兵，但会炸毁附近的 <strong>1棵</strong> 敌国树木。</p> <p>树木的照片如下图所示。</p> <p></p> <img src='stimuli/trees/3.png', style='max-width: 30%;'> </img> <p><strong>你是否选择发射武器？</strong></p>","0",""
"","","","","","html-keyboard-response","108","227163","0.0-4.0-0.52","198","1","2022-11-14 04:24:26","49aca292d257f58668169b9fbab864ae","182.102.193.220","Mozilla/5.0 (Windows NT 10.0; WOW64) AppleWebKit/537.36 (KHTML, like Gecko) Chrome/104.0.0.0 Safari/537.36","WebKit","Chrome","104.0.0.0","Windows","10.0","null","<div style=""font-size:60px;"">+</div>","null",""
"","","","","","html-button-response","109","227699","0.0-4.0-1.52","198","1","2022-11-14 04:24:26","49aca292d257f58668169b9fbab864ae","182.102.193.220","Mozilla/5.0 (Windows NT 10.0; WOW64) AppleWebKit/537.36 (KHTML, like Gecko) Chrome/104.0.0.0 Safari/537.36","WebKit","Chrome","104.0.0.0","Windows","10.0","534","<p>作为军队的指挥官，你可以选择发射导弹杀死 <strong>10名</strong> 敌国士兵，但会误杀附近的 <strong>1名</strong> 敌国平民。</p> <p>平民照片如下图所示。</p> <p></p> <img src='stimuli/faces/PFF4.jpg', style='max-width: 30%;'> </img> <p><strong>你是否选择发射武器？</strong></p>","0",""
"","","","","","html-keyboard-response","110","228709","0.0-4.0-0.53","198","1","2022-11-14 04:24:26","49aca292d257f58668169b9fbab864ae","182.102.193.220","Mozilla/5.0 (Windows NT 10.0; WOW64) AppleWebKit/537.36 (KHTML, like Gecko) Chrome/104.0.0.0 Safari/537.36","WebKit","Chrome","104.0.0.0","Windows","10.0","null","<div style=""font-size:60px;"">+</div>","null",""
"","","","","","html-button-response","111","229212","0.0-4.0-1.53","198","1","2022-11-14 04:24:26","49aca292d257f58668169b9fbab864ae","182.102.193.220","Mozilla/5.0 (Windows NT 10.0; WOW64) AppleWebKit/537.36 (KHTML, like Gecko) Chrome/104.0.0.0 Safari/537.36","WebKit","Chrome","104.0.0.0","Windows","10.0","500","<p>作为军队的指挥官，你可以选择发射导弹杀死 <strong>10名</strong> 敌国士兵，但会炸毁附近的 <strong>1棵</strong> 敌国树木。</p> <p>树木的照片如下图所示。</p> <p></p> <img src='stimuli/trees/12.png', style='max-width: 30%;'> </img> <p><strong>你是否选择发射武器？</strong></p>","0",""
"","","","","","html-keyboard-response","112","230223","0.0-4.0-0.54","198","1","2022-11-14 04:24:26","49aca292d257f58668169b9fbab864ae","182.102.193.220","Mozilla/5.0 (Windows NT 10.0; WOW64) AppleWebKit/537.36 (KHTML, like Gecko) Chrome/104.0.0.0 Safari/537.36","WebKit","Chrome","104.0.0.0","Windows","10.0","null","<div style=""font-size:60px;"">+</div>","null",""
"","","","","","html-button-response","113","230948","0.0-4.0-1.54","198","1","2022-11-14 04:24:26","49aca292d257f58668169b9fbab864ae","182.102.193.220","Mozilla/5.0 (Windows NT 10.0; WOW64) AppleWebKit/537.36 (KHTML, like Gecko) Chrome/104.0.0.0 Safari/537.36","WebKit","Chrome","104.0.0.0","Windows","10.0","723","<p>作为军队的指挥官，你可以选择发射导弹杀死 <strong>7名</strong> 敌国士兵，但会炸毁附近的 <strong>1棵</strong> 敌国树木。</p> <p>树木的照片如下图所示。</p> <p></p> <img src='stimuli/trees/13.png', style='max-width: 30%;'> </img> <p><strong>你是否选择发射武器？</strong></p>","0",""
"","","","","","html-keyboard-response","114","231951","0.0-4.0-0.55","198","1","2022-11-14 04:24:26","49aca292d257f58668169b9fbab864ae","182.102.193.220","Mozilla/5.0 (Windows NT 10.0; WOW64) AppleWebKit/537.36 (KHTML, like Gecko) Chrome/104.0.0.0 Safari/537.36","WebKit","Chrome","104.0.0.0","Windows","10.0","null","<div style=""font-size:60px;"">+</div>","null",""
"","","","","","html-button-response","115","232505","0.0-4.0-1.55","198","1","2022-11-14 04:24:26","49aca292d257f58668169b9fbab864ae","182.102.193.220","Mozilla/5.0 (Windows NT 10.0; WOW64) AppleWebKit/537.36 (KHTML, like Gecko) Chrome/104.0.0.0 Safari/537.36","WebKit","Chrome","104.0.0.0","Windows","10.0","552","<p>作为军队的指挥官，你可以选择发射导弹杀死 <strong>9名</strong> 敌国士兵，但会炸毁附近的 <strong>1棵</strong> 敌国树木。</p> <p>树木的照片如下图所示。</p> <p></p> <img src='stimuli/trees/9.png', style='max-width: 30%;'> </img> <p><strong>你是否选择发射武器？</strong></p>","0",""
"","","","","","html-keyboard-response","116","233511","0.0-4.0-0.56","198","1","2022-11-14 04:24:26","49aca292d257f58668169b9fbab864ae","182.102.193.220","Mozilla/5.0 (Windows NT 10.0; WOW64) AppleWebKit/537.36 (KHTML, like Gecko) Chrome/104.0.0.0 Safari/537.36","WebKit","Chrome","104.0.0.0","Windows","10.0","null","<div style=""font-size:60px;"">+</div>","null",""
"","","","","","html-button-response","117","233964","0.0-4.0-1.56","198","1","2022-11-14 04:24:26","49aca292d257f58668169b9fbab864ae","182.102.193.220","Mozilla/5.0 (Windows NT 10.0; WOW64) AppleWebKit/537.36 (KHTML, like Gecko) Chrome/104.0.0.0 Safari/537.36","WebKit","Chrome","104.0.0.0","Windows","10.0","451","<p>作为军队的指挥官，你可以选择发射导弹杀死 <strong>10名</strong> 敌国士兵，但会炸毁附近的 <strong>1棵</strong> 敌国树木。</p> <p>树木的照片如下图所示。</p> <p></p> <img src='stimuli/trees/16.png', style='max-width: 30%;'> </img> <p><strong>你是否选择发射武器？</strong></p>","0",""
"","","","","","html-keyboard-response","118","234967","0.0-4.0-0.57","198","1","2022-11-14 04:24:26","49aca292d257f58668169b9fbab864ae","182.102.193.220","Mozilla/5.0 (Windows NT 10.0; WOW64) AppleWebKit/537.36 (KHTML, like Gecko) Chrome/104.0.0.0 Safari/537.36","WebKit","Chrome","104.0.0.0","Windows","10.0","null","<div style=""font-size:60px;"">+</div>","null",""
"","","","","","html-button-response","119","235684","0.0-4.0-1.57","198","1","2022-11-14 04:24:26","49aca292d257f58668169b9fbab864ae","182.102.193.220","Mozilla/5.0 (Windows NT 10.0; WOW64) AppleWebKit/537.36 (KHTML, like Gecko) Chrome/104.0.0.0 Safari/537.36","WebKit","Chrome","104.0.0.0","Windows","10.0","715","<p>作为军队的指挥官，你可以选择发射导弹杀死 <strong>2名</strong> 敌国士兵，但会炸毁附近的 <strong>1棵</strong> 敌国树木。</p> <p>树木的照片如下图所示。</p> <p></p> <img src='stimuli/trees/7.png', style='max-width: 30%;'> </img> <p><strong>你是否选择发射武器？</strong></p>","0",""
"","","","","","html-keyboard-response","120","236686","0.0-4.0-0.58","198","1","2022-11-14 04:24:26","49aca292d257f58668169b9fbab864ae","182.102.193.220","Mozilla/5.0 (Windows NT 10.0; WOW64) AppleWebKit/537.36 (KHTML, like Gecko) Chrome/104.0.0.0 Safari/537.36","WebKit","Chrome","104.0.0.0","Windows","10.0","null","<div style=""font-size:60px;"">+</div>","null",""
"","","","","","html-button-response","121","237145","0.0-4.0-1.58","198","1","2022-11-14 04:24:26","49aca292d257f58668169b9fbab864ae","182.102.193.220","Mozilla/5.0 (Windows NT 10.0; WOW64) AppleWebKit/537.36 (KHTML, like Gecko) Chrome/104.0.0.0 Safari/537.36","WebKit","Chrome","104.0.0.0","Windows","10.0","457","<p>作为军队的指挥官，你可以选择发射导弹杀死 <strong>2名</strong> 敌国士兵，但会炸毁附近的 <strong>1棵</strong> 敌国树木。</p> <p>树木的照片如下图所示。</p> <p></p> <img src='stimuli/trees/12.png', style='max-width: 30%;'> </img> <p><strong>你是否选择发射武器？</strong></p>","0",""
"","","","","","html-keyboard-response","122","238148","0.0-4.0-0.59","198","1","2022-11-14 04:24:26","49aca292d257f58668169b9fbab864ae","182.102.193.220","Mozilla/5.0 (Windows NT 10.0; WOW64) AppleWebKit/537.36 (KHTML, like Gecko) Chrome/104.0.0.0 Safari/537.36","WebKit","Chrome","104.0.0.0","Windows","10.0","null","<div style=""font-size:60px;"">+</div>","null",""
"","","","","","html-button-response","123","238984","0.0-4.0-1.59","198","1","2022-11-14 04:24:26","49aca292d257f58668169b9fbab864ae","182.102.193.220","Mozilla/5.0 (Windows NT 10.0; WOW64) AppleWebKit/537.36 (KHTML, like Gecko) Chrome/104.0.0.0 Safari/537.36","WebKit","Chrome","104.0.0.0","Windows","10.0","834","<p>作为军队的指挥官，你可以选择发射导弹杀死 <strong>8名</strong> 敌国士兵，但会炸毁附近的 <strong>1棵</strong> 敌国树木。</p> <p>树木的照片如下图所示。</p> <p></p> <img src='stimuli/trees/3.png', style='max-width: 30%;'> </img> <p><strong>你是否选择发射武器？</strong></p>","0",""
"","","","","","html-keyboard-response","124","239987","0.0-4.0-0.60","198","1","2022-11-14 04:24:26","49aca292d257f58668169b9fbab864ae","182.102.193.220","Mozilla/5.0 (Windows NT 10.0; WOW64) AppleWebKit/537.36 (KHTML, like Gecko) Chrome/104.0.0.0 Safari/537.36","WebKit","Chrome","104.0.0.0","Windows","10.0","null","<div style=""font-size:60px;"">+</div>","null",""
"","","","","","html-button-response","125","240394","0.0-4.0-1.60","198","1","2022-11-14 04:24:26","49aca292d257f58668169b9fbab864ae","182.102.193.220","Mozilla/5.0 (Windows NT 10.0; WOW64) AppleWebKit/537.36 (KHTML, like Gecko) Chrome/104.0.0.0 Safari/537.36","WebKit","Chrome","104.0.0.0","Windows","10.0","403","<p>作为军队的指挥官，你可以选择发射导弹杀死 <strong>10名</strong> 敌国士兵，但会误杀附近的 <strong>1名</strong> 敌国平民。</p> <p>平民照片如下图所示。</p> <p></p> <img src='stimuli/faces/PFF2.jpg', style='max-width: 30%;'> </img> <p><strong>你是否选择发射武器？</strong></p>","0",""
"","","","","","html-keyboard-response","126","241396","0.0-4.0-0.61","198","1","2022-11-14 04:24:26","49aca292d257f58668169b9fbab864ae","182.102.193.220","Mozilla/5.0 (Windows NT 10.0; WOW64) AppleWebKit/537.36 (KHTML, like Gecko) Chrome/104.0.0.0 Safari/537.36","WebKit","Chrome","104.0.0.0","Windows","10.0","null","<div style=""font-size:60px;"">+</div>","null",""
"","","","","","html-button-response","127","241896","0.0-4.0-1.61","198","1","2022-11-14 04:24:26","49aca292d257f58668169b9fbab864ae","182.102.193.220","Mozilla/5.0 (Windows NT 10.0; WOW64) AppleWebKit/537.36 (KHTML, like Gecko) Chrome/104.0.0.0 Safari/537.36","WebKit","Chrome","104.0.0.0","Windows","10.0","497","<p>作为军队的指挥官，你可以选择发射导弹杀死 <strong>5名</strong> 敌国士兵，但会误杀附近的 <strong>1名</strong> 敌国平民。</p> <p>平民照片如下图所示。</p> <p></p> <img src='stimuli/faces/PFM1.jpg', style='max-width: 30%;'> </img> <p><strong>你是否选择发射武器？</strong></p>","0",""
"","","","","","html-keyboard-response","128","242899","0.0-4.0-0.62","198","1","2022-11-14 04:24:26","49aca292d257f58668169b9fbab864ae","182.102.193.220","Mozilla/5.0 (Windows NT 10.0; WOW64) AppleWebKit/537.36 (KHTML, like Gecko) Chrome/104.0.0.0 Safari/537.36","WebKit","Chrome","104.0.0.0","Windows","10.0","null","<div style=""font-size:60px;"">+</div>","null",""
"","","","","","html-button-response","129","243846","0.0-4.0-1.62","198","1","2022-11-14 04:24:26","49aca292d257f58668169b9fbab864ae","182.102.193.220","Mozilla/5.0 (Windows NT 10.0; WOW64) AppleWebKit/537.36 (KHTML, like Gecko) Chrome/104.0.0.0 Safari/537.36","WebKit","Chrome","104.0.0.0","Windows","10.0","944","<p>作为军队的指挥官，你可以选择发射导弹杀死 <strong>5名</strong> 敌国士兵，但会误杀附近的 <strong>1名</strong> 敌国平民。</p> <p>平民照片如下图所示。</p> <p></p> <img src='stimuli/faces/PFF5.jpg', style='max-width: 30%;'> </img> <p><strong>你是否选择发射武器？</strong></p>","0",""
"","","","","","html-keyboard-response","130","244854","0.0-4.0-0.63","198","1","2022-11-14 04:24:26","49aca292d257f58668169b9fbab864ae","182.102.193.220","Mozilla/5.0 (Windows NT 10.0; WOW64) AppleWebKit/537.36 (KHTML, like Gecko) Chrome/104.0.0.0 Safari/537.36","WebKit","Chrome","104.0.0.0","Windows","10.0","null","<div style=""font-size:60px;"">+</div>","null",""
"","","","","","html-button-response","131","245836","0.0-4.0-1.63","198","1","2022-11-14 04:24:26","49aca292d257f58668169b9fbab864ae","182.102.193.220","Mozilla/5.0 (Windows NT 10.0; WOW64) AppleWebKit/537.36 (KHTML, like Gecko) Chrome/104.0.0.0 Safari/537.36","WebKit","Chrome","104.0.0.0","Windows","10.0","979","<p>作为军队的指挥官，你可以选择发射导弹杀死 <strong>9名</strong> 敌国士兵，但会误杀附近的 <strong>1名</strong> 敌国平民。</p> <p>平民照片如下图所示。</p> <p></p> <img src='stimuli/faces/PFM5.jpg', style='max-width: 30%;'> </img> <p><strong>你是否选择发射武器？</strong></p>","0",""
"","","","","","survey-multi-choice","132","248992","0.0-5.0","198","1","2022-11-14 04:24:26","49aca292d257f58668169b9fbab864ae","182.102.193.220","Mozilla/5.0 (Windows NT 10.0; WOW64) AppleWebKit/537.36 (KHTML, like Gecko) Chrome/104.0.0.0 Safari/537.36","WebKit","Chrome","104.0.0.0","Windows","10.0","3153","","{""Attention1"":""""}","[0]"
"","","","","","html-button-response","133","250736","0.0-6.0","198","1","2022-11-14 04:24:26","49aca292d257f58668169b9fbab864ae","182.102.193.220","Mozilla/5.0 (Windows NT 10.0; WOW64) AppleWebKit/537.36 (KHTML, like Gecko) Chrome/104.0.0.0 Safari/537.36","WebKit","Chrome","104.0.0.0","Windows","10.0","1740","<p style=""font-size:20px;font-weight:bold;"">恭喜！</p><p>你已经完成了实验的第一部分。</p><p>请休息放松一下，然后进入第二部分。</p><p>这部分大约需要10分钟。</p>","0",""
"","","","","","survey-text","134","371623","0.0-7.0","198","1","2022-11-14 04:24:26","49aca292d257f58668169b9fbab864ae","182.102.193.220","Mozilla/5.0 (Windows NT 10.0; WOW64) AppleWebKit/537.36 (KHTML, like Gecko) Chrome/104.0.0.0 Safari/537.36","WebKit","Chrome","104.0.0.0","Windows","10.0","119861","","{""Age"":""22"",""Nation"":""中国"",""Born"":""广东省韶关市"",""Live"":""广东省韶关市"",""Ethnic"":""汉族"",""Alipay"":""15979503666""}",""
"","","","","","survey-multi-choice","135","382622","0.0-8.0","198","1","2022-11-14 04:24:26","49aca292d257f58668169b9fbab864ae","182.102.193.220","Mozilla/5.0 (Windows NT 10.0; WOW64) AppleWebKit/537.36 (KHTML, like Gecko) Chrome/104.0.0.0 Safari/537.36","WebKit","Chrome","104.0.0.0","Windows","10.0","10996","","{""Gender"":""男"",""Education"":""本科毕业"",""Income"":""￥140,000-￥269,999"",""Children"":""0"",""Race"":""亚洲人""}","[0,1,2,3,4]"
"","","","","","survey-multi-select","136","385976","0.0-9.0","198","1","2022-11-14 04:24:26","49aca292d257f58668169b9fbab864ae","182.102.193.220","Mozilla/5.0 (Windows NT 10.0; WOW64) AppleWebKit/537.36 (KHTML, like Gecko) Chrome/104.0.0.0 Safari/537.36","WebKit","Chrome","104.0.0.0","Windows","10.0","3348","","{""Marriage"":[""未婚""],""Religion"":[""无宗教信仰""]}","[0,1]"
"","","","","","survey-multi-choice","137","389270","0.0-10.0","198","1","2022-11-14 04:24:26","49aca292d257f58668169b9fbab864ae","182.102.193.220","Mozilla/5.0 (Windows NT 10.0; WOW64) AppleWebKit/537.36 (KHTML, like Gecko) Chrome/104.0.0.0 Safari/537.36","WebKit","Chrome","104.0.0.0","Windows","10.0","3289","","{""SES"":""5""}","[0]"
"","","","","","html-button-response","138","389972","0.0-11.0","198","1","2022-11-14 04:24:26","49aca292d257f58668169b9fbab864ae","182.102.193.220","Mozilla/5.0 (Windows NT 10.0; WOW64) AppleWebKit/537.36 (KHTML, like Gecko) Chrome/104.0.0.0 Safari/537.36","WebKit","Chrome","104.0.0.0","Windows","10.0","698","<p><strong>请判断下列陈述在多大程度上可以形容你？</p><p> (1 = ""和我一点都不像"" to 5 = ""非常像我"".)</strong></p>","0",""
"","","","","","survey-likert","139","452698","0.0-12.0","198","1","2022-11-14 04:24:26","49aca292d257f58668169b9fbab864ae","182.102.193.220","Mozilla/5.0 (Windows NT 10.0; WOW64) AppleWebKit/537.36 (KHTML, like Gecko) Chrome/104.0.0.0 Safari/537.36","WebKit","Chrome","104.0.0.0","Windows","10.0","62723","","{""Aggression1"":1,""Aggression2"":2,""Aggression3"":3,""Aggression4"":1,""Aggression5"":3,""Aggression6"":4,""Aggression7"":2,""Aggression8"":1,""Aggression9"":1}","[0,1,2,3,4,5,6,7,8]"
"","","","","","html-button-response","140","453643","0.0-13.0","198","1","2022-11-14 04:24:26","49aca292d257f58668169b9fbab864ae","182.102.193.220","Mozilla/5.0 (Windows NT 10.0; WOW64) AppleWebKit/537.36 (KHTML, like Gecko) Chrome/104.0.0.0 Safari/537.36","WebKit","Chrome","104.0.0.0","Windows","10.0","941","<p><strong>请判断你在多大程度上同意下列陈述。</strong></p>","0",""
"","","","","","survey-likert","141","528567","0.0-14.0","198","1","2022-11-14 04:24:26","49aca292d257f58668169b9fbab864ae","182.102.193.220","Mozilla/5.0 (Windows NT 10.0; WOW64) AppleWebKit/537.36 (KHTML, like Gecko) Chrome/104.0.0.0 Safari/537.36","WebKit","Chrome","104.0.0.0","Windows","10.0","74919","","{""scale11"":3,""scale2"":4,""scale6"":3,""scale23"":2,""scale5"":2,""scale14"":4,""scale27"":1,""scale17"":3,""scale9"":3,""scale25"":1,""scale8"":3,""scale19"":2,""scale26"":2,""scale16"":2,""scale13"":4,""scale21"":3,""scale4"":3,""scale3"":1,""scale18"":1,""scale7"":2,""scale20"":0,""scale24"":1,""scale28"":3,""scale1"":1,""scale22"":3,""scale10"":1,""scale15"":3,""scale12"":2}","[10,1,5,22,4,13,26,16,8,24,7,18,25,15,12,20,3,2,17,6,19,23,27,0,21,9,14,11]"
"","","","","","html-button-response","142","529798","0.0-15.0","198","1","2022-11-14 04:24:26","49aca292d257f58668169b9fbab864ae","182.102.193.220","Mozilla/5.0 (Windows NT 10.0; WOW64) AppleWebKit/537.36 (KHTML, like Gecko) Chrome/104.0.0.0 Safari/537.36","WebKit","Chrome","104.0.0.0","Windows","10.0","1227","<p><strong>请判断你在多大程度上同意下列陈述。</strong></p>","0",""
"","","","","","survey-likert","143","617663","0.0-16.0","198","1","2022-11-14 04:24:26","49aca292d257f58668169b9fbab864ae","182.102.193.220","Mozilla/5.0 (Windows NT 10.0; WOW64) AppleWebKit/537.36 (KHTML, like Gecko) Chrome/104.0.0.0 Safari/537.36","WebKit","Chrome","104.0.0.0","Windows","10.0","87862","","{""sdo12"":5,""sdo5"":3,""sdo4"":2,""sdo16"":6,""sdo8"":3,""sdo13"":5,""sdo9"":6,""sdo10"":5,""sdo7"":4,""sdo1"":5,""sdo11"":6,""sdo2"":4,""sdo14"":6,""sdo15"":5,""sdo6"":6,""sdo3"":4}","[11,4,3,15,7,12,8,9,6,0,10,1,13,14,5,2]"
"","","","","","html-button-response","144","618782","0.0-17.0","198","1","2022-11-14 04:24:26","49aca292d257f58668169b9fbab864ae","182.102.193.220","Mozilla/5.0 (Windows NT 10.0; WOW64) AppleWebKit/537.36 (KHTML, like Gecko) Chrome/104.0.0.0 Safari/537.36","WebKit","Chrome","104.0.0.0","Windows","10.0","1115","<p><strong>请判断你在多大程度上同意下列陈述。</strong></p>","0",""
"","","","","","survey-likert","145","711329","0.0-18.0","198","1","2022-11-14 04:24:26","49aca292d257f58668169b9fbab864ae","182.102.193.220","Mozilla/5.0 (Windows NT 10.0; WOW64) AppleWebKit/537.36 (KHTML, like Gecko) Chrome/104.0.0.0 Safari/537.36","WebKit","Chrome","104.0.0.0","Windows","10.0","92543","","{""caring1"":3,""liking1"":1,""caring2"":3,""protection1"":3,""liking2"":1,""caring3"":3,""protection2"":2,""liking3"":1,""protection3"":3,""caring4"":4,""liking4"":1,""protection4"":3,""caring5"":3,""liking5"":0,""protection5"":3}","[0,1,2,3,4,5,6,7,8,9,10,11,12,13,14]"
"","","","","","html-button-response","146","712019","0.0-19.0","198","1","2022-11-14 04:24:26","49aca292d257f58668169b9fbab864ae","182.102.193.220","Mozilla/5.0 (Windows NT 10.0; WOW64) AppleWebKit/537.36 (KHTML, like Gecko) Chrome/104.0.0.0 Safari/537.36","WebKit","Chrome","104.0.0.0","Windows","10.0","686","<p><strong>请判断下列场景中你的内心感受有多柔软。</strong></p>","0",""
"","","","","","survey-likert","147","728673","0.0-20.0","198","1","2022-11-14 04:24:26","49aca292d257f58668169b9fbab864ae","182.102.193.220","Mozilla/5.0 (Windows NT 10.0; WOW64) AppleWebKit/537.36 (KHTML, like Gecko) Chrome/104.0.0.0 Safari/537.36","WebKit","Chrome","104.0.0.0","Windows","10.0","16651","","{""tenderness-positive1"":4,""tenderness-negative1"":2,""tenderness-negative2"":1,""tenderness-positive2"":3,""tenderness-positive3"":4,""tenderness-negative3"":1,""tenderness-positive4"":4,""tenderness-negative4"":1,""tenderness-negative5"":2,""tenderness-positive5"":4}","[0,1,2,3,4,5,6,7,8,9]"
"","","","","","survey-multi-choice","148","731145","0.0-21.0","198","1","2022-11-14 04:24:26","49aca292d257f58668169b9fbab864ae","182.102.193.220","Mozilla/5.0 (Windows NT 10.0; WOW64) AppleWebKit/537.36 (KHTML, like Gecko) Chrome/104.0.0.0 Safari/537.36","WebKit","Chrome","104.0.0.0","Windows","10.0","2468","","{""Attention2"":""其他""}","[0]"
"","","","","","html-button-response","149","732013","0.0-22.0","198","1","2022-11-14 04:24:26","49aca292d257f58668169b9fbab864ae","182.102.193.220","Mozilla/5.0 (Windows NT 10.0; WOW64) AppleWebKit/537.36 (KHTML, like Gecko) Chrome/104.0.0.0 Safari/537.36","WebKit","Chrome","104.0.0.0","Windows","10.0","864","<p><strong>请判断你在多大程度上同意下列陈述。</strong></p>","0",""
"","","","","","survey-likert","150","775812","0.0-23.0","198","1","2022-11-14 04:24:26","49aca292d257f58668169b9fbab864ae","182.102.193.220","Mozilla/5.0 (Windows NT 10.0; WOW64) AppleWebKit/537.36 (KHTML, like Gecko) Chrome/104.0.0.0 Safari/537.36","WebKit","Chrome","104.0.0.0","Windows","10.0","43795","","{""Patri7"":3,""Patri8"":4,""Patri3"":3,""Patri9"":3,""Nation4"":2,""Patri5"":4,""Nation5"":4,""Patri12"":1,""Patri6"":3,""Nation1"":3,""Patri4"":4,""Nation3"":3,""Patri10"":1,""Nation6"":3,""Nation7"":4,""Patri1"":4,""Patri2"":3,""Nation2"":4,""Patri11"":0,""Nation8"":1}","[6,7,2,8,15,4,16,11,5,12,3,14,9,17,18,0,1,13,10,19]"
"","","","","","html-button-response","151","776581","0.0-24.0","198","1","2022-11-14 04:24:26","49aca292d257f58668169b9fbab864ae","182.102.193.220","Mozilla/5.0 (Windows NT 10.0; WOW64) AppleWebKit/537.36 (KHTML, like Gecko) Chrome/104.0.0.0 Safari/537.36","WebKit","Chrome","104.0.0.0","Windows","10.0","766","<p><strong>请判断你在多大程度上同意下列陈述。</strong></p>","0",""
"","","","","","survey-likert","152","1075082","0.0-25.0","198","1","2022-11-14 04:24:26","49aca292d257f58668169b9fbab864ae","182.102.193.220","Mozilla/5.0 (Windows NT 10.0; WOW64) AppleWebKit/537.36 (KHTML, like Gecko) Chrome/104.0.0.0 Safari/537.36","WebKit","Chrome","104.0.0.0","Windows","10.0","298497","","{""vc1"":7,""vi3"":8,""vi2"":5,""hi2"":7,""vi1"":7,""hc2"":6,""vi4"":7,""Robot"":6,""vc3"":6,""hc3"":7,""hi3"":4,""vc2"":6,""vc4"":7,""hc4"":5,""hi1"":8,""hi4"":7,""hc1"":5}","[13,6,5,1,4,10,8,7,15,11,2,14,16,12,0,3,9]"
"","","","","","survey-text","153","1077991","0.0-26.0","198","1","2022-11-14 04:24:26","49aca292d257f58668169b9fbab864ae","182.102.193.220","Mozilla/5.0 (Windows NT 10.0; WOW64) AppleWebKit/537.36 (KHTML, like Gecko) Chrome/104.0.0.0 Safari/537.36","WebKit","Chrome","104.0.0.0","Windows","10.0","2898","","{""Comments"":""无""}",""
"","","","","","html-button-response","154","1080334","0.0-27.0","198","1","2022-11-14 04:24:26","49aca292d257f58668169b9fbab864ae","182.102.193.220","Mozilla/5.0 (Windows NT 10.0; WOW64) AppleWebKit/537.36 (KHTML, like Gecko) Chrome/104.0.0.0 Safari/537.36","WebKit","Chrome","104.0.0.0","Windows","10.0","2341","<strong><p>恭喜你完成了实验！</p><p>感谢您的参与。</p></strong>","0",""
