"success","timeout","failed_images","failed_audio","failed_video","trial_type","trial_index","time_elapsed","internal_node_id","run_id","condition","recorded_at","source_code_version","ip","user_agent","device","browser","browser_version","platform","platform_version","rt","stimulus","response","question_order"
"true","false","[]","[]","[]","preload","0","57","0.0-0.0","199","1","2022-11-14 04:51:28","49aca292d257f58668169b9fbab864ae","182.102.136.46","Mozilla/5.0 (Windows NT 10.0; WOW64) AppleWebKit/537.36 (KHTML, like Gecko) Chrome/104.0.0.0 Safari/537.36","WebKit","Chrome","104.0.0.0","Windows","10.0","","","",""
"true","","","","","fullscreen","1","12726","0.0-1.0","199","1","2022-11-14 04:51:28","49aca292d257f58668169b9fbab864ae","182.102.136.46","Mozilla/5.0 (Windows NT 10.0; WOW64) AppleWebKit/537.36 (KHTML, like Gecko) Chrome/104.0.0.0 Safari/537.36","WebKit","Chrome","104.0.0.0","Windows","10.0","","","",""
"","","","","","html-button-response","2","13726","0.0-2.0","199","1","2022-11-14 04:51:28","49aca292d257f58668169b9fbab864ae","182.102.136.46","Mozilla/5.0 (Windows NT 10.0; WOW64) AppleWebKit/537.36 (KHTML, like Gecko) Chrome/104.0.0.0 Safari/537.36","WebKit","Chrome","104.0.0.0","Windows","10.0","999","<p style=""font-size:20px;font-weight:bold;"">实验知情同意书</p><p style=""text-align:left;""><strong>实验名称：</strong>社会冲突研究</p><p style=""text-align:left;""><strong>主要研究者：</strong>韩晓春副教授（北京师范大学心理学部）</p><p style=""text-align:left;""><strong>联系方式：</strong>发送邮件至xiaochun.han@bnu.edu.cn</p><p style=""text-align:left;""><strong>研究目的：</strong>研究旨在了解人类面对群体冲突时的决策方式，以及相关的心理学特质。实验调查大约需要20分钟。</p><p style=""text-align:left;""><strong>实验流程：</strong>实验包含两部分。第一部分呈现一系列群体冲突场景，请你决定如何对这些冲突进行反应，大约需要10分钟完成。第二部分包含一系列人口统计学信息收集和心理学问卷，大约需要10分钟完成。</p><p style=""text-align:left;""><strong>参加及退出规则：</strong>参加本实验完全取决于您的个人意愿。在参与过程中，您可以随时退出，并且不用承担任何后果。</p><p style=""text-align:left;""><strong>隐私：</strong>本实验完全匿名进行，不会收集您的姓名或其他能够识别您身份的信息。实验中收集的作答仅用作科学研究使用，可能会在学术期刊/书籍上发表，或者用于教学，您的数据未来可能会和其他研究者或实验室分享，但您的个人身份不会被识别。</p><p style=""text-align:left;""><strong>实验报酬：</strong>实验完成后，您将获得15元人民币报酬，以感谢您的时间和努力。调查问卷中包含几道题目用以测验您作答时的认真度。只有完成全部实验，并且正确回答认真度测验的被试才能获得实验报酬。实验报酬将通过支付宝转账发放。</p><p style=""text-align:left;font-size:20px;""><strong>如果您同意以上实验知情同意书的内容，请点击'同意并且开始实验'按钮；否则请关闭浏览器界面，退出实验。</strong></p>","0",""
"","","","","","html-button-response","3","14574","0.0-3.0","199","1","2022-11-14 04:51:28","49aca292d257f58668169b9fbab864ae","182.102.136.46","Mozilla/5.0 (Windows NT 10.0; WOW64) AppleWebKit/537.36 (KHTML, like Gecko) Chrome/104.0.0.0 Safari/537.36","WebKit","Chrome","104.0.0.0","Windows","10.0","847","<p ><strong>实验任务一：</strong></p><p>请想象你的国家与另一个国家发生了军事冲突。</p><p>你是国家军队的指挥官，你将如何在冲突中进行决策。</p><p>具体来说，作为军队指挥官，请你决定是否发射导弹进行打击。</p><p>接下来，你会面对一系列场景，请仔细阅读每个场景，然后进行决策。</p><p>这部分实验任务大约需要10分钟。</p><p><strong>实验过程中，请集中注意力。</strong></p>","0",""
"","","","","","html-keyboard-response","4","15587","0.0-4.0-0.0","199","1","2022-11-14 04:51:28","49aca292d257f58668169b9fbab864ae","182.102.136.46","Mozilla/5.0 (Windows NT 10.0; WOW64) AppleWebKit/537.36 (KHTML, like Gecko) Chrome/104.0.0.0 Safari/537.36","WebKit","Chrome","104.0.0.0","Windows","10.0","null","<div style=""font-size:60px;"">+</div>","null",""
"","","","","","html-button-response","5","16688","0.0-4.0-1.0","199","1","2022-11-14 04:51:28","49aca292d257f58668169b9fbab864ae","182.102.136.46","Mozilla/5.0 (Windows NT 10.0; WOW64) AppleWebKit/537.36 (KHTML, like Gecko) Chrome/104.0.0.0 Safari/537.36","WebKit","Chrome","104.0.0.0","Windows","10.0","1100","<p>作为军队的指挥官，你可以选择发射导弹杀死 <strong>4名</strong> 敌国士兵，但会炸毁附近的 <strong>1棵</strong> 敌国树木。</p> <p>树木的照片如下图所示。</p> <p></p> <img src='stimuli/trees/7.png', style='max-width: 30%;'> </img> <p><strong>你是否选择发射武器？</strong></p>","0",""
"","","","","","html-keyboard-response","6","17703","0.0-4.0-0.1","199","1","2022-11-14 04:51:28","49aca292d257f58668169b9fbab864ae","182.102.136.46","Mozilla/5.0 (Windows NT 10.0; WOW64) AppleWebKit/537.36 (KHTML, like Gecko) Chrome/104.0.0.0 Safari/537.36","WebKit","Chrome","104.0.0.0","Windows","10.0","null","<div style=""font-size:60px;"">+</div>","null",""
"","","","","","html-button-response","7","18420","0.0-4.0-1.1","199","1","2022-11-14 04:51:28","49aca292d257f58668169b9fbab864ae","182.102.136.46","Mozilla/5.0 (Windows NT 10.0; WOW64) AppleWebKit/537.36 (KHTML, like Gecko) Chrome/104.0.0.0 Safari/537.36","WebKit","Chrome","104.0.0.0","Windows","10.0","715","<p>作为军队的指挥官，你可以选择发射导弹杀死 <strong>1名</strong> 敌国士兵，但会炸毁附近的 <strong>1棵</strong> 敌国树木。</p> <p>树木的照片如下图所示。</p> <p></p> <img src='stimuli/trees/2.png', style='max-width: 30%;'> </img> <p><strong>你是否选择发射武器？</strong></p>","0",""
"","","","","","html-keyboard-response","8","19425","0.0-4.0-0.2","199","1","2022-11-14 04:51:28","49aca292d257f58668169b9fbab864ae","182.102.136.46","Mozilla/5.0 (Windows NT 10.0; WOW64) AppleWebKit/537.36 (KHTML, like Gecko) Chrome/104.0.0.0 Safari/537.36","WebKit","Chrome","104.0.0.0","Windows","10.0","null","<div style=""font-size:60px;"">+</div>","null",""
"","","","","","html-button-response","9","20844","0.0-4.0-1.2","199","1","2022-11-14 04:51:28","49aca292d257f58668169b9fbab864ae","182.102.136.46","Mozilla/5.0 (Windows NT 10.0; WOW64) AppleWebKit/537.36 (KHTML, like Gecko) Chrome/104.0.0.0 Safari/537.36","WebKit","Chrome","104.0.0.0","Windows","10.0","1417","<p>作为军队的指挥官，你可以选择发射导弹杀死 <strong>3名</strong> 敌国士兵，但会误杀附近的 <strong>1名</strong> 敌国平民。</p> <p>平民照片如下图所示。</p> <p></p> <img src='stimuli/faces/PFF2.jpg', style='max-width: 30%;'> </img> <p><strong>你是否选择发射武器？</strong></p>","1",""
"","","","","","html-keyboard-response","10","21855","0.0-4.0-0.3","199","1","2022-11-14 04:51:28","49aca292d257f58668169b9fbab864ae","182.102.136.46","Mozilla/5.0 (Windows NT 10.0; WOW64) AppleWebKit/537.36 (KHTML, like Gecko) Chrome/104.0.0.0 Safari/537.36","WebKit","Chrome","104.0.0.0","Windows","10.0","null","<div style=""font-size:60px;"">+</div>","null",""
"","","","","","html-button-response","11","22608","0.0-4.0-1.3","199","1","2022-11-14 04:51:28","49aca292d257f58668169b9fbab864ae","182.102.136.46","Mozilla/5.0 (Windows NT 10.0; WOW64) AppleWebKit/537.36 (KHTML, like Gecko) Chrome/104.0.0.0 Safari/537.36","WebKit","Chrome","104.0.0.0","Windows","10.0","752","<p>作为军队的指挥官，你可以选择发射导弹杀死 <strong>2名</strong> 敌国士兵，但会炸毁附近的 <strong>1棵</strong> 敌国树木。</p> <p>树木的照片如下图所示。</p> <p></p> <img src='stimuli/trees/1.png', style='max-width: 30%;'> </img> <p><strong>你是否选择发射武器？</strong></p>","0",""
"","","","","","html-keyboard-response","12","23615","0.0-4.0-0.4","199","1","2022-11-14 04:51:28","49aca292d257f58668169b9fbab864ae","182.102.136.46","Mozilla/5.0 (Windows NT 10.0; WOW64) AppleWebKit/537.36 (KHTML, like Gecko) Chrome/104.0.0.0 Safari/537.36","WebKit","Chrome","104.0.0.0","Windows","10.0","null","<div style=""font-size:60px;"">+</div>","null",""
"","","","","","html-button-response","13","24644","0.0-4.0-1.4","199","1","2022-11-14 04:51:28","49aca292d257f58668169b9fbab864ae","182.102.136.46","Mozilla/5.0 (Windows NT 10.0; WOW64) AppleWebKit/537.36 (KHTML, like Gecko) Chrome/104.0.0.0 Safari/537.36","WebKit","Chrome","104.0.0.0","Windows","10.0","1027","<p>作为军队的指挥官，你可以选择发射导弹杀死 <strong>9名</strong> 敌国士兵，但会炸毁附近的 <strong>1棵</strong> 敌国树木。</p> <p>树木的照片如下图所示。</p> <p></p> <img src='stimuli/trees/13.png', style='max-width: 30%;'> </img> <p><strong>你是否选择发射武器？</strong></p>","0",""
"","","","","","html-keyboard-response","14","25648","0.0-4.0-0.5","199","1","2022-11-14 04:51:28","49aca292d257f58668169b9fbab864ae","182.102.136.46","Mozilla/5.0 (Windows NT 10.0; WOW64) AppleWebKit/537.36 (KHTML, like Gecko) Chrome/104.0.0.0 Safari/537.36","WebKit","Chrome","104.0.0.0","Windows","10.0","null","<div style=""font-size:60px;"">+</div>","null",""
"","","","","","html-button-response","15","26327","0.0-4.0-1.5","199","1","2022-11-14 04:51:28","49aca292d257f58668169b9fbab864ae","182.102.136.46","Mozilla/5.0 (Windows NT 10.0; WOW64) AppleWebKit/537.36 (KHTML, like Gecko) Chrome/104.0.0.0 Safari/537.36","WebKit","Chrome","104.0.0.0","Windows","10.0","678","<p>作为军队的指挥官，你可以选择发射导弹杀死 <strong>6名</strong> 敌国士兵，但会炸毁附近的 <strong>1棵</strong> 敌国树木。</p> <p>树木的照片如下图所示。</p> <p></p> <img src='stimuli/trees/10.png', style='max-width: 30%;'> </img> <p><strong>你是否选择发射武器？</strong></p>","0",""
"","","","","","html-keyboard-response","16","27333","0.0-4.0-0.6","199","1","2022-11-14 04:51:28","49aca292d257f58668169b9fbab864ae","182.102.136.46","Mozilla/5.0 (Windows NT 10.0; WOW64) AppleWebKit/537.36 (KHTML, like Gecko) Chrome/104.0.0.0 Safari/537.36","WebKit","Chrome","104.0.0.0","Windows","10.0","null","<div style=""font-size:60px;"">+</div>","null",""
"","","","","","html-button-response","17","29377","0.0-4.0-1.6","199","1","2022-11-14 04:51:28","49aca292d257f58668169b9fbab864ae","182.102.136.46","Mozilla/5.0 (Windows NT 10.0; WOW64) AppleWebKit/537.36 (KHTML, like Gecko) Chrome/104.0.0.0 Safari/537.36","WebKit","Chrome","104.0.0.0","Windows","10.0","2042","<p>作为军队的指挥官，你可以选择发射导弹杀死 <strong>6名</strong> 敌国士兵，但会误杀附近的 <strong>1名</strong> 敌国平民。</p> <p>平民照片如下图所示。</p> <p></p> <img src='stimuli/faces/PFF2.jpg', style='max-width: 30%;'> </img> <p><strong>你是否选择发射武器？</strong></p>","0",""
"","","","","","html-keyboard-response","18","30383","0.0-4.0-0.7","199","1","2022-11-14 04:51:28","49aca292d257f58668169b9fbab864ae","182.102.136.46","Mozilla/5.0 (Windows NT 10.0; WOW64) AppleWebKit/537.36 (KHTML, like Gecko) Chrome/104.0.0.0 Safari/537.36","WebKit","Chrome","104.0.0.0","Windows","10.0","null","<div style=""font-size:60px;"">+</div>","null",""
"","","","","","html-button-response","19","31496","0.0-4.0-1.7","199","1","2022-11-14 04:51:28","49aca292d257f58668169b9fbab864ae","182.102.136.46","Mozilla/5.0 (Windows NT 10.0; WOW64) AppleWebKit/537.36 (KHTML, like Gecko) Chrome/104.0.0.0 Safari/537.36","WebKit","Chrome","104.0.0.0","Windows","10.0","1112","<p>作为军队的指挥官，你可以选择发射导弹杀死 <strong>5名</strong> 敌国士兵，但会炸毁附近的 <strong>1棵</strong> 敌国树木。</p> <p>树木的照片如下图所示。</p> <p></p> <img src='stimuli/trees/6.png', style='max-width: 30%;'> </img> <p><strong>你是否选择发射武器？</strong></p>","0",""
"","","","","","html-keyboard-response","20","32515","0.0-4.0-0.8","199","1","2022-11-14 04:51:28","49aca292d257f58668169b9fbab864ae","182.102.136.46","Mozilla/5.0 (Windows NT 10.0; WOW64) AppleWebKit/537.36 (KHTML, like Gecko) Chrome/104.0.0.0 Safari/537.36","WebKit","Chrome","104.0.0.0","Windows","10.0","null","<div style=""font-size:60px;"">+</div>","null",""
"","","","","","html-button-response","21","33069","0.0-4.0-1.8","199","1","2022-11-14 04:51:28","49aca292d257f58668169b9fbab864ae","182.102.136.46","Mozilla/5.0 (Windows NT 10.0; WOW64) AppleWebKit/537.36 (KHTML, like Gecko) Chrome/104.0.0.0 Safari/537.36","WebKit","Chrome","104.0.0.0","Windows","10.0","553","<p>作为军队的指挥官，你可以选择发射导弹杀死 <strong>6名</strong> 敌国士兵，但会误杀附近的 <strong>1名</strong> 敌国平民。</p> <p>平民照片如下图所示。</p> <p></p> <img src='stimuli/faces/PFM5.jpg', style='max-width: 30%;'> </img> <p><strong>你是否选择发射武器？</strong></p>","0",""
"","","","","","html-keyboard-response","22","34079","0.0-4.0-0.9","199","1","2022-11-14 04:51:28","49aca292d257f58668169b9fbab864ae","182.102.136.46","Mozilla/5.0 (Windows NT 10.0; WOW64) AppleWebKit/537.36 (KHTML, like Gecko) Chrome/104.0.0.0 Safari/537.36","WebKit","Chrome","104.0.0.0","Windows","10.0","null","<div style=""font-size:60px;"">+</div>","null",""
"","","","","","html-button-response","23","34684","0.0-4.0-1.9","199","1","2022-11-14 04:51:28","49aca292d257f58668169b9fbab864ae","182.102.136.46","Mozilla/5.0 (Windows NT 10.0; WOW64) AppleWebKit/537.36 (KHTML, like Gecko) Chrome/104.0.0.0 Safari/537.36","WebKit","Chrome","104.0.0.0","Windows","10.0","604","<p>作为军队的指挥官，你可以选择发射导弹杀死 <strong>7名</strong> 敌国士兵，但会误杀附近的 <strong>1名</strong> 敌国平民。</p> <p>平民照片如下图所示。</p> <p></p> <img src='stimuli/faces/PFF3.jpg', style='max-width: 30%;'> </img> <p><strong>你是否选择发射武器？</strong></p>","0",""
"","","","","","html-keyboard-response","24","35690","0.0-4.0-0.10","199","1","2022-11-14 04:51:28","49aca292d257f58668169b9fbab864ae","182.102.136.46","Mozilla/5.0 (Windows NT 10.0; WOW64) AppleWebKit/537.36 (KHTML, like Gecko) Chrome/104.0.0.0 Safari/537.36","WebKit","Chrome","104.0.0.0","Windows","10.0","null","<div style=""font-size:60px;"">+</div>","null",""
"","","","","","html-button-response","25","36463","0.0-4.0-1.10","199","1","2022-11-14 04:51:28","49aca292d257f58668169b9fbab864ae","182.102.136.46","Mozilla/5.0 (Windows NT 10.0; WOW64) AppleWebKit/537.36 (KHTML, like Gecko) Chrome/104.0.0.0 Safari/537.36","WebKit","Chrome","104.0.0.0","Windows","10.0","772","<p>作为军队的指挥官，你可以选择发射导弹杀死 <strong>7名</strong> 敌国士兵，但会炸毁附近的 <strong>1棵</strong> 敌国树木。</p> <p>树木的照片如下图所示。</p> <p></p> <img src='stimuli/trees/4.png', style='max-width: 30%;'> </img> <p><strong>你是否选择发射武器？</strong></p>","0",""
"","","","","","html-keyboard-response","26","37479","0.0-4.0-0.11","199","1","2022-11-14 04:51:28","49aca292d257f58668169b9fbab864ae","182.102.136.46","Mozilla/5.0 (Windows NT 10.0; WOW64) AppleWebKit/537.36 (KHTML, like Gecko) Chrome/104.0.0.0 Safari/537.36","WebKit","Chrome","104.0.0.0","Windows","10.0","null","<div style=""font-size:60px;"">+</div>","null",""
"","","","","","html-button-response","27","37940","0.0-4.0-1.11","199","1","2022-11-14 04:51:28","49aca292d257f58668169b9fbab864ae","182.102.136.46","Mozilla/5.0 (Windows NT 10.0; WOW64) AppleWebKit/537.36 (KHTML, like Gecko) Chrome/104.0.0.0 Safari/537.36","WebKit","Chrome","104.0.0.0","Windows","10.0","460","<p>作为军队的指挥官，你可以选择发射导弹杀死 <strong>4名</strong> 敌国士兵，但会炸毁附近的 <strong>1棵</strong> 敌国树木。</p> <p>树木的照片如下图所示。</p> <p></p> <img src='stimuli/trees/16.png', style='max-width: 30%;'> </img> <p><strong>你是否选择发射武器？</strong></p>","0",""
"","","","","","html-keyboard-response","28","38945","0.0-4.0-0.12","199","1","2022-11-14 04:51:28","49aca292d257f58668169b9fbab864ae","182.102.136.46","Mozilla/5.0 (Windows NT 10.0; WOW64) AppleWebKit/537.36 (KHTML, like Gecko) Chrome/104.0.0.0 Safari/537.36","WebKit","Chrome","104.0.0.0","Windows","10.0","null","<div style=""font-size:60px;"">+</div>","null",""
"","","","","","html-button-response","29","39612","0.0-4.0-1.12","199","1","2022-11-14 04:51:28","49aca292d257f58668169b9fbab864ae","182.102.136.46","Mozilla/5.0 (Windows NT 10.0; WOW64) AppleWebKit/537.36 (KHTML, like Gecko) Chrome/104.0.0.0 Safari/537.36","WebKit","Chrome","104.0.0.0","Windows","10.0","665","<p>作为军队的指挥官，你可以选择发射导弹杀死 <strong>5名</strong> 敌国士兵，但会误杀附近的 <strong>1名</strong> 敌国平民。</p> <p>平民照片如下图所示。</p> <p></p> <img src='stimuli/faces/PFM3.jpg', style='max-width: 30%;'> </img> <p><strong>你是否选择发射武器？</strong></p>","0",""
"","","","","","html-keyboard-response","30","40630","0.0-4.0-0.13","199","1","2022-11-14 04:51:28","49aca292d257f58668169b9fbab864ae","182.102.136.46","Mozilla/5.0 (Windows NT 10.0; WOW64) AppleWebKit/537.36 (KHTML, like Gecko) Chrome/104.0.0.0 Safari/537.36","WebKit","Chrome","104.0.0.0","Windows","10.0","null","<div style=""font-size:60px;"">+</div>","null",""
"","","","","","html-button-response","31","41935","0.0-4.0-1.13","199","1","2022-11-14 04:51:28","49aca292d257f58668169b9fbab864ae","182.102.136.46","Mozilla/5.0 (Windows NT 10.0; WOW64) AppleWebKit/537.36 (KHTML, like Gecko) Chrome/104.0.0.0 Safari/537.36","WebKit","Chrome","104.0.0.0","Windows","10.0","1304","<p>作为军队的指挥官，你可以选择发射导弹杀死 <strong>3名</strong> 敌国士兵，但会误杀附近的 <strong>1名</strong> 敌国平民。</p> <p>平民照片如下图所示。</p> <p></p> <img src='stimuli/faces/PFM7.jpg', style='max-width: 30%;'> </img> <p><strong>你是否选择发射武器？</strong></p>","1",""
"","","","","","html-keyboard-response","32","42945","0.0-4.0-0.14","199","1","2022-11-14 04:51:28","49aca292d257f58668169b9fbab864ae","182.102.136.46","Mozilla/5.0 (Windows NT 10.0; WOW64) AppleWebKit/537.36 (KHTML, like Gecko) Chrome/104.0.0.0 Safari/537.36","WebKit","Chrome","104.0.0.0","Windows","10.0","null","<div style=""font-size:60px;"">+</div>","null",""
"","","","","","html-button-response","33","47470","0.0-4.0-1.14","199","1","2022-11-14 04:51:28","49aca292d257f58668169b9fbab864ae","182.102.136.46","Mozilla/5.0 (Windows NT 10.0; WOW64) AppleWebKit/537.36 (KHTML, like Gecko) Chrome/104.0.0.0 Safari/537.36","WebKit","Chrome","104.0.0.0","Windows","10.0","4523","<p>作为军队的指挥官，你可以选择发射导弹杀死 <strong>8名</strong> 敌国士兵，但会炸毁附近的 <strong>1棵</strong> 敌国树木。</p> <p>树木的照片如下图所示。</p> <p></p> <img src='stimuli/trees/3.png', style='max-width: 30%;'> </img> <p><strong>你是否选择发射武器？</strong></p>","0",""
"","","","","","html-keyboard-response","34","48472","0.0-4.0-0.15","199","1","2022-11-14 04:51:28","49aca292d257f58668169b9fbab864ae","182.102.136.46","Mozilla/5.0 (Windows NT 10.0; WOW64) AppleWebKit/537.36 (KHTML, like Gecko) Chrome/104.0.0.0 Safari/537.36","WebKit","Chrome","104.0.0.0","Windows","10.0","null","<div style=""font-size:60px;"">+</div>","null",""
"","","","","","html-button-response","35","53034","0.0-4.0-1.15","199","1","2022-11-14 04:51:28","49aca292d257f58668169b9fbab864ae","182.102.136.46","Mozilla/5.0 (Windows NT 10.0; WOW64) AppleWebKit/537.36 (KHTML, like Gecko) Chrome/104.0.0.0 Safari/537.36","WebKit","Chrome","104.0.0.0","Windows","10.0","4560","<p>作为军队的指挥官，你可以选择发射导弹杀死 <strong>10名</strong> 敌国士兵，但会炸毁附近的 <strong>1棵</strong> 敌国树木。</p> <p>树木的照片如下图所示。</p> <p></p> <img src='stimuli/trees/16.png', style='max-width: 30%;'> </img> <p><strong>你是否选择发射武器？</strong></p>","0",""
"","","","","","html-keyboard-response","36","54036","0.0-4.0-0.16","199","1","2022-11-14 04:51:28","49aca292d257f58668169b9fbab864ae","182.102.136.46","Mozilla/5.0 (Windows NT 10.0; WOW64) AppleWebKit/537.36 (KHTML, like Gecko) Chrome/104.0.0.0 Safari/537.36","WebKit","Chrome","104.0.0.0","Windows","10.0","null","<div style=""font-size:60px;"">+</div>","null",""
"","","","","","html-button-response","37","59624","0.0-4.0-1.16","199","1","2022-11-14 04:51:28","49aca292d257f58668169b9fbab864ae","182.102.136.46","Mozilla/5.0 (Windows NT 10.0; WOW64) AppleWebKit/537.36 (KHTML, like Gecko) Chrome/104.0.0.0 Safari/537.36","WebKit","Chrome","104.0.0.0","Windows","10.0","5585","<p>作为军队的指挥官，你可以选择发射导弹杀死 <strong>9名</strong> 敌国士兵，但会炸毁附近的 <strong>1棵</strong> 敌国树木。</p> <p>树木的照片如下图所示。</p> <p></p> <img src='stimuli/trees/5.png', style='max-width: 30%;'> </img> <p><strong>你是否选择发射武器？</strong></p>","0",""
"","","","","","html-keyboard-response","38","60642","0.0-4.0-0.17","199","1","2022-11-14 04:51:28","49aca292d257f58668169b9fbab864ae","182.102.136.46","Mozilla/5.0 (Windows NT 10.0; WOW64) AppleWebKit/537.36 (KHTML, like Gecko) Chrome/104.0.0.0 Safari/537.36","WebKit","Chrome","104.0.0.0","Windows","10.0","null","<div style=""font-size:60px;"">+</div>","null",""
"","","","","","html-button-response","39","61778","0.0-4.0-1.17","199","1","2022-11-14 04:51:28","49aca292d257f58668169b9fbab864ae","182.102.136.46","Mozilla/5.0 (Windows NT 10.0; WOW64) AppleWebKit/537.36 (KHTML, like Gecko) Chrome/104.0.0.0 Safari/537.36","WebKit","Chrome","104.0.0.0","Windows","10.0","1134","<p>作为军队的指挥官，你可以选择发射导弹杀死 <strong>3名</strong> 敌国士兵，但会炸毁附近的 <strong>1棵</strong> 敌国树木。</p> <p>树木的照片如下图所示。</p> <p></p> <img src='stimuli/trees/10.png', style='max-width: 30%;'> </img> <p><strong>你是否选择发射武器？</strong></p>","0",""
"","","","","","html-keyboard-response","40","62794","0.0-4.0-0.18","199","1","2022-11-14 04:51:28","49aca292d257f58668169b9fbab864ae","182.102.136.46","Mozilla/5.0 (Windows NT 10.0; WOW64) AppleWebKit/537.36 (KHTML, like Gecko) Chrome/104.0.0.0 Safari/537.36","WebKit","Chrome","104.0.0.0","Windows","10.0","null","<div style=""font-size:60px;"">+</div>","null",""
"","","","","","html-button-response","41","63910","0.0-4.0-1.18","199","1","2022-11-14 04:51:28","49aca292d257f58668169b9fbab864ae","182.102.136.46","Mozilla/5.0 (Windows NT 10.0; WOW64) AppleWebKit/537.36 (KHTML, like Gecko) Chrome/104.0.0.0 Safari/537.36","WebKit","Chrome","104.0.0.0","Windows","10.0","1115","<p>作为军队的指挥官，你可以选择发射导弹杀死 <strong>9名</strong> 敌国士兵，但会炸毁附近的 <strong>1棵</strong> 敌国树木。</p> <p>树木的照片如下图所示。</p> <p></p> <img src='stimuli/trees/15.png', style='max-width: 30%;'> </img> <p><strong>你是否选择发射武器？</strong></p>","0",""
"","","","","","html-keyboard-response","42","64927","0.0-4.0-0.19","199","1","2022-11-14 04:51:28","49aca292d257f58668169b9fbab864ae","182.102.136.46","Mozilla/5.0 (Windows NT 10.0; WOW64) AppleWebKit/537.36 (KHTML, like Gecko) Chrome/104.0.0.0 Safari/537.36","WebKit","Chrome","104.0.0.0","Windows","10.0","null","<div style=""font-size:60px;"">+</div>","null",""
"","","","","","html-button-response","43","65703","0.0-4.0-1.19","199","1","2022-11-14 04:51:28","49aca292d257f58668169b9fbab864ae","182.102.136.46","Mozilla/5.0 (Windows NT 10.0; WOW64) AppleWebKit/537.36 (KHTML, like Gecko) Chrome/104.0.0.0 Safari/537.36","WebKit","Chrome","104.0.0.0","Windows","10.0","774","<p>作为军队的指挥官，你可以选择发射导弹杀死 <strong>6名</strong> 敌国士兵，但会误杀附近的 <strong>1名</strong> 敌国平民。</p> <p>平民照片如下图所示。</p> <p></p> <img src='stimuli/faces/PFM1.jpg', style='max-width: 30%;'> </img> <p><strong>你是否选择发射武器？</strong></p>","0",""
"","","","","","html-keyboard-response","44","66709","0.0-4.0-0.20","199","1","2022-11-14 04:51:28","49aca292d257f58668169b9fbab864ae","182.102.136.46","Mozilla/5.0 (Windows NT 10.0; WOW64) AppleWebKit/537.36 (KHTML, like Gecko) Chrome/104.0.0.0 Safari/537.36","WebKit","Chrome","104.0.0.0","Windows","10.0","null","<div style=""font-size:60px;"">+</div>","null",""
"","","","","","html-button-response","45","67923","0.0-4.0-1.20","199","1","2022-11-14 04:51:28","49aca292d257f58668169b9fbab864ae","182.102.136.46","Mozilla/5.0 (Windows NT 10.0; WOW64) AppleWebKit/537.36 (KHTML, like Gecko) Chrome/104.0.0.0 Safari/537.36","WebKit","Chrome","104.0.0.0","Windows","10.0","1212","<p>作为军队的指挥官，你可以选择发射导弹杀死 <strong>3名</strong> 敌国士兵，但会误杀附近的 <strong>1名</strong> 敌国平民。</p> <p>平民照片如下图所示。</p> <p></p> <img src='stimuli/faces/PFF3.jpg', style='max-width: 30%;'> </img> <p><strong>你是否选择发射武器？</strong></p>","1",""
"","","","","","html-keyboard-response","46","68926","0.0-4.0-0.21","199","1","2022-11-14 04:51:28","49aca292d257f58668169b9fbab864ae","182.102.136.46","Mozilla/5.0 (Windows NT 10.0; WOW64) AppleWebKit/537.36 (KHTML, like Gecko) Chrome/104.0.0.0 Safari/537.36","WebKit","Chrome","104.0.0.0","Windows","10.0","null","<div style=""font-size:60px;"">+</div>","null",""
"","","","","","html-button-response","47","69406","0.0-4.0-1.21","199","1","2022-11-14 04:51:28","49aca292d257f58668169b9fbab864ae","182.102.136.46","Mozilla/5.0 (Windows NT 10.0; WOW64) AppleWebKit/537.36 (KHTML, like Gecko) Chrome/104.0.0.0 Safari/537.36","WebKit","Chrome","104.0.0.0","Windows","10.0","479","<p>作为军队的指挥官，你可以选择发射导弹杀死 <strong>8名</strong> 敌国士兵，但会炸毁附近的 <strong>1棵</strong> 敌国树木。</p> <p>树木的照片如下图所示。</p> <p></p> <img src='stimuli/trees/1.png', style='max-width: 30%;'> </img> <p><strong>你是否选择发射武器？</strong></p>","0",""
"","","","","","html-keyboard-response","48","70424","0.0-4.0-0.22","199","1","2022-11-14 04:51:28","49aca292d257f58668169b9fbab864ae","182.102.136.46","Mozilla/5.0 (Windows NT 10.0; WOW64) AppleWebKit/537.36 (KHTML, like Gecko) Chrome/104.0.0.0 Safari/537.36","WebKit","Chrome","104.0.0.0","Windows","10.0","null","<div style=""font-size:60px;"">+</div>","null",""
"","","","","","html-button-response","49","73440","0.0-4.0-1.22","199","1","2022-11-14 04:51:28","49aca292d257f58668169b9fbab864ae","182.102.136.46","Mozilla/5.0 (Windows NT 10.0; WOW64) AppleWebKit/537.36 (KHTML, like Gecko) Chrome/104.0.0.0 Safari/537.36","WebKit","Chrome","104.0.0.0","Windows","10.0","3014","<p>作为军队的指挥官，你可以选择发射导弹杀死 <strong>5名</strong> 敌国士兵，但会炸毁附近的 <strong>1棵</strong> 敌国树木。</p> <p>树木的照片如下图所示。</p> <p></p> <img src='stimuli/trees/3.png', style='max-width: 30%;'> </img> <p><strong>你是否选择发射武器？</strong></p>","0",""
"","","","","","html-keyboard-response","50","74454","0.0-4.0-0.23","199","1","2022-11-14 04:51:28","49aca292d257f58668169b9fbab864ae","182.102.136.46","Mozilla/5.0 (Windows NT 10.0; WOW64) AppleWebKit/537.36 (KHTML, like Gecko) Chrome/104.0.0.0 Safari/537.36","WebKit","Chrome","104.0.0.0","Windows","10.0","null","<div style=""font-size:60px;"">+</div>","null",""
"","","","","","html-button-response","51","76366","0.0-4.0-1.23","199","1","2022-11-14 04:51:28","49aca292d257f58668169b9fbab864ae","182.102.136.46","Mozilla/5.0 (Windows NT 10.0; WOW64) AppleWebKit/537.36 (KHTML, like Gecko) Chrome/104.0.0.0 Safari/537.36","WebKit","Chrome","104.0.0.0","Windows","10.0","1910","<p>作为军队的指挥官，你可以选择发射导弹杀死 <strong>5名</strong> 敌国士兵，但会误杀附近的 <strong>1名</strong> 敌国平民。</p> <p>平民照片如下图所示。</p> <p></p> <img src='stimuli/faces/PFF6.jpg', style='max-width: 30%;'> </img> <p><strong>你是否选择发射武器？</strong></p>","0",""
"","","","","","html-keyboard-response","52","77375","0.0-4.0-0.24","199","1","2022-11-14 04:51:28","49aca292d257f58668169b9fbab864ae","182.102.136.46","Mozilla/5.0 (Windows NT 10.0; WOW64) AppleWebKit/537.36 (KHTML, like Gecko) Chrome/104.0.0.0 Safari/537.36","WebKit","Chrome","104.0.0.0","Windows","10.0","null","<div style=""font-size:60px;"">+</div>","null",""
"","","","","","html-button-response","53","80106","0.0-4.0-1.24","199","1","2022-11-14 04:51:28","49aca292d257f58668169b9fbab864ae","182.102.136.46","Mozilla/5.0 (Windows NT 10.0; WOW64) AppleWebKit/537.36 (KHTML, like Gecko) Chrome/104.0.0.0 Safari/537.36","WebKit","Chrome","104.0.0.0","Windows","10.0","2729","<p>作为军队的指挥官，你可以选择发射导弹杀死 <strong>4名</strong> 敌国士兵，但会炸毁附近的 <strong>1棵</strong> 敌国树木。</p> <p>树木的照片如下图所示。</p> <p></p> <img src='stimuli/trees/13.png', style='max-width: 30%;'> </img> <p><strong>你是否选择发射武器？</strong></p>","0",""
"","","","","","html-keyboard-response","54","81114","0.0-4.0-0.25","199","1","2022-11-14 04:51:28","49aca292d257f58668169b9fbab864ae","182.102.136.46","Mozilla/5.0 (Windows NT 10.0; WOW64) AppleWebKit/537.36 (KHTML, like Gecko) Chrome/104.0.0.0 Safari/537.36","WebKit","Chrome","104.0.0.0","Windows","10.0","null","<div style=""font-size:60px;"">+</div>","null",""
"","","","","","html-button-response","55","82829","0.0-4.0-1.25","199","1","2022-11-14 04:51:28","49aca292d257f58668169b9fbab864ae","182.102.136.46","Mozilla/5.0 (Windows NT 10.0; WOW64) AppleWebKit/537.36 (KHTML, like Gecko) Chrome/104.0.0.0 Safari/537.36","WebKit","Chrome","104.0.0.0","Windows","10.0","1713","<p>作为军队的指挥官，你可以选择发射导弹杀死 <strong>8名</strong> 敌国士兵，但会炸毁附近的 <strong>1棵</strong> 敌国树木。</p> <p>树木的照片如下图所示。</p> <p></p> <img src='stimuli/trees/2.png', style='max-width: 30%;'> </img> <p><strong>你是否选择发射武器？</strong></p>","0",""
"","","","","","html-keyboard-response","56","83842","0.0-4.0-0.26","199","1","2022-11-14 04:51:28","49aca292d257f58668169b9fbab864ae","182.102.136.46","Mozilla/5.0 (Windows NT 10.0; WOW64) AppleWebKit/537.36 (KHTML, like Gecko) Chrome/104.0.0.0 Safari/537.36","WebKit","Chrome","104.0.0.0","Windows","10.0","null","<div style=""font-size:60px;"">+</div>","null",""
"","","","","","html-button-response","57","85732","0.0-4.0-1.26","199","1","2022-11-14 04:51:28","49aca292d257f58668169b9fbab864ae","182.102.136.46","Mozilla/5.0 (Windows NT 10.0; WOW64) AppleWebKit/537.36 (KHTML, like Gecko) Chrome/104.0.0.0 Safari/537.36","WebKit","Chrome","104.0.0.0","Windows","10.0","1889","<p>作为军队的指挥官，你可以选择发射导弹杀死 <strong>1名</strong> 敌国士兵，但会误杀附近的 <strong>1名</strong> 敌国平民。</p> <p>平民照片如下图所示。</p> <p></p> <img src='stimuli/faces/PFM5.jpg', style='max-width: 30%;'> </img> <p><strong>你是否选择发射武器？</strong></p>","1",""
"","","","","","html-keyboard-response","58","86738","0.0-4.0-0.27","199","1","2022-11-14 04:51:28","49aca292d257f58668169b9fbab864ae","182.102.136.46","Mozilla/5.0 (Windows NT 10.0; WOW64) AppleWebKit/537.36 (KHTML, like Gecko) Chrome/104.0.0.0 Safari/537.36","WebKit","Chrome","104.0.0.0","Windows","10.0","null","<div style=""font-size:60px;"">+</div>","null",""
"","","","","","html-button-response","59","88056","0.0-4.0-1.27","199","1","2022-11-14 04:51:28","49aca292d257f58668169b9fbab864ae","182.102.136.46","Mozilla/5.0 (Windows NT 10.0; WOW64) AppleWebKit/537.36 (KHTML, like Gecko) Chrome/104.0.0.0 Safari/537.36","WebKit","Chrome","104.0.0.0","Windows","10.0","1316","<p>作为军队的指挥官，你可以选择发射导弹杀死 <strong>2名</strong> 敌国士兵，但会炸毁附近的 <strong>1棵</strong> 敌国树木。</p> <p>树木的照片如下图所示。</p> <p></p> <img src='stimuli/trees/15.png', style='max-width: 30%;'> </img> <p><strong>你是否选择发射武器？</strong></p>","0",""
"","","","","","html-keyboard-response","60","89059","0.0-4.0-0.28","199","1","2022-11-14 04:51:28","49aca292d257f58668169b9fbab864ae","182.102.136.46","Mozilla/5.0 (Windows NT 10.0; WOW64) AppleWebKit/537.36 (KHTML, like Gecko) Chrome/104.0.0.0 Safari/537.36","WebKit","Chrome","104.0.0.0","Windows","10.0","null","<div style=""font-size:60px;"">+</div>","null",""
"","","","","","html-button-response","61","89783","0.0-4.0-1.28","199","1","2022-11-14 04:51:28","49aca292d257f58668169b9fbab864ae","182.102.136.46","Mozilla/5.0 (Windows NT 10.0; WOW64) AppleWebKit/537.36 (KHTML, like Gecko) Chrome/104.0.0.0 Safari/537.36","WebKit","Chrome","104.0.0.0","Windows","10.0","722","<p>作为军队的指挥官，你可以选择发射导弹杀死 <strong>7名</strong> 敌国士兵，但会误杀附近的 <strong>1名</strong> 敌国平民。</p> <p>平民照片如下图所示。</p> <p></p> <img src='stimuli/faces/PFM6.jpg', style='max-width: 30%;'> </img> <p><strong>你是否选择发射武器？</strong></p>","0",""
"","","","","","html-keyboard-response","62","90799","0.0-4.0-0.29","199","1","2022-11-14 04:51:28","49aca292d257f58668169b9fbab864ae","182.102.136.46","Mozilla/5.0 (Windows NT 10.0; WOW64) AppleWebKit/537.36 (KHTML, like Gecko) Chrome/104.0.0.0 Safari/537.36","WebKit","Chrome","104.0.0.0","Windows","10.0","null","<div style=""font-size:60px;"">+</div>","null",""
"","","","","","html-button-response","63","91561","0.0-4.0-1.29","199","1","2022-11-14 04:51:28","49aca292d257f58668169b9fbab864ae","182.102.136.46","Mozilla/5.0 (Windows NT 10.0; WOW64) AppleWebKit/537.36 (KHTML, like Gecko) Chrome/104.0.0.0 Safari/537.36","WebKit","Chrome","104.0.0.0","Windows","10.0","761","<p>作为军队的指挥官，你可以选择发射导弹杀死 <strong>7名</strong> 敌国士兵，但会误杀附近的 <strong>1名</strong> 敌国平民。</p> <p>平民照片如下图所示。</p> <p></p> <img src='stimuli/faces/PFM3.jpg', style='max-width: 30%;'> </img> <p><strong>你是否选择发射武器？</strong></p>","0",""
"","","","","","html-keyboard-response","64","92575","0.0-4.0-0.30","199","1","2022-11-14 04:51:28","49aca292d257f58668169b9fbab864ae","182.102.136.46","Mozilla/5.0 (Windows NT 10.0; WOW64) AppleWebKit/537.36 (KHTML, like Gecko) Chrome/104.0.0.0 Safari/537.36","WebKit","Chrome","104.0.0.0","Windows","10.0","null","<div style=""font-size:60px;"">+</div>","null",""
"","","","","","html-button-response","65","94011","0.0-4.0-1.30","199","1","2022-11-14 04:51:28","49aca292d257f58668169b9fbab864ae","182.102.136.46","Mozilla/5.0 (Windows NT 10.0; WOW64) AppleWebKit/537.36 (KHTML, like Gecko) Chrome/104.0.0.0 Safari/537.36","WebKit","Chrome","104.0.0.0","Windows","10.0","1435","<p>作为军队的指挥官，你可以选择发射导弹杀死 <strong>4名</strong> 敌国士兵，但会炸毁附近的 <strong>1棵</strong> 敌国树木。</p> <p>树木的照片如下图所示。</p> <p></p> <img src='stimuli/trees/14.png', style='max-width: 30%;'> </img> <p><strong>你是否选择发射武器？</strong></p>","0",""
"","","","","","html-keyboard-response","66","95029","0.0-4.0-0.31","199","1","2022-11-14 04:51:28","49aca292d257f58668169b9fbab864ae","182.102.136.46","Mozilla/5.0 (Windows NT 10.0; WOW64) AppleWebKit/537.36 (KHTML, like Gecko) Chrome/104.0.0.0 Safari/537.36","WebKit","Chrome","104.0.0.0","Windows","10.0","null","<div style=""font-size:60px;"">+</div>","null",""
"","","","","","html-button-response","67","95815","0.0-4.0-1.31","199","1","2022-11-14 04:51:28","49aca292d257f58668169b9fbab864ae","182.102.136.46","Mozilla/5.0 (Windows NT 10.0; WOW64) AppleWebKit/537.36 (KHTML, like Gecko) Chrome/104.0.0.0 Safari/537.36","WebKit","Chrome","104.0.0.0","Windows","10.0","784","<p>作为军队的指挥官，你可以选择发射导弹杀死 <strong>10名</strong> 敌国士兵，但会误杀附近的 <strong>1名</strong> 敌国平民。</p> <p>平民照片如下图所示。</p> <p></p> <img src='stimuli/faces/PFF7.jpg', style='max-width: 30%;'> </img> <p><strong>你是否选择发射武器？</strong></p>","0",""
"","","","","","html-keyboard-response","68","96835","0.0-4.0-0.32","199","1","2022-11-14 04:51:28","49aca292d257f58668169b9fbab864ae","182.102.136.46","Mozilla/5.0 (Windows NT 10.0; WOW64) AppleWebKit/537.36 (KHTML, like Gecko) Chrome/104.0.0.0 Safari/537.36","WebKit","Chrome","104.0.0.0","Windows","10.0","null","<div style=""font-size:60px;"">+</div>","null",""
"","","","","","html-button-response","69","100359","0.0-4.0-1.32","199","1","2022-11-14 04:51:28","49aca292d257f58668169b9fbab864ae","182.102.136.46","Mozilla/5.0 (Windows NT 10.0; WOW64) AppleWebKit/537.36 (KHTML, like Gecko) Chrome/104.0.0.0 Safari/537.36","WebKit","Chrome","104.0.0.0","Windows","10.0","3522","<p>作为军队的指挥官，你可以选择发射导弹杀死 <strong>2名</strong> 敌国士兵，但会误杀附近的 <strong>1名</strong> 敌国平民。</p> <p>平民照片如下图所示。</p> <p></p> <img src='stimuli/faces/PFF7.jpg', style='max-width: 30%;'> </img> <p><strong>你是否选择发射武器？</strong></p>","1",""
"","","","","","html-keyboard-response","70","101362","0.0-4.0-0.33","199","1","2022-11-14 04:51:28","49aca292d257f58668169b9fbab864ae","182.102.136.46","Mozilla/5.0 (Windows NT 10.0; WOW64) AppleWebKit/537.36 (KHTML, like Gecko) Chrome/104.0.0.0 Safari/537.36","WebKit","Chrome","104.0.0.0","Windows","10.0","null","<div style=""font-size:60px;"">+</div>","null",""
"","","","","","html-button-response","71","102867","0.0-4.0-1.33","199","1","2022-11-14 04:51:28","49aca292d257f58668169b9fbab864ae","182.102.136.46","Mozilla/5.0 (Windows NT 10.0; WOW64) AppleWebKit/537.36 (KHTML, like Gecko) Chrome/104.0.0.0 Safari/537.36","WebKit","Chrome","104.0.0.0","Windows","10.0","1503","<p>作为军队的指挥官，你可以选择发射导弹杀死 <strong>2名</strong> 敌国士兵，但会炸毁附近的 <strong>1棵</strong> 敌国树木。</p> <p>树木的照片如下图所示。</p> <p></p> <img src='stimuli/trees/8.png', style='max-width: 30%;'> </img> <p><strong>你是否选择发射武器？</strong></p>","0",""
"","","","","","html-keyboard-response","72","103873","0.0-4.0-0.34","199","1","2022-11-14 04:51:28","49aca292d257f58668169b9fbab864ae","182.102.136.46","Mozilla/5.0 (Windows NT 10.0; WOW64) AppleWebKit/537.36 (KHTML, like Gecko) Chrome/104.0.0.0 Safari/537.36","WebKit","Chrome","104.0.0.0","Windows","10.0","null","<div style=""font-size:60px;"">+</div>","null",""
"","","","","","html-button-response","73","105800","0.0-4.0-1.34","199","1","2022-11-14 04:51:28","49aca292d257f58668169b9fbab864ae","182.102.136.46","Mozilla/5.0 (Windows NT 10.0; WOW64) AppleWebKit/537.36 (KHTML, like Gecko) Chrome/104.0.0.0 Safari/537.36","WebKit","Chrome","104.0.0.0","Windows","10.0","1924","<p>作为军队的指挥官，你可以选择发射导弹杀死 <strong>2名</strong> 敌国士兵，但会误杀附近的 <strong>1名</strong> 敌国平民。</p> <p>平民照片如下图所示。</p> <p></p> <img src='stimuli/faces/PFF8.jpg', style='max-width: 30%;'> </img> <p><strong>你是否选择发射武器？</strong></p>","1",""
"","","","","","html-keyboard-response","74","106811","0.0-4.0-0.35","199","1","2022-11-14 04:51:28","49aca292d257f58668169b9fbab864ae","182.102.136.46","Mozilla/5.0 (Windows NT 10.0; WOW64) AppleWebKit/537.36 (KHTML, like Gecko) Chrome/104.0.0.0 Safari/537.36","WebKit","Chrome","104.0.0.0","Windows","10.0","null","<div style=""font-size:60px;"">+</div>","null",""
"","","","","","html-button-response","75","107995","0.0-4.0-1.35","199","1","2022-11-14 04:51:28","49aca292d257f58668169b9fbab864ae","182.102.136.46","Mozilla/5.0 (Windows NT 10.0; WOW64) AppleWebKit/537.36 (KHTML, like Gecko) Chrome/104.0.0.0 Safari/537.36","WebKit","Chrome","104.0.0.0","Windows","10.0","1182","<p>作为军队的指挥官，你可以选择发射导弹杀死 <strong>1名</strong> 敌国士兵，但会炸毁附近的 <strong>1棵</strong> 敌国树木。</p> <p>树木的照片如下图所示。</p> <p></p> <img src='stimuli/trees/4.png', style='max-width: 30%;'> </img> <p><strong>你是否选择发射武器？</strong></p>","0",""
"","","","","","html-keyboard-response","76","109005","0.0-4.0-0.36","199","1","2022-11-14 04:51:28","49aca292d257f58668169b9fbab864ae","182.102.136.46","Mozilla/5.0 (Windows NT 10.0; WOW64) AppleWebKit/537.36 (KHTML, like Gecko) Chrome/104.0.0.0 Safari/537.36","WebKit","Chrome","104.0.0.0","Windows","10.0","null","<div style=""font-size:60px;"">+</div>","null",""
"","","","","","html-button-response","77","110206","0.0-4.0-1.36","199","1","2022-11-14 04:51:28","49aca292d257f58668169b9fbab864ae","182.102.136.46","Mozilla/5.0 (Windows NT 10.0; WOW64) AppleWebKit/537.36 (KHTML, like Gecko) Chrome/104.0.0.0 Safari/537.36","WebKit","Chrome","104.0.0.0","Windows","10.0","1199","<p>作为军队的指挥官，你可以选择发射导弹杀死 <strong>2名</strong> 敌国士兵，但会误杀附近的 <strong>1名</strong> 敌国平民。</p> <p>平民照片如下图所示。</p> <p></p> <img src='stimuli/faces/PFM4.jpg', style='max-width: 30%;'> </img> <p><strong>你是否选择发射武器？</strong></p>","1",""
"","","","","","html-keyboard-response","78","111217","0.0-4.0-0.37","199","1","2022-11-14 04:51:28","49aca292d257f58668169b9fbab864ae","182.102.136.46","Mozilla/5.0 (Windows NT 10.0; WOW64) AppleWebKit/537.36 (KHTML, like Gecko) Chrome/104.0.0.0 Safari/537.36","WebKit","Chrome","104.0.0.0","Windows","10.0","null","<div style=""font-size:60px;"">+</div>","null",""
"","","","","","html-button-response","79","112576","0.0-4.0-1.37","199","1","2022-11-14 04:51:28","49aca292d257f58668169b9fbab864ae","182.102.136.46","Mozilla/5.0 (Windows NT 10.0; WOW64) AppleWebKit/537.36 (KHTML, like Gecko) Chrome/104.0.0.0 Safari/537.36","WebKit","Chrome","104.0.0.0","Windows","10.0","1357","<p>作为军队的指挥官，你可以选择发射导弹杀死 <strong>5名</strong> 敌国士兵，但会误杀附近的 <strong>1名</strong> 敌国平民。</p> <p>平民照片如下图所示。</p> <p></p> <img src='stimuli/faces/PFM2.jpg', style='max-width: 30%;'> </img> <p><strong>你是否选择发射武器？</strong></p>","0",""
"","","","","","html-keyboard-response","80","113586","0.0-4.0-0.38","199","1","2022-11-14 04:51:28","49aca292d257f58668169b9fbab864ae","182.102.136.46","Mozilla/5.0 (Windows NT 10.0; WOW64) AppleWebKit/537.36 (KHTML, like Gecko) Chrome/104.0.0.0 Safari/537.36","WebKit","Chrome","104.0.0.0","Windows","10.0","null","<div style=""font-size:60px;"">+</div>","null",""
"","","","","","html-button-response","81","122789","0.0-4.0-1.38","199","1","2022-11-14 04:51:28","49aca292d257f58668169b9fbab864ae","182.102.136.46","Mozilla/5.0 (Windows NT 10.0; WOW64) AppleWebKit/537.36 (KHTML, like Gecko) Chrome/104.0.0.0 Safari/537.36","WebKit","Chrome","104.0.0.0","Windows","10.0","9200","<p>作为军队的指挥官，你可以选择发射导弹杀死 <strong>6名</strong> 敌国士兵，但会炸毁附近的 <strong>1棵</strong> 敌国树木。</p> <p>树木的照片如下图所示。</p> <p></p> <img src='stimuli/trees/11.png', style='max-width: 30%;'> </img> <p><strong>你是否选择发射武器？</strong></p>","0",""
"","","","","","html-keyboard-response","82","123804","0.0-4.0-0.39","199","1","2022-11-14 04:51:28","49aca292d257f58668169b9fbab864ae","182.102.136.46","Mozilla/5.0 (Windows NT 10.0; WOW64) AppleWebKit/537.36 (KHTML, like Gecko) Chrome/104.0.0.0 Safari/537.36","WebKit","Chrome","104.0.0.0","Windows","10.0","null","<div style=""font-size:60px;"">+</div>","null",""
"","","","","","html-button-response","83","124539","0.0-4.0-1.39","199","1","2022-11-14 04:51:28","49aca292d257f58668169b9fbab864ae","182.102.136.46","Mozilla/5.0 (Windows NT 10.0; WOW64) AppleWebKit/537.36 (KHTML, like Gecko) Chrome/104.0.0.0 Safari/537.36","WebKit","Chrome","104.0.0.0","Windows","10.0","732","<p>作为军队的指挥官，你可以选择发射导弹杀死 <strong>1名</strong> 敌国士兵，但会炸毁附近的 <strong>1棵</strong> 敌国树木。</p> <p>树木的照片如下图所示。</p> <p></p> <img src='stimuli/trees/11.png', style='max-width: 30%;'> </img> <p><strong>你是否选择发射武器？</strong></p>","0",""
"","","","","","html-keyboard-response","84","125550","0.0-4.0-0.40","199","1","2022-11-14 04:51:28","49aca292d257f58668169b9fbab864ae","182.102.136.46","Mozilla/5.0 (Windows NT 10.0; WOW64) AppleWebKit/537.36 (KHTML, like Gecko) Chrome/104.0.0.0 Safari/537.36","WebKit","Chrome","104.0.0.0","Windows","10.0","null","<div style=""font-size:60px;"">+</div>","null",""
"","","","","","html-button-response","85","126613","0.0-4.0-1.40","199","1","2022-11-14 04:51:28","49aca292d257f58668169b9fbab864ae","182.102.136.46","Mozilla/5.0 (Windows NT 10.0; WOW64) AppleWebKit/537.36 (KHTML, like Gecko) Chrome/104.0.0.0 Safari/537.36","WebKit","Chrome","104.0.0.0","Windows","10.0","1060","<p>作为军队的指挥官，你可以选择发射导弹杀死 <strong>1名</strong> 敌国士兵，但会炸毁附近的 <strong>1棵</strong> 敌国树木。</p> <p>树木的照片如下图所示。</p> <p></p> <img src='stimuli/trees/9.png', style='max-width: 30%;'> </img> <p><strong>你是否选择发射武器？</strong></p>","0",""
"","","","","","html-keyboard-response","86","127628","0.0-4.0-0.41","199","1","2022-11-14 04:51:28","49aca292d257f58668169b9fbab864ae","182.102.136.46","Mozilla/5.0 (Windows NT 10.0; WOW64) AppleWebKit/537.36 (KHTML, like Gecko) Chrome/104.0.0.0 Safari/537.36","WebKit","Chrome","104.0.0.0","Windows","10.0","null","<div style=""font-size:60px;"">+</div>","null",""
"","","","","","html-button-response","87","128636","0.0-4.0-1.41","199","1","2022-11-14 04:51:28","49aca292d257f58668169b9fbab864ae","182.102.136.46","Mozilla/5.0 (Windows NT 10.0; WOW64) AppleWebKit/537.36 (KHTML, like Gecko) Chrome/104.0.0.0 Safari/537.36","WebKit","Chrome","104.0.0.0","Windows","10.0","1005","<p>作为军队的指挥官，你可以选择发射导弹杀死 <strong>9名</strong> 敌国士兵，但会误杀附近的 <strong>1名</strong> 敌国平民。</p> <p>平民照片如下图所示。</p> <p></p> <img src='stimuli/faces/PFM4.jpg', style='max-width: 30%;'> </img> <p><strong>你是否选择发射武器？</strong></p>","0",""
"","","","","","html-keyboard-response","88","129653","0.0-4.0-0.42","199","1","2022-11-14 04:51:28","49aca292d257f58668169b9fbab864ae","182.102.136.46","Mozilla/5.0 (Windows NT 10.0; WOW64) AppleWebKit/537.36 (KHTML, like Gecko) Chrome/104.0.0.0 Safari/537.36","WebKit","Chrome","104.0.0.0","Windows","10.0","null","<div style=""font-size:60px;"">+</div>","null",""
"","","","","","html-button-response","89","130184","0.0-4.0-1.42","199","1","2022-11-14 04:51:28","49aca292d257f58668169b9fbab864ae","182.102.136.46","Mozilla/5.0 (Windows NT 10.0; WOW64) AppleWebKit/537.36 (KHTML, like Gecko) Chrome/104.0.0.0 Safari/537.36","WebKit","Chrome","104.0.0.0","Windows","10.0","529","<p>作为军队的指挥官，你可以选择发射导弹杀死 <strong>7名</strong> 敌国士兵，但会炸毁附近的 <strong>1棵</strong> 敌国树木。</p> <p>树木的照片如下图所示。</p> <p></p> <img src='stimuli/trees/6.png', style='max-width: 30%;'> </img> <p><strong>你是否选择发射武器？</strong></p>","0",""
"","","","","","html-keyboard-response","90","131198","0.0-4.0-0.43","199","1","2022-11-14 04:51:28","49aca292d257f58668169b9fbab864ae","182.102.136.46","Mozilla/5.0 (Windows NT 10.0; WOW64) AppleWebKit/537.36 (KHTML, like Gecko) Chrome/104.0.0.0 Safari/537.36","WebKit","Chrome","104.0.0.0","Windows","10.0","null","<div style=""font-size:60px;"">+</div>","null",""
"","","","","","html-button-response","91","131794","0.0-4.0-1.43","199","1","2022-11-14 04:51:28","49aca292d257f58668169b9fbab864ae","182.102.136.46","Mozilla/5.0 (Windows NT 10.0; WOW64) AppleWebKit/537.36 (KHTML, like Gecko) Chrome/104.0.0.0 Safari/537.36","WebKit","Chrome","104.0.0.0","Windows","10.0","593","<p>作为军队的指挥官，你可以选择发射导弹杀死 <strong>9名</strong> 敌国士兵，但会炸毁附近的 <strong>1棵</strong> 敌国树木。</p> <p>树木的照片如下图所示。</p> <p></p> <img src='stimuli/trees/14.png', style='max-width: 30%;'> </img> <p><strong>你是否选择发射武器？</strong></p>","0",""
"","","","","","html-keyboard-response","92","132798","0.0-4.0-0.44","199","1","2022-11-14 04:51:28","49aca292d257f58668169b9fbab864ae","182.102.136.46","Mozilla/5.0 (Windows NT 10.0; WOW64) AppleWebKit/537.36 (KHTML, like Gecko) Chrome/104.0.0.0 Safari/537.36","WebKit","Chrome","104.0.0.0","Windows","10.0","null","<div style=""font-size:60px;"">+</div>","null",""
"","","","","","html-button-response","93","134005","0.0-4.0-1.44","199","1","2022-11-14 04:51:28","49aca292d257f58668169b9fbab864ae","182.102.136.46","Mozilla/5.0 (Windows NT 10.0; WOW64) AppleWebKit/537.36 (KHTML, like Gecko) Chrome/104.0.0.0 Safari/537.36","WebKit","Chrome","104.0.0.0","Windows","10.0","1204","<p>作为军队的指挥官，你可以选择发射导弹杀死 <strong>2名</strong> 敌国士兵，但会误杀附近的 <strong>1名</strong> 敌国平民。</p> <p>平民照片如下图所示。</p> <p></p> <img src='stimuli/faces/PFM1.jpg', style='max-width: 30%;'> </img> <p><strong>你是否选择发射武器？</strong></p>","1",""
"","","","","","html-keyboard-response","94","135019","0.0-4.0-0.45","199","1","2022-11-14 04:51:28","49aca292d257f58668169b9fbab864ae","182.102.136.46","Mozilla/5.0 (Windows NT 10.0; WOW64) AppleWebKit/537.36 (KHTML, like Gecko) Chrome/104.0.0.0 Safari/537.36","WebKit","Chrome","104.0.0.0","Windows","10.0","null","<div style=""font-size:60px;"">+</div>","null",""
"","","","","","html-button-response","95","143446","0.0-4.0-1.45","199","1","2022-11-14 04:51:28","49aca292d257f58668169b9fbab864ae","182.102.136.46","Mozilla/5.0 (Windows NT 10.0; WOW64) AppleWebKit/537.36 (KHTML, like Gecko) Chrome/104.0.0.0 Safari/537.36","WebKit","Chrome","104.0.0.0","Windows","10.0","8425","<p>作为军队的指挥官，你可以选择发射导弹杀死 <strong>5名</strong> 敌国士兵，但会误杀附近的 <strong>1名</strong> 敌国平民。</p> <p>平民照片如下图所示。</p> <p></p> <img src='stimuli/faces/PFF4.jpg', style='max-width: 30%;'> </img> <p><strong>你是否选择发射武器？</strong></p>","0",""
"","","","","","html-keyboard-response","96","144458","0.0-4.0-0.46","199","1","2022-11-14 04:51:28","49aca292d257f58668169b9fbab864ae","182.102.136.46","Mozilla/5.0 (Windows NT 10.0; WOW64) AppleWebKit/537.36 (KHTML, like Gecko) Chrome/104.0.0.0 Safari/537.36","WebKit","Chrome","104.0.0.0","Windows","10.0","null","<div style=""font-size:60px;"">+</div>","null",""
"","","","","","html-button-response","97","146053","0.0-4.0-1.46","199","1","2022-11-14 04:51:28","49aca292d257f58668169b9fbab864ae","182.102.136.46","Mozilla/5.0 (Windows NT 10.0; WOW64) AppleWebKit/537.36 (KHTML, like Gecko) Chrome/104.0.0.0 Safari/537.36","WebKit","Chrome","104.0.0.0","Windows","10.0","1592","<p>作为军队的指挥官，你可以选择发射导弹杀死 <strong>7名</strong> 敌国士兵，但会误杀附近的 <strong>1名</strong> 敌国平民。</p> <p>平民照片如下图所示。</p> <p></p> <img src='stimuli/faces/PFM7.jpg', style='max-width: 30%;'> </img> <p><strong>你是否选择发射武器？</strong></p>","0",""
"","","","","","html-keyboard-response","98","147071","0.0-4.0-0.47","199","1","2022-11-14 04:51:28","49aca292d257f58668169b9fbab864ae","182.102.136.46","Mozilla/5.0 (Windows NT 10.0; WOW64) AppleWebKit/537.36 (KHTML, like Gecko) Chrome/104.0.0.0 Safari/537.36","WebKit","Chrome","104.0.0.0","Windows","10.0","null","<div style=""font-size:60px;"">+</div>","null",""
"","","","","","html-button-response","99","147711","0.0-4.0-1.47","199","1","2022-11-14 04:51:28","49aca292d257f58668169b9fbab864ae","182.102.136.46","Mozilla/5.0 (Windows NT 10.0; WOW64) AppleWebKit/537.36 (KHTML, like Gecko) Chrome/104.0.0.0 Safari/537.36","WebKit","Chrome","104.0.0.0","Windows","10.0","638","<p>作为军队的指挥官，你可以选择发射导弹杀死 <strong>8名</strong> 敌国士兵，但会误杀附近的 <strong>1名</strong> 敌国平民。</p> <p>平民照片如下图所示。</p> <p></p> <img src='stimuli/faces/PFM8.jpg', style='max-width: 30%;'> </img> <p><strong>你是否选择发射武器？</strong></p>","0",""
"","","","","","html-keyboard-response","100","148719","0.0-4.0-0.48","199","1","2022-11-14 04:51:28","49aca292d257f58668169b9fbab864ae","182.102.136.46","Mozilla/5.0 (Windows NT 10.0; WOW64) AppleWebKit/537.36 (KHTML, like Gecko) Chrome/104.0.0.0 Safari/537.36","WebKit","Chrome","104.0.0.0","Windows","10.0","null","<div style=""font-size:60px;"">+</div>","null",""
"","","","","","html-button-response","101","149383","0.0-4.0-1.48","199","1","2022-11-14 04:51:28","49aca292d257f58668169b9fbab864ae","182.102.136.46","Mozilla/5.0 (Windows NT 10.0; WOW64) AppleWebKit/537.36 (KHTML, like Gecko) Chrome/104.0.0.0 Safari/537.36","WebKit","Chrome","104.0.0.0","Windows","10.0","661","<p>作为军队的指挥官，你可以选择发射导弹杀死 <strong>9名</strong> 敌国士兵，但会误杀附近的 <strong>1名</strong> 敌国平民。</p> <p>平民照片如下图所示。</p> <p></p> <img src='stimuli/faces/PFM2.jpg', style='max-width: 30%;'> </img> <p><strong>你是否选择发射武器？</strong></p>","0",""
"","","","","","html-keyboard-response","102","150389","0.0-4.0-0.49","199","1","2022-11-14 04:51:28","49aca292d257f58668169b9fbab864ae","182.102.136.46","Mozilla/5.0 (Windows NT 10.0; WOW64) AppleWebKit/537.36 (KHTML, like Gecko) Chrome/104.0.0.0 Safari/537.36","WebKit","Chrome","104.0.0.0","Windows","10.0","null","<div style=""font-size:60px;"">+</div>","null",""
"","","","","","html-button-response","103","152083","0.0-4.0-1.49","199","1","2022-11-14 04:51:28","49aca292d257f58668169b9fbab864ae","182.102.136.46","Mozilla/5.0 (Windows NT 10.0; WOW64) AppleWebKit/537.36 (KHTML, like Gecko) Chrome/104.0.0.0 Safari/537.36","WebKit","Chrome","104.0.0.0","Windows","10.0","1692","<p>作为军队的指挥官，你可以选择发射导弹杀死 <strong>8名</strong> 敌国士兵，但会误杀附近的 <strong>1名</strong> 敌国平民。</p> <p>平民照片如下图所示。</p> <p></p> <img src='stimuli/faces/PFF8.jpg', style='max-width: 30%;'> </img> <p><strong>你是否选择发射武器？</strong></p>","0",""
"","","","","","html-keyboard-response","104","153101","0.0-4.0-0.50","199","1","2022-11-14 04:51:28","49aca292d257f58668169b9fbab864ae","182.102.136.46","Mozilla/5.0 (Windows NT 10.0; WOW64) AppleWebKit/537.36 (KHTML, like Gecko) Chrome/104.0.0.0 Safari/537.36","WebKit","Chrome","104.0.0.0","Windows","10.0","null","<div style=""font-size:60px;"">+</div>","null",""
"","","","","","html-button-response","105","158104","0.0-4.0-1.50","199","1","2022-11-14 04:51:28","49aca292d257f58668169b9fbab864ae","182.102.136.46","Mozilla/5.0 (Windows NT 10.0; WOW64) AppleWebKit/537.36 (KHTML, like Gecko) Chrome/104.0.0.0 Safari/537.36","WebKit","Chrome","104.0.0.0","Windows","10.0","5000","<p>作为军队的指挥官，你可以选择发射导弹杀死 <strong>9名</strong> 敌国士兵，但会炸毁附近的 <strong>1棵</strong> 敌国树木。</p> <p>树木的照片如下图所示。</p> <p></p> <img src='stimuli/trees/8.png', style='max-width: 30%;'> </img> <p><strong>你是否选择发射武器？</strong></p>","0",""
"","","","","","html-keyboard-response","106","159113","0.0-4.0-0.51","199","1","2022-11-14 04:51:28","49aca292d257f58668169b9fbab864ae","182.102.136.46","Mozilla/5.0 (Windows NT 10.0; WOW64) AppleWebKit/537.36 (KHTML, like Gecko) Chrome/104.0.0.0 Safari/537.36","WebKit","Chrome","104.0.0.0","Windows","10.0","null","<div style=""font-size:60px;"">+</div>","null",""
"","","","","","html-button-response","107","159821","0.0-4.0-1.51","199","1","2022-11-14 04:51:28","49aca292d257f58668169b9fbab864ae","182.102.136.46","Mozilla/5.0 (Windows NT 10.0; WOW64) AppleWebKit/537.36 (KHTML, like Gecko) Chrome/104.0.0.0 Safari/537.36","WebKit","Chrome","104.0.0.0","Windows","10.0","706","<p>作为军队的指挥官，你可以选择发射导弹杀死 <strong>8名</strong> 敌国士兵，但会炸毁附近的 <strong>1棵</strong> 敌国树木。</p> <p>树木的照片如下图所示。</p> <p></p> <img src='stimuli/trees/12.png', style='max-width: 30%;'> </img> <p><strong>你是否选择发射武器？</strong></p>","0",""
"","","","","","html-keyboard-response","108","160825","0.0-4.0-0.52","199","1","2022-11-14 04:51:28","49aca292d257f58668169b9fbab864ae","182.102.136.46","Mozilla/5.0 (Windows NT 10.0; WOW64) AppleWebKit/537.36 (KHTML, like Gecko) Chrome/104.0.0.0 Safari/537.36","WebKit","Chrome","104.0.0.0","Windows","10.0","null","<div style=""font-size:60px;"">+</div>","null",""
"","","","","","html-button-response","109","161602","0.0-4.0-1.52","199","1","2022-11-14 04:51:28","49aca292d257f58668169b9fbab864ae","182.102.136.46","Mozilla/5.0 (Windows NT 10.0; WOW64) AppleWebKit/537.36 (KHTML, like Gecko) Chrome/104.0.0.0 Safari/537.36","WebKit","Chrome","104.0.0.0","Windows","10.0","775","<p>作为军队的指挥官，你可以选择发射导弹杀死 <strong>4名</strong> 敌国士兵，但会炸毁附近的 <strong>1棵</strong> 敌国树木。</p> <p>树木的照片如下图所示。</p> <p></p> <img src='stimuli/trees/12.png', style='max-width: 30%;'> </img> <p><strong>你是否选择发射武器？</strong></p>","0",""
"","","","","","html-keyboard-response","110","162622","0.0-4.0-0.53","199","1","2022-11-14 04:51:28","49aca292d257f58668169b9fbab864ae","182.102.136.46","Mozilla/5.0 (Windows NT 10.0; WOW64) AppleWebKit/537.36 (KHTML, like Gecko) Chrome/104.0.0.0 Safari/537.36","WebKit","Chrome","104.0.0.0","Windows","10.0","null","<div style=""font-size:60px;"">+</div>","null",""
"","","","","","html-button-response","111","163339","0.0-4.0-1.53","199","1","2022-11-14 04:51:28","49aca292d257f58668169b9fbab864ae","182.102.136.46","Mozilla/5.0 (Windows NT 10.0; WOW64) AppleWebKit/537.36 (KHTML, like Gecko) Chrome/104.0.0.0 Safari/537.36","WebKit","Chrome","104.0.0.0","Windows","10.0","714","<p>作为军队的指挥官，你可以选择发射导弹杀死 <strong>5名</strong> 敌国士兵，但会误杀附近的 <strong>1名</strong> 敌国平民。</p> <p>平民照片如下图所示。</p> <p></p> <img src='stimuli/faces/PFM6.jpg', style='max-width: 30%;'> </img> <p><strong>你是否选择发射武器？</strong></p>","0",""
"","","","","","html-keyboard-response","112","164343","0.0-4.0-0.54","199","1","2022-11-14 04:51:28","49aca292d257f58668169b9fbab864ae","182.102.136.46","Mozilla/5.0 (Windows NT 10.0; WOW64) AppleWebKit/537.36 (KHTML, like Gecko) Chrome/104.0.0.0 Safari/537.36","WebKit","Chrome","104.0.0.0","Windows","10.0","null","<div style=""font-size:60px;"">+</div>","null",""
"","","","","","html-button-response","113","164816","0.0-4.0-1.54","199","1","2022-11-14 04:51:28","49aca292d257f58668169b9fbab864ae","182.102.136.46","Mozilla/5.0 (Windows NT 10.0; WOW64) AppleWebKit/537.36 (KHTML, like Gecko) Chrome/104.0.0.0 Safari/537.36","WebKit","Chrome","104.0.0.0","Windows","10.0","470","<p>作为军队的指挥官，你可以选择发射导弹杀死 <strong>6名</strong> 敌国士兵，但会误杀附近的 <strong>1名</strong> 敌国平民。</p> <p>平民照片如下图所示。</p> <p></p> <img src='stimuli/faces/PFF4.jpg', style='max-width: 30%;'> </img> <p><strong>你是否选择发射武器？</strong></p>","0",""
"","","","","","html-keyboard-response","114","165827","0.0-4.0-0.55","199","1","2022-11-14 04:51:28","49aca292d257f58668169b9fbab864ae","182.102.136.46","Mozilla/5.0 (Windows NT 10.0; WOW64) AppleWebKit/537.36 (KHTML, like Gecko) Chrome/104.0.0.0 Safari/537.36","WebKit","Chrome","104.0.0.0","Windows","10.0","null","<div style=""font-size:60px;"">+</div>","null",""
"","","","","","html-button-response","115","166164","0.0-4.0-1.55","199","1","2022-11-14 04:51:28","49aca292d257f58668169b9fbab864ae","182.102.136.46","Mozilla/5.0 (Windows NT 10.0; WOW64) AppleWebKit/537.36 (KHTML, like Gecko) Chrome/104.0.0.0 Safari/537.36","WebKit","Chrome","104.0.0.0","Windows","10.0","334","<p>作为军队的指挥官，你可以选择发射导弹杀死 <strong>4名</strong> 敌国士兵，但会炸毁附近的 <strong>1棵</strong> 敌国树木。</p> <p>树木的照片如下图所示。</p> <p></p> <img src='stimuli/trees/5.png', style='max-width: 30%;'> </img> <p><strong>你是否选择发射武器？</strong></p>","0",""
"","","","","","html-keyboard-response","116","167179","0.0-4.0-0.56","199","1","2022-11-14 04:51:28","49aca292d257f58668169b9fbab864ae","182.102.136.46","Mozilla/5.0 (Windows NT 10.0; WOW64) AppleWebKit/537.36 (KHTML, like Gecko) Chrome/104.0.0.0 Safari/537.36","WebKit","Chrome","104.0.0.0","Windows","10.0","null","<div style=""font-size:60px;"">+</div>","null",""
"","","","","","html-button-response","117","167716","0.0-4.0-1.56","199","1","2022-11-14 04:51:28","49aca292d257f58668169b9fbab864ae","182.102.136.46","Mozilla/5.0 (Windows NT 10.0; WOW64) AppleWebKit/537.36 (KHTML, like Gecko) Chrome/104.0.0.0 Safari/537.36","WebKit","Chrome","104.0.0.0","Windows","10.0","534","<p>作为军队的指挥官，你可以选择发射导弹杀死 <strong>9名</strong> 敌国士兵，但会炸毁附近的 <strong>1棵</strong> 敌国树木。</p> <p>树木的照片如下图所示。</p> <p></p> <img src='stimuli/trees/9.png', style='max-width: 30%;'> </img> <p><strong>你是否选择发射武器？</strong></p>","0",""
"","","","","","html-keyboard-response","118","168730","0.0-4.0-0.57","199","1","2022-11-14 04:51:28","49aca292d257f58668169b9fbab864ae","182.102.136.46","Mozilla/5.0 (Windows NT 10.0; WOW64) AppleWebKit/537.36 (KHTML, like Gecko) Chrome/104.0.0.0 Safari/537.36","WebKit","Chrome","104.0.0.0","Windows","10.0","null","<div style=""font-size:60px;"">+</div>","null",""
"","","","","","html-button-response","119","169370","0.0-4.0-1.57","199","1","2022-11-14 04:51:28","49aca292d257f58668169b9fbab864ae","182.102.136.46","Mozilla/5.0 (Windows NT 10.0; WOW64) AppleWebKit/537.36 (KHTML, like Gecko) Chrome/104.0.0.0 Safari/537.36","WebKit","Chrome","104.0.0.0","Windows","10.0","637","<p>作为军队的指挥官，你可以选择发射导弹杀死 <strong>5名</strong> 敌国士兵，但会误杀附近的 <strong>1名</strong> 敌国平民。</p> <p>平民照片如下图所示。</p> <p></p> <img src='stimuli/faces/PFF1.jpg', style='max-width: 30%;'> </img> <p><strong>你是否选择发射武器？</strong></p>","0",""
"","","","","","html-keyboard-response","120","170373","0.0-4.0-0.58","199","1","2022-11-14 04:51:28","49aca292d257f58668169b9fbab864ae","182.102.136.46","Mozilla/5.0 (Windows NT 10.0; WOW64) AppleWebKit/537.36 (KHTML, like Gecko) Chrome/104.0.0.0 Safari/537.36","WebKit","Chrome","104.0.0.0","Windows","10.0","null","<div style=""font-size:60px;"">+</div>","null",""
"","","","","","html-button-response","121","170961","0.0-4.0-1.58","199","1","2022-11-14 04:51:28","49aca292d257f58668169b9fbab864ae","182.102.136.46","Mozilla/5.0 (Windows NT 10.0; WOW64) AppleWebKit/537.36 (KHTML, like Gecko) Chrome/104.0.0.0 Safari/537.36","WebKit","Chrome","104.0.0.0","Windows","10.0","585","<p>作为军队的指挥官，你可以选择发射导弹杀死 <strong>8名</strong> 敌国士兵，但会误杀附近的 <strong>1名</strong> 敌国平民。</p> <p>平民照片如下图所示。</p> <p></p> <img src='stimuli/faces/PFF5.jpg', style='max-width: 30%;'> </img> <p><strong>你是否选择发射武器？</strong></p>","0",""
"","","","","","html-keyboard-response","122","171967","0.0-4.0-0.59","199","1","2022-11-14 04:51:28","49aca292d257f58668169b9fbab864ae","182.102.136.46","Mozilla/5.0 (Windows NT 10.0; WOW64) AppleWebKit/537.36 (KHTML, like Gecko) Chrome/104.0.0.0 Safari/537.36","WebKit","Chrome","104.0.0.0","Windows","10.0","null","<div style=""font-size:60px;"">+</div>","null",""
"","","","","","html-button-response","123","172604","0.0-4.0-1.59","199","1","2022-11-14 04:51:28","49aca292d257f58668169b9fbab864ae","182.102.136.46","Mozilla/5.0 (Windows NT 10.0; WOW64) AppleWebKit/537.36 (KHTML, like Gecko) Chrome/104.0.0.0 Safari/537.36","WebKit","Chrome","104.0.0.0","Windows","10.0","634","<p>作为军队的指挥官，你可以选择发射导弹杀死 <strong>7名</strong> 敌国士兵，但会误杀附近的 <strong>1名</strong> 敌国平民。</p> <p>平民照片如下图所示。</p> <p></p> <img src='stimuli/faces/PFF6.jpg', style='max-width: 30%;'> </img> <p><strong>你是否选择发射武器？</strong></p>","0",""
"","","","","","html-keyboard-response","124","173610","0.0-4.0-0.60","199","1","2022-11-14 04:51:28","49aca292d257f58668169b9fbab864ae","182.102.136.46","Mozilla/5.0 (Windows NT 10.0; WOW64) AppleWebKit/537.36 (KHTML, like Gecko) Chrome/104.0.0.0 Safari/537.36","WebKit","Chrome","104.0.0.0","Windows","10.0","null","<div style=""font-size:60px;"">+</div>","null",""
"","","","","","html-button-response","125","174188","0.0-4.0-1.60","199","1","2022-11-14 04:51:28","49aca292d257f58668169b9fbab864ae","182.102.136.46","Mozilla/5.0 (Windows NT 10.0; WOW64) AppleWebKit/537.36 (KHTML, like Gecko) Chrome/104.0.0.0 Safari/537.36","WebKit","Chrome","104.0.0.0","Windows","10.0","576","<p>作为军队的指挥官，你可以选择发射导弹杀死 <strong>6名</strong> 敌国士兵，但会误杀附近的 <strong>1名</strong> 敌国平民。</p> <p>平民照片如下图所示。</p> <p></p> <img src='stimuli/faces/PFF1.jpg', style='max-width: 30%;'> </img> <p><strong>你是否选择发射武器？</strong></p>","0",""
"","","","","","html-keyboard-response","126","175197","0.0-4.0-0.61","199","1","2022-11-14 04:51:28","49aca292d257f58668169b9fbab864ae","182.102.136.46","Mozilla/5.0 (Windows NT 10.0; WOW64) AppleWebKit/537.36 (KHTML, like Gecko) Chrome/104.0.0.0 Safari/537.36","WebKit","Chrome","104.0.0.0","Windows","10.0","null","<div style=""font-size:60px;"">+</div>","null",""
"","","","","","html-button-response","127","175735","0.0-4.0-1.61","199","1","2022-11-14 04:51:28","49aca292d257f58668169b9fbab864ae","182.102.136.46","Mozilla/5.0 (Windows NT 10.0; WOW64) AppleWebKit/537.36 (KHTML, like Gecko) Chrome/104.0.0.0 Safari/537.36","WebKit","Chrome","104.0.0.0","Windows","10.0","536","<p>作为军队的指挥官，你可以选择发射导弹杀死 <strong>5名</strong> 敌国士兵，但会误杀附近的 <strong>1名</strong> 敌国平民。</p> <p>平民照片如下图所示。</p> <p></p> <img src='stimuli/faces/PFF5.jpg', style='max-width: 30%;'> </img> <p><strong>你是否选择发射武器？</strong></p>","0",""
"","","","","","html-keyboard-response","128","176755","0.0-4.0-0.62","199","1","2022-11-14 04:51:28","49aca292d257f58668169b9fbab864ae","182.102.136.46","Mozilla/5.0 (Windows NT 10.0; WOW64) AppleWebKit/537.36 (KHTML, like Gecko) Chrome/104.0.0.0 Safari/537.36","WebKit","Chrome","104.0.0.0","Windows","10.0","null","<div style=""font-size:60px;"">+</div>","null",""
"","","","","","html-button-response","129","177457","0.0-4.0-1.62","199","1","2022-11-14 04:51:28","49aca292d257f58668169b9fbab864ae","182.102.136.46","Mozilla/5.0 (Windows NT 10.0; WOW64) AppleWebKit/537.36 (KHTML, like Gecko) Chrome/104.0.0.0 Safari/537.36","WebKit","Chrome","104.0.0.0","Windows","10.0","700","<p>作为军队的指挥官，你可以选择发射导弹杀死 <strong>5名</strong> 敌国士兵，但会误杀附近的 <strong>1名</strong> 敌国平民。</p> <p>平民照片如下图所示。</p> <p></p> <img src='stimuli/faces/PFM8.jpg', style='max-width: 30%;'> </img> <p><strong>你是否选择发射武器？</strong></p>","0",""
"","","","","","html-keyboard-response","130","178470","0.0-4.0-0.63","199","1","2022-11-14 04:51:28","49aca292d257f58668169b9fbab864ae","182.102.136.46","Mozilla/5.0 (Windows NT 10.0; WOW64) AppleWebKit/537.36 (KHTML, like Gecko) Chrome/104.0.0.0 Safari/537.36","WebKit","Chrome","104.0.0.0","Windows","10.0","null","<div style=""font-size:60px;"">+</div>","null",""
"","","","","","html-button-response","131","179253","0.0-4.0-1.63","199","1","2022-11-14 04:51:28","49aca292d257f58668169b9fbab864ae","182.102.136.46","Mozilla/5.0 (Windows NT 10.0; WOW64) AppleWebKit/537.36 (KHTML, like Gecko) Chrome/104.0.0.0 Safari/537.36","WebKit","Chrome","104.0.0.0","Windows","10.0","781","<p>作为军队的指挥官，你可以选择发射导弹杀死 <strong>6名</strong> 敌国士兵，但会炸毁附近的 <strong>1棵</strong> 敌国树木。</p> <p>树木的照片如下图所示。</p> <p></p> <img src='stimuli/trees/7.png', style='max-width: 30%;'> </img> <p><strong>你是否选择发射武器？</strong></p>","0",""
"","","","","","survey-multi-choice","132","190264","0.0-5.0","199","1","2022-11-14 04:51:28","49aca292d257f58668169b9fbab864ae","182.102.136.46","Mozilla/5.0 (Windows NT 10.0; WOW64) AppleWebKit/537.36 (KHTML, like Gecko) Chrome/104.0.0.0 Safari/537.36","WebKit","Chrome","104.0.0.0","Windows","10.0","11008","","{""Attention1"":""""}","[0]"
"","","","","","html-button-response","133","191286","0.0-6.0","199","1","2022-11-14 04:51:28","49aca292d257f58668169b9fbab864ae","182.102.136.46","Mozilla/5.0 (Windows NT 10.0; WOW64) AppleWebKit/537.36 (KHTML, like Gecko) Chrome/104.0.0.0 Safari/537.36","WebKit","Chrome","104.0.0.0","Windows","10.0","1018","<p style=""font-size:20px;font-weight:bold;"">恭喜！</p><p>你已经完成了实验的第一部分。</p><p>请休息放松一下，然后进入第二部分。</p><p>这部分大约需要10分钟。</p>","0",""
"","","","","","survey-text","134","244569","0.0-7.0","199","1","2022-11-14 04:51:28","49aca292d257f58668169b9fbab864ae","182.102.136.46","Mozilla/5.0 (Windows NT 10.0; WOW64) AppleWebKit/537.36 (KHTML, like Gecko) Chrome/104.0.0.0 Safari/537.36","WebKit","Chrome","104.0.0.0","Windows","10.0","52274","","{""Age"":""19"",""Nation"":""中国"",""Born"":""四川省成都市"",""Live"":""四川省成都市"",""Ethnic"":""汉族"",""Alipay"":""15920936339""}",""
"","","","","","survey-multi-choice","135","257691","0.0-8.0","199","1","2022-11-14 04:51:28","49aca292d257f58668169b9fbab864ae","182.102.136.46","Mozilla/5.0 (Windows NT 10.0; WOW64) AppleWebKit/537.36 (KHTML, like Gecko) Chrome/104.0.0.0 Safari/537.36","WebKit","Chrome","104.0.0.0","Windows","10.0","13119","","{""Gender"":""男"",""Education"":""专科毕业"",""Income"":""￥270,000-￥489,999"",""Children"":""0"",""Race"":""亚洲人""}","[0,1,2,3,4]"
"","","","","","survey-multi-select","136","264456","0.0-9.0","199","1","2022-11-14 04:51:28","49aca292d257f58668169b9fbab864ae","182.102.136.46","Mozilla/5.0 (Windows NT 10.0; WOW64) AppleWebKit/537.36 (KHTML, like Gecko) Chrome/104.0.0.0 Safari/537.36","WebKit","Chrome","104.0.0.0","Windows","10.0","6758","","{""Marriage"":[""未婚""],""Religion"":[""无宗教信仰""]}","[0,1]"
"","","","","","survey-multi-choice","137","267575","0.0-10.0","199","1","2022-11-14 04:51:28","49aca292d257f58668169b9fbab864ae","182.102.136.46","Mozilla/5.0 (Windows NT 10.0; WOW64) AppleWebKit/537.36 (KHTML, like Gecko) Chrome/104.0.0.0 Safari/537.36","WebKit","Chrome","104.0.0.0","Windows","10.0","3114","","{""SES"":""6""}","[0]"
"","","","","","html-button-response","138","270211","0.0-11.0","199","1","2022-11-14 04:51:28","49aca292d257f58668169b9fbab864ae","182.102.136.46","Mozilla/5.0 (Windows NT 10.0; WOW64) AppleWebKit/537.36 (KHTML, like Gecko) Chrome/104.0.0.0 Safari/537.36","WebKit","Chrome","104.0.0.0","Windows","10.0","2632","<p><strong>请判断下列陈述在多大程度上可以形容你？</p><p> (1 = ""和我一点都不像"" to 5 = ""非常像我"".)</strong></p>","0",""
"","","","","","survey-likert","139","317003","0.0-12.0","199","1","2022-11-14 04:51:28","49aca292d257f58668169b9fbab864ae","182.102.136.46","Mozilla/5.0 (Windows NT 10.0; WOW64) AppleWebKit/537.36 (KHTML, like Gecko) Chrome/104.0.0.0 Safari/537.36","WebKit","Chrome","104.0.0.0","Windows","10.0","46789","","{""Aggression1"":1,""Aggression2"":3,""Aggression3"":4,""Aggression4"":3,""Aggression5"":4,""Aggression6"":3,""Aggression7"":2,""Aggression8"":1,""Aggression9"":3}","[0,1,2,3,4,5,6,7,8]"
"","","","","","html-button-response","140","317620","0.0-13.0","199","1","2022-11-14 04:51:28","49aca292d257f58668169b9fbab864ae","182.102.136.46","Mozilla/5.0 (Windows NT 10.0; WOW64) AppleWebKit/537.36 (KHTML, like Gecko) Chrome/104.0.0.0 Safari/537.36","WebKit","Chrome","104.0.0.0","Windows","10.0","613","<p><strong>请判断你在多大程度上同意下列陈述。</strong></p>","0",""
"","","","","","survey-likert","141","428151","0.0-14.0","199","1","2022-11-14 04:51:28","49aca292d257f58668169b9fbab864ae","182.102.136.46","Mozilla/5.0 (Windows NT 10.0; WOW64) AppleWebKit/537.36 (KHTML, like Gecko) Chrome/104.0.0.0 Safari/537.36","WebKit","Chrome","104.0.0.0","Windows","10.0","110525","","{""scale17"":1,""scale18"":3,""scale14"":3,""scale23"":3,""scale10"":3,""scale20"":4,""scale13"":3,""scale27"":1,""scale8"":4,""scale28"":1,""scale26"":3,""scale24"":4,""scale11"":3,""scale6"":1,""scale9"":3,""scale3"":3,""scale25"":1,""scale1"":2,""scale19"":3,""scale21"":4,""scale16"":2,""scale4"":3,""scale5"":2,""scale12"":1,""scale7"":2,""scale22"":0,""scale15"":3,""scale2"":3}","[16,17,13,22,9,19,12,26,7,27,25,23,10,5,8,2,24,0,18,20,15,3,4,11,6,21,14,1]"
"","","","","","html-button-response","142","428970","0.0-15.0","199","1","2022-11-14 04:51:28","49aca292d257f58668169b9fbab864ae","182.102.136.46","Mozilla/5.0 (Windows NT 10.0; WOW64) AppleWebKit/537.36 (KHTML, like Gecko) Chrome/104.0.0.0 Safari/537.36","WebKit","Chrome","104.0.0.0","Windows","10.0","815","<p><strong>请判断你在多大程度上同意下列陈述。</strong></p>","0",""
"","","","","","survey-likert","143","495025","0.0-16.0","199","1","2022-11-14 04:51:28","49aca292d257f58668169b9fbab864ae","182.102.136.46","Mozilla/5.0 (Windows NT 10.0; WOW64) AppleWebKit/537.36 (KHTML, like Gecko) Chrome/104.0.0.0 Safari/537.36","WebKit","Chrome","104.0.0.0","Windows","10.0","66052","","{""sdo6"":1,""sdo11"":5,""sdo7"":4,""sdo8"":4,""sdo10"":5,""sdo12"":6,""sdo4"":2,""sdo3"":5,""sdo16"":6,""sdo2"":5,""sdo5"":3,""sdo9"":5,""sdo13"":6,""sdo15"":5,""sdo1"":6,""sdo14"":5}","[5,10,6,7,9,11,3,2,15,1,4,8,12,14,0,13]"
"","","","","","html-button-response","144","496362","0.0-17.0","199","1","2022-11-14 04:51:28","49aca292d257f58668169b9fbab864ae","182.102.136.46","Mozilla/5.0 (Windows NT 10.0; WOW64) AppleWebKit/537.36 (KHTML, like Gecko) Chrome/104.0.0.0 Safari/537.36","WebKit","Chrome","104.0.0.0","Windows","10.0","1333","<p><strong>请判断你在多大程度上同意下列陈述。</strong></p>","0",""
"","","","","","survey-likert","145","549957","0.0-18.0","199","1","2022-11-14 04:51:28","49aca292d257f58668169b9fbab864ae","182.102.136.46","Mozilla/5.0 (Windows NT 10.0; WOW64) AppleWebKit/537.36 (KHTML, like Gecko) Chrome/104.0.0.0 Safari/537.36","WebKit","Chrome","104.0.0.0","Windows","10.0","53590","","{""caring1"":2,""liking1"":2,""caring2"":3,""protection1"":3,""liking2"":1,""caring3"":2,""protection2"":3,""liking3"":3,""protection3"":4,""caring4"":3,""liking4"":1,""protection4"":4,""caring5"":2,""liking5"":3,""protection5"":3}","[0,1,2,3,4,5,6,7,8,9,10,11,12,13,14]"
"","","","","","html-button-response","146","550887","0.0-19.0","199","1","2022-11-14 04:51:28","49aca292d257f58668169b9fbab864ae","182.102.136.46","Mozilla/5.0 (Windows NT 10.0; WOW64) AppleWebKit/537.36 (KHTML, like Gecko) Chrome/104.0.0.0 Safari/537.36","WebKit","Chrome","104.0.0.0","Windows","10.0","927","<p><strong>请判断下列场景中你的内心感受有多柔软。</strong></p>","0",""
"","","","","","survey-likert","147","583900","0.0-20.0","199","1","2022-11-14 04:51:28","49aca292d257f58668169b9fbab864ae","182.102.136.46","Mozilla/5.0 (Windows NT 10.0; WOW64) AppleWebKit/537.36 (KHTML, like Gecko) Chrome/104.0.0.0 Safari/537.36","WebKit","Chrome","104.0.0.0","Windows","10.0","33009","","{""tenderness-positive1"":4,""tenderness-negative1"":3,""tenderness-negative2"":1,""tenderness-positive2"":3,""tenderness-positive3"":3,""tenderness-negative3"":2,""tenderness-positive4"":3,""tenderness-negative4"":0,""tenderness-negative5"":1,""tenderness-positive5"":3}","[0,1,2,3,4,5,6,7,8,9]"
"","","","","","survey-multi-choice","148","587597","0.0-21.0","199","1","2022-11-14 04:51:28","49aca292d257f58668169b9fbab864ae","182.102.136.46","Mozilla/5.0 (Windows NT 10.0; WOW64) AppleWebKit/537.36 (KHTML, like Gecko) Chrome/104.0.0.0 Safari/537.36","WebKit","Chrome","104.0.0.0","Windows","10.0","3692","","{""Attention2"":""其他""}","[0]"
"","","","","","html-button-response","149","591080","0.0-22.0","199","1","2022-11-14 04:51:28","49aca292d257f58668169b9fbab864ae","182.102.136.46","Mozilla/5.0 (Windows NT 10.0; WOW64) AppleWebKit/537.36 (KHTML, like Gecko) Chrome/104.0.0.0 Safari/537.36","WebKit","Chrome","104.0.0.0","Windows","10.0","3479","<p><strong>请判断你在多大程度上同意下列陈述。</strong></p>","0",""
"","","","","","survey-likert","150","647671","0.0-23.0","199","1","2022-11-14 04:51:28","49aca292d257f58668169b9fbab864ae","182.102.136.46","Mozilla/5.0 (Windows NT 10.0; WOW64) AppleWebKit/537.36 (KHTML, like Gecko) Chrome/104.0.0.0 Safari/537.36","WebKit","Chrome","104.0.0.0","Windows","10.0","56586","","{""Patri7"":4,""Nation3"":3,""Patri2"":3,""Patri3"":4,""Patri5"":3,""Patri11"":1,""Nation4"":3,""Patri12"":2,""Nation8"":1,""Nation6"":3,""Patri8"":4,""Nation1"":3,""Patri10"":3,""Nation7"":4,""Patri9"":3,""Patri4"":2,""Nation5"":0,""Patri1"":4,""Nation2"":3,""Patri6"":4}","[6,14,1,2,4,10,15,11,19,17,7,12,9,18,8,3,16,0,13,5]"
"","","","","","html-button-response","151","649723","0.0-24.0","199","1","2022-11-14 04:51:28","49aca292d257f58668169b9fbab864ae","182.102.136.46","Mozilla/5.0 (Windows NT 10.0; WOW64) AppleWebKit/537.36 (KHTML, like Gecko) Chrome/104.0.0.0 Safari/537.36","WebKit","Chrome","104.0.0.0","Windows","10.0","2048","<p><strong>请判断你在多大程度上同意下列陈述。</strong></p>","0",""
"","","","","","survey-likert","152","703145","0.0-25.0","199","1","2022-11-14 04:51:28","49aca292d257f58668169b9fbab864ae","182.102.136.46","Mozilla/5.0 (Windows NT 10.0; WOW64) AppleWebKit/537.36 (KHTML, like Gecko) Chrome/104.0.0.0 Safari/537.36","WebKit","Chrome","104.0.0.0","Windows","10.0","53418","","{""vc4"":8,""hc4"":7,""vc3"":8,""hc3"":7,""vc1"":8,""hc2"":5,""vi2"":3,""hi1"":6,""vi3"":5,""hi2"":7,""vi4"":6,""hi3"":7,""hi4"":5,""Robot"":6,""vc2"":7,""hc1"":8,""vi1"":5}","[16,12,15,11,13,10,5,0,6,1,8,2,3,7,14,9,4]"
"","","","","","survey-text","153","715576","0.0-26.0","199","1","2022-11-14 04:51:28","49aca292d257f58668169b9fbab864ae","182.102.136.46","Mozilla/5.0 (Windows NT 10.0; WOW64) AppleWebKit/537.36 (KHTML, like Gecko) Chrome/104.0.0.0 Safari/537.36","WebKit","Chrome","104.0.0.0","Windows","10.0","12422","","{""Comments"":""无""}",""
"","","","","","html-button-response","154","716407","0.0-27.0","199","1","2022-11-14 04:51:28","49aca292d257f58668169b9fbab864ae","182.102.136.46","Mozilla/5.0 (Windows NT 10.0; WOW64) AppleWebKit/537.36 (KHTML, like Gecko) Chrome/104.0.0.0 Safari/537.36","WebKit","Chrome","104.0.0.0","Windows","10.0","828","<strong><p>恭喜你完成了实验！</p><p>感谢您的参与。</p></strong>","0",""
