"success","timeout","failed_images","failed_audio","failed_video","trial_type","trial_index","time_elapsed","internal_node_id","run_id","condition","recorded_at","source_code_version","ip","user_agent","device","browser","browser_version","platform","platform_version","rt","stimulus","response","question_order"
"true","false","[]","[]","[]","preload","0","52749","0.0-0.0","20","1","2022-11-13 08:22:48","49aca292d257f58668169b9fbab864ae","117.136.123.169","Mozilla/5.0 (Linux; Android 10; HLK-AL00; HMSCore 6.8.0.311) AppleWebKit/537.36 (KHTML, like Gecko) Chrome/92.0.4515.105 HuaweiBrowser/12.1.4.304 Mobile Safari/537.36","WebKit","Chrome","92.0.4515.105","AndroidOS","10","","","",""
"true","","","","","fullscreen","1","57520","0.0-1.0","20","1","2022-11-13 08:22:48","49aca292d257f58668169b9fbab864ae","117.136.123.169","Mozilla/5.0 (Linux; Android 10; HLK-AL00; HMSCore 6.8.0.311) AppleWebKit/537.36 (KHTML, like Gecko) Chrome/92.0.4515.105 HuaweiBrowser/12.1.4.304 Mobile Safari/537.36","WebKit","Chrome","92.0.4515.105","AndroidOS","10","","","",""
"","","","","","html-button-response","2","91653","0.0-2.0","20","1","2022-11-13 08:22:48","49aca292d257f58668169b9fbab864ae","117.136.123.169","Mozilla/5.0 (Linux; Android 10; HLK-AL00; HMSCore 6.8.0.311) AppleWebKit/537.36 (KHTML, like Gecko) Chrome/92.0.4515.105 HuaweiBrowser/12.1.4.304 Mobile Safari/537.36","WebKit","Chrome","92.0.4515.105","AndroidOS","10","34120","<p style=""font-size:20px;font-weight:bold;"">实验知情同意书</p><p style=""text-align:left;""><strong>实验名称：</strong>社会冲突研究</p><p style=""text-align:left;""><strong>主要研究者：</strong>韩晓春副教授（北京师范大学心理学部）</p><p style=""text-align:left;""><strong>联系方式：</strong>发送邮件至xiaochun.han@bnu.edu.cn</p><p style=""text-align:left;""><strong>研究目的：</strong>研究旨在了解人类面对群体冲突时的决策方式，以及相关的心理学特质。实验调查大约需要20分钟。</p><p style=""text-align:left;""><strong>实验流程：</strong>实验包含两部分。第一部分呈现一系列群体冲突场景，请你决定如何对这些冲突进行反应，大约需要10分钟完成。第二部分包含一系列人口统计学信息收集和心理学问卷，大约需要10分钟完成。</p><p style=""text-align:left;""><strong>参加及退出规则：</strong>参加本实验完全取决于您的个人意愿。在参与过程中，您可以随时退出，并且不用承担任何后果。</p><p style=""text-align:left;""><strong>隐私：</strong>本实验完全匿名进行，不会收集您的姓名或其他能够识别您身份的信息。实验中收集的作答仅用作科学研究使用，可能会在学术期刊/书籍上发表，或者用于教学，您的数据未来可能会和其他研究者或实验室分享，但您的个人身份不会被识别。</p><p style=""text-align:left;""><strong>实验报酬：</strong>实验完成后，您将获得15元人民币报酬，以感谢您的时间和努力。调查问卷中包含几道题目用以测验您作答时的认真度。只有完成全部实验，并且正确回答认真度测验的被试才能获得实验报酬。实验报酬将通过支付宝转账发放。</p><p style=""text-align:left;font-size:20px;""><strong>如果您同意以上实验知情同意书的内容，请点击'同意并且开始实验'按钮；否则请关闭浏览器界面，退出实验。</strong></p>","0",""
"","","","","","html-button-response","3","105241","0.0-3.0","20","1","2022-11-13 08:22:48","49aca292d257f58668169b9fbab864ae","117.136.123.169","Mozilla/5.0 (Linux; Android 10; HLK-AL00; HMSCore 6.8.0.311) AppleWebKit/537.36 (KHTML, like Gecko) Chrome/92.0.4515.105 HuaweiBrowser/12.1.4.304 Mobile Safari/537.36","WebKit","Chrome","92.0.4515.105","AndroidOS","10","13581","<p ><strong>实验任务一：</strong></p><p>请想象你的国家与另一个国家发生了军事冲突。</p><p>你是国家军队的指挥官，你将如何在冲突中进行决策。</p><p>具体来说，作为军队指挥官，请你决定是否发射导弹进行打击。</p><p>接下来，你会面对一系列场景，请仔细阅读每个场景，然后进行决策。</p><p>这部分实验任务大约需要10分钟。</p><p><strong>实验过程中，请集中注意力。</strong></p>","0",""
"","","","","","html-keyboard-response","4","106244","0.0-4.0-0.0","20","1","2022-11-13 08:22:48","49aca292d257f58668169b9fbab864ae","117.136.123.169","Mozilla/5.0 (Linux; Android 10; HLK-AL00; HMSCore 6.8.0.311) AppleWebKit/537.36 (KHTML, like Gecko) Chrome/92.0.4515.105 HuaweiBrowser/12.1.4.304 Mobile Safari/537.36","WebKit","Chrome","92.0.4515.105","AndroidOS","10","null","<div style=""font-size:60px;"">+</div>","null",""
"","","","","","html-button-response","5","119083","0.0-4.0-1.0","20","1","2022-11-13 08:22:48","49aca292d257f58668169b9fbab864ae","117.136.123.169","Mozilla/5.0 (Linux; Android 10; HLK-AL00; HMSCore 6.8.0.311) AppleWebKit/537.36 (KHTML, like Gecko) Chrome/92.0.4515.105 HuaweiBrowser/12.1.4.304 Mobile Safari/537.36","WebKit","Chrome","92.0.4515.105","AndroidOS","10","12829","<p>作为军队的指挥官，你可以选择发射导弹杀死 <strong>8名</strong> 敌国士兵，但会炸毁附近的 <strong>1棵</strong> 敌国树木。</p> <p>树木的照片如下图所示。</p> <p></p> <img src='stimuli/trees/16.png', style='max-width: 30%;'> </img> <p><strong>你是否选择发射武器？</strong></p>","0",""
"","","","","","html-keyboard-response","6","120088","0.0-4.0-0.1","20","1","2022-11-13 08:22:48","49aca292d257f58668169b9fbab864ae","117.136.123.169","Mozilla/5.0 (Linux; Android 10; HLK-AL00; HMSCore 6.8.0.311) AppleWebKit/537.36 (KHTML, like Gecko) Chrome/92.0.4515.105 HuaweiBrowser/12.1.4.304 Mobile Safari/537.36","WebKit","Chrome","92.0.4515.105","AndroidOS","10","null","<div style=""font-size:60px;"">+</div>","null",""
"","","","","","html-button-response","7","127080","0.0-4.0-1.1","20","1","2022-11-13 08:22:48","49aca292d257f58668169b9fbab864ae","117.136.123.169","Mozilla/5.0 (Linux; Android 10; HLK-AL00; HMSCore 6.8.0.311) AppleWebKit/537.36 (KHTML, like Gecko) Chrome/92.0.4515.105 HuaweiBrowser/12.1.4.304 Mobile Safari/537.36","WebKit","Chrome","92.0.4515.105","AndroidOS","10","6981","<p>作为军队的指挥官，你可以选择发射导弹杀死 <strong>9名</strong> 敌国士兵，但会误杀附近的 <strong>1名</strong> 敌国平民。</p> <p>平民照片如下图所示。</p> <p></p> <img src='stimuli/faces/PFF6.jpg', style='max-width: 30%;'> </img> <p><strong>你是否选择发射武器？</strong></p>","0",""
"","","","","","html-keyboard-response","8","128083","0.0-4.0-0.2","20","1","2022-11-13 08:22:48","49aca292d257f58668169b9fbab864ae","117.136.123.169","Mozilla/5.0 (Linux; Android 10; HLK-AL00; HMSCore 6.8.0.311) AppleWebKit/537.36 (KHTML, like Gecko) Chrome/92.0.4515.105 HuaweiBrowser/12.1.4.304 Mobile Safari/537.36","WebKit","Chrome","92.0.4515.105","AndroidOS","10","null","<div style=""font-size:60px;"">+</div>","null",""
"","","","","","html-button-response","9","130624","0.0-4.0-1.2","20","1","2022-11-13 08:22:48","49aca292d257f58668169b9fbab864ae","117.136.123.169","Mozilla/5.0 (Linux; Android 10; HLK-AL00; HMSCore 6.8.0.311) AppleWebKit/537.36 (KHTML, like Gecko) Chrome/92.0.4515.105 HuaweiBrowser/12.1.4.304 Mobile Safari/537.36","WebKit","Chrome","92.0.4515.105","AndroidOS","10","2531","<p>作为军队的指挥官，你可以选择发射导弹杀死 <strong>4名</strong> 敌国士兵，但会炸毁附近的 <strong>1棵</strong> 敌国树木。</p> <p>树木的照片如下图所示。</p> <p></p> <img src='stimuli/trees/12.png', style='max-width: 30%;'> </img> <p><strong>你是否选择发射武器？</strong></p>","0",""
"","","","","","html-keyboard-response","10","131629","0.0-4.0-0.3","20","1","2022-11-13 08:22:48","49aca292d257f58668169b9fbab864ae","117.136.123.169","Mozilla/5.0 (Linux; Android 10; HLK-AL00; HMSCore 6.8.0.311) AppleWebKit/537.36 (KHTML, like Gecko) Chrome/92.0.4515.105 HuaweiBrowser/12.1.4.304 Mobile Safari/537.36","WebKit","Chrome","92.0.4515.105","AndroidOS","10","null","<div style=""font-size:60px;"">+</div>","null",""
"","","","","","html-button-response","11","134674","0.0-4.0-1.3","20","1","2022-11-13 08:22:48","49aca292d257f58668169b9fbab864ae","117.136.123.169","Mozilla/5.0 (Linux; Android 10; HLK-AL00; HMSCore 6.8.0.311) AppleWebKit/537.36 (KHTML, like Gecko) Chrome/92.0.4515.105 HuaweiBrowser/12.1.4.304 Mobile Safari/537.36","WebKit","Chrome","92.0.4515.105","AndroidOS","10","3037","<p>作为军队的指挥官，你可以选择发射导弹杀死 <strong>1名</strong> 敌国士兵，但会误杀附近的 <strong>1名</strong> 敌国平民。</p> <p>平民照片如下图所示。</p> <p></p> <img src='stimuli/faces/PFF3.jpg', style='max-width: 30%;'> </img> <p><strong>你是否选择发射武器？</strong></p>","1",""
"","","","","","html-keyboard-response","12","135676","0.0-4.0-0.4","20","1","2022-11-13 08:22:48","49aca292d257f58668169b9fbab864ae","117.136.123.169","Mozilla/5.0 (Linux; Android 10; HLK-AL00; HMSCore 6.8.0.311) AppleWebKit/537.36 (KHTML, like Gecko) Chrome/92.0.4515.105 HuaweiBrowser/12.1.4.304 Mobile Safari/537.36","WebKit","Chrome","92.0.4515.105","AndroidOS","10","null","<div style=""font-size:60px;"">+</div>","null",""
"","","","","","html-button-response","13","137937","0.0-4.0-1.4","20","1","2022-11-13 08:22:48","49aca292d257f58668169b9fbab864ae","117.136.123.169","Mozilla/5.0 (Linux; Android 10; HLK-AL00; HMSCore 6.8.0.311) AppleWebKit/537.36 (KHTML, like Gecko) Chrome/92.0.4515.105 HuaweiBrowser/12.1.4.304 Mobile Safari/537.36","WebKit","Chrome","92.0.4515.105","AndroidOS","10","2252","<p>作为军队的指挥官，你可以选择发射导弹杀死 <strong>7名</strong> 敌国士兵，但会炸毁附近的 <strong>1棵</strong> 敌国树木。</p> <p>树木的照片如下图所示。</p> <p></p> <img src='stimuli/trees/2.png', style='max-width: 30%;'> </img> <p><strong>你是否选择发射武器？</strong></p>","0",""
"","","","","","html-keyboard-response","14","138945","0.0-4.0-0.5","20","1","2022-11-13 08:22:48","49aca292d257f58668169b9fbab864ae","117.136.123.169","Mozilla/5.0 (Linux; Android 10; HLK-AL00; HMSCore 6.8.0.311) AppleWebKit/537.36 (KHTML, like Gecko) Chrome/92.0.4515.105 HuaweiBrowser/12.1.4.304 Mobile Safari/537.36","WebKit","Chrome","92.0.4515.105","AndroidOS","10","null","<div style=""font-size:60px;"">+</div>","null",""
"","","","","","html-button-response","15","140923","0.0-4.0-1.5","20","1","2022-11-13 08:22:48","49aca292d257f58668169b9fbab864ae","117.136.123.169","Mozilla/5.0 (Linux; Android 10; HLK-AL00; HMSCore 6.8.0.311) AppleWebKit/537.36 (KHTML, like Gecko) Chrome/92.0.4515.105 HuaweiBrowser/12.1.4.304 Mobile Safari/537.36","WebKit","Chrome","92.0.4515.105","AndroidOS","10","1972","<p>作为军队的指挥官，你可以选择发射导弹杀死 <strong>3名</strong> 敌国士兵，但会误杀附近的 <strong>1名</strong> 敌国平民。</p> <p>平民照片如下图所示。</p> <p></p> <img src='stimuli/faces/PFF1.jpg', style='max-width: 30%;'> </img> <p><strong>你是否选择发射武器？</strong></p>","0",""
"","","","","","html-keyboard-response","16","141929","0.0-4.0-0.6","20","1","2022-11-13 08:22:48","49aca292d257f58668169b9fbab864ae","117.136.123.169","Mozilla/5.0 (Linux; Android 10; HLK-AL00; HMSCore 6.8.0.311) AppleWebKit/537.36 (KHTML, like Gecko) Chrome/92.0.4515.105 HuaweiBrowser/12.1.4.304 Mobile Safari/537.36","WebKit","Chrome","92.0.4515.105","AndroidOS","10","null","<div style=""font-size:60px;"">+</div>","null",""
"","","","","","html-button-response","17","143735","0.0-4.0-1.6","20","1","2022-11-13 08:22:48","49aca292d257f58668169b9fbab864ae","117.136.123.169","Mozilla/5.0 (Linux; Android 10; HLK-AL00; HMSCore 6.8.0.311) AppleWebKit/537.36 (KHTML, like Gecko) Chrome/92.0.4515.105 HuaweiBrowser/12.1.4.304 Mobile Safari/537.36","WebKit","Chrome","92.0.4515.105","AndroidOS","10","1778","<p>作为军队的指挥官，你可以选择发射导弹杀死 <strong>7名</strong> 敌国士兵，但会炸毁附近的 <strong>1棵</strong> 敌国树木。</p> <p>树木的照片如下图所示。</p> <p></p> <img src='stimuli/trees/7.png', style='max-width: 30%;'> </img> <p><strong>你是否选择发射武器？</strong></p>","0",""
"","","","","","html-keyboard-response","18","144738","0.0-4.0-0.7","20","1","2022-11-13 08:22:48","49aca292d257f58668169b9fbab864ae","117.136.123.169","Mozilla/5.0 (Linux; Android 10; HLK-AL00; HMSCore 6.8.0.311) AppleWebKit/537.36 (KHTML, like Gecko) Chrome/92.0.4515.105 HuaweiBrowser/12.1.4.304 Mobile Safari/537.36","WebKit","Chrome","92.0.4515.105","AndroidOS","10","null","<div style=""font-size:60px;"">+</div>","null",""
"","","","","","html-button-response","19","146467","0.0-4.0-1.7","20","1","2022-11-13 08:22:48","49aca292d257f58668169b9fbab864ae","117.136.123.169","Mozilla/5.0 (Linux; Android 10; HLK-AL00; HMSCore 6.8.0.311) AppleWebKit/537.36 (KHTML, like Gecko) Chrome/92.0.4515.105 HuaweiBrowser/12.1.4.304 Mobile Safari/537.36","WebKit","Chrome","92.0.4515.105","AndroidOS","10","1720","<p>作为军队的指挥官，你可以选择发射导弹杀死 <strong>10名</strong> 敌国士兵，但会炸毁附近的 <strong>1棵</strong> 敌国树木。</p> <p>树木的照片如下图所示。</p> <p></p> <img src='stimuli/trees/12.png', style='max-width: 30%;'> </img> <p><strong>你是否选择发射武器？</strong></p>","0",""
"","","","","","html-keyboard-response","20","147471","0.0-4.0-0.8","20","1","2022-11-13 08:22:48","49aca292d257f58668169b9fbab864ae","117.136.123.169","Mozilla/5.0 (Linux; Android 10; HLK-AL00; HMSCore 6.8.0.311) AppleWebKit/537.36 (KHTML, like Gecko) Chrome/92.0.4515.105 HuaweiBrowser/12.1.4.304 Mobile Safari/537.36","WebKit","Chrome","92.0.4515.105","AndroidOS","10","null","<div style=""font-size:60px;"">+</div>","null",""
"","","","","","html-button-response","21","152208","0.0-4.0-1.8","20","1","2022-11-13 08:22:48","49aca292d257f58668169b9fbab864ae","117.136.123.169","Mozilla/5.0 (Linux; Android 10; HLK-AL00; HMSCore 6.8.0.311) AppleWebKit/537.36 (KHTML, like Gecko) Chrome/92.0.4515.105 HuaweiBrowser/12.1.4.304 Mobile Safari/537.36","WebKit","Chrome","92.0.4515.105","AndroidOS","10","4730","<p>作为军队的指挥官，你可以选择发射导弹杀死 <strong>6名</strong> 敌国士兵，但会炸毁附近的 <strong>1棵</strong> 敌国树木。</p> <p>树木的照片如下图所示。</p> <p></p> <img src='stimuli/trees/1.png', style='max-width: 30%;'> </img> <p><strong>你是否选择发射武器？</strong></p>","0",""
"","","","","","html-keyboard-response","22","153212","0.0-4.0-0.9","20","1","2022-11-13 08:22:48","49aca292d257f58668169b9fbab864ae","117.136.123.169","Mozilla/5.0 (Linux; Android 10; HLK-AL00; HMSCore 6.8.0.311) AppleWebKit/537.36 (KHTML, like Gecko) Chrome/92.0.4515.105 HuaweiBrowser/12.1.4.304 Mobile Safari/537.36","WebKit","Chrome","92.0.4515.105","AndroidOS","10","null","<div style=""font-size:60px;"">+</div>","null",""
"","","","","","html-button-response","23","155178","0.0-4.0-1.9","20","1","2022-11-13 08:22:48","49aca292d257f58668169b9fbab864ae","117.136.123.169","Mozilla/5.0 (Linux; Android 10; HLK-AL00; HMSCore 6.8.0.311) AppleWebKit/537.36 (KHTML, like Gecko) Chrome/92.0.4515.105 HuaweiBrowser/12.1.4.304 Mobile Safari/537.36","WebKit","Chrome","92.0.4515.105","AndroidOS","10","1960","<p>作为军队的指挥官，你可以选择发射导弹杀死 <strong>8名</strong> 敌国士兵，但会误杀附近的 <strong>1名</strong> 敌国平民。</p> <p>平民照片如下图所示。</p> <p></p> <img src='stimuli/faces/PFF3.jpg', style='max-width: 30%;'> </img> <p><strong>你是否选择发射武器？</strong></p>","0",""
"","","","","","html-keyboard-response","24","156181","0.0-4.0-0.10","20","1","2022-11-13 08:22:48","49aca292d257f58668169b9fbab864ae","117.136.123.169","Mozilla/5.0 (Linux; Android 10; HLK-AL00; HMSCore 6.8.0.311) AppleWebKit/537.36 (KHTML, like Gecko) Chrome/92.0.4515.105 HuaweiBrowser/12.1.4.304 Mobile Safari/537.36","WebKit","Chrome","92.0.4515.105","AndroidOS","10","null","<div style=""font-size:60px;"">+</div>","null",""
"","","","","","html-button-response","25","158835","0.0-4.0-1.10","20","1","2022-11-13 08:22:48","49aca292d257f58668169b9fbab864ae","117.136.123.169","Mozilla/5.0 (Linux; Android 10; HLK-AL00; HMSCore 6.8.0.311) AppleWebKit/537.36 (KHTML, like Gecko) Chrome/92.0.4515.105 HuaweiBrowser/12.1.4.304 Mobile Safari/537.36","WebKit","Chrome","92.0.4515.105","AndroidOS","10","2649","<p>作为军队的指挥官，你可以选择发射导弹杀死 <strong>5名</strong> 敌国士兵，但会误杀附近的 <strong>1名</strong> 敌国平民。</p> <p>平民照片如下图所示。</p> <p></p> <img src='stimuli/faces/PFF5.jpg', style='max-width: 30%;'> </img> <p><strong>你是否选择发射武器？</strong></p>","0",""
"","","","","","html-keyboard-response","26","159839","0.0-4.0-0.11","20","1","2022-11-13 08:22:48","49aca292d257f58668169b9fbab864ae","117.136.123.169","Mozilla/5.0 (Linux; Android 10; HLK-AL00; HMSCore 6.8.0.311) AppleWebKit/537.36 (KHTML, like Gecko) Chrome/92.0.4515.105 HuaweiBrowser/12.1.4.304 Mobile Safari/537.36","WebKit","Chrome","92.0.4515.105","AndroidOS","10","null","<div style=""font-size:60px;"">+</div>","null",""
"","","","","","html-button-response","27","162030","0.0-4.0-1.11","20","1","2022-11-13 08:22:48","49aca292d257f58668169b9fbab864ae","117.136.123.169","Mozilla/5.0 (Linux; Android 10; HLK-AL00; HMSCore 6.8.0.311) AppleWebKit/537.36 (KHTML, like Gecko) Chrome/92.0.4515.105 HuaweiBrowser/12.1.4.304 Mobile Safari/537.36","WebKit","Chrome","92.0.4515.105","AndroidOS","10","2187","<p>作为军队的指挥官，你可以选择发射导弹杀死 <strong>5名</strong> 敌国士兵，但会误杀附近的 <strong>1名</strong> 敌国平民。</p> <p>平民照片如下图所示。</p> <p></p> <img src='stimuli/faces/PFF6.jpg', style='max-width: 30%;'> </img> <p><strong>你是否选择发射武器？</strong></p>","0",""
"","","","","","html-keyboard-response","28","163034","0.0-4.0-0.12","20","1","2022-11-13 08:22:48","49aca292d257f58668169b9fbab864ae","117.136.123.169","Mozilla/5.0 (Linux; Android 10; HLK-AL00; HMSCore 6.8.0.311) AppleWebKit/537.36 (KHTML, like Gecko) Chrome/92.0.4515.105 HuaweiBrowser/12.1.4.304 Mobile Safari/537.36","WebKit","Chrome","92.0.4515.105","AndroidOS","10","null","<div style=""font-size:60px;"">+</div>","null",""
"","","","","","html-button-response","29","165847","0.0-4.0-1.12","20","1","2022-11-13 08:22:48","49aca292d257f58668169b9fbab864ae","117.136.123.169","Mozilla/5.0 (Linux; Android 10; HLK-AL00; HMSCore 6.8.0.311) AppleWebKit/537.36 (KHTML, like Gecko) Chrome/92.0.4515.105 HuaweiBrowser/12.1.4.304 Mobile Safari/537.36","WebKit","Chrome","92.0.4515.105","AndroidOS","10","2805","<p>作为军队的指挥官，你可以选择发射导弹杀死 <strong>6名</strong> 敌国士兵，但会误杀附近的 <strong>1名</strong> 敌国平民。</p> <p>平民照片如下图所示。</p> <p></p> <img src='stimuli/faces/PFM7.jpg', style='max-width: 30%;'> </img> <p><strong>你是否选择发射武器？</strong></p>","0",""
"","","","","","html-keyboard-response","30","166851","0.0-4.0-0.13","20","1","2022-11-13 08:22:48","49aca292d257f58668169b9fbab864ae","117.136.123.169","Mozilla/5.0 (Linux; Android 10; HLK-AL00; HMSCore 6.8.0.311) AppleWebKit/537.36 (KHTML, like Gecko) Chrome/92.0.4515.105 HuaweiBrowser/12.1.4.304 Mobile Safari/537.36","WebKit","Chrome","92.0.4515.105","AndroidOS","10","null","<div style=""font-size:60px;"">+</div>","null",""
"","","","","","html-button-response","31","170337","0.0-4.0-1.13","20","1","2022-11-13 08:22:48","49aca292d257f58668169b9fbab864ae","117.136.123.169","Mozilla/5.0 (Linux; Android 10; HLK-AL00; HMSCore 6.8.0.311) AppleWebKit/537.36 (KHTML, like Gecko) Chrome/92.0.4515.105 HuaweiBrowser/12.1.4.304 Mobile Safari/537.36","WebKit","Chrome","92.0.4515.105","AndroidOS","10","3480","<p>作为军队的指挥官，你可以选择发射导弹杀死 <strong>7名</strong> 敌国士兵，但会炸毁附近的 <strong>1棵</strong> 敌国树木。</p> <p>树木的照片如下图所示。</p> <p></p> <img src='stimuli/trees/6.png', style='max-width: 30%;'> </img> <p><strong>你是否选择发射武器？</strong></p>","0",""
"","","","","","html-keyboard-response","32","171341","0.0-4.0-0.14","20","1","2022-11-13 08:22:48","49aca292d257f58668169b9fbab864ae","117.136.123.169","Mozilla/5.0 (Linux; Android 10; HLK-AL00; HMSCore 6.8.0.311) AppleWebKit/537.36 (KHTML, like Gecko) Chrome/92.0.4515.105 HuaweiBrowser/12.1.4.304 Mobile Safari/537.36","WebKit","Chrome","92.0.4515.105","AndroidOS","10","null","<div style=""font-size:60px;"">+</div>","null",""
"","","","","","html-button-response","33","176535","0.0-4.0-1.14","20","1","2022-11-13 08:22:48","49aca292d257f58668169b9fbab864ae","117.136.123.169","Mozilla/5.0 (Linux; Android 10; HLK-AL00; HMSCore 6.8.0.311) AppleWebKit/537.36 (KHTML, like Gecko) Chrome/92.0.4515.105 HuaweiBrowser/12.1.4.304 Mobile Safari/537.36","WebKit","Chrome","92.0.4515.105","AndroidOS","10","5178","<p>作为军队的指挥官，你可以选择发射导弹杀死 <strong>5名</strong> 敌国士兵，但会误杀附近的 <strong>1名</strong> 敌国平民。</p> <p>平民照片如下图所示。</p> <p></p> <img src='stimuli/faces/PFM5.jpg', style='max-width: 30%;'> </img> <p><strong>你是否选择发射武器？</strong></p>","0",""
"","","","","","html-keyboard-response","34","177539","0.0-4.0-0.15","20","1","2022-11-13 08:22:48","49aca292d257f58668169b9fbab864ae","117.136.123.169","Mozilla/5.0 (Linux; Android 10; HLK-AL00; HMSCore 6.8.0.311) AppleWebKit/537.36 (KHTML, like Gecko) Chrome/92.0.4515.105 HuaweiBrowser/12.1.4.304 Mobile Safari/537.36","WebKit","Chrome","92.0.4515.105","AndroidOS","10","null","<div style=""font-size:60px;"">+</div>","null",""
"","","","","","html-button-response","35","179314","0.0-4.0-1.15","20","1","2022-11-13 08:22:48","49aca292d257f58668169b9fbab864ae","117.136.123.169","Mozilla/5.0 (Linux; Android 10; HLK-AL00; HMSCore 6.8.0.311) AppleWebKit/537.36 (KHTML, like Gecko) Chrome/92.0.4515.105 HuaweiBrowser/12.1.4.304 Mobile Safari/537.36","WebKit","Chrome","92.0.4515.105","AndroidOS","10","1757","<p>作为军队的指挥官，你可以选择发射导弹杀死 <strong>2名</strong> 敌国士兵，但会炸毁附近的 <strong>1棵</strong> 敌国树木。</p> <p>树木的照片如下图所示。</p> <p></p> <img src='stimuli/trees/4.png', style='max-width: 30%;'> </img> <p><strong>你是否选择发射武器？</strong></p>","0",""
"","","","","","html-keyboard-response","36","180320","0.0-4.0-0.16","20","1","2022-11-13 08:22:48","49aca292d257f58668169b9fbab864ae","117.136.123.169","Mozilla/5.0 (Linux; Android 10; HLK-AL00; HMSCore 6.8.0.311) AppleWebKit/537.36 (KHTML, like Gecko) Chrome/92.0.4515.105 HuaweiBrowser/12.1.4.304 Mobile Safari/537.36","WebKit","Chrome","92.0.4515.105","AndroidOS","10","null","<div style=""font-size:60px;"">+</div>","null",""
"","","","","","html-button-response","37","183684","0.0-4.0-1.16","20","1","2022-11-13 08:22:48","49aca292d257f58668169b9fbab864ae","117.136.123.169","Mozilla/5.0 (Linux; Android 10; HLK-AL00; HMSCore 6.8.0.311) AppleWebKit/537.36 (KHTML, like Gecko) Chrome/92.0.4515.105 HuaweiBrowser/12.1.4.304 Mobile Safari/537.36","WebKit","Chrome","92.0.4515.105","AndroidOS","10","3351","<p>作为军队的指挥官，你可以选择发射导弹杀死 <strong>5名</strong> 敌国士兵，但会炸毁附近的 <strong>1棵</strong> 敌国树木。</p> <p>树木的照片如下图所示。</p> <p></p> <img src='stimuli/trees/16.png', style='max-width: 30%;'> </img> <p><strong>你是否选择发射武器？</strong></p>","0",""
"","","","","","html-keyboard-response","38","184691","0.0-4.0-0.17","20","1","2022-11-13 08:22:48","49aca292d257f58668169b9fbab864ae","117.136.123.169","Mozilla/5.0 (Linux; Android 10; HLK-AL00; HMSCore 6.8.0.311) AppleWebKit/537.36 (KHTML, like Gecko) Chrome/92.0.4515.105 HuaweiBrowser/12.1.4.304 Mobile Safari/537.36","WebKit","Chrome","92.0.4515.105","AndroidOS","10","null","<div style=""font-size:60px;"">+</div>","null",""
"","","","","","html-button-response","39","189970","0.0-4.0-1.17","20","1","2022-11-13 08:22:48","49aca292d257f58668169b9fbab864ae","117.136.123.169","Mozilla/5.0 (Linux; Android 10; HLK-AL00; HMSCore 6.8.0.311) AppleWebKit/537.36 (KHTML, like Gecko) Chrome/92.0.4515.105 HuaweiBrowser/12.1.4.304 Mobile Safari/537.36","WebKit","Chrome","92.0.4515.105","AndroidOS","10","5270","<p>作为军队的指挥官，你可以选择发射导弹杀死 <strong>10名</strong> 敌国士兵，但会误杀附近的 <strong>1名</strong> 敌国平民。</p> <p>平民照片如下图所示。</p> <p></p> <img src='stimuli/faces/PFM4.jpg', style='max-width: 30%;'> </img> <p><strong>你是否选择发射武器？</strong></p>","0",""
"","","","","","html-keyboard-response","40","190975","0.0-4.0-0.18","20","1","2022-11-13 08:22:48","49aca292d257f58668169b9fbab864ae","117.136.123.169","Mozilla/5.0 (Linux; Android 10; HLK-AL00; HMSCore 6.8.0.311) AppleWebKit/537.36 (KHTML, like Gecko) Chrome/92.0.4515.105 HuaweiBrowser/12.1.4.304 Mobile Safari/537.36","WebKit","Chrome","92.0.4515.105","AndroidOS","10","null","<div style=""font-size:60px;"">+</div>","null",""
"","","","","","html-button-response","41","192693","0.0-4.0-1.18","20","1","2022-11-13 08:22:48","49aca292d257f58668169b9fbab864ae","117.136.123.169","Mozilla/5.0 (Linux; Android 10; HLK-AL00; HMSCore 6.8.0.311) AppleWebKit/537.36 (KHTML, like Gecko) Chrome/92.0.4515.105 HuaweiBrowser/12.1.4.304 Mobile Safari/537.36","WebKit","Chrome","92.0.4515.105","AndroidOS","10","1706","<p>作为军队的指挥官，你可以选择发射导弹杀死 <strong>1名</strong> 敌国士兵，但会炸毁附近的 <strong>1棵</strong> 敌国树木。</p> <p>树木的照片如下图所示。</p> <p></p> <img src='stimuli/trees/5.png', style='max-width: 30%;'> </img> <p><strong>你是否选择发射武器？</strong></p>","1",""
"","","","","","html-keyboard-response","42","193697","0.0-4.0-0.19","20","1","2022-11-13 08:22:48","49aca292d257f58668169b9fbab864ae","117.136.123.169","Mozilla/5.0 (Linux; Android 10; HLK-AL00; HMSCore 6.8.0.311) AppleWebKit/537.36 (KHTML, like Gecko) Chrome/92.0.4515.105 HuaweiBrowser/12.1.4.304 Mobile Safari/537.36","WebKit","Chrome","92.0.4515.105","AndroidOS","10","null","<div style=""font-size:60px;"">+</div>","null",""
"","","","","","html-button-response","43","195499","0.0-4.0-1.19","20","1","2022-11-13 08:22:48","49aca292d257f58668169b9fbab864ae","117.136.123.169","Mozilla/5.0 (Linux; Android 10; HLK-AL00; HMSCore 6.8.0.311) AppleWebKit/537.36 (KHTML, like Gecko) Chrome/92.0.4515.105 HuaweiBrowser/12.1.4.304 Mobile Safari/537.36","WebKit","Chrome","92.0.4515.105","AndroidOS","10","1789","<p>作为军队的指挥官，你可以选择发射导弹杀死 <strong>8名</strong> 敌国士兵，但会误杀附近的 <strong>1名</strong> 敌国平民。</p> <p>平民照片如下图所示。</p> <p></p> <img src='stimuli/faces/PFM8.jpg', style='max-width: 30%;'> </img> <p><strong>你是否选择发射武器？</strong></p>","0",""
"","","","","","html-keyboard-response","44","196504","0.0-4.0-0.20","20","1","2022-11-13 08:22:48","49aca292d257f58668169b9fbab864ae","117.136.123.169","Mozilla/5.0 (Linux; Android 10; HLK-AL00; HMSCore 6.8.0.311) AppleWebKit/537.36 (KHTML, like Gecko) Chrome/92.0.4515.105 HuaweiBrowser/12.1.4.304 Mobile Safari/537.36","WebKit","Chrome","92.0.4515.105","AndroidOS","10","null","<div style=""font-size:60px;"">+</div>","null",""
"","","","","","html-button-response","45","198493","0.0-4.0-1.20","20","1","2022-11-13 08:22:48","49aca292d257f58668169b9fbab864ae","117.136.123.169","Mozilla/5.0 (Linux; Android 10; HLK-AL00; HMSCore 6.8.0.311) AppleWebKit/537.36 (KHTML, like Gecko) Chrome/92.0.4515.105 HuaweiBrowser/12.1.4.304 Mobile Safari/537.36","WebKit","Chrome","92.0.4515.105","AndroidOS","10","1978","<p>作为军队的指挥官，你可以选择发射导弹杀死 <strong>5名</strong> 敌国士兵，但会误杀附近的 <strong>1名</strong> 敌国平民。</p> <p>平民照片如下图所示。</p> <p></p> <img src='stimuli/faces/PFM7.jpg', style='max-width: 30%;'> </img> <p><strong>你是否选择发射武器？</strong></p>","0",""
"","","","","","html-keyboard-response","46","199497","0.0-4.0-0.21","20","1","2022-11-13 08:22:48","49aca292d257f58668169b9fbab864ae","117.136.123.169","Mozilla/5.0 (Linux; Android 10; HLK-AL00; HMSCore 6.8.0.311) AppleWebKit/537.36 (KHTML, like Gecko) Chrome/92.0.4515.105 HuaweiBrowser/12.1.4.304 Mobile Safari/537.36","WebKit","Chrome","92.0.4515.105","AndroidOS","10","null","<div style=""font-size:60px;"">+</div>","null",""
"","","","","","html-button-response","47","201506","0.0-4.0-1.21","20","1","2022-11-13 08:22:48","49aca292d257f58668169b9fbab864ae","117.136.123.169","Mozilla/5.0 (Linux; Android 10; HLK-AL00; HMSCore 6.8.0.311) AppleWebKit/537.36 (KHTML, like Gecko) Chrome/92.0.4515.105 HuaweiBrowser/12.1.4.304 Mobile Safari/537.36","WebKit","Chrome","92.0.4515.105","AndroidOS","10","1996","<p>作为军队的指挥官，你可以选择发射导弹杀死 <strong>2名</strong> 敌国士兵，但会炸毁附近的 <strong>1棵</strong> 敌国树木。</p> <p>树木的照片如下图所示。</p> <p></p> <img src='stimuli/trees/13.png', style='max-width: 30%;'> </img> <p><strong>你是否选择发射武器？</strong></p>","0",""
"","","","","","html-keyboard-response","48","202510","0.0-4.0-0.22","20","1","2022-11-13 08:22:48","49aca292d257f58668169b9fbab864ae","117.136.123.169","Mozilla/5.0 (Linux; Android 10; HLK-AL00; HMSCore 6.8.0.311) AppleWebKit/537.36 (KHTML, like Gecko) Chrome/92.0.4515.105 HuaweiBrowser/12.1.4.304 Mobile Safari/537.36","WebKit","Chrome","92.0.4515.105","AndroidOS","10","null","<div style=""font-size:60px;"">+</div>","null",""
"","","","","","html-button-response","49","205022","0.0-4.0-1.22","20","1","2022-11-13 08:22:48","49aca292d257f58668169b9fbab864ae","117.136.123.169","Mozilla/5.0 (Linux; Android 10; HLK-AL00; HMSCore 6.8.0.311) AppleWebKit/537.36 (KHTML, like Gecko) Chrome/92.0.4515.105 HuaweiBrowser/12.1.4.304 Mobile Safari/537.36","WebKit","Chrome","92.0.4515.105","AndroidOS","10","2498","<p>作为军队的指挥官，你可以选择发射导弹杀死 <strong>2名</strong> 敌国士兵，但会炸毁附近的 <strong>1棵</strong> 敌国树木。</p> <p>树木的照片如下图所示。</p> <p></p> <img src='stimuli/trees/14.png', style='max-width: 30%;'> </img> <p><strong>你是否选择发射武器？</strong></p>","1",""
"","","","","","html-keyboard-response","50","206027","0.0-4.0-0.23","20","1","2022-11-13 08:22:48","49aca292d257f58668169b9fbab864ae","117.136.123.169","Mozilla/5.0 (Linux; Android 10; HLK-AL00; HMSCore 6.8.0.311) AppleWebKit/537.36 (KHTML, like Gecko) Chrome/92.0.4515.105 HuaweiBrowser/12.1.4.304 Mobile Safari/537.36","WebKit","Chrome","92.0.4515.105","AndroidOS","10","null","<div style=""font-size:60px;"">+</div>","null",""
"","","","","","html-button-response","51","208345","0.0-4.0-1.23","20","1","2022-11-13 08:22:48","49aca292d257f58668169b9fbab864ae","117.136.123.169","Mozilla/5.0 (Linux; Android 10; HLK-AL00; HMSCore 6.8.0.311) AppleWebKit/537.36 (KHTML, like Gecko) Chrome/92.0.4515.105 HuaweiBrowser/12.1.4.304 Mobile Safari/537.36","WebKit","Chrome","92.0.4515.105","AndroidOS","10","2304","<p>作为军队的指挥官，你可以选择发射导弹杀死 <strong>8名</strong> 敌国士兵，但会误杀附近的 <strong>1名</strong> 敌国平民。</p> <p>平民照片如下图所示。</p> <p></p> <img src='stimuli/faces/PFF7.jpg', style='max-width: 30%;'> </img> <p><strong>你是否选择发射武器？</strong></p>","0",""
"","","","","","html-keyboard-response","52","209350","0.0-4.0-0.24","20","1","2022-11-13 08:22:48","49aca292d257f58668169b9fbab864ae","117.136.123.169","Mozilla/5.0 (Linux; Android 10; HLK-AL00; HMSCore 6.8.0.311) AppleWebKit/537.36 (KHTML, like Gecko) Chrome/92.0.4515.105 HuaweiBrowser/12.1.4.304 Mobile Safari/537.36","WebKit","Chrome","92.0.4515.105","AndroidOS","10","null","<div style=""font-size:60px;"">+</div>","null",""
"","","","","","html-button-response","53","217192","0.0-4.0-1.24","20","1","2022-11-13 08:22:48","49aca292d257f58668169b9fbab864ae","117.136.123.169","Mozilla/5.0 (Linux; Android 10; HLK-AL00; HMSCore 6.8.0.311) AppleWebKit/537.36 (KHTML, like Gecko) Chrome/92.0.4515.105 HuaweiBrowser/12.1.4.304 Mobile Safari/537.36","WebKit","Chrome","92.0.4515.105","AndroidOS","10","7829","<p>作为军队的指挥官，你可以选择发射导弹杀死 <strong>2名</strong> 敌国士兵，但会误杀附近的 <strong>1名</strong> 敌国平民。</p> <p>平民照片如下图所示。</p> <p></p> <img src='stimuli/faces/PFM8.jpg', style='max-width: 30%;'> </img> <p><strong>你是否选择发射武器？</strong></p>","0",""
"","","","","","html-keyboard-response","54","218220","0.0-4.0-0.25","20","1","2022-11-13 08:22:48","49aca292d257f58668169b9fbab864ae","117.136.123.169","Mozilla/5.0 (Linux; Android 10; HLK-AL00; HMSCore 6.8.0.311) AppleWebKit/537.36 (KHTML, like Gecko) Chrome/92.0.4515.105 HuaweiBrowser/12.1.4.304 Mobile Safari/537.36","WebKit","Chrome","92.0.4515.105","AndroidOS","10","null","<div style=""font-size:60px;"">+</div>","null",""
"","","","","","html-button-response","55","220583","0.0-4.0-1.25","20","1","2022-11-13 08:22:48","49aca292d257f58668169b9fbab864ae","117.136.123.169","Mozilla/5.0 (Linux; Android 10; HLK-AL00; HMSCore 6.8.0.311) AppleWebKit/537.36 (KHTML, like Gecko) Chrome/92.0.4515.105 HuaweiBrowser/12.1.4.304 Mobile Safari/537.36","WebKit","Chrome","92.0.4515.105","AndroidOS","10","2347","<p>作为军队的指挥官，你可以选择发射导弹杀死 <strong>9名</strong> 敌国士兵，但会炸毁附近的 <strong>1棵</strong> 敌国树木。</p> <p>树木的照片如下图所示。</p> <p></p> <img src='stimuli/trees/15.png', style='max-width: 30%;'> </img> <p><strong>你是否选择发射武器？</strong></p>","0",""
"","","","","","html-keyboard-response","56","221590","0.0-4.0-0.26","20","1","2022-11-13 08:22:48","49aca292d257f58668169b9fbab864ae","117.136.123.169","Mozilla/5.0 (Linux; Android 10; HLK-AL00; HMSCore 6.8.0.311) AppleWebKit/537.36 (KHTML, like Gecko) Chrome/92.0.4515.105 HuaweiBrowser/12.1.4.304 Mobile Safari/537.36","WebKit","Chrome","92.0.4515.105","AndroidOS","10","null","<div style=""font-size:60px;"">+</div>","null",""
"","","","","","html-button-response","57","222843","0.0-4.0-1.26","20","1","2022-11-13 08:22:48","49aca292d257f58668169b9fbab864ae","117.136.123.169","Mozilla/5.0 (Linux; Android 10; HLK-AL00; HMSCore 6.8.0.311) AppleWebKit/537.36 (KHTML, like Gecko) Chrome/92.0.4515.105 HuaweiBrowser/12.1.4.304 Mobile Safari/537.36","WebKit","Chrome","92.0.4515.105","AndroidOS","10","1240","<p>作为军队的指挥官，你可以选择发射导弹杀死 <strong>7名</strong> 敌国士兵，但会炸毁附近的 <strong>1棵</strong> 敌国树木。</p> <p>树木的照片如下图所示。</p> <p></p> <img src='stimuli/trees/10.png', style='max-width: 30%;'> </img> <p><strong>你是否选择发射武器？</strong></p>","0",""
"","","","","","html-keyboard-response","58","223848","0.0-4.0-0.27","20","1","2022-11-13 08:22:48","49aca292d257f58668169b9fbab864ae","117.136.123.169","Mozilla/5.0 (Linux; Android 10; HLK-AL00; HMSCore 6.8.0.311) AppleWebKit/537.36 (KHTML, like Gecko) Chrome/92.0.4515.105 HuaweiBrowser/12.1.4.304 Mobile Safari/537.36","WebKit","Chrome","92.0.4515.105","AndroidOS","10","null","<div style=""font-size:60px;"">+</div>","null",""
"","","","","","html-button-response","59","226256","0.0-4.0-1.27","20","1","2022-11-13 08:22:48","49aca292d257f58668169b9fbab864ae","117.136.123.169","Mozilla/5.0 (Linux; Android 10; HLK-AL00; HMSCore 6.8.0.311) AppleWebKit/537.36 (KHTML, like Gecko) Chrome/92.0.4515.105 HuaweiBrowser/12.1.4.304 Mobile Safari/537.36","WebKit","Chrome","92.0.4515.105","AndroidOS","10","2393","<p>作为军队的指挥官，你可以选择发射导弹杀死 <strong>9名</strong> 敌国士兵，但会炸毁附近的 <strong>1棵</strong> 敌国树木。</p> <p>树木的照片如下图所示。</p> <p></p> <img src='stimuli/trees/9.png', style='max-width: 30%;'> </img> <p><strong>你是否选择发射武器？</strong></p>","0",""
"","","","","","html-keyboard-response","60","227263","0.0-4.0-0.28","20","1","2022-11-13 08:22:48","49aca292d257f58668169b9fbab864ae","117.136.123.169","Mozilla/5.0 (Linux; Android 10; HLK-AL00; HMSCore 6.8.0.311) AppleWebKit/537.36 (KHTML, like Gecko) Chrome/92.0.4515.105 HuaweiBrowser/12.1.4.304 Mobile Safari/537.36","WebKit","Chrome","92.0.4515.105","AndroidOS","10","null","<div style=""font-size:60px;"">+</div>","null",""
"","","","","","html-button-response","61","230327","0.0-4.0-1.28","20","1","2022-11-13 08:22:48","49aca292d257f58668169b9fbab864ae","117.136.123.169","Mozilla/5.0 (Linux; Android 10; HLK-AL00; HMSCore 6.8.0.311) AppleWebKit/537.36 (KHTML, like Gecko) Chrome/92.0.4515.105 HuaweiBrowser/12.1.4.304 Mobile Safari/537.36","WebKit","Chrome","92.0.4515.105","AndroidOS","10","3052","<p>作为军队的指挥官，你可以选择发射导弹杀死 <strong>5名</strong> 敌国士兵，但会误杀附近的 <strong>1名</strong> 敌国平民。</p> <p>平民照片如下图所示。</p> <p></p> <img src='stimuli/faces/PFM4.jpg', style='max-width: 30%;'> </img> <p><strong>你是否选择发射武器？</strong></p>","0",""
"","","","","","html-keyboard-response","62","231335","0.0-4.0-0.29","20","1","2022-11-13 08:22:48","49aca292d257f58668169b9fbab864ae","117.136.123.169","Mozilla/5.0 (Linux; Android 10; HLK-AL00; HMSCore 6.8.0.311) AppleWebKit/537.36 (KHTML, like Gecko) Chrome/92.0.4515.105 HuaweiBrowser/12.1.4.304 Mobile Safari/537.36","WebKit","Chrome","92.0.4515.105","AndroidOS","10","null","<div style=""font-size:60px;"">+</div>","null",""
"","","","","","html-button-response","63","232911","0.0-4.0-1.29","20","1","2022-11-13 08:22:48","49aca292d257f58668169b9fbab864ae","117.136.123.169","Mozilla/5.0 (Linux; Android 10; HLK-AL00; HMSCore 6.8.0.311) AppleWebKit/537.36 (KHTML, like Gecko) Chrome/92.0.4515.105 HuaweiBrowser/12.1.4.304 Mobile Safari/537.36","WebKit","Chrome","92.0.4515.105","AndroidOS","10","1562","<p>作为军队的指挥官，你可以选择发射导弹杀死 <strong>5名</strong> 敌国士兵，但会炸毁附近的 <strong>1棵</strong> 敌国树木。</p> <p>树木的照片如下图所示。</p> <p></p> <img src='stimuli/trees/2.png', style='max-width: 30%;'> </img> <p><strong>你是否选择发射武器？</strong></p>","0",""
"","","","","","html-keyboard-response","64","233917","0.0-4.0-0.30","20","1","2022-11-13 08:22:48","49aca292d257f58668169b9fbab864ae","117.136.123.169","Mozilla/5.0 (Linux; Android 10; HLK-AL00; HMSCore 6.8.0.311) AppleWebKit/537.36 (KHTML, like Gecko) Chrome/92.0.4515.105 HuaweiBrowser/12.1.4.304 Mobile Safari/537.36","WebKit","Chrome","92.0.4515.105","AndroidOS","10","null","<div style=""font-size:60px;"">+</div>","null",""
"","","","","","html-button-response","65","236821","0.0-4.0-1.30","20","1","2022-11-13 08:22:48","49aca292d257f58668169b9fbab864ae","117.136.123.169","Mozilla/5.0 (Linux; Android 10; HLK-AL00; HMSCore 6.8.0.311) AppleWebKit/537.36 (KHTML, like Gecko) Chrome/92.0.4515.105 HuaweiBrowser/12.1.4.304 Mobile Safari/537.36","WebKit","Chrome","92.0.4515.105","AndroidOS","10","2899","<p>作为军队的指挥官，你可以选择发射导弹杀死 <strong>8名</strong> 敌国士兵，但会误杀附近的 <strong>1名</strong> 敌国平民。</p> <p>平民照片如下图所示。</p> <p></p> <img src='stimuli/faces/PFM3.jpg', style='max-width: 30%;'> </img> <p><strong>你是否选择发射武器？</strong></p>","0",""
"","","","","","html-keyboard-response","66","237826","0.0-4.0-0.31","20","1","2022-11-13 08:22:48","49aca292d257f58668169b9fbab864ae","117.136.123.169","Mozilla/5.0 (Linux; Android 10; HLK-AL00; HMSCore 6.8.0.311) AppleWebKit/537.36 (KHTML, like Gecko) Chrome/92.0.4515.105 HuaweiBrowser/12.1.4.304 Mobile Safari/537.36","WebKit","Chrome","92.0.4515.105","AndroidOS","10","null","<div style=""font-size:60px;"">+</div>","null",""
"","","","","","html-button-response","67","238648","0.0-4.0-1.31","20","1","2022-11-13 08:22:48","49aca292d257f58668169b9fbab864ae","117.136.123.169","Mozilla/5.0 (Linux; Android 10; HLK-AL00; HMSCore 6.8.0.311) AppleWebKit/537.36 (KHTML, like Gecko) Chrome/92.0.4515.105 HuaweiBrowser/12.1.4.304 Mobile Safari/537.36","WebKit","Chrome","92.0.4515.105","AndroidOS","10","809","<p>作为军队的指挥官，你可以选择发射导弹杀死 <strong>1名</strong> 敌国士兵，但会炸毁附近的 <strong>1棵</strong> 敌国树木。</p> <p>树木的照片如下图所示。</p> <p></p> <img src='stimuli/trees/15.png', style='max-width: 30%;'> </img> <p><strong>你是否选择发射武器？</strong></p>","0",""
"","","","","","html-keyboard-response","68","239654","0.0-4.0-0.32","20","1","2022-11-13 08:22:48","49aca292d257f58668169b9fbab864ae","117.136.123.169","Mozilla/5.0 (Linux; Android 10; HLK-AL00; HMSCore 6.8.0.311) AppleWebKit/537.36 (KHTML, like Gecko) Chrome/92.0.4515.105 HuaweiBrowser/12.1.4.304 Mobile Safari/537.36","WebKit","Chrome","92.0.4515.105","AndroidOS","10","null","<div style=""font-size:60px;"">+</div>","null",""
"","","","","","html-button-response","69","240294","0.0-4.0-1.32","20","1","2022-11-13 08:22:48","49aca292d257f58668169b9fbab864ae","117.136.123.169","Mozilla/5.0 (Linux; Android 10; HLK-AL00; HMSCore 6.8.0.311) AppleWebKit/537.36 (KHTML, like Gecko) Chrome/92.0.4515.105 HuaweiBrowser/12.1.4.304 Mobile Safari/537.36","WebKit","Chrome","92.0.4515.105","AndroidOS","10","625","<p>作为军队的指挥官，你可以选择发射导弹杀死 <strong>10名</strong> 敌国士兵，但会误杀附近的 <strong>1名</strong> 敌国平民。</p> <p>平民照片如下图所示。</p> <p></p> <img src='stimuli/faces/PFF5.jpg', style='max-width: 30%;'> </img> <p><strong>你是否选择发射武器？</strong></p>","0",""
"","","","","","html-keyboard-response","70","241300","0.0-4.0-0.33","20","1","2022-11-13 08:22:48","49aca292d257f58668169b9fbab864ae","117.136.123.169","Mozilla/5.0 (Linux; Android 10; HLK-AL00; HMSCore 6.8.0.311) AppleWebKit/537.36 (KHTML, like Gecko) Chrome/92.0.4515.105 HuaweiBrowser/12.1.4.304 Mobile Safari/537.36","WebKit","Chrome","92.0.4515.105","AndroidOS","10","null","<div style=""font-size:60px;"">+</div>","null",""
"","","","","","html-button-response","71","242600","0.0-4.0-1.33","20","1","2022-11-13 08:22:48","49aca292d257f58668169b9fbab864ae","117.136.123.169","Mozilla/5.0 (Linux; Android 10; HLK-AL00; HMSCore 6.8.0.311) AppleWebKit/537.36 (KHTML, like Gecko) Chrome/92.0.4515.105 HuaweiBrowser/12.1.4.304 Mobile Safari/537.36","WebKit","Chrome","92.0.4515.105","AndroidOS","10","1295","<p>作为军队的指挥官，你可以选择发射导弹杀死 <strong>3名</strong> 敌国士兵，但会炸毁附近的 <strong>1棵</strong> 敌国树木。</p> <p>树木的照片如下图所示。</p> <p></p> <img src='stimuli/trees/3.png', style='max-width: 30%;'> </img> <p><strong>你是否选择发射武器？</strong></p>","0",""
"","","","","","html-keyboard-response","72","243607","0.0-4.0-0.34","20","1","2022-11-13 08:22:48","49aca292d257f58668169b9fbab864ae","117.136.123.169","Mozilla/5.0 (Linux; Android 10; HLK-AL00; HMSCore 6.8.0.311) AppleWebKit/537.36 (KHTML, like Gecko) Chrome/92.0.4515.105 HuaweiBrowser/12.1.4.304 Mobile Safari/537.36","WebKit","Chrome","92.0.4515.105","AndroidOS","10","null","<div style=""font-size:60px;"">+</div>","null",""
"","","","","","html-button-response","73","245148","0.0-4.0-1.34","20","1","2022-11-13 08:22:48","49aca292d257f58668169b9fbab864ae","117.136.123.169","Mozilla/5.0 (Linux; Android 10; HLK-AL00; HMSCore 6.8.0.311) AppleWebKit/537.36 (KHTML, like Gecko) Chrome/92.0.4515.105 HuaweiBrowser/12.1.4.304 Mobile Safari/537.36","WebKit","Chrome","92.0.4515.105","AndroidOS","10","1529","<p>作为军队的指挥官，你可以选择发射导弹杀死 <strong>4名</strong> 敌国士兵，但会误杀附近的 <strong>1名</strong> 敌国平民。</p> <p>平民照片如下图所示。</p> <p></p> <img src='stimuli/faces/PFF7.jpg', style='max-width: 30%;'> </img> <p><strong>你是否选择发射武器？</strong></p>","0",""
"","","","","","html-keyboard-response","74","246153","0.0-4.0-0.35","20","1","2022-11-13 08:22:48","49aca292d257f58668169b9fbab864ae","117.136.123.169","Mozilla/5.0 (Linux; Android 10; HLK-AL00; HMSCore 6.8.0.311) AppleWebKit/537.36 (KHTML, like Gecko) Chrome/92.0.4515.105 HuaweiBrowser/12.1.4.304 Mobile Safari/537.36","WebKit","Chrome","92.0.4515.105","AndroidOS","10","null","<div style=""font-size:60px;"">+</div>","null",""
"","","","","","html-button-response","75","250053","0.0-4.0-1.35","20","1","2022-11-13 08:22:48","49aca292d257f58668169b9fbab864ae","117.136.123.169","Mozilla/5.0 (Linux; Android 10; HLK-AL00; HMSCore 6.8.0.311) AppleWebKit/537.36 (KHTML, like Gecko) Chrome/92.0.4515.105 HuaweiBrowser/12.1.4.304 Mobile Safari/537.36","WebKit","Chrome","92.0.4515.105","AndroidOS","10","3895","<p>作为军队的指挥官，你可以选择发射导弹杀死 <strong>4名</strong> 敌国士兵，但会炸毁附近的 <strong>1棵</strong> 敌国树木。</p> <p>树木的照片如下图所示。</p> <p></p> <img src='stimuli/trees/8.png', style='max-width: 30%;'> </img> <p><strong>你是否选择发射武器？</strong></p>","0",""
"","","","","","html-keyboard-response","76","251056","0.0-4.0-0.36","20","1","2022-11-13 08:22:48","49aca292d257f58668169b9fbab864ae","117.136.123.169","Mozilla/5.0 (Linux; Android 10; HLK-AL00; HMSCore 6.8.0.311) AppleWebKit/537.36 (KHTML, like Gecko) Chrome/92.0.4515.105 HuaweiBrowser/12.1.4.304 Mobile Safari/537.36","WebKit","Chrome","92.0.4515.105","AndroidOS","10","null","<div style=""font-size:60px;"">+</div>","null",""
"","","","","","html-button-response","77","252944","0.0-4.0-1.36","20","1","2022-11-13 08:22:48","49aca292d257f58668169b9fbab864ae","117.136.123.169","Mozilla/5.0 (Linux; Android 10; HLK-AL00; HMSCore 6.8.0.311) AppleWebKit/537.36 (KHTML, like Gecko) Chrome/92.0.4515.105 HuaweiBrowser/12.1.4.304 Mobile Safari/537.36","WebKit","Chrome","92.0.4515.105","AndroidOS","10","1881","<p>作为军队的指挥官，你可以选择发射导弹杀死 <strong>9名</strong> 敌国士兵，但会误杀附近的 <strong>1名</strong> 敌国平民。</p> <p>平民照片如下图所示。</p> <p></p> <img src='stimuli/faces/PFF2.jpg', style='max-width: 30%;'> </img> <p><strong>你是否选择发射武器？</strong></p>","0",""
"","","","","","html-keyboard-response","78","253950","0.0-4.0-0.37","20","1","2022-11-13 08:22:48","49aca292d257f58668169b9fbab864ae","117.136.123.169","Mozilla/5.0 (Linux; Android 10; HLK-AL00; HMSCore 6.8.0.311) AppleWebKit/537.36 (KHTML, like Gecko) Chrome/92.0.4515.105 HuaweiBrowser/12.1.4.304 Mobile Safari/537.36","WebKit","Chrome","92.0.4515.105","AndroidOS","10","null","<div style=""font-size:60px;"">+</div>","null",""
"","","","","","html-button-response","79","255636","0.0-4.0-1.37","20","1","2022-11-13 08:22:48","49aca292d257f58668169b9fbab864ae","117.136.123.169","Mozilla/5.0 (Linux; Android 10; HLK-AL00; HMSCore 6.8.0.311) AppleWebKit/537.36 (KHTML, like Gecko) Chrome/92.0.4515.105 HuaweiBrowser/12.1.4.304 Mobile Safari/537.36","WebKit","Chrome","92.0.4515.105","AndroidOS","10","1672","<p>作为军队的指挥官，你可以选择发射导弹杀死 <strong>5名</strong> 敌国士兵，但会炸毁附近的 <strong>1棵</strong> 敌国树木。</p> <p>树木的照片如下图所示。</p> <p></p> <img src='stimuli/trees/9.png', style='max-width: 30%;'> </img> <p><strong>你是否选择发射武器？</strong></p>","0",""
"","","","","","html-keyboard-response","80","256642","0.0-4.0-0.38","20","1","2022-11-13 08:22:48","49aca292d257f58668169b9fbab864ae","117.136.123.169","Mozilla/5.0 (Linux; Android 10; HLK-AL00; HMSCore 6.8.0.311) AppleWebKit/537.36 (KHTML, like Gecko) Chrome/92.0.4515.105 HuaweiBrowser/12.1.4.304 Mobile Safari/537.36","WebKit","Chrome","92.0.4515.105","AndroidOS","10","null","<div style=""font-size:60px;"">+</div>","null",""
"","","","","","html-button-response","81","259145","0.0-4.0-1.38","20","1","2022-11-13 08:22:48","49aca292d257f58668169b9fbab864ae","117.136.123.169","Mozilla/5.0 (Linux; Android 10; HLK-AL00; HMSCore 6.8.0.311) AppleWebKit/537.36 (KHTML, like Gecko) Chrome/92.0.4515.105 HuaweiBrowser/12.1.4.304 Mobile Safari/537.36","WebKit","Chrome","92.0.4515.105","AndroidOS","10","2488","<p>作为军队的指挥官，你可以选择发射导弹杀死 <strong>3名</strong> 敌国士兵，但会误杀附近的 <strong>1名</strong> 敌国平民。</p> <p>平民照片如下图所示。</p> <p></p> <img src='stimuli/faces/PFF2.jpg', style='max-width: 30%;'> </img> <p><strong>你是否选择发射武器？</strong></p>","0",""
"","","","","","html-keyboard-response","82","260150","0.0-4.0-0.39","20","1","2022-11-13 08:22:48","49aca292d257f58668169b9fbab864ae","117.136.123.169","Mozilla/5.0 (Linux; Android 10; HLK-AL00; HMSCore 6.8.0.311) AppleWebKit/537.36 (KHTML, like Gecko) Chrome/92.0.4515.105 HuaweiBrowser/12.1.4.304 Mobile Safari/537.36","WebKit","Chrome","92.0.4515.105","AndroidOS","10","null","<div style=""font-size:60px;"">+</div>","null",""
"","","","","","html-button-response","83","263299","0.0-4.0-1.39","20","1","2022-11-13 08:22:48","49aca292d257f58668169b9fbab864ae","117.136.123.169","Mozilla/5.0 (Linux; Android 10; HLK-AL00; HMSCore 6.8.0.311) AppleWebKit/537.36 (KHTML, like Gecko) Chrome/92.0.4515.105 HuaweiBrowser/12.1.4.304 Mobile Safari/537.36","WebKit","Chrome","92.0.4515.105","AndroidOS","10","3142","<p>作为军队的指挥官，你可以选择发射导弹杀死 <strong>10名</strong> 敌国士兵，但会炸毁附近的 <strong>1棵</strong> 敌国树木。</p> <p>树木的照片如下图所示。</p> <p></p> <img src='stimuli/trees/14.png', style='max-width: 30%;'> </img> <p><strong>你是否选择发射武器？</strong></p>","0",""
"","","","","","html-keyboard-response","84","264305","0.0-4.0-0.40","20","1","2022-11-13 08:22:48","49aca292d257f58668169b9fbab864ae","117.136.123.169","Mozilla/5.0 (Linux; Android 10; HLK-AL00; HMSCore 6.8.0.311) AppleWebKit/537.36 (KHTML, like Gecko) Chrome/92.0.4515.105 HuaweiBrowser/12.1.4.304 Mobile Safari/537.36","WebKit","Chrome","92.0.4515.105","AndroidOS","10","null","<div style=""font-size:60px;"">+</div>","null",""
"","","","","","html-button-response","85","266402","0.0-4.0-1.40","20","1","2022-11-13 08:22:48","49aca292d257f58668169b9fbab864ae","117.136.123.169","Mozilla/5.0 (Linux; Android 10; HLK-AL00; HMSCore 6.8.0.311) AppleWebKit/537.36 (KHTML, like Gecko) Chrome/92.0.4515.105 HuaweiBrowser/12.1.4.304 Mobile Safari/537.36","WebKit","Chrome","92.0.4515.105","AndroidOS","10","2082","<p>作为军队的指挥官，你可以选择发射导弹杀死 <strong>10名</strong> 敌国士兵，但会炸毁附近的 <strong>1棵</strong> 敌国树木。</p> <p>树木的照片如下图所示。</p> <p></p> <img src='stimuli/trees/3.png', style='max-width: 30%;'> </img> <p><strong>你是否选择发射武器？</strong></p>","0",""
"","","","","","html-keyboard-response","86","267409","0.0-4.0-0.41","20","1","2022-11-13 08:22:48","49aca292d257f58668169b9fbab864ae","117.136.123.169","Mozilla/5.0 (Linux; Android 10; HLK-AL00; HMSCore 6.8.0.311) AppleWebKit/537.36 (KHTML, like Gecko) Chrome/92.0.4515.105 HuaweiBrowser/12.1.4.304 Mobile Safari/537.36","WebKit","Chrome","92.0.4515.105","AndroidOS","10","null","<div style=""font-size:60px;"">+</div>","null",""
"","","","","","html-button-response","87","268585","0.0-4.0-1.41","20","1","2022-11-13 08:22:48","49aca292d257f58668169b9fbab864ae","117.136.123.169","Mozilla/5.0 (Linux; Android 10; HLK-AL00; HMSCore 6.8.0.311) AppleWebKit/537.36 (KHTML, like Gecko) Chrome/92.0.4515.105 HuaweiBrowser/12.1.4.304 Mobile Safari/537.36","WebKit","Chrome","92.0.4515.105","AndroidOS","10","1161","<p>作为军队的指挥官，你可以选择发射导弹杀死 <strong>5名</strong> 敌国士兵，但会误杀附近的 <strong>1名</strong> 敌国平民。</p> <p>平民照片如下图所示。</p> <p></p> <img src='stimuli/faces/PFM3.jpg', style='max-width: 30%;'> </img> <p><strong>你是否选择发射武器？</strong></p>","0",""
"","","","","","html-keyboard-response","88","269592","0.0-4.0-0.42","20","1","2022-11-13 08:22:48","49aca292d257f58668169b9fbab864ae","117.136.123.169","Mozilla/5.0 (Linux; Android 10; HLK-AL00; HMSCore 6.8.0.311) AppleWebKit/537.36 (KHTML, like Gecko) Chrome/92.0.4515.105 HuaweiBrowser/12.1.4.304 Mobile Safari/537.36","WebKit","Chrome","92.0.4515.105","AndroidOS","10","null","<div style=""font-size:60px;"">+</div>","null",""
"","","","","","html-button-response","89","270669","0.0-4.0-1.42","20","1","2022-11-13 08:22:48","49aca292d257f58668169b9fbab864ae","117.136.123.169","Mozilla/5.0 (Linux; Android 10; HLK-AL00; HMSCore 6.8.0.311) AppleWebKit/537.36 (KHTML, like Gecko) Chrome/92.0.4515.105 HuaweiBrowser/12.1.4.304 Mobile Safari/537.36","WebKit","Chrome","92.0.4515.105","AndroidOS","10","1061","<p>作为军队的指挥官，你可以选择发射导弹杀死 <strong>8名</strong> 敌国士兵，但会误杀附近的 <strong>1名</strong> 敌国平民。</p> <p>平民照片如下图所示。</p> <p></p> <img src='stimuli/faces/PFF4.jpg', style='max-width: 30%;'> </img> <p><strong>你是否选择发射武器？</strong></p>","0",""
"","","","","","html-keyboard-response","90","271675","0.0-4.0-0.43","20","1","2022-11-13 08:22:48","49aca292d257f58668169b9fbab864ae","117.136.123.169","Mozilla/5.0 (Linux; Android 10; HLK-AL00; HMSCore 6.8.0.311) AppleWebKit/537.36 (KHTML, like Gecko) Chrome/92.0.4515.105 HuaweiBrowser/12.1.4.304 Mobile Safari/537.36","WebKit","Chrome","92.0.4515.105","AndroidOS","10","null","<div style=""font-size:60px;"">+</div>","null",""
"","","","","","html-button-response","91","274525","0.0-4.0-1.43","20","1","2022-11-13 08:22:48","49aca292d257f58668169b9fbab864ae","117.136.123.169","Mozilla/5.0 (Linux; Android 10; HLK-AL00; HMSCore 6.8.0.311) AppleWebKit/537.36 (KHTML, like Gecko) Chrome/92.0.4515.105 HuaweiBrowser/12.1.4.304 Mobile Safari/537.36","WebKit","Chrome","92.0.4515.105","AndroidOS","10","2842","<p>作为军队的指挥官，你可以选择发射导弹杀死 <strong>5名</strong> 敌国士兵，但会炸毁附近的 <strong>1棵</strong> 敌国树木。</p> <p>树木的照片如下图所示。</p> <p></p> <img src='stimuli/trees/10.png', style='max-width: 30%;'> </img> <p><strong>你是否选择发射武器？</strong></p>","0",""
"","","","","","html-keyboard-response","92","275532","0.0-4.0-0.44","20","1","2022-11-13 08:22:48","49aca292d257f58668169b9fbab864ae","117.136.123.169","Mozilla/5.0 (Linux; Android 10; HLK-AL00; HMSCore 6.8.0.311) AppleWebKit/537.36 (KHTML, like Gecko) Chrome/92.0.4515.105 HuaweiBrowser/12.1.4.304 Mobile Safari/537.36","WebKit","Chrome","92.0.4515.105","AndroidOS","10","null","<div style=""font-size:60px;"">+</div>","null",""
"","","","","","html-button-response","93","276750","0.0-4.0-1.44","20","1","2022-11-13 08:22:48","49aca292d257f58668169b9fbab864ae","117.136.123.169","Mozilla/5.0 (Linux; Android 10; HLK-AL00; HMSCore 6.8.0.311) AppleWebKit/537.36 (KHTML, like Gecko) Chrome/92.0.4515.105 HuaweiBrowser/12.1.4.304 Mobile Safari/537.36","WebKit","Chrome","92.0.4515.105","AndroidOS","10","1209","<p>作为军队的指挥官，你可以选择发射导弹杀死 <strong>9名</strong> 敌国士兵，但会误杀附近的 <strong>1名</strong> 敌国平民。</p> <p>平民照片如下图所示。</p> <p></p> <img src='stimuli/faces/PFF1.jpg', style='max-width: 30%;'> </img> <p><strong>你是否选择发射武器？</strong></p>","0",""
"","","","","","html-keyboard-response","94","277756","0.0-4.0-0.45","20","1","2022-11-13 08:22:48","49aca292d257f58668169b9fbab864ae","117.136.123.169","Mozilla/5.0 (Linux; Android 10; HLK-AL00; HMSCore 6.8.0.311) AppleWebKit/537.36 (KHTML, like Gecko) Chrome/92.0.4515.105 HuaweiBrowser/12.1.4.304 Mobile Safari/537.36","WebKit","Chrome","92.0.4515.105","AndroidOS","10","null","<div style=""font-size:60px;"">+</div>","null",""
"","","","","","html-button-response","95","278827","0.0-4.0-1.45","20","1","2022-11-13 08:22:48","49aca292d257f58668169b9fbab864ae","117.136.123.169","Mozilla/5.0 (Linux; Android 10; HLK-AL00; HMSCore 6.8.0.311) AppleWebKit/537.36 (KHTML, like Gecko) Chrome/92.0.4515.105 HuaweiBrowser/12.1.4.304 Mobile Safari/537.36","WebKit","Chrome","92.0.4515.105","AndroidOS","10","1063","<p>作为军队的指挥官，你可以选择发射导弹杀死 <strong>6名</strong> 敌国士兵，但会炸毁附近的 <strong>1棵</strong> 敌国树木。</p> <p>树木的照片如下图所示。</p> <p></p> <img src='stimuli/trees/5.png', style='max-width: 30%;'> </img> <p><strong>你是否选择发射武器？</strong></p>","0",""
"","","","","","html-keyboard-response","96","279835","0.0-4.0-0.46","20","1","2022-11-13 08:22:48","49aca292d257f58668169b9fbab864ae","117.136.123.169","Mozilla/5.0 (Linux; Android 10; HLK-AL00; HMSCore 6.8.0.311) AppleWebKit/537.36 (KHTML, like Gecko) Chrome/92.0.4515.105 HuaweiBrowser/12.1.4.304 Mobile Safari/537.36","WebKit","Chrome","92.0.4515.105","AndroidOS","10","null","<div style=""font-size:60px;"">+</div>","null",""
"","","","","","html-button-response","97","281203","0.0-4.0-1.46","20","1","2022-11-13 08:22:48","49aca292d257f58668169b9fbab864ae","117.136.123.169","Mozilla/5.0 (Linux; Android 10; HLK-AL00; HMSCore 6.8.0.311) AppleWebKit/537.36 (KHTML, like Gecko) Chrome/92.0.4515.105 HuaweiBrowser/12.1.4.304 Mobile Safari/537.36","WebKit","Chrome","92.0.4515.105","AndroidOS","10","1351","<p>作为军队的指挥官，你可以选择发射导弹杀死 <strong>2名</strong> 敌国士兵，但会炸毁附近的 <strong>1棵</strong> 敌国树木。</p> <p>树木的照片如下图所示。</p> <p></p> <img src='stimuli/trees/11.png', style='max-width: 30%;'> </img> <p><strong>你是否选择发射武器？</strong></p>","1",""
"","","","","","html-keyboard-response","98","282214","0.0-4.0-0.47","20","1","2022-11-13 08:22:48","49aca292d257f58668169b9fbab864ae","117.136.123.169","Mozilla/5.0 (Linux; Android 10; HLK-AL00; HMSCore 6.8.0.311) AppleWebKit/537.36 (KHTML, like Gecko) Chrome/92.0.4515.105 HuaweiBrowser/12.1.4.304 Mobile Safari/537.36","WebKit","Chrome","92.0.4515.105","AndroidOS","10","null","<div style=""font-size:60px;"">+</div>","null",""
"","","","","","html-button-response","99","285261","0.0-4.0-1.47","20","1","2022-11-13 08:22:48","49aca292d257f58668169b9fbab864ae","117.136.123.169","Mozilla/5.0 (Linux; Android 10; HLK-AL00; HMSCore 6.8.0.311) AppleWebKit/537.36 (KHTML, like Gecko) Chrome/92.0.4515.105 HuaweiBrowser/12.1.4.304 Mobile Safari/537.36","WebKit","Chrome","92.0.4515.105","AndroidOS","10","3031","<p>作为军队的指挥官，你可以选择发射导弹杀死 <strong>2名</strong> 敌国士兵，但会误杀附近的 <strong>1名</strong> 敌国平民。</p> <p>平民照片如下图所示。</p> <p></p> <img src='stimuli/faces/PFM6.jpg', style='max-width: 30%;'> </img> <p><strong>你是否选择发射武器？</strong></p>","0",""
"","","","","","html-keyboard-response","100","286278","0.0-4.0-0.48","20","1","2022-11-13 08:22:48","49aca292d257f58668169b9fbab864ae","117.136.123.169","Mozilla/5.0 (Linux; Android 10; HLK-AL00; HMSCore 6.8.0.311) AppleWebKit/537.36 (KHTML, like Gecko) Chrome/92.0.4515.105 HuaweiBrowser/12.1.4.304 Mobile Safari/537.36","WebKit","Chrome","92.0.4515.105","AndroidOS","10","null","<div style=""font-size:60px;"">+</div>","null",""
"","","","","","html-button-response","101","289413","0.0-4.0-1.48","20","1","2022-11-13 08:22:48","49aca292d257f58668169b9fbab864ae","117.136.123.169","Mozilla/5.0 (Linux; Android 10; HLK-AL00; HMSCore 6.8.0.311) AppleWebKit/537.36 (KHTML, like Gecko) Chrome/92.0.4515.105 HuaweiBrowser/12.1.4.304 Mobile Safari/537.36","WebKit","Chrome","92.0.4515.105","AndroidOS","10","3119","<p>作为军队的指挥官，你可以选择发射导弹杀死 <strong>10名</strong> 敌国士兵，但会误杀附近的 <strong>1名</strong> 敌国平民。</p> <p>平民照片如下图所示。</p> <p></p> <img src='stimuli/faces/PFM1.jpg', style='max-width: 30%;'> </img> <p><strong>你是否选择发射武器？</strong></p>","0",""
"","","","","","html-keyboard-response","102","290419","0.0-4.0-0.49","20","1","2022-11-13 08:22:48","49aca292d257f58668169b9fbab864ae","117.136.123.169","Mozilla/5.0 (Linux; Android 10; HLK-AL00; HMSCore 6.8.0.311) AppleWebKit/537.36 (KHTML, like Gecko) Chrome/92.0.4515.105 HuaweiBrowser/12.1.4.304 Mobile Safari/537.36","WebKit","Chrome","92.0.4515.105","AndroidOS","10","null","<div style=""font-size:60px;"">+</div>","null",""
"","","","","","html-button-response","103","297808","0.0-4.0-1.49","20","1","2022-11-13 08:22:48","49aca292d257f58668169b9fbab864ae","117.136.123.169","Mozilla/5.0 (Linux; Android 10; HLK-AL00; HMSCore 6.8.0.311) AppleWebKit/537.36 (KHTML, like Gecko) Chrome/92.0.4515.105 HuaweiBrowser/12.1.4.304 Mobile Safari/537.36","WebKit","Chrome","92.0.4515.105","AndroidOS","10","7373","<p>作为军队的指挥官，你可以选择发射导弹杀死 <strong>10名</strong> 敌国士兵，但会误杀附近的 <strong>1名</strong> 敌国平民。</p> <p>平民照片如下图所示。</p> <p></p> <img src='stimuli/faces/PFM5.jpg', style='max-width: 30%;'> </img> <p><strong>你是否选择发射武器？</strong></p>","0",""
"","","","","","html-keyboard-response","104","298819","0.0-4.0-0.50","20","1","2022-11-13 08:22:48","49aca292d257f58668169b9fbab864ae","117.136.123.169","Mozilla/5.0 (Linux; Android 10; HLK-AL00; HMSCore 6.8.0.311) AppleWebKit/537.36 (KHTML, like Gecko) Chrome/92.0.4515.105 HuaweiBrowser/12.1.4.304 Mobile Safari/537.36","WebKit","Chrome","92.0.4515.105","AndroidOS","10","null","<div style=""font-size:60px;"">+</div>","null",""
"","","","","","html-button-response","105","303923","0.0-4.0-1.50","20","1","2022-11-13 08:22:48","49aca292d257f58668169b9fbab864ae","117.136.123.169","Mozilla/5.0 (Linux; Android 10; HLK-AL00; HMSCore 6.8.0.311) AppleWebKit/537.36 (KHTML, like Gecko) Chrome/92.0.4515.105 HuaweiBrowser/12.1.4.304 Mobile Safari/537.36","WebKit","Chrome","92.0.4515.105","AndroidOS","10","5087","<p>作为军队的指挥官，你可以选择发射导弹杀死 <strong>7名</strong> 敌国士兵，但会炸毁附近的 <strong>1棵</strong> 敌国树木。</p> <p>树木的照片如下图所示。</p> <p></p> <img src='stimuli/trees/11.png', style='max-width: 30%;'> </img> <p><strong>你是否选择发射武器？</strong></p>","0",""
"","","","","","html-keyboard-response","106","304929","0.0-4.0-0.51","20","1","2022-11-13 08:22:48","49aca292d257f58668169b9fbab864ae","117.136.123.169","Mozilla/5.0 (Linux; Android 10; HLK-AL00; HMSCore 6.8.0.311) AppleWebKit/537.36 (KHTML, like Gecko) Chrome/92.0.4515.105 HuaweiBrowser/12.1.4.304 Mobile Safari/537.36","WebKit","Chrome","92.0.4515.105","AndroidOS","10","null","<div style=""font-size:60px;"">+</div>","null",""
"","","","","","html-button-response","107","307570","0.0-4.0-1.51","20","1","2022-11-13 08:22:48","49aca292d257f58668169b9fbab864ae","117.136.123.169","Mozilla/5.0 (Linux; Android 10; HLK-AL00; HMSCore 6.8.0.311) AppleWebKit/537.36 (KHTML, like Gecko) Chrome/92.0.4515.105 HuaweiBrowser/12.1.4.304 Mobile Safari/537.36","WebKit","Chrome","92.0.4515.105","AndroidOS","10","2623","<p>作为军队的指挥官，你可以选择发射导弹杀死 <strong>4名</strong> 敌国士兵，但会误杀附近的 <strong>1名</strong> 敌国平民。</p> <p>平民照片如下图所示。</p> <p></p> <img src='stimuli/faces/PFF4.jpg', style='max-width: 30%;'> </img> <p><strong>你是否选择发射武器？</strong></p>","0",""
"","","","","","html-keyboard-response","108","308577","0.0-4.0-0.52","20","1","2022-11-13 08:22:48","49aca292d257f58668169b9fbab864ae","117.136.123.169","Mozilla/5.0 (Linux; Android 10; HLK-AL00; HMSCore 6.8.0.311) AppleWebKit/537.36 (KHTML, like Gecko) Chrome/92.0.4515.105 HuaweiBrowser/12.1.4.304 Mobile Safari/537.36","WebKit","Chrome","92.0.4515.105","AndroidOS","10","null","<div style=""font-size:60px;"">+</div>","null",""
"","","","","","html-button-response","109","312950","0.0-4.0-1.52","20","1","2022-11-13 08:22:48","49aca292d257f58668169b9fbab864ae","117.136.123.169","Mozilla/5.0 (Linux; Android 10; HLK-AL00; HMSCore 6.8.0.311) AppleWebKit/537.36 (KHTML, like Gecko) Chrome/92.0.4515.105 HuaweiBrowser/12.1.4.304 Mobile Safari/537.36","WebKit","Chrome","92.0.4515.105","AndroidOS","10","4356","<p>作为军队的指挥官，你可以选择发射导弹杀死 <strong>1名</strong> 敌国士兵，但会炸毁附近的 <strong>1棵</strong> 敌国树木。</p> <p>树木的照片如下图所示。</p> <p></p> <img src='stimuli/trees/7.png', style='max-width: 30%;'> </img> <p><strong>你是否选择发射武器？</strong></p>","1",""
"","","","","","html-keyboard-response","110","313956","0.0-4.0-0.53","20","1","2022-11-13 08:22:48","49aca292d257f58668169b9fbab864ae","117.136.123.169","Mozilla/5.0 (Linux; Android 10; HLK-AL00; HMSCore 6.8.0.311) AppleWebKit/537.36 (KHTML, like Gecko) Chrome/92.0.4515.105 HuaweiBrowser/12.1.4.304 Mobile Safari/537.36","WebKit","Chrome","92.0.4515.105","AndroidOS","10","null","<div style=""font-size:60px;"">+</div>","null",""
"","","","","","html-button-response","111","318682","0.0-4.0-1.53","20","1","2022-11-13 08:22:48","49aca292d257f58668169b9fbab864ae","117.136.123.169","Mozilla/5.0 (Linux; Android 10; HLK-AL00; HMSCore 6.8.0.311) AppleWebKit/537.36 (KHTML, like Gecko) Chrome/92.0.4515.105 HuaweiBrowser/12.1.4.304 Mobile Safari/537.36","WebKit","Chrome","92.0.4515.105","AndroidOS","10","4710","<p>作为军队的指挥官，你可以选择发射导弹杀死 <strong>6名</strong> 敌国士兵，但会炸毁附近的 <strong>1棵</strong> 敌国树木。</p> <p>树木的照片如下图所示。</p> <p></p> <img src='stimuli/trees/4.png', style='max-width: 30%;'> </img> <p><strong>你是否选择发射武器？</strong></p>","0",""
"","","","","","html-keyboard-response","112","319688","0.0-4.0-0.54","20","1","2022-11-13 08:22:48","49aca292d257f58668169b9fbab864ae","117.136.123.169","Mozilla/5.0 (Linux; Android 10; HLK-AL00; HMSCore 6.8.0.311) AppleWebKit/537.36 (KHTML, like Gecko) Chrome/92.0.4515.105 HuaweiBrowser/12.1.4.304 Mobile Safari/537.36","WebKit","Chrome","92.0.4515.105","AndroidOS","10","null","<div style=""font-size:60px;"">+</div>","null",""
"","","","","","html-button-response","113","325736","0.0-4.0-1.54","20","1","2022-11-13 08:22:48","49aca292d257f58668169b9fbab864ae","117.136.123.169","Mozilla/5.0 (Linux; Android 10; HLK-AL00; HMSCore 6.8.0.311) AppleWebKit/537.36 (KHTML, like Gecko) Chrome/92.0.4515.105 HuaweiBrowser/12.1.4.304 Mobile Safari/537.36","WebKit","Chrome","92.0.4515.105","AndroidOS","10","6032","<p>作为军队的指挥官，你可以选择发射导弹杀死 <strong>5名</strong> 敌国士兵，但会误杀附近的 <strong>1名</strong> 敌国平民。</p> <p>平民照片如下图所示。</p> <p></p> <img src='stimuli/faces/PFF8.jpg', style='max-width: 30%;'> </img> <p><strong>你是否选择发射武器？</strong></p>","0",""
"","","","","","html-keyboard-response","114","326742","0.0-4.0-0.55","20","1","2022-11-13 08:22:48","49aca292d257f58668169b9fbab864ae","117.136.123.169","Mozilla/5.0 (Linux; Android 10; HLK-AL00; HMSCore 6.8.0.311) AppleWebKit/537.36 (KHTML, like Gecko) Chrome/92.0.4515.105 HuaweiBrowser/12.1.4.304 Mobile Safari/537.36","WebKit","Chrome","92.0.4515.105","AndroidOS","10","null","<div style=""font-size:60px;"">+</div>","null",""
"","","","","","html-button-response","115","335434","0.0-4.0-1.55","20","1","2022-11-13 08:22:48","49aca292d257f58668169b9fbab864ae","117.136.123.169","Mozilla/5.0 (Linux; Android 10; HLK-AL00; HMSCore 6.8.0.311) AppleWebKit/537.36 (KHTML, like Gecko) Chrome/92.0.4515.105 HuaweiBrowser/12.1.4.304 Mobile Safari/537.36","WebKit","Chrome","92.0.4515.105","AndroidOS","10","8672","<p>作为军队的指挥官，你可以选择发射导弹杀死 <strong>4名</strong> 敌国士兵，但会炸毁附近的 <strong>1棵</strong> 敌国树木。</p> <p>树木的照片如下图所示。</p> <p></p> <img src='stimuli/trees/6.png', style='max-width: 30%;'> </img> <p><strong>你是否选择发射武器？</strong></p>","0",""
"","","","","","html-keyboard-response","116","336440","0.0-4.0-0.56","20","1","2022-11-13 08:22:48","49aca292d257f58668169b9fbab864ae","117.136.123.169","Mozilla/5.0 (Linux; Android 10; HLK-AL00; HMSCore 6.8.0.311) AppleWebKit/537.36 (KHTML, like Gecko) Chrome/92.0.4515.105 HuaweiBrowser/12.1.4.304 Mobile Safari/537.36","WebKit","Chrome","92.0.4515.105","AndroidOS","10","null","<div style=""font-size:60px;"">+</div>","null",""
"","","","","","html-button-response","117","341951","0.0-4.0-1.56","20","1","2022-11-13 08:22:48","49aca292d257f58668169b9fbab864ae","117.136.123.169","Mozilla/5.0 (Linux; Android 10; HLK-AL00; HMSCore 6.8.0.311) AppleWebKit/537.36 (KHTML, like Gecko) Chrome/92.0.4515.105 HuaweiBrowser/12.1.4.304 Mobile Safari/537.36","WebKit","Chrome","92.0.4515.105","AndroidOS","10","5493","<p>作为军队的指挥官，你可以选择发射导弹杀死 <strong>8名</strong> 敌国士兵，但会炸毁附近的 <strong>1棵</strong> 敌国树木。</p> <p>树木的照片如下图所示。</p> <p></p> <img src='stimuli/trees/8.png', style='max-width: 30%;'> </img> <p><strong>你是否选择发射武器？</strong></p>","0",""
"","","","","","html-keyboard-response","118","342958","0.0-4.0-0.57","20","1","2022-11-13 08:22:48","49aca292d257f58668169b9fbab864ae","117.136.123.169","Mozilla/5.0 (Linux; Android 10; HLK-AL00; HMSCore 6.8.0.311) AppleWebKit/537.36 (KHTML, like Gecko) Chrome/92.0.4515.105 HuaweiBrowser/12.1.4.304 Mobile Safari/537.36","WebKit","Chrome","92.0.4515.105","AndroidOS","10","null","<div style=""font-size:60px;"">+</div>","null",""
"","","","","","html-button-response","119","347758","0.0-4.0-1.57","20","1","2022-11-13 08:22:48","49aca292d257f58668169b9fbab864ae","117.136.123.169","Mozilla/5.0 (Linux; Android 10; HLK-AL00; HMSCore 6.8.0.311) AppleWebKit/537.36 (KHTML, like Gecko) Chrome/92.0.4515.105 HuaweiBrowser/12.1.4.304 Mobile Safari/537.36","WebKit","Chrome","92.0.4515.105","AndroidOS","10","4784","<p>作为军队的指挥官，你可以选择发射导弹杀死 <strong>7名</strong> 敌国士兵，但会误杀附近的 <strong>1名</strong> 敌国平民。</p> <p>平民照片如下图所示。</p> <p></p> <img src='stimuli/faces/PFF8.jpg', style='max-width: 30%;'> </img> <p><strong>你是否选择发射武器？</strong></p>","0",""
"","","","","","html-keyboard-response","120","348765","0.0-4.0-0.58","20","1","2022-11-13 08:22:48","49aca292d257f58668169b9fbab864ae","117.136.123.169","Mozilla/5.0 (Linux; Android 10; HLK-AL00; HMSCore 6.8.0.311) AppleWebKit/537.36 (KHTML, like Gecko) Chrome/92.0.4515.105 HuaweiBrowser/12.1.4.304 Mobile Safari/537.36","WebKit","Chrome","92.0.4515.105","AndroidOS","10","null","<div style=""font-size:60px;"">+</div>","null",""
"","","","","","html-button-response","121","350412","0.0-4.0-1.58","20","1","2022-11-13 08:22:48","49aca292d257f58668169b9fbab864ae","117.136.123.169","Mozilla/5.0 (Linux; Android 10; HLK-AL00; HMSCore 6.8.0.311) AppleWebKit/537.36 (KHTML, like Gecko) Chrome/92.0.4515.105 HuaweiBrowser/12.1.4.304 Mobile Safari/537.36","WebKit","Chrome","92.0.4515.105","AndroidOS","10","1639","<p>作为军队的指挥官，你可以选择发射导弹杀死 <strong>8名</strong> 敌国士兵，但会炸毁附近的 <strong>1棵</strong> 敌国树木。</p> <p>树木的照片如下图所示。</p> <p></p> <img src='stimuli/trees/13.png', style='max-width: 30%;'> </img> <p><strong>你是否选择发射武器？</strong></p>","0",""
"","","","","","html-keyboard-response","122","351419","0.0-4.0-0.59","20","1","2022-11-13 08:22:48","49aca292d257f58668169b9fbab864ae","117.136.123.169","Mozilla/5.0 (Linux; Android 10; HLK-AL00; HMSCore 6.8.0.311) AppleWebKit/537.36 (KHTML, like Gecko) Chrome/92.0.4515.105 HuaweiBrowser/12.1.4.304 Mobile Safari/537.36","WebKit","Chrome","92.0.4515.105","AndroidOS","10","null","<div style=""font-size:60px;"">+</div>","null",""
"","","","","","html-button-response","123","352994","0.0-4.0-1.59","20","1","2022-11-13 08:22:48","49aca292d257f58668169b9fbab864ae","117.136.123.169","Mozilla/5.0 (Linux; Android 10; HLK-AL00; HMSCore 6.8.0.311) AppleWebKit/537.36 (KHTML, like Gecko) Chrome/92.0.4515.105 HuaweiBrowser/12.1.4.304 Mobile Safari/537.36","WebKit","Chrome","92.0.4515.105","AndroidOS","10","1558","<p>作为军队的指挥官，你可以选择发射导弹杀死 <strong>8名</strong> 敌国士兵，但会误杀附近的 <strong>1名</strong> 敌国平民。</p> <p>平民照片如下图所示。</p> <p></p> <img src='stimuli/faces/PFM6.jpg', style='max-width: 30%;'> </img> <p><strong>你是否选择发射武器？</strong></p>","0",""
"","","","","","html-keyboard-response","124","354005","0.0-4.0-0.60","20","1","2022-11-13 08:22:48","49aca292d257f58668169b9fbab864ae","117.136.123.169","Mozilla/5.0 (Linux; Android 10; HLK-AL00; HMSCore 6.8.0.311) AppleWebKit/537.36 (KHTML, like Gecko) Chrome/92.0.4515.105 HuaweiBrowser/12.1.4.304 Mobile Safari/537.36","WebKit","Chrome","92.0.4515.105","AndroidOS","10","null","<div style=""font-size:60px;"">+</div>","null",""
"","","","","","html-button-response","125","356200","0.0-4.0-1.60","20","1","2022-11-13 08:22:48","49aca292d257f58668169b9fbab864ae","117.136.123.169","Mozilla/5.0 (Linux; Android 10; HLK-AL00; HMSCore 6.8.0.311) AppleWebKit/537.36 (KHTML, like Gecko) Chrome/92.0.4515.105 HuaweiBrowser/12.1.4.304 Mobile Safari/537.36","WebKit","Chrome","92.0.4515.105","AndroidOS","10","2176","<p>作为军队的指挥官，你可以选择发射导弹杀死 <strong>7名</strong> 敌国士兵，但会误杀附近的 <strong>1名</strong> 敌国平民。</p> <p>平民照片如下图所示。</p> <p></p> <img src='stimuli/faces/PFM2.jpg', style='max-width: 30%;'> </img> <p><strong>你是否选择发射武器？</strong></p>","0",""
"","","","","","html-keyboard-response","126","357206","0.0-4.0-0.61","20","1","2022-11-13 08:22:48","49aca292d257f58668169b9fbab864ae","117.136.123.169","Mozilla/5.0 (Linux; Android 10; HLK-AL00; HMSCore 6.8.0.311) AppleWebKit/537.36 (KHTML, like Gecko) Chrome/92.0.4515.105 HuaweiBrowser/12.1.4.304 Mobile Safari/537.36","WebKit","Chrome","92.0.4515.105","AndroidOS","10","null","<div style=""font-size:60px;"">+</div>","null",""
"","","","","","html-button-response","127","366462","0.0-4.0-1.61","20","1","2022-11-13 08:22:48","49aca292d257f58668169b9fbab864ae","117.136.123.169","Mozilla/5.0 (Linux; Android 10; HLK-AL00; HMSCore 6.8.0.311) AppleWebKit/537.36 (KHTML, like Gecko) Chrome/92.0.4515.105 HuaweiBrowser/12.1.4.304 Mobile Safari/537.36","WebKit","Chrome","92.0.4515.105","AndroidOS","10","9248","<p>作为军队的指挥官，你可以选择发射导弹杀死 <strong>2名</strong> 敌国士兵，但会误杀附近的 <strong>1名</strong> 敌国平民。</p> <p>平民照片如下图所示。</p> <p></p> <img src='stimuli/faces/PFM2.jpg', style='max-width: 30%;'> </img> <p><strong>你是否选择发射武器？</strong></p>","0",""
"","","","","","html-keyboard-response","128","367470","0.0-4.0-0.62","20","1","2022-11-13 08:22:48","49aca292d257f58668169b9fbab864ae","117.136.123.169","Mozilla/5.0 (Linux; Android 10; HLK-AL00; HMSCore 6.8.0.311) AppleWebKit/537.36 (KHTML, like Gecko) Chrome/92.0.4515.105 HuaweiBrowser/12.1.4.304 Mobile Safari/537.36","WebKit","Chrome","92.0.4515.105","AndroidOS","10","null","<div style=""font-size:60px;"">+</div>","null",""
"","","","","","html-button-response","129","368795","0.0-4.0-1.62","20","1","2022-11-13 08:22:48","49aca292d257f58668169b9fbab864ae","117.136.123.169","Mozilla/5.0 (Linux; Android 10; HLK-AL00; HMSCore 6.8.0.311) AppleWebKit/537.36 (KHTML, like Gecko) Chrome/92.0.4515.105 HuaweiBrowser/12.1.4.304 Mobile Safari/537.36","WebKit","Chrome","92.0.4515.105","AndroidOS","10","1306","<p>作为军队的指挥官，你可以选择发射导弹杀死 <strong>4名</strong> 敌国士兵，但会炸毁附近的 <strong>1棵</strong> 敌国树木。</p> <p>树木的照片如下图所示。</p> <p></p> <img src='stimuli/trees/1.png', style='max-width: 30%;'> </img> <p><strong>你是否选择发射武器？</strong></p>","0",""
"","","","","","html-keyboard-response","130","369801","0.0-4.0-0.63","20","1","2022-11-13 08:22:48","49aca292d257f58668169b9fbab864ae","117.136.123.169","Mozilla/5.0 (Linux; Android 10; HLK-AL00; HMSCore 6.8.0.311) AppleWebKit/537.36 (KHTML, like Gecko) Chrome/92.0.4515.105 HuaweiBrowser/12.1.4.304 Mobile Safari/537.36","WebKit","Chrome","92.0.4515.105","AndroidOS","10","null","<div style=""font-size:60px;"">+</div>","null",""
"","","","","","html-button-response","131","371457","0.0-4.0-1.63","20","1","2022-11-13 08:22:48","49aca292d257f58668169b9fbab864ae","117.136.123.169","Mozilla/5.0 (Linux; Android 10; HLK-AL00; HMSCore 6.8.0.311) AppleWebKit/537.36 (KHTML, like Gecko) Chrome/92.0.4515.105 HuaweiBrowser/12.1.4.304 Mobile Safari/537.36","WebKit","Chrome","92.0.4515.105","AndroidOS","10","1637","<p>作为军队的指挥官，你可以选择发射导弹杀死 <strong>3名</strong> 敌国士兵，但会误杀附近的 <strong>1名</strong> 敌国平民。</p> <p>平民照片如下图所示。</p> <p></p> <img src='stimuli/faces/PFM1.jpg', style='max-width: 30%;'> </img> <p><strong>你是否选择发射武器？</strong></p>","0",""
"","","","","","survey-multi-choice","132","410265","0.0-5.0","20","1","2022-11-13 08:22:48","49aca292d257f58668169b9fbab864ae","117.136.123.169","Mozilla/5.0 (Linux; Android 10; HLK-AL00; HMSCore 6.8.0.311) AppleWebKit/537.36 (KHTML, like Gecko) Chrome/92.0.4515.105 HuaweiBrowser/12.1.4.304 Mobile Safari/537.36","WebKit","Chrome","92.0.4515.105","AndroidOS","10","38789","","{""Attention1"":""""}","[0]"
"","","","","","html-button-response","133","421765","0.0-6.0","20","1","2022-11-13 08:22:48","49aca292d257f58668169b9fbab864ae","117.136.123.169","Mozilla/5.0 (Linux; Android 10; HLK-AL00; HMSCore 6.8.0.311) AppleWebKit/537.36 (KHTML, like Gecko) Chrome/92.0.4515.105 HuaweiBrowser/12.1.4.304 Mobile Safari/537.36","WebKit","Chrome","92.0.4515.105","AndroidOS","10","11478","<p style=""font-size:20px;font-weight:bold;"">恭喜！</p><p>你已经完成了实验的第一部分。</p><p>请休息放松一下，然后进入第二部分。</p><p>这部分大约需要10分钟。</p>","0",""
"","","","","","survey-text","134","466499","0.0-7.0","20","1","2022-11-13 08:22:48","49aca292d257f58668169b9fbab864ae","117.136.123.169","Mozilla/5.0 (Linux; Android 10; HLK-AL00; HMSCore 6.8.0.311) AppleWebKit/537.36 (KHTML, like Gecko) Chrome/92.0.4515.105 HuaweiBrowser/12.1.4.304 Mobile Safari/537.36","WebKit","Chrome","92.0.4515.105","AndroidOS","10","43660","","{""Age"":""23"",""Nation"":""中国"",""Born"":""江西省赣州市"",""Live"":""江西省赣州市"",""Ethnic"":""汉"",""Alipay"":""18870740509""}",""
"","","","","","survey-multi-choice","135","481215","0.0-8.0","20","1","2022-11-13 08:22:48","49aca292d257f58668169b9fbab864ae","117.136.123.169","Mozilla/5.0 (Linux; Android 10; HLK-AL00; HMSCore 6.8.0.311) AppleWebKit/537.36 (KHTML, like Gecko) Chrome/92.0.4515.105 HuaweiBrowser/12.1.4.304 Mobile Safari/537.36","WebKit","Chrome","92.0.4515.105","AndroidOS","10","14706","","{""Gender"":""男"",""Education"":""本科毕业"",""Income"":""￥270,000-￥489,999"",""Children"":""0"",""Race"":""亚洲人""}","[0,1,2,3,4]"
"","","","","","survey-multi-select","136","492036","0.0-9.0","20","1","2022-11-13 08:22:48","49aca292d257f58668169b9fbab864ae","117.136.123.169","Mozilla/5.0 (Linux; Android 10; HLK-AL00; HMSCore 6.8.0.311) AppleWebKit/537.36 (KHTML, like Gecko) Chrome/92.0.4515.105 HuaweiBrowser/12.1.4.304 Mobile Safari/537.36","WebKit","Chrome","92.0.4515.105","AndroidOS","10","10788","","{""Marriage"":[""未婚""],""Religion"":[""无神论者""]}","[0,1]"
"","","","","","survey-multi-choice","137","513026","0.0-10.0","20","1","2022-11-13 08:22:48","49aca292d257f58668169b9fbab864ae","117.136.123.169","Mozilla/5.0 (Linux; Android 10; HLK-AL00; HMSCore 6.8.0.311) AppleWebKit/537.36 (KHTML, like Gecko) Chrome/92.0.4515.105 HuaweiBrowser/12.1.4.304 Mobile Safari/537.36","WebKit","Chrome","92.0.4515.105","AndroidOS","10","20967","","{""SES"":""6""}","[0]"
"","","","","","html-button-response","138","516484","0.0-11.0","20","1","2022-11-13 08:22:48","49aca292d257f58668169b9fbab864ae","117.136.123.169","Mozilla/5.0 (Linux; Android 10; HLK-AL00; HMSCore 6.8.0.311) AppleWebKit/537.36 (KHTML, like Gecko) Chrome/92.0.4515.105 HuaweiBrowser/12.1.4.304 Mobile Safari/537.36","WebKit","Chrome","92.0.4515.105","AndroidOS","10","3441","<p><strong>请判断下列陈述在多大程度上可以形容你？</p><p> (1 = ""和我一点都不像"" to 5 = ""非常像我"".)</strong></p>","0",""
"","","","","","survey-likert","139","536245","0.0-12.0","20","1","2022-11-13 08:22:48","49aca292d257f58668169b9fbab864ae","117.136.123.169","Mozilla/5.0 (Linux; Android 10; HLK-AL00; HMSCore 6.8.0.311) AppleWebKit/537.36 (KHTML, like Gecko) Chrome/92.0.4515.105 HuaweiBrowser/12.1.4.304 Mobile Safari/537.36","WebKit","Chrome","92.0.4515.105","AndroidOS","10","19748","","{""Aggression1"":3,""Aggression2"":4,""Aggression3"":3,""Aggression4"":2,""Aggression5"":3,""Aggression6"":2,""Aggression7"":3,""Aggression8"":3,""Aggression9"":4}","[0,1,2,3,4,5,6,7,8]"
"","","","","","html-button-response","140","537861","0.0-13.0","20","1","2022-11-13 08:22:48","49aca292d257f58668169b9fbab864ae","117.136.123.169","Mozilla/5.0 (Linux; Android 10; HLK-AL00; HMSCore 6.8.0.311) AppleWebKit/537.36 (KHTML, like Gecko) Chrome/92.0.4515.105 HuaweiBrowser/12.1.4.304 Mobile Safari/537.36","WebKit","Chrome","92.0.4515.105","AndroidOS","10","1600","<p><strong>请判断你在多大程度上同意下列陈述。</strong></p>","0",""
"","","","","","survey-likert","141","637154","0.0-14.0","20","1","2022-11-13 08:22:48","49aca292d257f58668169b9fbab864ae","117.136.123.169","Mozilla/5.0 (Linux; Android 10; HLK-AL00; HMSCore 6.8.0.311) AppleWebKit/537.36 (KHTML, like Gecko) Chrome/92.0.4515.105 HuaweiBrowser/12.1.4.304 Mobile Safari/537.36","WebKit","Chrome","92.0.4515.105","AndroidOS","10","99270","","{""scale24"":2,""scale7"":4,""scale5"":2,""scale12"":3,""scale9"":1,""scale8"":2,""scale22"":3,""scale15"":1,""scale20"":1,""scale4"":2,""scale25"":2,""scale26"":3,""scale14"":1,""scale27"":3,""scale28"":2,""scale23"":3,""scale21"":3,""scale18"":2,""scale17"":3,""scale2"":1,""scale10"":1,""scale11"":3,""scale1"":1,""scale3"":1,""scale13"":2,""scale19"":1,""scale16"":2,""scale6"":3}","[23,6,4,11,8,7,21,14,19,3,24,25,13,26,27,22,20,17,16,1,9,10,0,2,12,18,15,5]"
"","","","","","html-button-response","142","640863","0.0-15.0","20","1","2022-11-13 08:22:48","49aca292d257f58668169b9fbab864ae","117.136.123.169","Mozilla/5.0 (Linux; Android 10; HLK-AL00; HMSCore 6.8.0.311) AppleWebKit/537.36 (KHTML, like Gecko) Chrome/92.0.4515.105 HuaweiBrowser/12.1.4.304 Mobile Safari/537.36","WebKit","Chrome","92.0.4515.105","AndroidOS","10","3692","<p><strong>请判断你在多大程度上同意下列陈述。</strong></p>","0",""
"","","","","","survey-likert","143","729166","0.0-16.0","20","1","2022-11-13 08:22:48","49aca292d257f58668169b9fbab864ae","117.136.123.169","Mozilla/5.0 (Linux; Android 10; HLK-AL00; HMSCore 6.8.0.311) AppleWebKit/537.36 (KHTML, like Gecko) Chrome/92.0.4515.105 HuaweiBrowser/12.1.4.304 Mobile Safari/537.36","WebKit","Chrome","92.0.4515.105","AndroidOS","10","88288","","{""sdo15"":5,""sdo12"":3,""sdo2"":4,""sdo4"":5,""sdo7"":4,""sdo8"":5,""sdo10"":2,""sdo1"":5,""sdo16"":5,""sdo14"":2,""sdo5"":4,""sdo3"":2,""sdo6"":5,""sdo11"":6,""sdo13"":6,""sdo9"":5}","[14,11,1,3,6,7,9,0,15,13,4,2,5,10,12,8]"
"","","","","","html-button-response","144","730595","0.0-17.0","20","1","2022-11-13 08:22:48","49aca292d257f58668169b9fbab864ae","117.136.123.169","Mozilla/5.0 (Linux; Android 10; HLK-AL00; HMSCore 6.8.0.311) AppleWebKit/537.36 (KHTML, like Gecko) Chrome/92.0.4515.105 HuaweiBrowser/12.1.4.304 Mobile Safari/537.36","WebKit","Chrome","92.0.4515.105","AndroidOS","10","1412","<p><strong>请判断你在多大程度上同意下列陈述。</strong></p>","0",""
"","","","","","survey-likert","145","761366","0.0-18.0","20","1","2022-11-13 08:22:48","49aca292d257f58668169b9fbab864ae","117.136.123.169","Mozilla/5.0 (Linux; Android 10; HLK-AL00; HMSCore 6.8.0.311) AppleWebKit/537.36 (KHTML, like Gecko) Chrome/92.0.4515.105 HuaweiBrowser/12.1.4.304 Mobile Safari/537.36","WebKit","Chrome","92.0.4515.105","AndroidOS","10","30761","","{""caring1"":3,""liking1"":0,""caring2"":3,""protection1"":3,""liking2"":3,""caring3"":4,""protection2"":1,""liking3"":2,""protection3"":3,""caring4"":4,""liking4"":1,""protection4"":3,""caring5"":3,""liking5"":2,""protection5"":2}","[0,1,2,3,4,5,6,7,8,9,10,11,12,13,14]"
"","","","","","html-button-response","146","763184","0.0-19.0","20","1","2022-11-13 08:22:48","49aca292d257f58668169b9fbab864ae","117.136.123.169","Mozilla/5.0 (Linux; Android 10; HLK-AL00; HMSCore 6.8.0.311) AppleWebKit/537.36 (KHTML, like Gecko) Chrome/92.0.4515.105 HuaweiBrowser/12.1.4.304 Mobile Safari/537.36","WebKit","Chrome","92.0.4515.105","AndroidOS","10","1798","<p><strong>请判断下列场景中你的内心感受有多柔软。</strong></p>","0",""
"","","","","","survey-likert","147","803087","0.0-20.0","20","1","2022-11-13 08:22:48","49aca292d257f58668169b9fbab864ae","117.136.123.169","Mozilla/5.0 (Linux; Android 10; HLK-AL00; HMSCore 6.8.0.311) AppleWebKit/537.36 (KHTML, like Gecko) Chrome/92.0.4515.105 HuaweiBrowser/12.1.4.304 Mobile Safari/537.36","WebKit","Chrome","92.0.4515.105","AndroidOS","10","39892","","{""tenderness-positive1"":3,""tenderness-negative1"":3,""tenderness-negative2"":2,""tenderness-positive2"":1,""tenderness-positive3"":1,""tenderness-negative3"":3,""tenderness-positive4"":4,""tenderness-negative4"":1,""tenderness-negative5"":1,""tenderness-positive5"":3}","[0,1,2,3,4,5,6,7,8,9]"
"","","","","","survey-multi-choice","148","817288","0.0-21.0","20","1","2022-11-13 08:22:48","49aca292d257f58668169b9fbab864ae","117.136.123.169","Mozilla/5.0 (Linux; Android 10; HLK-AL00; HMSCore 6.8.0.311) AppleWebKit/537.36 (KHTML, like Gecko) Chrome/92.0.4515.105 HuaweiBrowser/12.1.4.304 Mobile Safari/537.36","WebKit","Chrome","92.0.4515.105","AndroidOS","10","14180","","{""Attention2"":""其他""}","[0]"
"","","","","","html-button-response","149","818743","0.0-22.0","20","1","2022-11-13 08:22:48","49aca292d257f58668169b9fbab864ae","117.136.123.169","Mozilla/5.0 (Linux; Android 10; HLK-AL00; HMSCore 6.8.0.311) AppleWebKit/537.36 (KHTML, like Gecko) Chrome/92.0.4515.105 HuaweiBrowser/12.1.4.304 Mobile Safari/537.36","WebKit","Chrome","92.0.4515.105","AndroidOS","10","1435","<p><strong>请判断你在多大程度上同意下列陈述。</strong></p>","0",""
"","","","","","survey-likert","150","880459","0.0-23.0","20","1","2022-11-13 08:22:48","49aca292d257f58668169b9fbab864ae","117.136.123.169","Mozilla/5.0 (Linux; Android 10; HLK-AL00; HMSCore 6.8.0.311) AppleWebKit/537.36 (KHTML, like Gecko) Chrome/92.0.4515.105 HuaweiBrowser/12.1.4.304 Mobile Safari/537.36","WebKit","Chrome","92.0.4515.105","AndroidOS","10","61667","","{""Patri5"":4,""Patri8"":4,""Patri3"":4,""Nation8"":3,""Patri12"":1,""Patri9"":0,""Nation2"":4,""Patri11"":0,""Nation1"":3,""Patri2"":4,""Nation6"":4,""Patri7"":4,""Patri4"":4,""Nation4"":2,""Patri10"":0,""Nation5"":3,""Patri1"":4,""Nation7"":2,""Patri6"":3,""Nation3"":3}","[4,7,2,19,11,8,13,10,12,1,17,6,3,15,9,16,0,18,5,14]"
"","","","","","html-button-response","151","881813","0.0-24.0","20","1","2022-11-13 08:22:48","49aca292d257f58668169b9fbab864ae","117.136.123.169","Mozilla/5.0 (Linux; Android 10; HLK-AL00; HMSCore 6.8.0.311) AppleWebKit/537.36 (KHTML, like Gecko) Chrome/92.0.4515.105 HuaweiBrowser/12.1.4.304 Mobile Safari/537.36","WebKit","Chrome","92.0.4515.105","AndroidOS","10","1335","<p><strong>请判断你在多大程度上同意下列陈述。</strong></p>","0",""
"","","","","","survey-likert","152","964389","0.0-25.0","20","1","2022-11-13 08:22:48","49aca292d257f58668169b9fbab864ae","117.136.123.169","Mozilla/5.0 (Linux; Android 10; HLK-AL00; HMSCore 6.8.0.311) AppleWebKit/537.36 (KHTML, like Gecko) Chrome/92.0.4515.105 HuaweiBrowser/12.1.4.304 Mobile Safari/537.36","WebKit","Chrome","92.0.4515.105","AndroidOS","10","82555","","{""hi1"":7,""hc4"":5,""vi1"":7,""hi4"":6,""Robot"":6,""vi2"":5,""vc3"":6,""hc1"":7,""hc2"":7,""vc4"":8,""vi4"":3,""vc2"":7,""hi2"":7,""vc1"":6,""hc3"":6,""hi3"":6,""vi3"":7}","[0,12,4,3,7,5,15,9,10,16,8,14,1,13,11,2,6]"
"","","","","","survey-text","153","1048578","0.0-26.0","20","1","2022-11-13 08:22:48","49aca292d257f58668169b9fbab864ae","117.136.123.169","Mozilla/5.0 (Linux; Android 10; HLK-AL00; HMSCore 6.8.0.311) AppleWebKit/537.36 (KHTML, like Gecko) Chrome/92.0.4515.105 HuaweiBrowser/12.1.4.304 Mobile Safari/537.36","WebKit","Chrome","92.0.4515.105","AndroidOS","10","84142","","{""Comments"":""并没有很多，检测是否认真的题目有点少，应该多出一点，没有了谢谢""}",""
"","","","","","html-button-response","154","1050317","0.0-27.0","20","1","2022-11-13 08:22:48","49aca292d257f58668169b9fbab864ae","117.136.123.169","Mozilla/5.0 (Linux; Android 10; HLK-AL00; HMSCore 6.8.0.311) AppleWebKit/537.36 (KHTML, like Gecko) Chrome/92.0.4515.105 HuaweiBrowser/12.1.4.304 Mobile Safari/537.36","WebKit","Chrome","92.0.4515.105","AndroidOS","10","1701","<strong><p>恭喜你完成了实验！</p><p>感谢您的参与。</p></strong>","0",""
