"success","timeout","failed_images","failed_audio","failed_video","trial_type","trial_index","time_elapsed","internal_node_id","run_id","condition","recorded_at","source_code_version","ip","user_agent","device","browser","browser_version","platform","platform_version","rt","stimulus","response","question_order"
"true","false","[]","[]","[]","preload","0","4485","0.0-0.0","207","1","2022-11-14 05:45:30","49aca292d257f58668169b9fbab864ae","124.64.18.37","Mozilla/5.0 (Macintosh; Intel Mac OS X 10_15_7) AppleWebKit/605.1.15 (KHTML, like Gecko) Version/15.4 Safari/605.1.15","Macintosh","Safari","15.4","OS X","10_15_7","","","",""
"true","","","","","fullscreen","1","647019","0.0-1.0","207","1","2022-11-14 05:45:30","49aca292d257f58668169b9fbab864ae","124.64.18.37","Mozilla/5.0 (Macintosh; Intel Mac OS X 10_15_7) AppleWebKit/605.1.15 (KHTML, like Gecko) Version/15.4 Safari/605.1.15","Macintosh","Safari","15.4","OS X","10_15_7","","","",""
"","","","","","html-button-response","2","665342","0.0-2.0","207","1","2022-11-14 05:45:30","49aca292d257f58668169b9fbab864ae","124.64.18.37","Mozilla/5.0 (Macintosh; Intel Mac OS X 10_15_7) AppleWebKit/605.1.15 (KHTML, like Gecko) Version/15.4 Safari/605.1.15","Macintosh","Safari","15.4","OS X","10_15_7","18317","<p style=""font-size:20px;font-weight:bold;"">实验知情同意书</p><p style=""text-align:left;""><strong>实验名称：</strong>社会冲突研究</p><p style=""text-align:left;""><strong>主要研究者：</strong>韩晓春副教授（北京师范大学心理学部）</p><p style=""text-align:left;""><strong>联系方式：</strong>发送邮件至xiaochun.han@bnu.edu.cn</p><p style=""text-align:left;""><strong>研究目的：</strong>研究旨在了解人类面对群体冲突时的决策方式，以及相关的心理学特质。实验调查大约需要20分钟。</p><p style=""text-align:left;""><strong>实验流程：</strong>实验包含两部分。第一部分呈现一系列群体冲突场景，请你决定如何对这些冲突进行反应，大约需要10分钟完成。第二部分包含一系列人口统计学信息收集和心理学问卷，大约需要10分钟完成。</p><p style=""text-align:left;""><strong>参加及退出规则：</strong>参加本实验完全取决于您的个人意愿。在参与过程中，您可以随时退出，并且不用承担任何后果。</p><p style=""text-align:left;""><strong>隐私：</strong>本实验完全匿名进行，不会收集您的姓名或其他能够识别您身份的信息。实验中收集的作答仅用作科学研究使用，可能会在学术期刊/书籍上发表，或者用于教学，您的数据未来可能会和其他研究者或实验室分享，但您的个人身份不会被识别。</p><p style=""text-align:left;""><strong>实验报酬：</strong>实验完成后，您将获得15元人民币报酬，以感谢您的时间和努力。调查问卷中包含几道题目用以测验您作答时的认真度。只有完成全部实验，并且正确回答认真度测验的被试才能获得实验报酬。实验报酬将通过支付宝转账发放。</p><p style=""text-align:left;font-size:20px;""><strong>如果您同意以上实验知情同意书的内容，请点击'同意并且开始实验'按钮；否则请关闭浏览器界面，退出实验。</strong></p>","0",""
"","","","","","html-button-response","3","675060","0.0-3.0","207","1","2022-11-14 05:45:30","49aca292d257f58668169b9fbab864ae","124.64.18.37","Mozilla/5.0 (Macintosh; Intel Mac OS X 10_15_7) AppleWebKit/605.1.15 (KHTML, like Gecko) Version/15.4 Safari/605.1.15","Macintosh","Safari","15.4","OS X","10_15_7","9714","<p ><strong>实验任务一：</strong></p><p>请想象你的国家与另一个国家发生了军事冲突。</p><p>你是国家军队的指挥官，你将如何在冲突中进行决策。</p><p>具体来说，作为军队指挥官，请你决定是否发射导弹进行打击。</p><p>接下来，你会面对一系列场景，请仔细阅读每个场景，然后进行决策。</p><p>这部分实验任务大约需要10分钟。</p><p><strong>实验过程中，请集中注意力。</strong></p>","0",""
"","","","","","html-keyboard-response","4","676064","0.0-4.0-0.0","207","1","2022-11-14 05:45:30","49aca292d257f58668169b9fbab864ae","124.64.18.37","Mozilla/5.0 (Macintosh; Intel Mac OS X 10_15_7) AppleWebKit/605.1.15 (KHTML, like Gecko) Version/15.4 Safari/605.1.15","Macintosh","Safari","15.4","OS X","10_15_7","null","<div style=""font-size:60px;"">+</div>","null",""
"","","","","","html-button-response","5","686121","0.0-4.0-1.0","207","1","2022-11-14 05:45:30","49aca292d257f58668169b9fbab864ae","124.64.18.37","Mozilla/5.0 (Macintosh; Intel Mac OS X 10_15_7) AppleWebKit/605.1.15 (KHTML, like Gecko) Version/15.4 Safari/605.1.15","Macintosh","Safari","15.4","OS X","10_15_7","10054","<p>作为军队的指挥官，你可以选择发射导弹杀死 <strong>10名</strong> 敌国士兵，但会炸毁附近的 <strong>1棵</strong> 敌国树木。</p> <p>树木的照片如下图所示。</p> <p></p> <img src='stimuli/trees/12.png', style='max-width: 30%;'> </img> <p><strong>你是否选择发射武器？</strong></p>","0",""
"","","","","","html-keyboard-response","6","687125","0.0-4.0-0.1","207","1","2022-11-14 05:45:30","49aca292d257f58668169b9fbab864ae","124.64.18.37","Mozilla/5.0 (Macintosh; Intel Mac OS X 10_15_7) AppleWebKit/605.1.15 (KHTML, like Gecko) Version/15.4 Safari/605.1.15","Macintosh","Safari","15.4","OS X","10_15_7","null","<div style=""font-size:60px;"">+</div>","null",""
"","","","","","html-button-response","7","698122","0.0-4.0-1.1","207","1","2022-11-14 05:45:30","49aca292d257f58668169b9fbab864ae","124.64.18.37","Mozilla/5.0 (Macintosh; Intel Mac OS X 10_15_7) AppleWebKit/605.1.15 (KHTML, like Gecko) Version/15.4 Safari/605.1.15","Macintosh","Safari","15.4","OS X","10_15_7","10993","<p>作为军队的指挥官，你可以选择发射导弹杀死 <strong>9名</strong> 敌国士兵，但会误杀附近的 <strong>1名</strong> 敌国平民。</p> <p>平民照片如下图所示。</p> <p></p> <img src='stimuli/faces/PFF3.jpg', style='max-width: 30%;'> </img> <p><strong>你是否选择发射武器？</strong></p>","0",""
"","","","","","html-keyboard-response","8","699125","0.0-4.0-0.2","207","1","2022-11-14 05:45:30","49aca292d257f58668169b9fbab864ae","124.64.18.37","Mozilla/5.0 (Macintosh; Intel Mac OS X 10_15_7) AppleWebKit/605.1.15 (KHTML, like Gecko) Version/15.4 Safari/605.1.15","Macintosh","Safari","15.4","OS X","10_15_7","null","<div style=""font-size:60px;"">+</div>","null",""
"","","","","","html-button-response","9","703379","0.0-4.0-1.2","207","1","2022-11-14 05:45:30","49aca292d257f58668169b9fbab864ae","124.64.18.37","Mozilla/5.0 (Macintosh; Intel Mac OS X 10_15_7) AppleWebKit/605.1.15 (KHTML, like Gecko) Version/15.4 Safari/605.1.15","Macintosh","Safari","15.4","OS X","10_15_7","4250","<p>作为军队的指挥官，你可以选择发射导弹杀死 <strong>4名</strong> 敌国士兵，但会误杀附近的 <strong>1名</strong> 敌国平民。</p> <p>平民照片如下图所示。</p> <p></p> <img src='stimuli/faces/PFF4.jpg', style='max-width: 30%;'> </img> <p><strong>你是否选择发射武器？</strong></p>","0",""
"","","","","","html-keyboard-response","10","704382","0.0-4.0-0.3","207","1","2022-11-14 05:45:30","49aca292d257f58668169b9fbab864ae","124.64.18.37","Mozilla/5.0 (Macintosh; Intel Mac OS X 10_15_7) AppleWebKit/605.1.15 (KHTML, like Gecko) Version/15.4 Safari/605.1.15","Macintosh","Safari","15.4","OS X","10_15_7","null","<div style=""font-size:60px;"">+</div>","null",""
"","","","","","html-button-response","11","708256","0.0-4.0-1.3","207","1","2022-11-14 05:45:30","49aca292d257f58668169b9fbab864ae","124.64.18.37","Mozilla/5.0 (Macintosh; Intel Mac OS X 10_15_7) AppleWebKit/605.1.15 (KHTML, like Gecko) Version/15.4 Safari/605.1.15","Macintosh","Safari","15.4","OS X","10_15_7","3869","<p>作为军队的指挥官，你可以选择发射导弹杀死 <strong>7名</strong> 敌国士兵，但会炸毁附近的 <strong>1棵</strong> 敌国树木。</p> <p>树木的照片如下图所示。</p> <p></p> <img src='stimuli/trees/11.png', style='max-width: 30%;'> </img> <p><strong>你是否选择发射武器？</strong></p>","0",""
"","","","","","html-keyboard-response","12","709259","0.0-4.0-0.4","207","1","2022-11-14 05:45:30","49aca292d257f58668169b9fbab864ae","124.64.18.37","Mozilla/5.0 (Macintosh; Intel Mac OS X 10_15_7) AppleWebKit/605.1.15 (KHTML, like Gecko) Version/15.4 Safari/605.1.15","Macintosh","Safari","15.4","OS X","10_15_7","null","<div style=""font-size:60px;"">+</div>","null",""
"","","","","","html-button-response","13","712738","0.0-4.0-1.4","207","1","2022-11-14 05:45:30","49aca292d257f58668169b9fbab864ae","124.64.18.37","Mozilla/5.0 (Macintosh; Intel Mac OS X 10_15_7) AppleWebKit/605.1.15 (KHTML, like Gecko) Version/15.4 Safari/605.1.15","Macintosh","Safari","15.4","OS X","10_15_7","3474","<p>作为军队的指挥官，你可以选择发射导弹杀死 <strong>2名</strong> 敌国士兵，但会误杀附近的 <strong>1名</strong> 敌国平民。</p> <p>平民照片如下图所示。</p> <p></p> <img src='stimuli/faces/PFM6.jpg', style='max-width: 30%;'> </img> <p><strong>你是否选择发射武器？</strong></p>","0",""
"","","","","","html-keyboard-response","14","713742","0.0-4.0-0.5","207","1","2022-11-14 05:45:30","49aca292d257f58668169b9fbab864ae","124.64.18.37","Mozilla/5.0 (Macintosh; Intel Mac OS X 10_15_7) AppleWebKit/605.1.15 (KHTML, like Gecko) Version/15.4 Safari/605.1.15","Macintosh","Safari","15.4","OS X","10_15_7","null","<div style=""font-size:60px;"">+</div>","null",""
"","","","","","html-button-response","15","717673","0.0-4.0-1.5","207","1","2022-11-14 05:45:30","49aca292d257f58668169b9fbab864ae","124.64.18.37","Mozilla/5.0 (Macintosh; Intel Mac OS X 10_15_7) AppleWebKit/605.1.15 (KHTML, like Gecko) Version/15.4 Safari/605.1.15","Macintosh","Safari","15.4","OS X","10_15_7","3926","<p>作为军队的指挥官，你可以选择发射导弹杀死 <strong>1名</strong> 敌国士兵，但会误杀附近的 <strong>1名</strong> 敌国平民。</p> <p>平民照片如下图所示。</p> <p></p> <img src='stimuli/faces/PFM2.jpg', style='max-width: 30%;'> </img> <p><strong>你是否选择发射武器？</strong></p>","0",""
"","","","","","html-keyboard-response","16","718676","0.0-4.0-0.6","207","1","2022-11-14 05:45:30","49aca292d257f58668169b9fbab864ae","124.64.18.37","Mozilla/5.0 (Macintosh; Intel Mac OS X 10_15_7) AppleWebKit/605.1.15 (KHTML, like Gecko) Version/15.4 Safari/605.1.15","Macintosh","Safari","15.4","OS X","10_15_7","null","<div style=""font-size:60px;"">+</div>","null",""
"","","","","","html-button-response","17","721717","0.0-4.0-1.6","207","1","2022-11-14 05:45:30","49aca292d257f58668169b9fbab864ae","124.64.18.37","Mozilla/5.0 (Macintosh; Intel Mac OS X 10_15_7) AppleWebKit/605.1.15 (KHTML, like Gecko) Version/15.4 Safari/605.1.15","Macintosh","Safari","15.4","OS X","10_15_7","3036","<p>作为军队的指挥官，你可以选择发射导弹杀死 <strong>7名</strong> 敌国士兵，但会误杀附近的 <strong>1名</strong> 敌国平民。</p> <p>平民照片如下图所示。</p> <p></p> <img src='stimuli/faces/PFF7.jpg', style='max-width: 30%;'> </img> <p><strong>你是否选择发射武器？</strong></p>","0",""
"","","","","","html-keyboard-response","18","722720","0.0-4.0-0.7","207","1","2022-11-14 05:45:30","49aca292d257f58668169b9fbab864ae","124.64.18.37","Mozilla/5.0 (Macintosh; Intel Mac OS X 10_15_7) AppleWebKit/605.1.15 (KHTML, like Gecko) Version/15.4 Safari/605.1.15","Macintosh","Safari","15.4","OS X","10_15_7","null","<div style=""font-size:60px;"">+</div>","null",""
"","","","","","html-button-response","19","726321","0.0-4.0-1.7","207","1","2022-11-14 05:45:30","49aca292d257f58668169b9fbab864ae","124.64.18.37","Mozilla/5.0 (Macintosh; Intel Mac OS X 10_15_7) AppleWebKit/605.1.15 (KHTML, like Gecko) Version/15.4 Safari/605.1.15","Macintosh","Safari","15.4","OS X","10_15_7","3597","<p>作为军队的指挥官，你可以选择发射导弹杀死 <strong>7名</strong> 敌国士兵，但会误杀附近的 <strong>1名</strong> 敌国平民。</p> <p>平民照片如下图所示。</p> <p></p> <img src='stimuli/faces/PFM5.jpg', style='max-width: 30%;'> </img> <p><strong>你是否选择发射武器？</strong></p>","0",""
"","","","","","html-keyboard-response","20","727324","0.0-4.0-0.8","207","1","2022-11-14 05:45:30","49aca292d257f58668169b9fbab864ae","124.64.18.37","Mozilla/5.0 (Macintosh; Intel Mac OS X 10_15_7) AppleWebKit/605.1.15 (KHTML, like Gecko) Version/15.4 Safari/605.1.15","Macintosh","Safari","15.4","OS X","10_15_7","null","<div style=""font-size:60px;"">+</div>","null",""
"","","","","","html-button-response","21","729493","0.0-4.0-1.8","207","1","2022-11-14 05:45:30","49aca292d257f58668169b9fbab864ae","124.64.18.37","Mozilla/5.0 (Macintosh; Intel Mac OS X 10_15_7) AppleWebKit/605.1.15 (KHTML, like Gecko) Version/15.4 Safari/605.1.15","Macintosh","Safari","15.4","OS X","10_15_7","2164","<p>作为军队的指挥官，你可以选择发射导弹杀死 <strong>3名</strong> 敌国士兵，但会误杀附近的 <strong>1名</strong> 敌国平民。</p> <p>平民照片如下图所示。</p> <p></p> <img src='stimuli/faces/PFF7.jpg', style='max-width: 30%;'> </img> <p><strong>你是否选择发射武器？</strong></p>","0",""
"","","","","","html-keyboard-response","22","730497","0.0-4.0-0.9","207","1","2022-11-14 05:45:30","49aca292d257f58668169b9fbab864ae","124.64.18.37","Mozilla/5.0 (Macintosh; Intel Mac OS X 10_15_7) AppleWebKit/605.1.15 (KHTML, like Gecko) Version/15.4 Safari/605.1.15","Macintosh","Safari","15.4","OS X","10_15_7","null","<div style=""font-size:60px;"">+</div>","null",""
"","","","","","html-button-response","23","734223","0.0-4.0-1.9","207","1","2022-11-14 05:45:30","49aca292d257f58668169b9fbab864ae","124.64.18.37","Mozilla/5.0 (Macintosh; Intel Mac OS X 10_15_7) AppleWebKit/605.1.15 (KHTML, like Gecko) Version/15.4 Safari/605.1.15","Macintosh","Safari","15.4","OS X","10_15_7","3722","<p>作为军队的指挥官，你可以选择发射导弹杀死 <strong>8名</strong> 敌国士兵，但会误杀附近的 <strong>1名</strong> 敌国平民。</p> <p>平民照片如下图所示。</p> <p></p> <img src='stimuli/faces/PFM8.jpg', style='max-width: 30%;'> </img> <p><strong>你是否选择发射武器？</strong></p>","0",""
"","","","","","html-keyboard-response","24","735227","0.0-4.0-0.10","207","1","2022-11-14 05:45:30","49aca292d257f58668169b9fbab864ae","124.64.18.37","Mozilla/5.0 (Macintosh; Intel Mac OS X 10_15_7) AppleWebKit/605.1.15 (KHTML, like Gecko) Version/15.4 Safari/605.1.15","Macintosh","Safari","15.4","OS X","10_15_7","null","<div style=""font-size:60px;"">+</div>","null",""
"","","","","","html-button-response","25","737689","0.0-4.0-1.10","207","1","2022-11-14 05:45:30","49aca292d257f58668169b9fbab864ae","124.64.18.37","Mozilla/5.0 (Macintosh; Intel Mac OS X 10_15_7) AppleWebKit/605.1.15 (KHTML, like Gecko) Version/15.4 Safari/605.1.15","Macintosh","Safari","15.4","OS X","10_15_7","2457","<p>作为军队的指挥官，你可以选择发射导弹杀死 <strong>7名</strong> 敌国士兵，但会误杀附近的 <strong>1名</strong> 敌国平民。</p> <p>平民照片如下图所示。</p> <p></p> <img src='stimuli/faces/PFM6.jpg', style='max-width: 30%;'> </img> <p><strong>你是否选择发射武器？</strong></p>","0",""
"","","","","","html-keyboard-response","26","738692","0.0-4.0-0.11","207","1","2022-11-14 05:45:30","49aca292d257f58668169b9fbab864ae","124.64.18.37","Mozilla/5.0 (Macintosh; Intel Mac OS X 10_15_7) AppleWebKit/605.1.15 (KHTML, like Gecko) Version/15.4 Safari/605.1.15","Macintosh","Safari","15.4","OS X","10_15_7","null","<div style=""font-size:60px;"">+</div>","null",""
"","","","","","html-button-response","27","741101","0.0-4.0-1.11","207","1","2022-11-14 05:45:30","49aca292d257f58668169b9fbab864ae","124.64.18.37","Mozilla/5.0 (Macintosh; Intel Mac OS X 10_15_7) AppleWebKit/605.1.15 (KHTML, like Gecko) Version/15.4 Safari/605.1.15","Macintosh","Safari","15.4","OS X","10_15_7","2404","<p>作为军队的指挥官，你可以选择发射导弹杀死 <strong>9名</strong> 敌国士兵，但会误杀附近的 <strong>1名</strong> 敌国平民。</p> <p>平民照片如下图所示。</p> <p></p> <img src='stimuli/faces/PFF6.jpg', style='max-width: 30%;'> </img> <p><strong>你是否选择发射武器？</strong></p>","0",""
"","","","","","html-keyboard-response","28","742105","0.0-4.0-0.12","207","1","2022-11-14 05:45:30","49aca292d257f58668169b9fbab864ae","124.64.18.37","Mozilla/5.0 (Macintosh; Intel Mac OS X 10_15_7) AppleWebKit/605.1.15 (KHTML, like Gecko) Version/15.4 Safari/605.1.15","Macintosh","Safari","15.4","OS X","10_15_7","null","<div style=""font-size:60px;"">+</div>","null",""
"","","","","","html-button-response","29","743733","0.0-4.0-1.12","207","1","2022-11-14 05:45:30","49aca292d257f58668169b9fbab864ae","124.64.18.37","Mozilla/5.0 (Macintosh; Intel Mac OS X 10_15_7) AppleWebKit/605.1.15 (KHTML, like Gecko) Version/15.4 Safari/605.1.15","Macintosh","Safari","15.4","OS X","10_15_7","1624","<p>作为军队的指挥官，你可以选择发射导弹杀死 <strong>10名</strong> 敌国士兵，但会误杀附近的 <strong>1名</strong> 敌国平民。</p> <p>平民照片如下图所示。</p> <p></p> <img src='stimuli/faces/PFF4.jpg', style='max-width: 30%;'> </img> <p><strong>你是否选择发射武器？</strong></p>","0",""
"","","","","","html-keyboard-response","30","744736","0.0-4.0-0.13","207","1","2022-11-14 05:45:30","49aca292d257f58668169b9fbab864ae","124.64.18.37","Mozilla/5.0 (Macintosh; Intel Mac OS X 10_15_7) AppleWebKit/605.1.15 (KHTML, like Gecko) Version/15.4 Safari/605.1.15","Macintosh","Safari","15.4","OS X","10_15_7","null","<div style=""font-size:60px;"">+</div>","null",""
"","","","","","html-button-response","31","746016","0.0-4.0-1.13","207","1","2022-11-14 05:45:30","49aca292d257f58668169b9fbab864ae","124.64.18.37","Mozilla/5.0 (Macintosh; Intel Mac OS X 10_15_7) AppleWebKit/605.1.15 (KHTML, like Gecko) Version/15.4 Safari/605.1.15","Macintosh","Safari","15.4","OS X","10_15_7","1275","<p>作为军队的指挥官，你可以选择发射导弹杀死 <strong>5名</strong> 敌国士兵，但会炸毁附近的 <strong>1棵</strong> 敌国树木。</p> <p>树木的照片如下图所示。</p> <p></p> <img src='stimuli/trees/12.png', style='max-width: 30%;'> </img> <p><strong>你是否选择发射武器？</strong></p>","0",""
"","","","","","html-keyboard-response","32","747019","0.0-4.0-0.14","207","1","2022-11-14 05:45:30","49aca292d257f58668169b9fbab864ae","124.64.18.37","Mozilla/5.0 (Macintosh; Intel Mac OS X 10_15_7) AppleWebKit/605.1.15 (KHTML, like Gecko) Version/15.4 Safari/605.1.15","Macintosh","Safari","15.4","OS X","10_15_7","null","<div style=""font-size:60px;"">+</div>","null",""
"","","","","","html-button-response","33","749408","0.0-4.0-1.14","207","1","2022-11-14 05:45:30","49aca292d257f58668169b9fbab864ae","124.64.18.37","Mozilla/5.0 (Macintosh; Intel Mac OS X 10_15_7) AppleWebKit/605.1.15 (KHTML, like Gecko) Version/15.4 Safari/605.1.15","Macintosh","Safari","15.4","OS X","10_15_7","2385","<p>作为军队的指挥官，你可以选择发射导弹杀死 <strong>8名</strong> 敌国士兵，但会误杀附近的 <strong>1名</strong> 敌国平民。</p> <p>平民照片如下图所示。</p> <p></p> <img src='stimuli/faces/PFF5.jpg', style='max-width: 30%;'> </img> <p><strong>你是否选择发射武器？</strong></p>","0",""
"","","","","","html-keyboard-response","34","750412","0.0-4.0-0.15","207","1","2022-11-14 05:45:30","49aca292d257f58668169b9fbab864ae","124.64.18.37","Mozilla/5.0 (Macintosh; Intel Mac OS X 10_15_7) AppleWebKit/605.1.15 (KHTML, like Gecko) Version/15.4 Safari/605.1.15","Macintosh","Safari","15.4","OS X","10_15_7","null","<div style=""font-size:60px;"">+</div>","null",""
"","","","","","html-button-response","35","751670","0.0-4.0-1.15","207","1","2022-11-14 05:45:30","49aca292d257f58668169b9fbab864ae","124.64.18.37","Mozilla/5.0 (Macintosh; Intel Mac OS X 10_15_7) AppleWebKit/605.1.15 (KHTML, like Gecko) Version/15.4 Safari/605.1.15","Macintosh","Safari","15.4","OS X","10_15_7","1254","<p>作为军队的指挥官，你可以选择发射导弹杀死 <strong>5名</strong> 敌国士兵，但会炸毁附近的 <strong>1棵</strong> 敌国树木。</p> <p>树木的照片如下图所示。</p> <p></p> <img src='stimuli/trees/14.png', style='max-width: 30%;'> </img> <p><strong>你是否选择发射武器？</strong></p>","0",""
"","","","","","html-keyboard-response","36","752674","0.0-4.0-0.16","207","1","2022-11-14 05:45:30","49aca292d257f58668169b9fbab864ae","124.64.18.37","Mozilla/5.0 (Macintosh; Intel Mac OS X 10_15_7) AppleWebKit/605.1.15 (KHTML, like Gecko) Version/15.4 Safari/605.1.15","Macintosh","Safari","15.4","OS X","10_15_7","null","<div style=""font-size:60px;"">+</div>","null",""
"","","","","","html-button-response","37","754849","0.0-4.0-1.16","207","1","2022-11-14 05:45:30","49aca292d257f58668169b9fbab864ae","124.64.18.37","Mozilla/5.0 (Macintosh; Intel Mac OS X 10_15_7) AppleWebKit/605.1.15 (KHTML, like Gecko) Version/15.4 Safari/605.1.15","Macintosh","Safari","15.4","OS X","10_15_7","2170","<p>作为军队的指挥官，你可以选择发射导弹杀死 <strong>9名</strong> 敌国士兵，但会炸毁附近的 <strong>1棵</strong> 敌国树木。</p> <p>树木的照片如下图所示。</p> <p></p> <img src='stimuli/trees/8.png', style='max-width: 30%;'> </img> <p><strong>你是否选择发射武器？</strong></p>","0",""
"","","","","","html-keyboard-response","38","755854","0.0-4.0-0.17","207","1","2022-11-14 05:45:30","49aca292d257f58668169b9fbab864ae","124.64.18.37","Mozilla/5.0 (Macintosh; Intel Mac OS X 10_15_7) AppleWebKit/605.1.15 (KHTML, like Gecko) Version/15.4 Safari/605.1.15","Macintosh","Safari","15.4","OS X","10_15_7","null","<div style=""font-size:60px;"">+</div>","null",""
"","","","","","html-button-response","39","757683","0.0-4.0-1.17","207","1","2022-11-14 05:45:30","49aca292d257f58668169b9fbab864ae","124.64.18.37","Mozilla/5.0 (Macintosh; Intel Mac OS X 10_15_7) AppleWebKit/605.1.15 (KHTML, like Gecko) Version/15.4 Safari/605.1.15","Macintosh","Safari","15.4","OS X","10_15_7","1824","<p>作为军队的指挥官，你可以选择发射导弹杀死 <strong>2名</strong> 敌国士兵，但会炸毁附近的 <strong>1棵</strong> 敌国树木。</p> <p>树木的照片如下图所示。</p> <p></p> <img src='stimuli/trees/1.png', style='max-width: 30%;'> </img> <p><strong>你是否选择发射武器？</strong></p>","0",""
"","","","","","html-keyboard-response","40","758686","0.0-4.0-0.18","207","1","2022-11-14 05:45:30","49aca292d257f58668169b9fbab864ae","124.64.18.37","Mozilla/5.0 (Macintosh; Intel Mac OS X 10_15_7) AppleWebKit/605.1.15 (KHTML, like Gecko) Version/15.4 Safari/605.1.15","Macintosh","Safari","15.4","OS X","10_15_7","null","<div style=""font-size:60px;"">+</div>","null",""
"","","","","","html-button-response","41","760348","0.0-4.0-1.18","207","1","2022-11-14 05:45:30","49aca292d257f58668169b9fbab864ae","124.64.18.37","Mozilla/5.0 (Macintosh; Intel Mac OS X 10_15_7) AppleWebKit/605.1.15 (KHTML, like Gecko) Version/15.4 Safari/605.1.15","Macintosh","Safari","15.4","OS X","10_15_7","1658","<p>作为军队的指挥官，你可以选择发射导弹杀死 <strong>4名</strong> 敌国士兵，但会误杀附近的 <strong>1名</strong> 敌国平民。</p> <p>平民照片如下图所示。</p> <p></p> <img src='stimuli/faces/PFF5.jpg', style='max-width: 30%;'> </img> <p><strong>你是否选择发射武器？</strong></p>","0",""
"","","","","","html-keyboard-response","42","761352","0.0-4.0-0.19","207","1","2022-11-14 05:45:30","49aca292d257f58668169b9fbab864ae","124.64.18.37","Mozilla/5.0 (Macintosh; Intel Mac OS X 10_15_7) AppleWebKit/605.1.15 (KHTML, like Gecko) Version/15.4 Safari/605.1.15","Macintosh","Safari","15.4","OS X","10_15_7","null","<div style=""font-size:60px;"">+</div>","null",""
"","","","","","html-button-response","43","762545","0.0-4.0-1.19","207","1","2022-11-14 05:45:30","49aca292d257f58668169b9fbab864ae","124.64.18.37","Mozilla/5.0 (Macintosh; Intel Mac OS X 10_15_7) AppleWebKit/605.1.15 (KHTML, like Gecko) Version/15.4 Safari/605.1.15","Macintosh","Safari","15.4","OS X","10_15_7","1188","<p>作为军队的指挥官，你可以选择发射导弹杀死 <strong>7名</strong> 敌国士兵，但会误杀附近的 <strong>1名</strong> 敌国平民。</p> <p>平民照片如下图所示。</p> <p></p> <img src='stimuli/faces/PFM2.jpg', style='max-width: 30%;'> </img> <p><strong>你是否选择发射武器？</strong></p>","0",""
"","","","","","html-keyboard-response","44","763550","0.0-4.0-0.20","207","1","2022-11-14 05:45:30","49aca292d257f58668169b9fbab864ae","124.64.18.37","Mozilla/5.0 (Macintosh; Intel Mac OS X 10_15_7) AppleWebKit/605.1.15 (KHTML, like Gecko) Version/15.4 Safari/605.1.15","Macintosh","Safari","15.4","OS X","10_15_7","null","<div style=""font-size:60px;"">+</div>","null",""
"","","","","","html-button-response","45","767274","0.0-4.0-1.20","207","1","2022-11-14 05:45:30","49aca292d257f58668169b9fbab864ae","124.64.18.37","Mozilla/5.0 (Macintosh; Intel Mac OS X 10_15_7) AppleWebKit/605.1.15 (KHTML, like Gecko) Version/15.4 Safari/605.1.15","Macintosh","Safari","15.4","OS X","10_15_7","3719","<p>作为军队的指挥官，你可以选择发射导弹杀死 <strong>8名</strong> 敌国士兵，但会误杀附近的 <strong>1名</strong> 敌国平民。</p> <p>平民照片如下图所示。</p> <p></p> <img src='stimuli/faces/PFF8.jpg', style='max-width: 30%;'> </img> <p><strong>你是否选择发射武器？</strong></p>","0",""
"","","","","","html-keyboard-response","46","768278","0.0-4.0-0.21","207","1","2022-11-14 05:45:30","49aca292d257f58668169b9fbab864ae","124.64.18.37","Mozilla/5.0 (Macintosh; Intel Mac OS X 10_15_7) AppleWebKit/605.1.15 (KHTML, like Gecko) Version/15.4 Safari/605.1.15","Macintosh","Safari","15.4","OS X","10_15_7","null","<div style=""font-size:60px;"">+</div>","null",""
"","","","","","html-button-response","47","770373","0.0-4.0-1.21","207","1","2022-11-14 05:45:30","49aca292d257f58668169b9fbab864ae","124.64.18.37","Mozilla/5.0 (Macintosh; Intel Mac OS X 10_15_7) AppleWebKit/605.1.15 (KHTML, like Gecko) Version/15.4 Safari/605.1.15","Macintosh","Safari","15.4","OS X","10_15_7","2089","<p>作为军队的指挥官，你可以选择发射导弹杀死 <strong>3名</strong> 敌国士兵，但会误杀附近的 <strong>1名</strong> 敌国平民。</p> <p>平民照片如下图所示。</p> <p></p> <img src='stimuli/faces/PFM3.jpg', style='max-width: 30%;'> </img> <p><strong>你是否选择发射武器？</strong></p>","0",""
"","","","","","html-keyboard-response","48","771378","0.0-4.0-0.22","207","1","2022-11-14 05:45:30","49aca292d257f58668169b9fbab864ae","124.64.18.37","Mozilla/5.0 (Macintosh; Intel Mac OS X 10_15_7) AppleWebKit/605.1.15 (KHTML, like Gecko) Version/15.4 Safari/605.1.15","Macintosh","Safari","15.4","OS X","10_15_7","null","<div style=""font-size:60px;"">+</div>","null",""
"","","","","","html-button-response","49","773272","0.0-4.0-1.22","207","1","2022-11-14 05:45:30","49aca292d257f58668169b9fbab864ae","124.64.18.37","Mozilla/5.0 (Macintosh; Intel Mac OS X 10_15_7) AppleWebKit/605.1.15 (KHTML, like Gecko) Version/15.4 Safari/605.1.15","Macintosh","Safari","15.4","OS X","10_15_7","1889","<p>作为军队的指挥官，你可以选择发射导弹杀死 <strong>10名</strong> 敌国士兵，但会误杀附近的 <strong>1名</strong> 敌国平民。</p> <p>平民照片如下图所示。</p> <p></p> <img src='stimuli/faces/PFF2.jpg', style='max-width: 30%;'> </img> <p><strong>你是否选择发射武器？</strong></p>","0",""
"","","","","","html-keyboard-response","50","774276","0.0-4.0-0.23","207","1","2022-11-14 05:45:30","49aca292d257f58668169b9fbab864ae","124.64.18.37","Mozilla/5.0 (Macintosh; Intel Mac OS X 10_15_7) AppleWebKit/605.1.15 (KHTML, like Gecko) Version/15.4 Safari/605.1.15","Macintosh","Safari","15.4","OS X","10_15_7","null","<div style=""font-size:60px;"">+</div>","null",""
"","","","","","html-button-response","51","775253","0.0-4.0-1.23","207","1","2022-11-14 05:45:30","49aca292d257f58668169b9fbab864ae","124.64.18.37","Mozilla/5.0 (Macintosh; Intel Mac OS X 10_15_7) AppleWebKit/605.1.15 (KHTML, like Gecko) Version/15.4 Safari/605.1.15","Macintosh","Safari","15.4","OS X","10_15_7","972","<p>作为军队的指挥官，你可以选择发射导弹杀死 <strong>10名</strong> 敌国士兵，但会炸毁附近的 <strong>1棵</strong> 敌国树木。</p> <p>树木的照片如下图所示。</p> <p></p> <img src='stimuli/trees/7.png', style='max-width: 30%;'> </img> <p><strong>你是否选择发射武器？</strong></p>","0",""
"","","","","","html-keyboard-response","52","776258","0.0-4.0-0.24","207","1","2022-11-14 05:45:30","49aca292d257f58668169b9fbab864ae","124.64.18.37","Mozilla/5.0 (Macintosh; Intel Mac OS X 10_15_7) AppleWebKit/605.1.15 (KHTML, like Gecko) Version/15.4 Safari/605.1.15","Macintosh","Safari","15.4","OS X","10_15_7","null","<div style=""font-size:60px;"">+</div>","null",""
"","","","","","html-button-response","53","777504","0.0-4.0-1.24","207","1","2022-11-14 05:45:30","49aca292d257f58668169b9fbab864ae","124.64.18.37","Mozilla/5.0 (Macintosh; Intel Mac OS X 10_15_7) AppleWebKit/605.1.15 (KHTML, like Gecko) Version/15.4 Safari/605.1.15","Macintosh","Safari","15.4","OS X","10_15_7","1242","<p>作为军队的指挥官，你可以选择发射导弹杀死 <strong>3名</strong> 敌国士兵，但会误杀附近的 <strong>1名</strong> 敌国平民。</p> <p>平民照片如下图所示。</p> <p></p> <img src='stimuli/faces/PFF2.jpg', style='max-width: 30%;'> </img> <p><strong>你是否选择发射武器？</strong></p>","0",""
"","","","","","html-keyboard-response","54","778508","0.0-4.0-0.25","207","1","2022-11-14 05:45:30","49aca292d257f58668169b9fbab864ae","124.64.18.37","Mozilla/5.0 (Macintosh; Intel Mac OS X 10_15_7) AppleWebKit/605.1.15 (KHTML, like Gecko) Version/15.4 Safari/605.1.15","Macintosh","Safari","15.4","OS X","10_15_7","null","<div style=""font-size:60px;"">+</div>","null",""
"","","","","","html-button-response","55","779382","0.0-4.0-1.25","207","1","2022-11-14 05:45:30","49aca292d257f58668169b9fbab864ae","124.64.18.37","Mozilla/5.0 (Macintosh; Intel Mac OS X 10_15_7) AppleWebKit/605.1.15 (KHTML, like Gecko) Version/15.4 Safari/605.1.15","Macintosh","Safari","15.4","OS X","10_15_7","871","<p>作为军队的指挥官，你可以选择发射导弹杀死 <strong>6名</strong> 敌国士兵，但会炸毁附近的 <strong>1棵</strong> 敌国树木。</p> <p>树木的照片如下图所示。</p> <p></p> <img src='stimuli/trees/14.png', style='max-width: 30%;'> </img> <p><strong>你是否选择发射武器？</strong></p>","0",""
"","","","","","html-keyboard-response","56","780386","0.0-4.0-0.26","207","1","2022-11-14 05:45:30","49aca292d257f58668169b9fbab864ae","124.64.18.37","Mozilla/5.0 (Macintosh; Intel Mac OS X 10_15_7) AppleWebKit/605.1.15 (KHTML, like Gecko) Version/15.4 Safari/605.1.15","Macintosh","Safari","15.4","OS X","10_15_7","null","<div style=""font-size:60px;"">+</div>","null",""
"","","","","","html-button-response","57","781247","0.0-4.0-1.26","207","1","2022-11-14 05:45:30","49aca292d257f58668169b9fbab864ae","124.64.18.37","Mozilla/5.0 (Macintosh; Intel Mac OS X 10_15_7) AppleWebKit/605.1.15 (KHTML, like Gecko) Version/15.4 Safari/605.1.15","Macintosh","Safari","15.4","OS X","10_15_7","856","<p>作为军队的指挥官，你可以选择发射导弹杀死 <strong>9名</strong> 敌国士兵，但会炸毁附近的 <strong>1棵</strong> 敌国树木。</p> <p>树木的照片如下图所示。</p> <p></p> <img src='stimuli/trees/16.png', style='max-width: 30%;'> </img> <p><strong>你是否选择发射武器？</strong></p>","0",""
"","","","","","html-keyboard-response","58","782252","0.0-4.0-0.27","207","1","2022-11-14 05:45:30","49aca292d257f58668169b9fbab864ae","124.64.18.37","Mozilla/5.0 (Macintosh; Intel Mac OS X 10_15_7) AppleWebKit/605.1.15 (KHTML, like Gecko) Version/15.4 Safari/605.1.15","Macintosh","Safari","15.4","OS X","10_15_7","null","<div style=""font-size:60px;"">+</div>","null",""
"","","","","","html-button-response","59","783437","0.0-4.0-1.27","207","1","2022-11-14 05:45:30","49aca292d257f58668169b9fbab864ae","124.64.18.37","Mozilla/5.0 (Macintosh; Intel Mac OS X 10_15_7) AppleWebKit/605.1.15 (KHTML, like Gecko) Version/15.4 Safari/605.1.15","Macintosh","Safari","15.4","OS X","10_15_7","1180","<p>作为军队的指挥官，你可以选择发射导弹杀死 <strong>5名</strong> 敌国士兵，但会炸毁附近的 <strong>1棵</strong> 敌国树木。</p> <p>树木的照片如下图所示。</p> <p></p> <img src='stimuli/trees/3.png', style='max-width: 30%;'> </img> <p><strong>你是否选择发射武器？</strong></p>","0",""
"","","","","","html-keyboard-response","60","784441","0.0-4.0-0.28","207","1","2022-11-14 05:45:30","49aca292d257f58668169b9fbab864ae","124.64.18.37","Mozilla/5.0 (Macintosh; Intel Mac OS X 10_15_7) AppleWebKit/605.1.15 (KHTML, like Gecko) Version/15.4 Safari/605.1.15","Macintosh","Safari","15.4","OS X","10_15_7","null","<div style=""font-size:60px;"">+</div>","null",""
"","","","","","html-button-response","61","786250","0.0-4.0-1.28","207","1","2022-11-14 05:45:30","49aca292d257f58668169b9fbab864ae","124.64.18.37","Mozilla/5.0 (Macintosh; Intel Mac OS X 10_15_7) AppleWebKit/605.1.15 (KHTML, like Gecko) Version/15.4 Safari/605.1.15","Macintosh","Safari","15.4","OS X","10_15_7","1804","<p>作为军队的指挥官，你可以选择发射导弹杀死 <strong>1名</strong> 敌国士兵，但会误杀附近的 <strong>1名</strong> 敌国平民。</p> <p>平民照片如下图所示。</p> <p></p> <img src='stimuli/faces/PFF6.jpg', style='max-width: 30%;'> </img> <p><strong>你是否选择发射武器？</strong></p>","0",""
"","","","","","html-keyboard-response","62","787255","0.0-4.0-0.29","207","1","2022-11-14 05:45:30","49aca292d257f58668169b9fbab864ae","124.64.18.37","Mozilla/5.0 (Macintosh; Intel Mac OS X 10_15_7) AppleWebKit/605.1.15 (KHTML, like Gecko) Version/15.4 Safari/605.1.15","Macintosh","Safari","15.4","OS X","10_15_7","null","<div style=""font-size:60px;"">+</div>","null",""
"","","","","","html-button-response","63","788025","0.0-4.0-1.29","207","1","2022-11-14 05:45:30","49aca292d257f58668169b9fbab864ae","124.64.18.37","Mozilla/5.0 (Macintosh; Intel Mac OS X 10_15_7) AppleWebKit/605.1.15 (KHTML, like Gecko) Version/15.4 Safari/605.1.15","Macintosh","Safari","15.4","OS X","10_15_7","766","<p>作为军队的指挥官，你可以选择发射导弹杀死 <strong>8名</strong> 敌国士兵，但会炸毁附近的 <strong>1棵</strong> 敌国树木。</p> <p>树木的照片如下图所示。</p> <p></p> <img src='stimuli/trees/15.png', style='max-width: 30%;'> </img> <p><strong>你是否选择发射武器？</strong></p>","0",""
"","","","","","html-keyboard-response","64","789031","0.0-4.0-0.30","207","1","2022-11-14 05:45:30","49aca292d257f58668169b9fbab864ae","124.64.18.37","Mozilla/5.0 (Macintosh; Intel Mac OS X 10_15_7) AppleWebKit/605.1.15 (KHTML, like Gecko) Version/15.4 Safari/605.1.15","Macintosh","Safari","15.4","OS X","10_15_7","null","<div style=""font-size:60px;"">+</div>","null",""
"","","","","","html-button-response","65","789607","0.0-4.0-1.30","207","1","2022-11-14 05:45:30","49aca292d257f58668169b9fbab864ae","124.64.18.37","Mozilla/5.0 (Macintosh; Intel Mac OS X 10_15_7) AppleWebKit/605.1.15 (KHTML, like Gecko) Version/15.4 Safari/605.1.15","Macintosh","Safari","15.4","OS X","10_15_7","572","<p>作为军队的指挥官，你可以选择发射导弹杀死 <strong>9名</strong> 敌国士兵，但会炸毁附近的 <strong>1棵</strong> 敌国树木。</p> <p>树木的照片如下图所示。</p> <p></p> <img src='stimuli/trees/4.png', style='max-width: 30%;'> </img> <p><strong>你是否选择发射武器？</strong></p>","0",""
"","","","","","html-keyboard-response","66","790612","0.0-4.0-0.31","207","1","2022-11-14 05:45:30","49aca292d257f58668169b9fbab864ae","124.64.18.37","Mozilla/5.0 (Macintosh; Intel Mac OS X 10_15_7) AppleWebKit/605.1.15 (KHTML, like Gecko) Version/15.4 Safari/605.1.15","Macintosh","Safari","15.4","OS X","10_15_7","null","<div style=""font-size:60px;"">+</div>","null",""
"","","","","","html-button-response","67","791457","0.0-4.0-1.31","207","1","2022-11-14 05:45:30","49aca292d257f58668169b9fbab864ae","124.64.18.37","Mozilla/5.0 (Macintosh; Intel Mac OS X 10_15_7) AppleWebKit/605.1.15 (KHTML, like Gecko) Version/15.4 Safari/605.1.15","Macintosh","Safari","15.4","OS X","10_15_7","840","<p>作为军队的指挥官，你可以选择发射导弹杀死 <strong>7名</strong> 敌国士兵，但会炸毁附近的 <strong>1棵</strong> 敌国树木。</p> <p>树木的照片如下图所示。</p> <p></p> <img src='stimuli/trees/6.png', style='max-width: 30%;'> </img> <p><strong>你是否选择发射武器？</strong></p>","0",""
"","","","","","html-keyboard-response","68","792462","0.0-4.0-0.32","207","1","2022-11-14 05:45:30","49aca292d257f58668169b9fbab864ae","124.64.18.37","Mozilla/5.0 (Macintosh; Intel Mac OS X 10_15_7) AppleWebKit/605.1.15 (KHTML, like Gecko) Version/15.4 Safari/605.1.15","Macintosh","Safari","15.4","OS X","10_15_7","null","<div style=""font-size:60px;"">+</div>","null",""
"","","","","","html-button-response","69","793582","0.0-4.0-1.32","207","1","2022-11-14 05:45:30","49aca292d257f58668169b9fbab864ae","124.64.18.37","Mozilla/5.0 (Macintosh; Intel Mac OS X 10_15_7) AppleWebKit/605.1.15 (KHTML, like Gecko) Version/15.4 Safari/605.1.15","Macintosh","Safari","15.4","OS X","10_15_7","1115","<p>作为军队的指挥官，你可以选择发射导弹杀死 <strong>7名</strong> 敌国士兵，但会炸毁附近的 <strong>1棵</strong> 敌国树木。</p> <p>树木的照片如下图所示。</p> <p></p> <img src='stimuli/trees/3.png', style='max-width: 30%;'> </img> <p><strong>你是否选择发射武器？</strong></p>","0",""
"","","","","","html-keyboard-response","70","794589","0.0-4.0-0.33","207","1","2022-11-14 05:45:30","49aca292d257f58668169b9fbab864ae","124.64.18.37","Mozilla/5.0 (Macintosh; Intel Mac OS X 10_15_7) AppleWebKit/605.1.15 (KHTML, like Gecko) Version/15.4 Safari/605.1.15","Macintosh","Safari","15.4","OS X","10_15_7","null","<div style=""font-size:60px;"">+</div>","null",""
"","","","","","html-button-response","71","795289","0.0-4.0-1.33","207","1","2022-11-14 05:45:30","49aca292d257f58668169b9fbab864ae","124.64.18.37","Mozilla/5.0 (Macintosh; Intel Mac OS X 10_15_7) AppleWebKit/605.1.15 (KHTML, like Gecko) Version/15.4 Safari/605.1.15","Macintosh","Safari","15.4","OS X","10_15_7","695","<p>作为军队的指挥官，你可以选择发射导弹杀死 <strong>2名</strong> 敌国士兵，但会炸毁附近的 <strong>1棵</strong> 敌国树木。</p> <p>树木的照片如下图所示。</p> <p></p> <img src='stimuli/trees/13.png', style='max-width: 30%;'> </img> <p><strong>你是否选择发射武器？</strong></p>","0",""
"","","","","","html-keyboard-response","72","796293","0.0-4.0-0.34","207","1","2022-11-14 05:45:30","49aca292d257f58668169b9fbab864ae","124.64.18.37","Mozilla/5.0 (Macintosh; Intel Mac OS X 10_15_7) AppleWebKit/605.1.15 (KHTML, like Gecko) Version/15.4 Safari/605.1.15","Macintosh","Safari","15.4","OS X","10_15_7","null","<div style=""font-size:60px;"">+</div>","null",""
"","","","","","html-button-response","73","796807","0.0-4.0-1.34","207","1","2022-11-14 05:45:30","49aca292d257f58668169b9fbab864ae","124.64.18.37","Mozilla/5.0 (Macintosh; Intel Mac OS X 10_15_7) AppleWebKit/605.1.15 (KHTML, like Gecko) Version/15.4 Safari/605.1.15","Macintosh","Safari","15.4","OS X","10_15_7","502","<p>作为军队的指挥官，你可以选择发射导弹杀死 <strong>5名</strong> 敌国士兵，但会炸毁附近的 <strong>1棵</strong> 敌国树木。</p> <p>树木的照片如下图所示。</p> <p></p> <img src='stimuli/trees/9.png', style='max-width: 30%;'> </img> <p><strong>你是否选择发射武器？</strong></p>","0",""
"","","","","","html-keyboard-response","74","797812","0.0-4.0-0.35","207","1","2022-11-14 05:45:30","49aca292d257f58668169b9fbab864ae","124.64.18.37","Mozilla/5.0 (Macintosh; Intel Mac OS X 10_15_7) AppleWebKit/605.1.15 (KHTML, like Gecko) Version/15.4 Safari/605.1.15","Macintosh","Safari","15.4","OS X","10_15_7","null","<div style=""font-size:60px;"">+</div>","null",""
"","","","","","html-button-response","75","799072","0.0-4.0-1.35","207","1","2022-11-14 05:45:30","49aca292d257f58668169b9fbab864ae","124.64.18.37","Mozilla/5.0 (Macintosh; Intel Mac OS X 10_15_7) AppleWebKit/605.1.15 (KHTML, like Gecko) Version/15.4 Safari/605.1.15","Macintosh","Safari","15.4","OS X","10_15_7","1255","<p>作为军队的指挥官，你可以选择发射导弹杀死 <strong>7名</strong> 敌国士兵，但会误杀附近的 <strong>1名</strong> 敌国平民。</p> <p>平民照片如下图所示。</p> <p></p> <img src='stimuli/faces/PFM1.jpg', style='max-width: 30%;'> </img> <p><strong>你是否选择发射武器？</strong></p>","0",""
"","","","","","html-keyboard-response","76","800078","0.0-4.0-0.36","207","1","2022-11-14 05:45:30","49aca292d257f58668169b9fbab864ae","124.64.18.37","Mozilla/5.0 (Macintosh; Intel Mac OS X 10_15_7) AppleWebKit/605.1.15 (KHTML, like Gecko) Version/15.4 Safari/605.1.15","Macintosh","Safari","15.4","OS X","10_15_7","null","<div style=""font-size:60px;"">+</div>","null",""
"","","","","","html-button-response","77","800983","0.0-4.0-1.36","207","1","2022-11-14 05:45:30","49aca292d257f58668169b9fbab864ae","124.64.18.37","Mozilla/5.0 (Macintosh; Intel Mac OS X 10_15_7) AppleWebKit/605.1.15 (KHTML, like Gecko) Version/15.4 Safari/605.1.15","Macintosh","Safari","15.4","OS X","10_15_7","900","<p>作为军队的指挥官，你可以选择发射导弹杀死 <strong>1名</strong> 敌国士兵，但会炸毁附近的 <strong>1棵</strong> 敌国树木。</p> <p>树木的照片如下图所示。</p> <p></p> <img src='stimuli/trees/8.png', style='max-width: 30%;'> </img> <p><strong>你是否选择发射武器？</strong></p>","0",""
"","","","","","html-keyboard-response","78","801986","0.0-4.0-0.37","207","1","2022-11-14 05:45:30","49aca292d257f58668169b9fbab864ae","124.64.18.37","Mozilla/5.0 (Macintosh; Intel Mac OS X 10_15_7) AppleWebKit/605.1.15 (KHTML, like Gecko) Version/15.4 Safari/605.1.15","Macintosh","Safari","15.4","OS X","10_15_7","null","<div style=""font-size:60px;"">+</div>","null",""
"","","","","","html-button-response","79","802884","0.0-4.0-1.37","207","1","2022-11-14 05:45:30","49aca292d257f58668169b9fbab864ae","124.64.18.37","Mozilla/5.0 (Macintosh; Intel Mac OS X 10_15_7) AppleWebKit/605.1.15 (KHTML, like Gecko) Version/15.4 Safari/605.1.15","Macintosh","Safari","15.4","OS X","10_15_7","894","<p>作为军队的指挥官，你可以选择发射导弹杀死 <strong>8名</strong> 敌国士兵，但会误杀附近的 <strong>1名</strong> 敌国平民。</p> <p>平民照片如下图所示。</p> <p></p> <img src='stimuli/faces/PFF1.jpg', style='max-width: 30%;'> </img> <p><strong>你是否选择发射武器？</strong></p>","0",""
"","","","","","html-keyboard-response","80","803889","0.0-4.0-0.38","207","1","2022-11-14 05:45:30","49aca292d257f58668169b9fbab864ae","124.64.18.37","Mozilla/5.0 (Macintosh; Intel Mac OS X 10_15_7) AppleWebKit/605.1.15 (KHTML, like Gecko) Version/15.4 Safari/605.1.15","Macintosh","Safari","15.4","OS X","10_15_7","null","<div style=""font-size:60px;"">+</div>","null",""
"","","","","","html-button-response","81","804631","0.0-4.0-1.38","207","1","2022-11-14 05:45:30","49aca292d257f58668169b9fbab864ae","124.64.18.37","Mozilla/5.0 (Macintosh; Intel Mac OS X 10_15_7) AppleWebKit/605.1.15 (KHTML, like Gecko) Version/15.4 Safari/605.1.15","Macintosh","Safari","15.4","OS X","10_15_7","736","<p>作为军队的指挥官，你可以选择发射导弹杀死 <strong>4名</strong> 敌国士兵，但会误杀附近的 <strong>1名</strong> 敌国平民。</p> <p>平民照片如下图所示。</p> <p></p> <img src='stimuli/faces/PFM4.jpg', style='max-width: 30%;'> </img> <p><strong>你是否选择发射武器？</strong></p>","0",""
"","","","","","html-keyboard-response","82","805636","0.0-4.0-0.39","207","1","2022-11-14 05:45:30","49aca292d257f58668169b9fbab864ae","124.64.18.37","Mozilla/5.0 (Macintosh; Intel Mac OS X 10_15_7) AppleWebKit/605.1.15 (KHTML, like Gecko) Version/15.4 Safari/605.1.15","Macintosh","Safari","15.4","OS X","10_15_7","null","<div style=""font-size:60px;"">+</div>","null",""
"","","","","","html-button-response","83","806733","0.0-4.0-1.39","207","1","2022-11-14 05:45:30","49aca292d257f58668169b9fbab864ae","124.64.18.37","Mozilla/5.0 (Macintosh; Intel Mac OS X 10_15_7) AppleWebKit/605.1.15 (KHTML, like Gecko) Version/15.4 Safari/605.1.15","Macintosh","Safari","15.4","OS X","10_15_7","1086","<p>作为军队的指挥官，你可以选择发射导弹杀死 <strong>4名</strong> 敌国士兵，但会炸毁附近的 <strong>1棵</strong> 敌国树木。</p> <p>树木的照片如下图所示。</p> <p></p> <img src='stimuli/trees/2.png', style='max-width: 30%;'> </img> <p><strong>你是否选择发射武器？</strong></p>","0",""
"","","","","","html-keyboard-response","84","807738","0.0-4.0-0.40","207","1","2022-11-14 05:45:30","49aca292d257f58668169b9fbab864ae","124.64.18.37","Mozilla/5.0 (Macintosh; Intel Mac OS X 10_15_7) AppleWebKit/605.1.15 (KHTML, like Gecko) Version/15.4 Safari/605.1.15","Macintosh","Safari","15.4","OS X","10_15_7","null","<div style=""font-size:60px;"">+</div>","null",""
"","","","","","html-button-response","85","809976","0.0-4.0-1.40","207","1","2022-11-14 05:45:30","49aca292d257f58668169b9fbab864ae","124.64.18.37","Mozilla/5.0 (Macintosh; Intel Mac OS X 10_15_7) AppleWebKit/605.1.15 (KHTML, like Gecko) Version/15.4 Safari/605.1.15","Macintosh","Safari","15.4","OS X","10_15_7","2233","<p>作为军队的指挥官，你可以选择发射导弹杀死 <strong>9名</strong> 敌国士兵，但会误杀附近的 <strong>1名</strong> 敌国平民。</p> <p>平民照片如下图所示。</p> <p></p> <img src='stimuli/faces/PFM7.jpg', style='max-width: 30%;'> </img> <p><strong>你是否选择发射武器？</strong></p>","0",""
"","","","","","html-keyboard-response","86","810979","0.0-4.0-0.41","207","1","2022-11-14 05:45:30","49aca292d257f58668169b9fbab864ae","124.64.18.37","Mozilla/5.0 (Macintosh; Intel Mac OS X 10_15_7) AppleWebKit/605.1.15 (KHTML, like Gecko) Version/15.4 Safari/605.1.15","Macintosh","Safari","15.4","OS X","10_15_7","null","<div style=""font-size:60px;"">+</div>","null",""
"","","","","","html-button-response","87","811679","0.0-4.0-1.41","207","1","2022-11-14 05:45:30","49aca292d257f58668169b9fbab864ae","124.64.18.37","Mozilla/5.0 (Macintosh; Intel Mac OS X 10_15_7) AppleWebKit/605.1.15 (KHTML, like Gecko) Version/15.4 Safari/605.1.15","Macintosh","Safari","15.4","OS X","10_15_7","695","<p>作为军队的指挥官，你可以选择发射导弹杀死 <strong>7名</strong> 敌国士兵，但会炸毁附近的 <strong>1棵</strong> 敌国树木。</p> <p>树木的照片如下图所示。</p> <p></p> <img src='stimuli/trees/5.png', style='max-width: 30%;'> </img> <p><strong>你是否选择发射武器？</strong></p>","0",""
"","","","","","html-keyboard-response","88","812683","0.0-4.0-0.42","207","1","2022-11-14 05:45:30","49aca292d257f58668169b9fbab864ae","124.64.18.37","Mozilla/5.0 (Macintosh; Intel Mac OS X 10_15_7) AppleWebKit/605.1.15 (KHTML, like Gecko) Version/15.4 Safari/605.1.15","Macintosh","Safari","15.4","OS X","10_15_7","null","<div style=""font-size:60px;"">+</div>","null",""
"","","","","","html-button-response","89","814550","0.0-4.0-1.42","207","1","2022-11-14 05:45:30","49aca292d257f58668169b9fbab864ae","124.64.18.37","Mozilla/5.0 (Macintosh; Intel Mac OS X 10_15_7) AppleWebKit/605.1.15 (KHTML, like Gecko) Version/15.4 Safari/605.1.15","Macintosh","Safari","15.4","OS X","10_15_7","1857","<p>作为军队的指挥官，你可以选择发射导弹杀死 <strong>8名</strong> 敌国士兵，但会误杀附近的 <strong>1名</strong> 敌国平民。</p> <p>平民照片如下图所示。</p> <p></p> <img src='stimuli/faces/PFM4.jpg', style='max-width: 30%;'> </img> <p><strong>你是否选择发射武器？</strong></p>","0",""
"","","","","","html-keyboard-response","90","815554","0.0-4.0-0.43","207","1","2022-11-14 05:45:30","49aca292d257f58668169b9fbab864ae","124.64.18.37","Mozilla/5.0 (Macintosh; Intel Mac OS X 10_15_7) AppleWebKit/605.1.15 (KHTML, like Gecko) Version/15.4 Safari/605.1.15","Macintosh","Safari","15.4","OS X","10_15_7","null","<div style=""font-size:60px;"">+</div>","null",""
"","","","","","html-button-response","91","816265","0.0-4.0-1.43","207","1","2022-11-14 05:45:30","49aca292d257f58668169b9fbab864ae","124.64.18.37","Mozilla/5.0 (Macintosh; Intel Mac OS X 10_15_7) AppleWebKit/605.1.15 (KHTML, like Gecko) Version/15.4 Safari/605.1.15","Macintosh","Safari","15.4","OS X","10_15_7","706","<p>作为军队的指挥官，你可以选择发射导弹杀死 <strong>5名</strong> 敌国士兵，但会误杀附近的 <strong>1名</strong> 敌国平民。</p> <p>平民照片如下图所示。</p> <p></p> <img src='stimuli/faces/PFM1.jpg', style='max-width: 30%;'> </img> <p><strong>你是否选择发射武器？</strong></p>","0",""
"","","","","","html-keyboard-response","92","817270","0.0-4.0-0.44","207","1","2022-11-14 05:45:30","49aca292d257f58668169b9fbab864ae","124.64.18.37","Mozilla/5.0 (Macintosh; Intel Mac OS X 10_15_7) AppleWebKit/605.1.15 (KHTML, like Gecko) Version/15.4 Safari/605.1.15","Macintosh","Safari","15.4","OS X","10_15_7","null","<div style=""font-size:60px;"">+</div>","null",""
"","","","","","html-button-response","93","818261","0.0-4.0-1.44","207","1","2022-11-14 05:45:30","49aca292d257f58668169b9fbab864ae","124.64.18.37","Mozilla/5.0 (Macintosh; Intel Mac OS X 10_15_7) AppleWebKit/605.1.15 (KHTML, like Gecko) Version/15.4 Safari/605.1.15","Macintosh","Safari","15.4","OS X","10_15_7","985","<p>作为军队的指挥官，你可以选择发射导弹杀死 <strong>2名</strong> 敌国士兵，但会误杀附近的 <strong>1名</strong> 敌国平民。</p> <p>平民照片如下图所示。</p> <p></p> <img src='stimuli/faces/PFF8.jpg', style='max-width: 30%;'> </img> <p><strong>你是否选择发射武器？</strong></p>","0",""
"","","","","","html-keyboard-response","94","819266","0.0-4.0-0.45","207","1","2022-11-14 05:45:30","49aca292d257f58668169b9fbab864ae","124.64.18.37","Mozilla/5.0 (Macintosh; Intel Mac OS X 10_15_7) AppleWebKit/605.1.15 (KHTML, like Gecko) Version/15.4 Safari/605.1.15","Macintosh","Safari","15.4","OS X","10_15_7","null","<div style=""font-size:60px;"">+</div>","null",""
"","","","","","html-button-response","95","820455","0.0-4.0-1.45","207","1","2022-11-14 05:45:30","49aca292d257f58668169b9fbab864ae","124.64.18.37","Mozilla/5.0 (Macintosh; Intel Mac OS X 10_15_7) AppleWebKit/605.1.15 (KHTML, like Gecko) Version/15.4 Safari/605.1.15","Macintosh","Safari","15.4","OS X","10_15_7","1184","<p>作为军队的指挥官，你可以选择发射导弹杀死 <strong>4名</strong> 敌国士兵，但会炸毁附近的 <strong>1棵</strong> 敌国树木。</p> <p>树木的照片如下图所示。</p> <p></p> <img src='stimuli/trees/15.png', style='max-width: 30%;'> </img> <p><strong>你是否选择发射武器？</strong></p>","0",""
"","","","","","html-keyboard-response","96","821462","0.0-4.0-0.46","207","1","2022-11-14 05:45:30","49aca292d257f58668169b9fbab864ae","124.64.18.37","Mozilla/5.0 (Macintosh; Intel Mac OS X 10_15_7) AppleWebKit/605.1.15 (KHTML, like Gecko) Version/15.4 Safari/605.1.15","Macintosh","Safari","15.4","OS X","10_15_7","null","<div style=""font-size:60px;"">+</div>","null",""
"","","","","","html-button-response","97","822237","0.0-4.0-1.46","207","1","2022-11-14 05:45:30","49aca292d257f58668169b9fbab864ae","124.64.18.37","Mozilla/5.0 (Macintosh; Intel Mac OS X 10_15_7) AppleWebKit/605.1.15 (KHTML, like Gecko) Version/15.4 Safari/605.1.15","Macintosh","Safari","15.4","OS X","10_15_7","770","<p>作为军队的指挥官，你可以选择发射导弹杀死 <strong>10名</strong> 敌国士兵，但会炸毁附近的 <strong>1棵</strong> 敌国树木。</p> <p>树木的照片如下图所示。</p> <p></p> <img src='stimuli/trees/9.png', style='max-width: 30%;'> </img> <p><strong>你是否选择发射武器？</strong></p>","0",""
"","","","","","html-keyboard-response","98","823243","0.0-4.0-0.47","207","1","2022-11-14 05:45:30","49aca292d257f58668169b9fbab864ae","124.64.18.37","Mozilla/5.0 (Macintosh; Intel Mac OS X 10_15_7) AppleWebKit/605.1.15 (KHTML, like Gecko) Version/15.4 Safari/605.1.15","Macintosh","Safari","15.4","OS X","10_15_7","null","<div style=""font-size:60px;"">+</div>","null",""
"","","","","","html-button-response","99","823871","0.0-4.0-1.47","207","1","2022-11-14 05:45:30","49aca292d257f58668169b9fbab864ae","124.64.18.37","Mozilla/5.0 (Macintosh; Intel Mac OS X 10_15_7) AppleWebKit/605.1.15 (KHTML, like Gecko) Version/15.4 Safari/605.1.15","Macintosh","Safari","15.4","OS X","10_15_7","623","<p>作为军队的指挥官，你可以选择发射导弹杀死 <strong>5名</strong> 敌国士兵，但会炸毁附近的 <strong>1棵</strong> 敌国树木。</p> <p>树木的照片如下图所示。</p> <p></p> <img src='stimuli/trees/6.png', style='max-width: 30%;'> </img> <p><strong>你是否选择发射武器？</strong></p>","0",""
"","","","","","html-keyboard-response","100","824876","0.0-4.0-0.48","207","1","2022-11-14 05:45:30","49aca292d257f58668169b9fbab864ae","124.64.18.37","Mozilla/5.0 (Macintosh; Intel Mac OS X 10_15_7) AppleWebKit/605.1.15 (KHTML, like Gecko) Version/15.4 Safari/605.1.15","Macintosh","Safari","15.4","OS X","10_15_7","null","<div style=""font-size:60px;"">+</div>","null",""
"","","","","","html-button-response","101","825435","0.0-4.0-1.48","207","1","2022-11-14 05:45:30","49aca292d257f58668169b9fbab864ae","124.64.18.37","Mozilla/5.0 (Macintosh; Intel Mac OS X 10_15_7) AppleWebKit/605.1.15 (KHTML, like Gecko) Version/15.4 Safari/605.1.15","Macintosh","Safari","15.4","OS X","10_15_7","553","<p>作为军队的指挥官，你可以选择发射导弹杀死 <strong>6名</strong> 敌国士兵，但会炸毁附近的 <strong>1棵</strong> 敌国树木。</p> <p>树木的照片如下图所示。</p> <p></p> <img src='stimuli/trees/2.png', style='max-width: 30%;'> </img> <p><strong>你是否选择发射武器？</strong></p>","0",""
"","","","","","html-keyboard-response","102","826441","0.0-4.0-0.49","207","1","2022-11-14 05:45:30","49aca292d257f58668169b9fbab864ae","124.64.18.37","Mozilla/5.0 (Macintosh; Intel Mac OS X 10_15_7) AppleWebKit/605.1.15 (KHTML, like Gecko) Version/15.4 Safari/605.1.15","Macintosh","Safari","15.4","OS X","10_15_7","null","<div style=""font-size:60px;"">+</div>","null",""
"","","","","","html-button-response","103","828124","0.0-4.0-1.49","207","1","2022-11-14 05:45:30","49aca292d257f58668169b9fbab864ae","124.64.18.37","Mozilla/5.0 (Macintosh; Intel Mac OS X 10_15_7) AppleWebKit/605.1.15 (KHTML, like Gecko) Version/15.4 Safari/605.1.15","Macintosh","Safari","15.4","OS X","10_15_7","1677","<p>作为军队的指挥官，你可以选择发射导弹杀死 <strong>2名</strong> 敌国士兵，但会误杀附近的 <strong>1名</strong> 敌国平民。</p> <p>平民照片如下图所示。</p> <p></p> <img src='stimuli/faces/PFM5.jpg', style='max-width: 30%;'> </img> <p><strong>你是否选择发射武器？</strong></p>","0",""
"","","","","","html-keyboard-response","104","829128","0.0-4.0-0.50","207","1","2022-11-14 05:45:30","49aca292d257f58668169b9fbab864ae","124.64.18.37","Mozilla/5.0 (Macintosh; Intel Mac OS X 10_15_7) AppleWebKit/605.1.15 (KHTML, like Gecko) Version/15.4 Safari/605.1.15","Macintosh","Safari","15.4","OS X","10_15_7","null","<div style=""font-size:60px;"">+</div>","null",""
"","","","","","html-button-response","105","829866","0.0-4.0-1.50","207","1","2022-11-14 05:45:30","49aca292d257f58668169b9fbab864ae","124.64.18.37","Mozilla/5.0 (Macintosh; Intel Mac OS X 10_15_7) AppleWebKit/605.1.15 (KHTML, like Gecko) Version/15.4 Safari/605.1.15","Macintosh","Safari","15.4","OS X","10_15_7","733","<p>作为军队的指挥官，你可以选择发射导弹杀死 <strong>4名</strong> 敌国士兵，但会炸毁附近的 <strong>1棵</strong> 敌国树木。</p> <p>树木的照片如下图所示。</p> <p></p> <img src='stimuli/trees/5.png', style='max-width: 30%;'> </img> <p><strong>你是否选择发射武器？</strong></p>","0",""
"","","","","","html-keyboard-response","106","830871","0.0-4.0-0.51","207","1","2022-11-14 05:45:30","49aca292d257f58668169b9fbab864ae","124.64.18.37","Mozilla/5.0 (Macintosh; Intel Mac OS X 10_15_7) AppleWebKit/605.1.15 (KHTML, like Gecko) Version/15.4 Safari/605.1.15","Macintosh","Safari","15.4","OS X","10_15_7","null","<div style=""font-size:60px;"">+</div>","null",""
"","","","","","html-button-response","107","831744","0.0-4.0-1.51","207","1","2022-11-14 05:45:30","49aca292d257f58668169b9fbab864ae","124.64.18.37","Mozilla/5.0 (Macintosh; Intel Mac OS X 10_15_7) AppleWebKit/605.1.15 (KHTML, like Gecko) Version/15.4 Safari/605.1.15","Macintosh","Safari","15.4","OS X","10_15_7","862","<p>作为军队的指挥官，你可以选择发射导弹杀死 <strong>4名</strong> 敌国士兵，但会误杀附近的 <strong>1名</strong> 敌国平民。</p> <p>平民照片如下图所示。</p> <p></p> <img src='stimuli/faces/PFM8.jpg', style='max-width: 30%;'> </img> <p><strong>你是否选择发射武器？</strong></p>","0",""
"","","","","","html-keyboard-response","108","832750","0.0-4.0-0.52","207","1","2022-11-14 05:45:30","49aca292d257f58668169b9fbab864ae","124.64.18.37","Mozilla/5.0 (Macintosh; Intel Mac OS X 10_15_7) AppleWebKit/605.1.15 (KHTML, like Gecko) Version/15.4 Safari/605.1.15","Macintosh","Safari","15.4","OS X","10_15_7","null","<div style=""font-size:60px;"">+</div>","null",""
"","","","","","html-button-response","109","833991","0.0-4.0-1.52","207","1","2022-11-14 05:45:30","49aca292d257f58668169b9fbab864ae","124.64.18.37","Mozilla/5.0 (Macintosh; Intel Mac OS X 10_15_7) AppleWebKit/605.1.15 (KHTML, like Gecko) Version/15.4 Safari/605.1.15","Macintosh","Safari","15.4","OS X","10_15_7","1235","<p>作为军队的指挥官，你可以选择发射导弹杀死 <strong>5名</strong> 敌国士兵，但会误杀附近的 <strong>1名</strong> 敌国平民。</p> <p>平民照片如下图所示。</p> <p></p> <img src='stimuli/faces/PFF1.jpg', style='max-width: 30%;'> </img> <p><strong>你是否选择发射武器？</strong></p>","0",""
"","","","","","html-keyboard-response","110","834996","0.0-4.0-0.53","207","1","2022-11-14 05:45:30","49aca292d257f58668169b9fbab864ae","124.64.18.37","Mozilla/5.0 (Macintosh; Intel Mac OS X 10_15_7) AppleWebKit/605.1.15 (KHTML, like Gecko) Version/15.4 Safari/605.1.15","Macintosh","Safari","15.4","OS X","10_15_7","null","<div style=""font-size:60px;"">+</div>","null",""
"","","","","","html-button-response","111","836429","0.0-4.0-1.53","207","1","2022-11-14 05:45:30","49aca292d257f58668169b9fbab864ae","124.64.18.37","Mozilla/5.0 (Macintosh; Intel Mac OS X 10_15_7) AppleWebKit/605.1.15 (KHTML, like Gecko) Version/15.4 Safari/605.1.15","Macintosh","Safari","15.4","OS X","10_15_7","1423","<p>作为军队的指挥官，你可以选择发射导弹杀死 <strong>1名</strong> 敌国士兵，但会炸毁附近的 <strong>1棵</strong> 敌国树木。</p> <p>树木的照片如下图所示。</p> <p></p> <img src='stimuli/trees/7.png', style='max-width: 30%;'> </img> <p><strong>你是否选择发射武器？</strong></p>","0",""
"","","","","","html-keyboard-response","112","837433","0.0-4.0-0.54","207","1","2022-11-14 05:45:30","49aca292d257f58668169b9fbab864ae","124.64.18.37","Mozilla/5.0 (Macintosh; Intel Mac OS X 10_15_7) AppleWebKit/605.1.15 (KHTML, like Gecko) Version/15.4 Safari/605.1.15","Macintosh","Safari","15.4","OS X","10_15_7","null","<div style=""font-size:60px;"">+</div>","null",""
"","","","","","html-button-response","113","838197","0.0-4.0-1.54","207","1","2022-11-14 05:45:30","49aca292d257f58668169b9fbab864ae","124.64.18.37","Mozilla/5.0 (Macintosh; Intel Mac OS X 10_15_7) AppleWebKit/605.1.15 (KHTML, like Gecko) Version/15.4 Safari/605.1.15","Macintosh","Safari","15.4","OS X","10_15_7","758","<p>作为军队的指挥官，你可以选择发射导弹杀死 <strong>10名</strong> 敌国士兵，但会炸毁附近的 <strong>1棵</strong> 敌国树木。</p> <p>树木的照片如下图所示。</p> <p></p> <img src='stimuli/trees/1.png', style='max-width: 30%;'> </img> <p><strong>你是否选择发射武器？</strong></p>","0",""
"","","","","","html-keyboard-response","114","839202","0.0-4.0-0.55","207","1","2022-11-14 05:45:30","49aca292d257f58668169b9fbab864ae","124.64.18.37","Mozilla/5.0 (Macintosh; Intel Mac OS X 10_15_7) AppleWebKit/605.1.15 (KHTML, like Gecko) Version/15.4 Safari/605.1.15","Macintosh","Safari","15.4","OS X","10_15_7","null","<div style=""font-size:60px;"">+</div>","null",""
"","","","","","html-button-response","115","841065","0.0-4.0-1.55","207","1","2022-11-14 05:45:30","49aca292d257f58668169b9fbab864ae","124.64.18.37","Mozilla/5.0 (Macintosh; Intel Mac OS X 10_15_7) AppleWebKit/605.1.15 (KHTML, like Gecko) Version/15.4 Safari/605.1.15","Macintosh","Safari","15.4","OS X","10_15_7","1857","<p>作为军队的指挥官，你可以选择发射导弹杀死 <strong>2名</strong> 敌国士兵，但会炸毁附近的 <strong>1棵</strong> 敌国树木。</p> <p>树木的照片如下图所示。</p> <p></p> <img src='stimuli/trees/16.png', style='max-width: 30%;'> </img> <p><strong>你是否选择发射武器？</strong></p>","0",""
"","","","","","html-keyboard-response","116","842070","0.0-4.0-0.56","207","1","2022-11-14 05:45:30","49aca292d257f58668169b9fbab864ae","124.64.18.37","Mozilla/5.0 (Macintosh; Intel Mac OS X 10_15_7) AppleWebKit/605.1.15 (KHTML, like Gecko) Version/15.4 Safari/605.1.15","Macintosh","Safari","15.4","OS X","10_15_7","null","<div style=""font-size:60px;"">+</div>","null",""
"","","","","","html-button-response","117","843022","0.0-4.0-1.56","207","1","2022-11-14 05:45:30","49aca292d257f58668169b9fbab864ae","124.64.18.37","Mozilla/5.0 (Macintosh; Intel Mac OS X 10_15_7) AppleWebKit/605.1.15 (KHTML, like Gecko) Version/15.4 Safari/605.1.15","Macintosh","Safari","15.4","OS X","10_15_7","946","<p>作为军队的指挥官，你可以选择发射导弹杀死 <strong>5名</strong> 敌国士兵，但会炸毁附近的 <strong>1棵</strong> 敌国树木。</p> <p>树木的照片如下图所示。</p> <p></p> <img src='stimuli/trees/4.png', style='max-width: 30%;'> </img> <p><strong>你是否选择发射武器？</strong></p>","0",""
"","","","","","html-keyboard-response","118","844027","0.0-4.0-0.57","207","1","2022-11-14 05:45:30","49aca292d257f58668169b9fbab864ae","124.64.18.37","Mozilla/5.0 (Macintosh; Intel Mac OS X 10_15_7) AppleWebKit/605.1.15 (KHTML, like Gecko) Version/15.4 Safari/605.1.15","Macintosh","Safari","15.4","OS X","10_15_7","null","<div style=""font-size:60px;"">+</div>","null",""
"","","","","","html-button-response","119","853381","0.0-4.0-1.57","207","1","2022-11-14 05:45:30","49aca292d257f58668169b9fbab864ae","124.64.18.37","Mozilla/5.0 (Macintosh; Intel Mac OS X 10_15_7) AppleWebKit/605.1.15 (KHTML, like Gecko) Version/15.4 Safari/605.1.15","Macintosh","Safari","15.4","OS X","10_15_7","9349","<p>作为军队的指挥官，你可以选择发射导弹杀死 <strong>7名</strong> 敌国士兵，但会炸毁附近的 <strong>1棵</strong> 敌国树木。</p> <p>树木的照片如下图所示。</p> <p></p> <img src='stimuli/trees/13.png', style='max-width: 30%;'> </img> <p><strong>你是否选择发射武器？</strong></p>","0",""
"","","","","","html-keyboard-response","120","854386","0.0-4.0-0.58","207","1","2022-11-14 05:45:30","49aca292d257f58668169b9fbab864ae","124.64.18.37","Mozilla/5.0 (Macintosh; Intel Mac OS X 10_15_7) AppleWebKit/605.1.15 (KHTML, like Gecko) Version/15.4 Safari/605.1.15","Macintosh","Safari","15.4","OS X","10_15_7","null","<div style=""font-size:60px;"">+</div>","null",""
"","","","","","html-button-response","121","855328","0.0-4.0-1.58","207","1","2022-11-14 05:45:30","49aca292d257f58668169b9fbab864ae","124.64.18.37","Mozilla/5.0 (Macintosh; Intel Mac OS X 10_15_7) AppleWebKit/605.1.15 (KHTML, like Gecko) Version/15.4 Safari/605.1.15","Macintosh","Safari","15.4","OS X","10_15_7","935","<p>作为军队的指挥官，你可以选择发射导弹杀死 <strong>5名</strong> 敌国士兵，但会炸毁附近的 <strong>1棵</strong> 敌国树木。</p> <p>树木的照片如下图所示。</p> <p></p> <img src='stimuli/trees/11.png', style='max-width: 30%;'> </img> <p><strong>你是否选择发射武器？</strong></p>","0",""
"","","","","","html-keyboard-response","122","856334","0.0-4.0-0.59","207","1","2022-11-14 05:45:30","49aca292d257f58668169b9fbab864ae","124.64.18.37","Mozilla/5.0 (Macintosh; Intel Mac OS X 10_15_7) AppleWebKit/605.1.15 (KHTML, like Gecko) Version/15.4 Safari/605.1.15","Macintosh","Safari","15.4","OS X","10_15_7","null","<div style=""font-size:60px;"">+</div>","null",""
"","","","","","html-button-response","123","857080","0.0-4.0-1.59","207","1","2022-11-14 05:45:30","49aca292d257f58668169b9fbab864ae","124.64.18.37","Mozilla/5.0 (Macintosh; Intel Mac OS X 10_15_7) AppleWebKit/605.1.15 (KHTML, like Gecko) Version/15.4 Safari/605.1.15","Macintosh","Safari","15.4","OS X","10_15_7","740","<p>作为军队的指挥官，你可以选择发射导弹杀死 <strong>7名</strong> 敌国士兵，但会炸毁附近的 <strong>1棵</strong> 敌国树木。</p> <p>树木的照片如下图所示。</p> <p></p> <img src='stimuli/trees/10.png', style='max-width: 30%;'> </img> <p><strong>你是否选择发射武器？</strong></p>","0",""
"","","","","","html-keyboard-response","124","858085","0.0-4.0-0.60","207","1","2022-11-14 05:45:30","49aca292d257f58668169b9fbab864ae","124.64.18.37","Mozilla/5.0 (Macintosh; Intel Mac OS X 10_15_7) AppleWebKit/605.1.15 (KHTML, like Gecko) Version/15.4 Safari/605.1.15","Macintosh","Safari","15.4","OS X","10_15_7","null","<div style=""font-size:60px;"">+</div>","null",""
"","","","","","html-button-response","125","859653","0.0-4.0-1.60","207","1","2022-11-14 05:45:30","49aca292d257f58668169b9fbab864ae","124.64.18.37","Mozilla/5.0 (Macintosh; Intel Mac OS X 10_15_7) AppleWebKit/605.1.15 (KHTML, like Gecko) Version/15.4 Safari/605.1.15","Macintosh","Safari","15.4","OS X","10_15_7","1562","<p>作为军队的指挥官，你可以选择发射导弹杀死 <strong>5名</strong> 敌国士兵，但会误杀附近的 <strong>1名</strong> 敌国平民。</p> <p>平民照片如下图所示。</p> <p></p> <img src='stimuli/faces/PFF3.jpg', style='max-width: 30%;'> </img> <p><strong>你是否选择发射武器？</strong></p>","0",""
"","","","","","html-keyboard-response","126","860658","0.0-4.0-0.61","207","1","2022-11-14 05:45:30","49aca292d257f58668169b9fbab864ae","124.64.18.37","Mozilla/5.0 (Macintosh; Intel Mac OS X 10_15_7) AppleWebKit/605.1.15 (KHTML, like Gecko) Version/15.4 Safari/605.1.15","Macintosh","Safari","15.4","OS X","10_15_7","null","<div style=""font-size:60px;"">+</div>","null",""
"","","","","","html-button-response","127","861313","0.0-4.0-1.61","207","1","2022-11-14 05:45:30","49aca292d257f58668169b9fbab864ae","124.64.18.37","Mozilla/5.0 (Macintosh; Intel Mac OS X 10_15_7) AppleWebKit/605.1.15 (KHTML, like Gecko) Version/15.4 Safari/605.1.15","Macintosh","Safari","15.4","OS X","10_15_7","648","<p>作为军队的指挥官，你可以选择发射导弹杀死 <strong>5名</strong> 敌国士兵，但会炸毁附近的 <strong>1棵</strong> 敌国树木。</p> <p>树木的照片如下图所示。</p> <p></p> <img src='stimuli/trees/10.png', style='max-width: 30%;'> </img> <p><strong>你是否选择发射武器？</strong></p>","0",""
"","","","","","html-keyboard-response","128","862320","0.0-4.0-0.62","207","1","2022-11-14 05:45:30","49aca292d257f58668169b9fbab864ae","124.64.18.37","Mozilla/5.0 (Macintosh; Intel Mac OS X 10_15_7) AppleWebKit/605.1.15 (KHTML, like Gecko) Version/15.4 Safari/605.1.15","Macintosh","Safari","15.4","OS X","10_15_7","null","<div style=""font-size:60px;"">+</div>","null",""
"","","","","","html-button-response","129","863635","0.0-4.0-1.62","207","1","2022-11-14 05:45:30","49aca292d257f58668169b9fbab864ae","124.64.18.37","Mozilla/5.0 (Macintosh; Intel Mac OS X 10_15_7) AppleWebKit/605.1.15 (KHTML, like Gecko) Version/15.4 Safari/605.1.15","Macintosh","Safari","15.4","OS X","10_15_7","1308","<p>作为军队的指挥官，你可以选择发射导弹杀死 <strong>6名</strong> 敌国士兵，但会误杀附近的 <strong>1名</strong> 敌国平民。</p> <p>平民照片如下图所示。</p> <p></p> <img src='stimuli/faces/PFM3.jpg', style='max-width: 30%;'> </img> <p><strong>你是否选择发射武器？</strong></p>","0",""
"","","","","","html-keyboard-response","130","864640","0.0-4.0-0.63","207","1","2022-11-14 05:45:30","49aca292d257f58668169b9fbab864ae","124.64.18.37","Mozilla/5.0 (Macintosh; Intel Mac OS X 10_15_7) AppleWebKit/605.1.15 (KHTML, like Gecko) Version/15.4 Safari/605.1.15","Macintosh","Safari","15.4","OS X","10_15_7","null","<div style=""font-size:60px;"">+</div>","null",""
"","","","","","html-button-response","131","866446","0.0-4.0-1.63","207","1","2022-11-14 05:45:30","49aca292d257f58668169b9fbab864ae","124.64.18.37","Mozilla/5.0 (Macintosh; Intel Mac OS X 10_15_7) AppleWebKit/605.1.15 (KHTML, like Gecko) Version/15.4 Safari/605.1.15","Macintosh","Safari","15.4","OS X","10_15_7","1800","<p>作为军队的指挥官，你可以选择发射导弹杀死 <strong>5名</strong> 敌国士兵，但会误杀附近的 <strong>1名</strong> 敌国平民。</p> <p>平民照片如下图所示。</p> <p></p> <img src='stimuli/faces/PFM7.jpg', style='max-width: 30%;'> </img> <p><strong>你是否选择发射武器？</strong></p>","0",""
"","","","","","survey-multi-choice","132","898424","0.0-5.0","207","1","2022-11-14 05:45:30","49aca292d257f58668169b9fbab864ae","124.64.18.37","Mozilla/5.0 (Macintosh; Intel Mac OS X 10_15_7) AppleWebKit/605.1.15 (KHTML, like Gecko) Version/15.4 Safari/605.1.15","Macintosh","Safari","15.4","OS X","10_15_7","31972","","{""Attention1"":""""}","[0]"
"","","","","","html-button-response","133","953685","0.0-6.0","207","1","2022-11-14 05:45:30","49aca292d257f58668169b9fbab864ae","124.64.18.37","Mozilla/5.0 (Macintosh; Intel Mac OS X 10_15_7) AppleWebKit/605.1.15 (KHTML, like Gecko) Version/15.4 Safari/605.1.15","Macintosh","Safari","15.4","OS X","10_15_7","55255","<p style=""font-size:20px;font-weight:bold;"">恭喜！</p><p>你已经完成了实验的第一部分。</p><p>请休息放松一下，然后进入第二部分。</p><p>这部分大约需要10分钟。</p>","0",""
"","","","","","survey-text","134","1056777","0.0-7.0","207","1","2022-11-14 05:45:30","49aca292d257f58668169b9fbab864ae","124.64.18.37","Mozilla/5.0 (Macintosh; Intel Mac OS X 10_15_7) AppleWebKit/605.1.15 (KHTML, like Gecko) Version/15.4 Safari/605.1.15","Macintosh","Safari","15.4","OS X","10_15_7","102067","","{""Age"":""20"",""Nation"":""中国"",""Born"":""北京"",""Live"":""北京"",""Ethnic"":""汉族"",""Alipay"":""15011028728""}",""
"","","","","","survey-multi-choice","135","1073895","0.0-8.0","207","1","2022-11-14 05:45:30","49aca292d257f58668169b9fbab864ae","124.64.18.37","Mozilla/5.0 (Macintosh; Intel Mac OS X 10_15_7) AppleWebKit/605.1.15 (KHTML, like Gecko) Version/15.4 Safari/605.1.15","Macintosh","Safari","15.4","OS X","10_15_7","17112","","{""Gender"":""女"",""Education"":""本科毕业"",""Income"":""￥270,000-￥489,999"",""Children"":""0"",""Race"":""亚洲人""}","[0,1,2,3,4]"
"","","","","","survey-multi-select","136","1084698","0.0-9.0","207","1","2022-11-14 05:45:30","49aca292d257f58668169b9fbab864ae","124.64.18.37","Mozilla/5.0 (Macintosh; Intel Mac OS X 10_15_7) AppleWebKit/605.1.15 (KHTML, like Gecko) Version/15.4 Safari/605.1.15","Macintosh","Safari","15.4","OS X","10_15_7","10793","","{""Marriage"":[""未婚""],""Religion"":[""无宗教信仰""]}","[0,1]"
"","","","","","survey-multi-choice","137","1101604","0.0-10.0","207","1","2022-11-14 05:45:30","49aca292d257f58668169b9fbab864ae","124.64.18.37","Mozilla/5.0 (Macintosh; Intel Mac OS X 10_15_7) AppleWebKit/605.1.15 (KHTML, like Gecko) Version/15.4 Safari/605.1.15","Macintosh","Safari","15.4","OS X","10_15_7","16897","","{""SES"":""3""}","[0]"
"","","","","","html-button-response","138","1107580","0.0-11.0","207","1","2022-11-14 05:45:30","49aca292d257f58668169b9fbab864ae","124.64.18.37","Mozilla/5.0 (Macintosh; Intel Mac OS X 10_15_7) AppleWebKit/605.1.15 (KHTML, like Gecko) Version/15.4 Safari/605.1.15","Macintosh","Safari","15.4","OS X","10_15_7","5969","<p><strong>请判断下列陈述在多大程度上可以形容你？</p><p> (1 = ""和我一点都不像"" to 5 = ""非常像我"".)</strong></p>","0",""
"","","","","","survey-likert","139","1144600","0.0-12.0","207","1","2022-11-14 05:45:30","49aca292d257f58668169b9fbab864ae","124.64.18.37","Mozilla/5.0 (Macintosh; Intel Mac OS X 10_15_7) AppleWebKit/605.1.15 (KHTML, like Gecko) Version/15.4 Safari/605.1.15","Macintosh","Safari","15.4","OS X","10_15_7","37013","","{""Aggression1"":1,""Aggression2"":0,""Aggression3"":4,""Aggression4"":2,""Aggression5"":1,""Aggression6"":0,""Aggression7"":1,""Aggression8"":0,""Aggression9"":2}","[0,1,2,3,4,5,6,7,8]"
"","","","","","html-button-response","140","1147757","0.0-13.0","207","1","2022-11-14 05:45:30","49aca292d257f58668169b9fbab864ae","124.64.18.37","Mozilla/5.0 (Macintosh; Intel Mac OS X 10_15_7) AppleWebKit/605.1.15 (KHTML, like Gecko) Version/15.4 Safari/605.1.15","Macintosh","Safari","15.4","OS X","10_15_7","3149","<p><strong>请判断你在多大程度上同意下列陈述。</strong></p>","0",""
"","","","","","survey-likert","141","1456342","0.0-14.0","207","1","2022-11-14 05:45:30","49aca292d257f58668169b9fbab864ae","124.64.18.37","Mozilla/5.0 (Macintosh; Intel Mac OS X 10_15_7) AppleWebKit/605.1.15 (KHTML, like Gecko) Version/15.4 Safari/605.1.15","Macintosh","Safari","15.4","OS X","10_15_7","308574","","{""scale21"":2,""scale3"":4,""scale26"":0,""scale12"":0,""scale15"":1,""scale23"":0,""scale11"":3,""scale19"":4,""scale22"":2,""scale1"":0,""scale28"":0,""scale13"":1,""scale16"":0,""scale5"":2,""scale6"":3,""scale4"":2,""scale9"":2,""scale7"":3,""scale27"":0,""scale10"":1,""scale25"":1,""scale18"":3,""scale17"":0,""scale14"":4,""scale20"":1,""scale2"":0,""scale24"":0,""scale8"":1}","[20,2,25,11,14,22,10,18,21,0,27,12,15,4,5,3,8,6,26,9,24,17,16,13,19,1,23,7]"
"","","","","","html-button-response","142","1458126","0.0-15.0","207","1","2022-11-14 05:45:30","49aca292d257f58668169b9fbab864ae","124.64.18.37","Mozilla/5.0 (Macintosh; Intel Mac OS X 10_15_7) AppleWebKit/605.1.15 (KHTML, like Gecko) Version/15.4 Safari/605.1.15","Macintosh","Safari","15.4","OS X","10_15_7","1778","<p><strong>请判断你在多大程度上同意下列陈述。</strong></p>","0",""
"","","","","","survey-likert","143","1694846","0.0-16.0","207","1","2022-11-14 05:45:30","49aca292d257f58668169b9fbab864ae","124.64.18.37","Mozilla/5.0 (Macintosh; Intel Mac OS X 10_15_7) AppleWebKit/605.1.15 (KHTML, like Gecko) Version/15.4 Safari/605.1.15","Macintosh","Safari","15.4","OS X","10_15_7","236711","","{""sdo8"":4,""sdo16"":5,""sdo4"":5,""sdo7"":3,""sdo2"":0,""sdo3"":6,""sdo10"":6,""sdo11"":3,""sdo14"":3,""sdo6"":3,""sdo9"":3,""sdo1"":0,""sdo13"":6,""sdo12"":6,""sdo15"":6,""sdo5"":2}","[7,15,3,6,1,2,9,10,13,5,8,0,12,11,14,4]"
"","","","","","html-button-response","144","1696586","0.0-17.0","207","1","2022-11-14 05:45:30","49aca292d257f58668169b9fbab864ae","124.64.18.37","Mozilla/5.0 (Macintosh; Intel Mac OS X 10_15_7) AppleWebKit/605.1.15 (KHTML, like Gecko) Version/15.4 Safari/605.1.15","Macintosh","Safari","15.4","OS X","10_15_7","1732","<p><strong>请判断你在多大程度上同意下列陈述。</strong></p>","0",""
"","","","","","survey-likert","145","1824298","0.0-18.0","207","1","2022-11-14 05:45:30","49aca292d257f58668169b9fbab864ae","124.64.18.37","Mozilla/5.0 (Macintosh; Intel Mac OS X 10_15_7) AppleWebKit/605.1.15 (KHTML, like Gecko) Version/15.4 Safari/605.1.15","Macintosh","Safari","15.4","OS X","10_15_7","127704","","{""caring1"":0,""liking1"":4,""caring2"":0,""protection1"":1,""liking2"":4,""caring3"":0,""protection2"":0,""liking3"":4,""protection3"":0,""caring4"":0,""liking4"":4,""protection4"":0,""caring5"":0,""liking5"":4,""protection5"":0}","[0,1,2,3,4,5,6,7,8,9,10,11,12,13,14]"
"","","","","","html-button-response","146","1826007","0.0-19.0","207","1","2022-11-14 05:45:30","49aca292d257f58668169b9fbab864ae","124.64.18.37","Mozilla/5.0 (Macintosh; Intel Mac OS X 10_15_7) AppleWebKit/605.1.15 (KHTML, like Gecko) Version/15.4 Safari/605.1.15","Macintosh","Safari","15.4","OS X","10_15_7","1701","<p><strong>请判断下列场景中你的内心感受有多柔软。</strong></p>","0",""
"","","","","","survey-likert","147","1892024","0.0-20.0","207","1","2022-11-14 05:45:30","49aca292d257f58668169b9fbab864ae","124.64.18.37","Mozilla/5.0 (Macintosh; Intel Mac OS X 10_15_7) AppleWebKit/605.1.15 (KHTML, like Gecko) Version/15.4 Safari/605.1.15","Macintosh","Safari","15.4","OS X","10_15_7","66008","","{""tenderness-positive1"":3,""tenderness-negative1"":0,""tenderness-negative2"":0,""tenderness-positive2"":2,""tenderness-positive3"":3,""tenderness-negative3"":0,""tenderness-positive4"":3,""tenderness-negative4"":1,""tenderness-negative5"":2,""tenderness-positive5"":4}","[0,1,2,3,4,5,6,7,8,9]"
"","","","","","survey-multi-choice","148","1907108","0.0-21.0","207","1","2022-11-14 05:45:30","49aca292d257f58668169b9fbab864ae","124.64.18.37","Mozilla/5.0 (Macintosh; Intel Mac OS X 10_15_7) AppleWebKit/605.1.15 (KHTML, like Gecko) Version/15.4 Safari/605.1.15","Macintosh","Safari","15.4","OS X","10_15_7","15077","","{""Attention2"":""每年""}","[0]"
"","","","","","html-button-response","149","1909025","0.0-22.0","207","1","2022-11-14 05:45:30","49aca292d257f58668169b9fbab864ae","124.64.18.37","Mozilla/5.0 (Macintosh; Intel Mac OS X 10_15_7) AppleWebKit/605.1.15 (KHTML, like Gecko) Version/15.4 Safari/605.1.15","Macintosh","Safari","15.4","OS X","10_15_7","1910","<p><strong>请判断你在多大程度上同意下列陈述。</strong></p>","0",""
"","","","","","survey-likert","150","2084433","0.0-23.0","207","1","2022-11-14 05:45:30","49aca292d257f58668169b9fbab864ae","124.64.18.37","Mozilla/5.0 (Macintosh; Intel Mac OS X 10_15_7) AppleWebKit/605.1.15 (KHTML, like Gecko) Version/15.4 Safari/605.1.15","Macintosh","Safari","15.4","OS X","10_15_7","175399","","{""Patri11"":1,""Nation4"":0,""Patri4"":3,""Nation1"":0,""Nation3"":4,""Patri3"":3,""Patri5"":3,""Nation5"":0,""Nation8"":1,""Patri7"":3,""Patri2"":3,""Nation6"":2,""Nation2"":2,""Patri1"":4,""Patri9"":3,""Nation7"":3,""Patri10"":1,""Patri8"":2,""Patri6"":2,""Patri12"":2}","[10,15,3,12,14,2,4,16,19,6,1,17,13,0,8,18,9,7,5,11]"
"","","","","","html-button-response","151","2085880","0.0-24.0","207","1","2022-11-14 05:45:30","49aca292d257f58668169b9fbab864ae","124.64.18.37","Mozilla/5.0 (Macintosh; Intel Mac OS X 10_15_7) AppleWebKit/605.1.15 (KHTML, like Gecko) Version/15.4 Safari/605.1.15","Macintosh","Safari","15.4","OS X","10_15_7","1441","<p><strong>请判断你在多大程度上同意下列陈述。</strong></p>","0",""
"","","","","","survey-likert","152","2169081","0.0-25.0","207","1","2022-11-14 05:45:30","49aca292d257f58668169b9fbab864ae","124.64.18.37","Mozilla/5.0 (Macintosh; Intel Mac OS X 10_15_7) AppleWebKit/605.1.15 (KHTML, like Gecko) Version/15.4 Safari/605.1.15","Macintosh","Safari","15.4","OS X","10_15_7","83191","","{""hi3"":8,""Robot"":6,""vi4"":5,""hc1"":3,""hi2"":8,""hc3"":6,""hc4"":6,""vi2"":6,""vc4"":3,""hc2"":5,""hi4"":8,""vc1"":3,""vi1"":6,""vc2"":2,""hi1"":8,""vi3"":8,""vc3"":0}","[2,7,8,9,1,11,12,5,16,10,3,13,4,14,0,6,15]"
"","","","","","survey-text","153","2173756","0.0-26.0","207","1","2022-11-14 05:45:30","49aca292d257f58668169b9fbab864ae","124.64.18.37","Mozilla/5.0 (Macintosh; Intel Mac OS X 10_15_7) AppleWebKit/605.1.15 (KHTML, like Gecko) Version/15.4 Safari/605.1.15","Macintosh","Safari","15.4","OS X","10_15_7","4667","","{""Comments"":""""}",""
"","","","","","html-button-response","154","2174906","0.0-27.0","207","1","2022-11-14 05:45:30","49aca292d257f58668169b9fbab864ae","124.64.18.37","Mozilla/5.0 (Macintosh; Intel Mac OS X 10_15_7) AppleWebKit/605.1.15 (KHTML, like Gecko) Version/15.4 Safari/605.1.15","Macintosh","Safari","15.4","OS X","10_15_7","1146","<strong><p>恭喜你完成了实验！</p><p>感谢您的参与。</p></strong>","0",""
