"success","timeout","failed_images","failed_audio","failed_video","trial_type","trial_index","time_elapsed","internal_node_id","run_id","condition","recorded_at","source_code_version","ip","user_agent","device","browser","browser_version","platform","platform_version","rt","stimulus","response","question_order"
"true","false","[]","[]","[]","preload","0","3322","0.0-0.0","209","1","2022-11-14 06:20:18","49aca292d257f58668169b9fbab864ae","223.104.39.102","Mozilla/5.0 (Windows NT 10.0; Win64; x64) AppleWebKit/537.36 (KHTML, like Gecko) Chrome/107.0.0.0 Safari/537.36 Edg/107.0.1418.42","WebKit","Edge","107.0.1418.42","Windows","10.0","","","",""
"true","","","","","fullscreen","1","6342","0.0-1.0","209","1","2022-11-14 06:20:18","49aca292d257f58668169b9fbab864ae","223.104.39.102","Mozilla/5.0 (Windows NT 10.0; Win64; x64) AppleWebKit/537.36 (KHTML, like Gecko) Chrome/107.0.0.0 Safari/537.36 Edg/107.0.1418.42","WebKit","Edge","107.0.1418.42","Windows","10.0","","","",""
"","","","","","html-button-response","2","13312","0.0-2.0","209","1","2022-11-14 06:20:18","49aca292d257f58668169b9fbab864ae","223.104.39.102","Mozilla/5.0 (Windows NT 10.0; Win64; x64) AppleWebKit/537.36 (KHTML, like Gecko) Chrome/107.0.0.0 Safari/537.36 Edg/107.0.1418.42","WebKit","Edge","107.0.1418.42","Windows","10.0","6967","<p style=""font-size:20px;font-weight:bold;"">实验知情同意书</p><p style=""text-align:left;""><strong>实验名称：</strong>社会冲突研究</p><p style=""text-align:left;""><strong>主要研究者：</strong>韩晓春副教授（北京师范大学心理学部）</p><p style=""text-align:left;""><strong>联系方式：</strong>发送邮件至xiaochun.han@bnu.edu.cn</p><p style=""text-align:left;""><strong>研究目的：</strong>研究旨在了解人类面对群体冲突时的决策方式，以及相关的心理学特质。实验调查大约需要20分钟。</p><p style=""text-align:left;""><strong>实验流程：</strong>实验包含两部分。第一部分呈现一系列群体冲突场景，请你决定如何对这些冲突进行反应，大约需要10分钟完成。第二部分包含一系列人口统计学信息收集和心理学问卷，大约需要10分钟完成。</p><p style=""text-align:left;""><strong>参加及退出规则：</strong>参加本实验完全取决于您的个人意愿。在参与过程中，您可以随时退出，并且不用承担任何后果。</p><p style=""text-align:left;""><strong>隐私：</strong>本实验完全匿名进行，不会收集您的姓名或其他能够识别您身份的信息。实验中收集的作答仅用作科学研究使用，可能会在学术期刊/书籍上发表，或者用于教学，您的数据未来可能会和其他研究者或实验室分享，但您的个人身份不会被识别。</p><p style=""text-align:left;""><strong>实验报酬：</strong>实验完成后，您将获得15元人民币报酬，以感谢您的时间和努力。调查问卷中包含几道题目用以测验您作答时的认真度。只有完成全部实验，并且正确回答认真度测验的被试才能获得实验报酬。实验报酬将通过支付宝转账发放。</p><p style=""text-align:left;font-size:20px;""><strong>如果您同意以上实验知情同意书的内容，请点击'同意并且开始实验'按钮；否则请关闭浏览器界面，退出实验。</strong></p>","0",""
"","","","","","html-button-response","3","23655","0.0-3.0","209","1","2022-11-14 06:20:18","49aca292d257f58668169b9fbab864ae","223.104.39.102","Mozilla/5.0 (Windows NT 10.0; Win64; x64) AppleWebKit/537.36 (KHTML, like Gecko) Chrome/107.0.0.0 Safari/537.36 Edg/107.0.1418.42","WebKit","Edge","107.0.1418.42","Windows","10.0","10339","<p ><strong>实验任务一：</strong></p><p>请想象你的国家与另一个国家发生了军事冲突。</p><p>你是国家军队的指挥官，你将如何在冲突中进行决策。</p><p>具体来说，作为军队指挥官，请你决定是否发射导弹进行打击。</p><p>接下来，你会面对一系列场景，请仔细阅读每个场景，然后进行决策。</p><p>这部分实验任务大约需要10分钟。</p><p><strong>实验过程中，请集中注意力。</strong></p>","0",""
"","","","","","html-keyboard-response","4","24674","0.0-4.0-0.0","209","1","2022-11-14 06:20:18","49aca292d257f58668169b9fbab864ae","223.104.39.102","Mozilla/5.0 (Windows NT 10.0; Win64; x64) AppleWebKit/537.36 (KHTML, like Gecko) Chrome/107.0.0.0 Safari/537.36 Edg/107.0.1418.42","WebKit","Edge","107.0.1418.42","Windows","10.0","null","<div style=""font-size:60px;"">+</div>","null",""
"","","","","","html-button-response","5","31715","0.0-4.0-1.0","209","1","2022-11-14 06:20:18","49aca292d257f58668169b9fbab864ae","223.104.39.102","Mozilla/5.0 (Windows NT 10.0; Win64; x64) AppleWebKit/537.36 (KHTML, like Gecko) Chrome/107.0.0.0 Safari/537.36 Edg/107.0.1418.42","WebKit","Edge","107.0.1418.42","Windows","10.0","7036","<p>作为军队的指挥官，你可以选择发射导弹杀死 <strong>9名</strong> 敌国士兵，但会炸毁附近的 <strong>1棵</strong> 敌国树木。</p> <p>树木的照片如下图所示。</p> <p></p> <img src='stimuli/trees/11.png', style='max-width: 30%;'> </img> <p><strong>你是否选择发射武器？</strong></p>","0",""
"","","","","","html-keyboard-response","6","32727","0.0-4.0-0.1","209","1","2022-11-14 06:20:18","49aca292d257f58668169b9fbab864ae","223.104.39.102","Mozilla/5.0 (Windows NT 10.0; Win64; x64) AppleWebKit/537.36 (KHTML, like Gecko) Chrome/107.0.0.0 Safari/537.36 Edg/107.0.1418.42","WebKit","Edge","107.0.1418.42","Windows","10.0","null","<div style=""font-size:60px;"">+</div>","null",""
"","","","","","html-button-response","7","35587","0.0-4.0-1.1","209","1","2022-11-14 06:20:18","49aca292d257f58668169b9fbab864ae","223.104.39.102","Mozilla/5.0 (Windows NT 10.0; Win64; x64) AppleWebKit/537.36 (KHTML, like Gecko) Chrome/107.0.0.0 Safari/537.36 Edg/107.0.1418.42","WebKit","Edge","107.0.1418.42","Windows","10.0","2856","<p>作为军队的指挥官，你可以选择发射导弹杀死 <strong>4名</strong> 敌国士兵，但会炸毁附近的 <strong>1棵</strong> 敌国树木。</p> <p>树木的照片如下图所示。</p> <p></p> <img src='stimuli/trees/12.png', style='max-width: 30%;'> </img> <p><strong>你是否选择发射武器？</strong></p>","0",""
"","","","","","html-keyboard-response","8","36599","0.0-4.0-0.2","209","1","2022-11-14 06:20:18","49aca292d257f58668169b9fbab864ae","223.104.39.102","Mozilla/5.0 (Windows NT 10.0; Win64; x64) AppleWebKit/537.36 (KHTML, like Gecko) Chrome/107.0.0.0 Safari/537.36 Edg/107.0.1418.42","WebKit","Edge","107.0.1418.42","Windows","10.0","null","<div style=""font-size:60px;"">+</div>","null",""
"","","","","","html-button-response","9","39971","0.0-4.0-1.2","209","1","2022-11-14 06:20:18","49aca292d257f58668169b9fbab864ae","223.104.39.102","Mozilla/5.0 (Windows NT 10.0; Win64; x64) AppleWebKit/537.36 (KHTML, like Gecko) Chrome/107.0.0.0 Safari/537.36 Edg/107.0.1418.42","WebKit","Edge","107.0.1418.42","Windows","10.0","3369","<p>作为军队的指挥官，你可以选择发射导弹杀死 <strong>8名</strong> 敌国士兵，但会误杀附近的 <strong>1名</strong> 敌国平民。</p> <p>平民照片如下图所示。</p> <p></p> <img src='stimuli/faces/PFF3.jpg', style='max-width: 30%;'> </img> <p><strong>你是否选择发射武器？</strong></p>","0",""
"","","","","","html-keyboard-response","10","40985","0.0-4.0-0.3","209","1","2022-11-14 06:20:18","49aca292d257f58668169b9fbab864ae","223.104.39.102","Mozilla/5.0 (Windows NT 10.0; Win64; x64) AppleWebKit/537.36 (KHTML, like Gecko) Chrome/107.0.0.0 Safari/537.36 Edg/107.0.1418.42","WebKit","Edge","107.0.1418.42","Windows","10.0","null","<div style=""font-size:60px;"">+</div>","null",""
"","","","","","html-button-response","11","45755","0.0-4.0-1.3","209","1","2022-11-14 06:20:18","49aca292d257f58668169b9fbab864ae","223.104.39.102","Mozilla/5.0 (Windows NT 10.0; Win64; x64) AppleWebKit/537.36 (KHTML, like Gecko) Chrome/107.0.0.0 Safari/537.36 Edg/107.0.1418.42","WebKit","Edge","107.0.1418.42","Windows","10.0","4766","<p>作为军队的指挥官，你可以选择发射导弹杀死 <strong>9名</strong> 敌国士兵，但会误杀附近的 <strong>1名</strong> 敌国平民。</p> <p>平民照片如下图所示。</p> <p></p> <img src='stimuli/faces/PFM2.jpg', style='max-width: 30%;'> </img> <p><strong>你是否选择发射武器？</strong></p>","0",""
"","","","","","html-keyboard-response","12","46759","0.0-4.0-0.4","209","1","2022-11-14 06:20:18","49aca292d257f58668169b9fbab864ae","223.104.39.102","Mozilla/5.0 (Windows NT 10.0; Win64; x64) AppleWebKit/537.36 (KHTML, like Gecko) Chrome/107.0.0.0 Safari/537.36 Edg/107.0.1418.42","WebKit","Edge","107.0.1418.42","Windows","10.0","null","<div style=""font-size:60px;"">+</div>","null",""
"","","","","","html-button-response","13","48807","0.0-4.0-1.4","209","1","2022-11-14 06:20:18","49aca292d257f58668169b9fbab864ae","223.104.39.102","Mozilla/5.0 (Windows NT 10.0; Win64; x64) AppleWebKit/537.36 (KHTML, like Gecko) Chrome/107.0.0.0 Safari/537.36 Edg/107.0.1418.42","WebKit","Edge","107.0.1418.42","Windows","10.0","2044","<p>作为军队的指挥官，你可以选择发射导弹杀死 <strong>7名</strong> 敌国士兵，但会炸毁附近的 <strong>1棵</strong> 敌国树木。</p> <p>树木的照片如下图所示。</p> <p></p> <img src='stimuli/trees/13.png', style='max-width: 30%;'> </img> <p><strong>你是否选择发射武器？</strong></p>","0",""
"","","","","","html-keyboard-response","14","49821","0.0-4.0-0.5","209","1","2022-11-14 06:20:18","49aca292d257f58668169b9fbab864ae","223.104.39.102","Mozilla/5.0 (Windows NT 10.0; Win64; x64) AppleWebKit/537.36 (KHTML, like Gecko) Chrome/107.0.0.0 Safari/537.36 Edg/107.0.1418.42","WebKit","Edge","107.0.1418.42","Windows","10.0","null","<div style=""font-size:60px;"">+</div>","null",""
"","","","","","html-button-response","15","53874","0.0-4.0-1.5","209","1","2022-11-14 06:20:18","49aca292d257f58668169b9fbab864ae","223.104.39.102","Mozilla/5.0 (Windows NT 10.0; Win64; x64) AppleWebKit/537.36 (KHTML, like Gecko) Chrome/107.0.0.0 Safari/537.36 Edg/107.0.1418.42","WebKit","Edge","107.0.1418.42","Windows","10.0","4050","<p>作为军队的指挥官，你可以选择发射导弹杀死 <strong>5名</strong> 敌国士兵，但会炸毁附近的 <strong>1棵</strong> 敌国树木。</p> <p>树木的照片如下图所示。</p> <p></p> <img src='stimuli/trees/10.png', style='max-width: 30%;'> </img> <p><strong>你是否选择发射武器？</strong></p>","0",""
"","","","","","html-keyboard-response","16","54887","0.0-4.0-0.6","209","1","2022-11-14 06:20:18","49aca292d257f58668169b9fbab864ae","223.104.39.102","Mozilla/5.0 (Windows NT 10.0; Win64; x64) AppleWebKit/537.36 (KHTML, like Gecko) Chrome/107.0.0.0 Safari/537.36 Edg/107.0.1418.42","WebKit","Edge","107.0.1418.42","Windows","10.0","null","<div style=""font-size:60px;"">+</div>","null",""
"","","","","","html-button-response","17","57019","0.0-4.0-1.6","209","1","2022-11-14 06:20:18","49aca292d257f58668169b9fbab864ae","223.104.39.102","Mozilla/5.0 (Windows NT 10.0; Win64; x64) AppleWebKit/537.36 (KHTML, like Gecko) Chrome/107.0.0.0 Safari/537.36 Edg/107.0.1418.42","WebKit","Edge","107.0.1418.42","Windows","10.0","2128","<p>作为军队的指挥官，你可以选择发射导弹杀死 <strong>5名</strong> 敌国士兵，但会误杀附近的 <strong>1名</strong> 敌国平民。</p> <p>平民照片如下图所示。</p> <p></p> <img src='stimuli/faces/PFM7.jpg', style='max-width: 30%;'> </img> <p><strong>你是否选择发射武器？</strong></p>","0",""
"","","","","","html-keyboard-response","18","58028","0.0-4.0-0.7","209","1","2022-11-14 06:20:18","49aca292d257f58668169b9fbab864ae","223.104.39.102","Mozilla/5.0 (Windows NT 10.0; Win64; x64) AppleWebKit/537.36 (KHTML, like Gecko) Chrome/107.0.0.0 Safari/537.36 Edg/107.0.1418.42","WebKit","Edge","107.0.1418.42","Windows","10.0","null","<div style=""font-size:60px;"">+</div>","null",""
"","","","","","html-button-response","19","61051","0.0-4.0-1.7","209","1","2022-11-14 06:20:18","49aca292d257f58668169b9fbab864ae","223.104.39.102","Mozilla/5.0 (Windows NT 10.0; Win64; x64) AppleWebKit/537.36 (KHTML, like Gecko) Chrome/107.0.0.0 Safari/537.36 Edg/107.0.1418.42","WebKit","Edge","107.0.1418.42","Windows","10.0","3020","<p>作为军队的指挥官，你可以选择发射导弹杀死 <strong>5名</strong> 敌国士兵，但会误杀附近的 <strong>1名</strong> 敌国平民。</p> <p>平民照片如下图所示。</p> <p></p> <img src='stimuli/faces/PFM8.jpg', style='max-width: 30%;'> </img> <p><strong>你是否选择发射武器？</strong></p>","0",""
"","","","","","html-keyboard-response","20","62059","0.0-4.0-0.8","209","1","2022-11-14 06:20:18","49aca292d257f58668169b9fbab864ae","223.104.39.102","Mozilla/5.0 (Windows NT 10.0; Win64; x64) AppleWebKit/537.36 (KHTML, like Gecko) Chrome/107.0.0.0 Safari/537.36 Edg/107.0.1418.42","WebKit","Edge","107.0.1418.42","Windows","10.0","null","<div style=""font-size:60px;"">+</div>","null",""
"","","","","","html-button-response","21","64148","0.0-4.0-1.8","209","1","2022-11-14 06:20:18","49aca292d257f58668169b9fbab864ae","223.104.39.102","Mozilla/5.0 (Windows NT 10.0; Win64; x64) AppleWebKit/537.36 (KHTML, like Gecko) Chrome/107.0.0.0 Safari/537.36 Edg/107.0.1418.42","WebKit","Edge","107.0.1418.42","Windows","10.0","2085","<p>作为军队的指挥官，你可以选择发射导弹杀死 <strong>6名</strong> 敌国士兵，但会误杀附近的 <strong>1名</strong> 敌国平民。</p> <p>平民照片如下图所示。</p> <p></p> <img src='stimuli/faces/PFM7.jpg', style='max-width: 30%;'> </img> <p><strong>你是否选择发射武器？</strong></p>","0",""
"","","","","","html-keyboard-response","22","65152","0.0-4.0-0.9","209","1","2022-11-14 06:20:18","49aca292d257f58668169b9fbab864ae","223.104.39.102","Mozilla/5.0 (Windows NT 10.0; Win64; x64) AppleWebKit/537.36 (KHTML, like Gecko) Chrome/107.0.0.0 Safari/537.36 Edg/107.0.1418.42","WebKit","Edge","107.0.1418.42","Windows","10.0","null","<div style=""font-size:60px;"">+</div>","null",""
"","","","","","html-button-response","23","66551","0.0-4.0-1.9","209","1","2022-11-14 06:20:18","49aca292d257f58668169b9fbab864ae","223.104.39.102","Mozilla/5.0 (Windows NT 10.0; Win64; x64) AppleWebKit/537.36 (KHTML, like Gecko) Chrome/107.0.0.0 Safari/537.36 Edg/107.0.1418.42","WebKit","Edge","107.0.1418.42","Windows","10.0","1395","<p>作为军队的指挥官，你可以选择发射导弹杀死 <strong>5名</strong> 敌国士兵，但会炸毁附近的 <strong>1棵</strong> 敌国树木。</p> <p>树木的照片如下图所示。</p> <p></p> <img src='stimuli/trees/9.png', style='max-width: 30%;'> </img> <p><strong>你是否选择发射武器？</strong></p>","0",""
"","","","","","html-keyboard-response","24","67560","0.0-4.0-0.10","209","1","2022-11-14 06:20:18","49aca292d257f58668169b9fbab864ae","223.104.39.102","Mozilla/5.0 (Windows NT 10.0; Win64; x64) AppleWebKit/537.36 (KHTML, like Gecko) Chrome/107.0.0.0 Safari/537.36 Edg/107.0.1418.42","WebKit","Edge","107.0.1418.42","Windows","10.0","null","<div style=""font-size:60px;"">+</div>","null",""
"","","","","","html-button-response","25","68603","0.0-4.0-1.10","209","1","2022-11-14 06:20:18","49aca292d257f58668169b9fbab864ae","223.104.39.102","Mozilla/5.0 (Windows NT 10.0; Win64; x64) AppleWebKit/537.36 (KHTML, like Gecko) Chrome/107.0.0.0 Safari/537.36 Edg/107.0.1418.42","WebKit","Edge","107.0.1418.42","Windows","10.0","1040","<p>作为军队的指挥官，你可以选择发射导弹杀死 <strong>2名</strong> 敌国士兵，但会炸毁附近的 <strong>1棵</strong> 敌国树木。</p> <p>树木的照片如下图所示。</p> <p></p> <img src='stimuli/trees/14.png', style='max-width: 30%;'> </img> <p><strong>你是否选择发射武器？</strong></p>","0",""
"","","","","","html-keyboard-response","26","69609","0.0-4.0-0.11","209","1","2022-11-14 06:20:18","49aca292d257f58668169b9fbab864ae","223.104.39.102","Mozilla/5.0 (Windows NT 10.0; Win64; x64) AppleWebKit/537.36 (KHTML, like Gecko) Chrome/107.0.0.0 Safari/537.36 Edg/107.0.1418.42","WebKit","Edge","107.0.1418.42","Windows","10.0","null","<div style=""font-size:60px;"">+</div>","null",""
"","","","","","html-button-response","27","71811","0.0-4.0-1.11","209","1","2022-11-14 06:20:18","49aca292d257f58668169b9fbab864ae","223.104.39.102","Mozilla/5.0 (Windows NT 10.0; Win64; x64) AppleWebKit/537.36 (KHTML, like Gecko) Chrome/107.0.0.0 Safari/537.36 Edg/107.0.1418.42","WebKit","Edge","107.0.1418.42","Windows","10.0","2199","<p>作为军队的指挥官，你可以选择发射导弹杀死 <strong>9名</strong> 敌国士兵，但会炸毁附近的 <strong>1棵</strong> 敌国树木。</p> <p>树木的照片如下图所示。</p> <p></p> <img src='stimuli/trees/14.png', style='max-width: 30%;'> </img> <p><strong>你是否选择发射武器？</strong></p>","0",""
"","","","","","html-keyboard-response","28","72815","0.0-4.0-0.12","209","1","2022-11-14 06:20:18","49aca292d257f58668169b9fbab864ae","223.104.39.102","Mozilla/5.0 (Windows NT 10.0; Win64; x64) AppleWebKit/537.36 (KHTML, like Gecko) Chrome/107.0.0.0 Safari/537.36 Edg/107.0.1418.42","WebKit","Edge","107.0.1418.42","Windows","10.0","null","<div style=""font-size:60px;"">+</div>","null",""
"","","","","","html-button-response","29","74899","0.0-4.0-1.12","209","1","2022-11-14 06:20:18","49aca292d257f58668169b9fbab864ae","223.104.39.102","Mozilla/5.0 (Windows NT 10.0; Win64; x64) AppleWebKit/537.36 (KHTML, like Gecko) Chrome/107.0.0.0 Safari/537.36 Edg/107.0.1418.42","WebKit","Edge","107.0.1418.42","Windows","10.0","2081","<p>作为军队的指挥官，你可以选择发射导弹杀死 <strong>4名</strong> 敌国士兵，但会误杀附近的 <strong>1名</strong> 敌国平民。</p> <p>平民照片如下图所示。</p> <p></p> <img src='stimuli/faces/PFM3.jpg', style='max-width: 30%;'> </img> <p><strong>你是否选择发射武器？</strong></p>","0",""
"","","","","","html-keyboard-response","30","75908","0.0-4.0-0.13","209","1","2022-11-14 06:20:18","49aca292d257f58668169b9fbab864ae","223.104.39.102","Mozilla/5.0 (Windows NT 10.0; Win64; x64) AppleWebKit/537.36 (KHTML, like Gecko) Chrome/107.0.0.0 Safari/537.36 Edg/107.0.1418.42","WebKit","Edge","107.0.1418.42","Windows","10.0","null","<div style=""font-size:60px;"">+</div>","null",""
"","","","","","html-button-response","31","77495","0.0-4.0-1.13","209","1","2022-11-14 06:20:18","49aca292d257f58668169b9fbab864ae","223.104.39.102","Mozilla/5.0 (Windows NT 10.0; Win64; x64) AppleWebKit/537.36 (KHTML, like Gecko) Chrome/107.0.0.0 Safari/537.36 Edg/107.0.1418.42","WebKit","Edge","107.0.1418.42","Windows","10.0","1583","<p>作为军队的指挥官，你可以选择发射导弹杀死 <strong>7名</strong> 敌国士兵，但会误杀附近的 <strong>1名</strong> 敌国平民。</p> <p>平民照片如下图所示。</p> <p></p> <img src='stimuli/faces/PFM4.jpg', style='max-width: 30%;'> </img> <p><strong>你是否选择发射武器？</strong></p>","0",""
"","","","","","html-keyboard-response","32","78510","0.0-4.0-0.14","209","1","2022-11-14 06:20:18","49aca292d257f58668169b9fbab864ae","223.104.39.102","Mozilla/5.0 (Windows NT 10.0; Win64; x64) AppleWebKit/537.36 (KHTML, like Gecko) Chrome/107.0.0.0 Safari/537.36 Edg/107.0.1418.42","WebKit","Edge","107.0.1418.42","Windows","10.0","null","<div style=""font-size:60px;"">+</div>","null",""
"","","","","","html-button-response","33","80679","0.0-4.0-1.14","209","1","2022-11-14 06:20:18","49aca292d257f58668169b9fbab864ae","223.104.39.102","Mozilla/5.0 (Windows NT 10.0; Win64; x64) AppleWebKit/537.36 (KHTML, like Gecko) Chrome/107.0.0.0 Safari/537.36 Edg/107.0.1418.42","WebKit","Edge","107.0.1418.42","Windows","10.0","2165","<p>作为军队的指挥官，你可以选择发射导弹杀死 <strong>1名</strong> 敌国士兵，但会炸毁附近的 <strong>1棵</strong> 敌国树木。</p> <p>树木的照片如下图所示。</p> <p></p> <img src='stimuli/trees/8.png', style='max-width: 30%;'> </img> <p><strong>你是否选择发射武器？</strong></p>","0",""
"","","","","","html-keyboard-response","34","81697","0.0-4.0-0.15","209","1","2022-11-14 06:20:18","49aca292d257f58668169b9fbab864ae","223.104.39.102","Mozilla/5.0 (Windows NT 10.0; Win64; x64) AppleWebKit/537.36 (KHTML, like Gecko) Chrome/107.0.0.0 Safari/537.36 Edg/107.0.1418.42","WebKit","Edge","107.0.1418.42","Windows","10.0","null","<div style=""font-size:60px;"">+</div>","null",""
"","","","","","html-button-response","35","85067","0.0-4.0-1.15","209","1","2022-11-14 06:20:18","49aca292d257f58668169b9fbab864ae","223.104.39.102","Mozilla/5.0 (Windows NT 10.0; Win64; x64) AppleWebKit/537.36 (KHTML, like Gecko) Chrome/107.0.0.0 Safari/537.36 Edg/107.0.1418.42","WebKit","Edge","107.0.1418.42","Windows","10.0","3367","<p>作为军队的指挥官，你可以选择发射导弹杀死 <strong>2名</strong> 敌国士兵，但会炸毁附近的 <strong>1棵</strong> 敌国树木。</p> <p>树木的照片如下图所示。</p> <p></p> <img src='stimuli/trees/13.png', style='max-width: 30%;'> </img> <p><strong>你是否选择发射武器？</strong></p>","0",""
"","","","","","html-keyboard-response","36","86072","0.0-4.0-0.16","209","1","2022-11-14 06:20:18","49aca292d257f58668169b9fbab864ae","223.104.39.102","Mozilla/5.0 (Windows NT 10.0; Win64; x64) AppleWebKit/537.36 (KHTML, like Gecko) Chrome/107.0.0.0 Safari/537.36 Edg/107.0.1418.42","WebKit","Edge","107.0.1418.42","Windows","10.0","null","<div style=""font-size:60px;"">+</div>","null",""
"","","","","","html-button-response","37","87847","0.0-4.0-1.16","209","1","2022-11-14 06:20:18","49aca292d257f58668169b9fbab864ae","223.104.39.102","Mozilla/5.0 (Windows NT 10.0; Win64; x64) AppleWebKit/537.36 (KHTML, like Gecko) Chrome/107.0.0.0 Safari/537.36 Edg/107.0.1418.42","WebKit","Edge","107.0.1418.42","Windows","10.0","1771","<p>作为军队的指挥官，你可以选择发射导弹杀死 <strong>1名</strong> 敌国士兵，但会误杀附近的 <strong>1名</strong> 敌国平民。</p> <p>平民照片如下图所示。</p> <p></p> <img src='stimuli/faces/PFF4.jpg', style='max-width: 30%;'> </img> <p><strong>你是否选择发射武器？</strong></p>","0",""
"","","","","","html-keyboard-response","38","88863","0.0-4.0-0.17","209","1","2022-11-14 06:20:18","49aca292d257f58668169b9fbab864ae","223.104.39.102","Mozilla/5.0 (Windows NT 10.0; Win64; x64) AppleWebKit/537.36 (KHTML, like Gecko) Chrome/107.0.0.0 Safari/537.36 Edg/107.0.1418.42","WebKit","Edge","107.0.1418.42","Windows","10.0","null","<div style=""font-size:60px;"">+</div>","null",""
"","","","","","html-button-response","39","92331","0.0-4.0-1.17","209","1","2022-11-14 06:20:18","49aca292d257f58668169b9fbab864ae","223.104.39.102","Mozilla/5.0 (Windows NT 10.0; Win64; x64) AppleWebKit/537.36 (KHTML, like Gecko) Chrome/107.0.0.0 Safari/537.36 Edg/107.0.1418.42","WebKit","Edge","107.0.1418.42","Windows","10.0","3465","<p>作为军队的指挥官，你可以选择发射导弹杀死 <strong>1名</strong> 敌国士兵，但会误杀附近的 <strong>1名</strong> 敌国平民。</p> <p>平民照片如下图所示。</p> <p></p> <img src='stimuli/faces/PFF6.jpg', style='max-width: 30%;'> </img> <p><strong>你是否选择发射武器？</strong></p>","0",""
"","","","","","html-keyboard-response","40","93337","0.0-4.0-0.18","209","1","2022-11-14 06:20:18","49aca292d257f58668169b9fbab864ae","223.104.39.102","Mozilla/5.0 (Windows NT 10.0; Win64; x64) AppleWebKit/537.36 (KHTML, like Gecko) Chrome/107.0.0.0 Safari/537.36 Edg/107.0.1418.42","WebKit","Edge","107.0.1418.42","Windows","10.0","null","<div style=""font-size:60px;"">+</div>","null",""
"","","","","","html-button-response","41","94679","0.0-4.0-1.18","209","1","2022-11-14 06:20:18","49aca292d257f58668169b9fbab864ae","223.104.39.102","Mozilla/5.0 (Windows NT 10.0; Win64; x64) AppleWebKit/537.36 (KHTML, like Gecko) Chrome/107.0.0.0 Safari/537.36 Edg/107.0.1418.42","WebKit","Edge","107.0.1418.42","Windows","10.0","1337","<p>作为军队的指挥官，你可以选择发射导弹杀死 <strong>5名</strong> 敌国士兵，但会误杀附近的 <strong>1名</strong> 敌国平民。</p> <p>平民照片如下图所示。</p> <p></p> <img src='stimuli/faces/PFM6.jpg', style='max-width: 30%;'> </img> <p><strong>你是否选择发射武器？</strong></p>","0",""
"","","","","","html-keyboard-response","42","95695","0.0-4.0-0.19","209","1","2022-11-14 06:20:18","49aca292d257f58668169b9fbab864ae","223.104.39.102","Mozilla/5.0 (Windows NT 10.0; Win64; x64) AppleWebKit/537.36 (KHTML, like Gecko) Chrome/107.0.0.0 Safari/537.36 Edg/107.0.1418.42","WebKit","Edge","107.0.1418.42","Windows","10.0","null","<div style=""font-size:60px;"">+</div>","null",""
"","","","","","html-button-response","43","97387","0.0-4.0-1.19","209","1","2022-11-14 06:20:18","49aca292d257f58668169b9fbab864ae","223.104.39.102","Mozilla/5.0 (Windows NT 10.0; Win64; x64) AppleWebKit/537.36 (KHTML, like Gecko) Chrome/107.0.0.0 Safari/537.36 Edg/107.0.1418.42","WebKit","Edge","107.0.1418.42","Windows","10.0","1688","<p>作为军队的指挥官，你可以选择发射导弹杀死 <strong>5名</strong> 敌国士兵，但会误杀附近的 <strong>1名</strong> 敌国平民。</p> <p>平民照片如下图所示。</p> <p></p> <img src='stimuli/faces/PFF1.jpg', style='max-width: 30%;'> </img> <p><strong>你是否选择发射武器？</strong></p>","0",""
"","","","","","html-keyboard-response","44","98397","0.0-4.0-0.20","209","1","2022-11-14 06:20:18","49aca292d257f58668169b9fbab864ae","223.104.39.102","Mozilla/5.0 (Windows NT 10.0; Win64; x64) AppleWebKit/537.36 (KHTML, like Gecko) Chrome/107.0.0.0 Safari/537.36 Edg/107.0.1418.42","WebKit","Edge","107.0.1418.42","Windows","10.0","null","<div style=""font-size:60px;"">+</div>","null",""
"","","","","","html-button-response","45","99803","0.0-4.0-1.20","209","1","2022-11-14 06:20:18","49aca292d257f58668169b9fbab864ae","223.104.39.102","Mozilla/5.0 (Windows NT 10.0; Win64; x64) AppleWebKit/537.36 (KHTML, like Gecko) Chrome/107.0.0.0 Safari/537.36 Edg/107.0.1418.42","WebKit","Edge","107.0.1418.42","Windows","10.0","1403","<p>作为军队的指挥官，你可以选择发射导弹杀死 <strong>9名</strong> 敌国士兵，但会误杀附近的 <strong>1名</strong> 敌国平民。</p> <p>平民照片如下图所示。</p> <p></p> <img src='stimuli/faces/PFM5.jpg', style='max-width: 30%;'> </img> <p><strong>你是否选择发射武器？</strong></p>","0",""
"","","","","","html-keyboard-response","46","100813","0.0-4.0-0.21","209","1","2022-11-14 06:20:18","49aca292d257f58668169b9fbab864ae","223.104.39.102","Mozilla/5.0 (Windows NT 10.0; Win64; x64) AppleWebKit/537.36 (KHTML, like Gecko) Chrome/107.0.0.0 Safari/537.36 Edg/107.0.1418.42","WebKit","Edge","107.0.1418.42","Windows","10.0","null","<div style=""font-size:60px;"">+</div>","null",""
"","","","","","html-button-response","47","102143","0.0-4.0-1.21","209","1","2022-11-14 06:20:18","49aca292d257f58668169b9fbab864ae","223.104.39.102","Mozilla/5.0 (Windows NT 10.0; Win64; x64) AppleWebKit/537.36 (KHTML, like Gecko) Chrome/107.0.0.0 Safari/537.36 Edg/107.0.1418.42","WebKit","Edge","107.0.1418.42","Windows","10.0","1327","<p>作为军队的指挥官，你可以选择发射导弹杀死 <strong>2名</strong> 敌国士兵，但会炸毁附近的 <strong>1棵</strong> 敌国树木。</p> <p>树木的照片如下图所示。</p> <p></p> <img src='stimuli/trees/15.png', style='max-width: 30%;'> </img> <p><strong>你是否选择发射武器？</strong></p>","0",""
"","","","","","html-keyboard-response","48","103161","0.0-4.0-0.22","209","1","2022-11-14 06:20:18","49aca292d257f58668169b9fbab864ae","223.104.39.102","Mozilla/5.0 (Windows NT 10.0; Win64; x64) AppleWebKit/537.36 (KHTML, like Gecko) Chrome/107.0.0.0 Safari/537.36 Edg/107.0.1418.42","WebKit","Edge","107.0.1418.42","Windows","10.0","null","<div style=""font-size:60px;"">+</div>","null",""
"","","","","","html-button-response","49","104579","0.0-4.0-1.22","209","1","2022-11-14 06:20:18","49aca292d257f58668169b9fbab864ae","223.104.39.102","Mozilla/5.0 (Windows NT 10.0; Win64; x64) AppleWebKit/537.36 (KHTML, like Gecko) Chrome/107.0.0.0 Safari/537.36 Edg/107.0.1418.42","WebKit","Edge","107.0.1418.42","Windows","10.0","1414","<p>作为军队的指挥官，你可以选择发射导弹杀死 <strong>7名</strong> 敌国士兵，但会炸毁附近的 <strong>1棵</strong> 敌国树木。</p> <p>树木的照片如下图所示。</p> <p></p> <img src='stimuli/trees/3.png', style='max-width: 30%;'> </img> <p><strong>你是否选择发射武器？</strong></p>","0",""
"","","","","","html-keyboard-response","50","105597","0.0-4.0-0.23","209","1","2022-11-14 06:20:18","49aca292d257f58668169b9fbab864ae","223.104.39.102","Mozilla/5.0 (Windows NT 10.0; Win64; x64) AppleWebKit/537.36 (KHTML, like Gecko) Chrome/107.0.0.0 Safari/537.36 Edg/107.0.1418.42","WebKit","Edge","107.0.1418.42","Windows","10.0","null","<div style=""font-size:60px;"">+</div>","null",""
"","","","","","html-button-response","51","106511","0.0-4.0-1.23","209","1","2022-11-14 06:20:18","49aca292d257f58668169b9fbab864ae","223.104.39.102","Mozilla/5.0 (Windows NT 10.0; Win64; x64) AppleWebKit/537.36 (KHTML, like Gecko) Chrome/107.0.0.0 Safari/537.36 Edg/107.0.1418.42","WebKit","Edge","107.0.1418.42","Windows","10.0","910","<p>作为军队的指挥官，你可以选择发射导弹杀死 <strong>2名</strong> 敌国士兵，但会误杀附近的 <strong>1名</strong> 敌国平民。</p> <p>平民照片如下图所示。</p> <p></p> <img src='stimuli/faces/PFM2.jpg', style='max-width: 30%;'> </img> <p><strong>你是否选择发射武器？</strong></p>","0",""
"","","","","","html-keyboard-response","52","107520","0.0-4.0-0.24","209","1","2022-11-14 06:20:18","49aca292d257f58668169b9fbab864ae","223.104.39.102","Mozilla/5.0 (Windows NT 10.0; Win64; x64) AppleWebKit/537.36 (KHTML, like Gecko) Chrome/107.0.0.0 Safari/537.36 Edg/107.0.1418.42","WebKit","Edge","107.0.1418.42","Windows","10.0","null","<div style=""font-size:60px;"">+</div>","null",""
"","","","","","html-button-response","53","108563","0.0-4.0-1.24","209","1","2022-11-14 06:20:18","49aca292d257f58668169b9fbab864ae","223.104.39.102","Mozilla/5.0 (Windows NT 10.0; Win64; x64) AppleWebKit/537.36 (KHTML, like Gecko) Chrome/107.0.0.0 Safari/537.36 Edg/107.0.1418.42","WebKit","Edge","107.0.1418.42","Windows","10.0","1039","<p>作为军队的指挥官，你可以选择发射导弹杀死 <strong>1名</strong> 敌国士兵，但会误杀附近的 <strong>1名</strong> 敌国平民。</p> <p>平民照片如下图所示。</p> <p></p> <img src='stimuli/faces/PFF8.jpg', style='max-width: 30%;'> </img> <p><strong>你是否选择发射武器？</strong></p>","0",""
"","","","","","html-keyboard-response","54","109570","0.0-4.0-0.25","209","1","2022-11-14 06:20:18","49aca292d257f58668169b9fbab864ae","223.104.39.102","Mozilla/5.0 (Windows NT 10.0; Win64; x64) AppleWebKit/537.36 (KHTML, like Gecko) Chrome/107.0.0.0 Safari/537.36 Edg/107.0.1418.42","WebKit","Edge","107.0.1418.42","Windows","10.0","null","<div style=""font-size:60px;"">+</div>","null",""
"","","","","","html-button-response","55","111603","0.0-4.0-1.25","209","1","2022-11-14 06:20:18","49aca292d257f58668169b9fbab864ae","223.104.39.102","Mozilla/5.0 (Windows NT 10.0; Win64; x64) AppleWebKit/537.36 (KHTML, like Gecko) Chrome/107.0.0.0 Safari/537.36 Edg/107.0.1418.42","WebKit","Edge","107.0.1418.42","Windows","10.0","2029","<p>作为军队的指挥官，你可以选择发射导弹杀死 <strong>2名</strong> 敌国士兵，但会误杀附近的 <strong>1名</strong> 敌国平民。</p> <p>平民照片如下图所示。</p> <p></p> <img src='stimuli/faces/PFM5.jpg', style='max-width: 30%;'> </img> <p><strong>你是否选择发射武器？</strong></p>","0",""
"","","","","","html-keyboard-response","56","112613","0.0-4.0-0.26","209","1","2022-11-14 06:20:18","49aca292d257f58668169b9fbab864ae","223.104.39.102","Mozilla/5.0 (Windows NT 10.0; Win64; x64) AppleWebKit/537.36 (KHTML, like Gecko) Chrome/107.0.0.0 Safari/537.36 Edg/107.0.1418.42","WebKit","Edge","107.0.1418.42","Windows","10.0","null","<div style=""font-size:60px;"">+</div>","null",""
"","","","","","html-button-response","57","114231","0.0-4.0-1.26","209","1","2022-11-14 06:20:18","49aca292d257f58668169b9fbab864ae","223.104.39.102","Mozilla/5.0 (Windows NT 10.0; Win64; x64) AppleWebKit/537.36 (KHTML, like Gecko) Chrome/107.0.0.0 Safari/537.36 Edg/107.0.1418.42","WebKit","Edge","107.0.1418.42","Windows","10.0","1614","<p>作为军队的指挥官，你可以选择发射导弹杀死 <strong>3名</strong> 敌国士兵，但会误杀附近的 <strong>1名</strong> 敌国平民。</p> <p>平民照片如下图所示。</p> <p></p> <img src='stimuli/faces/PFF5.jpg', style='max-width: 30%;'> </img> <p><strong>你是否选择发射武器？</strong></p>","0",""
"","","","","","html-keyboard-response","58","115245","0.0-4.0-0.27","209","1","2022-11-14 06:20:18","49aca292d257f58668169b9fbab864ae","223.104.39.102","Mozilla/5.0 (Windows NT 10.0; Win64; x64) AppleWebKit/537.36 (KHTML, like Gecko) Chrome/107.0.0.0 Safari/537.36 Edg/107.0.1418.42","WebKit","Edge","107.0.1418.42","Windows","10.0","null","<div style=""font-size:60px;"">+</div>","null",""
"","","","","","html-button-response","59","117127","0.0-4.0-1.27","209","1","2022-11-14 06:20:18","49aca292d257f58668169b9fbab864ae","223.104.39.102","Mozilla/5.0 (Windows NT 10.0; Win64; x64) AppleWebKit/537.36 (KHTML, like Gecko) Chrome/107.0.0.0 Safari/537.36 Edg/107.0.1418.42","WebKit","Edge","107.0.1418.42","Windows","10.0","1878","<p>作为军队的指挥官，你可以选择发射导弹杀死 <strong>8名</strong> 敌国士兵，但会炸毁附近的 <strong>1棵</strong> 敌国树木。</p> <p>树木的照片如下图所示。</p> <p></p> <img src='stimuli/trees/7.png', style='max-width: 30%;'> </img> <p><strong>你是否选择发射武器？</strong></p>","0",""
"","","","","","html-keyboard-response","60","118137","0.0-4.0-0.28","209","1","2022-11-14 06:20:18","49aca292d257f58668169b9fbab864ae","223.104.39.102","Mozilla/5.0 (Windows NT 10.0; Win64; x64) AppleWebKit/537.36 (KHTML, like Gecko) Chrome/107.0.0.0 Safari/537.36 Edg/107.0.1418.42","WebKit","Edge","107.0.1418.42","Windows","10.0","null","<div style=""font-size:60px;"">+</div>","null",""
"","","","","","html-button-response","61","119475","0.0-4.0-1.28","209","1","2022-11-14 06:20:18","49aca292d257f58668169b9fbab864ae","223.104.39.102","Mozilla/5.0 (Windows NT 10.0; Win64; x64) AppleWebKit/537.36 (KHTML, like Gecko) Chrome/107.0.0.0 Safari/537.36 Edg/107.0.1418.42","WebKit","Edge","107.0.1418.42","Windows","10.0","1333","<p>作为军队的指挥官，你可以选择发射导弹杀死 <strong>10名</strong> 敌国士兵，但会误杀附近的 <strong>1名</strong> 敌国平民。</p> <p>平民照片如下图所示。</p> <p></p> <img src='stimuli/faces/PFF4.jpg', style='max-width: 30%;'> </img> <p><strong>你是否选择发射武器？</strong></p>","0",""
"","","","","","html-keyboard-response","62","120484","0.0-4.0-0.29","209","1","2022-11-14 06:20:18","49aca292d257f58668169b9fbab864ae","223.104.39.102","Mozilla/5.0 (Windows NT 10.0; Win64; x64) AppleWebKit/537.36 (KHTML, like Gecko) Chrome/107.0.0.0 Safari/537.36 Edg/107.0.1418.42","WebKit","Edge","107.0.1418.42","Windows","10.0","null","<div style=""font-size:60px;"">+</div>","null",""
"","","","","","html-button-response","63","121735","0.0-4.0-1.29","209","1","2022-11-14 06:20:18","49aca292d257f58668169b9fbab864ae","223.104.39.102","Mozilla/5.0 (Windows NT 10.0; Win64; x64) AppleWebKit/537.36 (KHTML, like Gecko) Chrome/107.0.0.0 Safari/537.36 Edg/107.0.1418.42","WebKit","Edge","107.0.1418.42","Windows","10.0","1246","<p>作为军队的指挥官，你可以选择发射导弹杀死 <strong>8名</strong> 敌国士兵，但会炸毁附近的 <strong>1棵</strong> 敌国树木。</p> <p>树木的照片如下图所示。</p> <p></p> <img src='stimuli/trees/12.png', style='max-width: 30%;'> </img> <p><strong>你是否选择发射武器？</strong></p>","0",""
"","","","","","html-keyboard-response","64","122750","0.0-4.0-0.30","209","1","2022-11-14 06:20:18","49aca292d257f58668169b9fbab864ae","223.104.39.102","Mozilla/5.0 (Windows NT 10.0; Win64; x64) AppleWebKit/537.36 (KHTML, like Gecko) Chrome/107.0.0.0 Safari/537.36 Edg/107.0.1418.42","WebKit","Edge","107.0.1418.42","Windows","10.0","null","<div style=""font-size:60px;"">+</div>","null",""
"","","","","","html-button-response","65","124383","0.0-4.0-1.30","209","1","2022-11-14 06:20:18","49aca292d257f58668169b9fbab864ae","223.104.39.102","Mozilla/5.0 (Windows NT 10.0; Win64; x64) AppleWebKit/537.36 (KHTML, like Gecko) Chrome/107.0.0.0 Safari/537.36 Edg/107.0.1418.42","WebKit","Edge","107.0.1418.42","Windows","10.0","1629","<p>作为军队的指挥官，你可以选择发射导弹杀死 <strong>10名</strong> 敌国士兵，但会误杀附近的 <strong>1名</strong> 敌国平民。</p> <p>平民照片如下图所示。</p> <p></p> <img src='stimuli/faces/PFF8.jpg', style='max-width: 30%;'> </img> <p><strong>你是否选择发射武器？</strong></p>","0",""
"","","","","","html-keyboard-response","66","125393","0.0-4.0-0.31","209","1","2022-11-14 06:20:18","49aca292d257f58668169b9fbab864ae","223.104.39.102","Mozilla/5.0 (Windows NT 10.0; Win64; x64) AppleWebKit/537.36 (KHTML, like Gecko) Chrome/107.0.0.0 Safari/537.36 Edg/107.0.1418.42","WebKit","Edge","107.0.1418.42","Windows","10.0","null","<div style=""font-size:60px;"">+</div>","null",""
"","","","","","html-button-response","67","126843","0.0-4.0-1.31","209","1","2022-11-14 06:20:18","49aca292d257f58668169b9fbab864ae","223.104.39.102","Mozilla/5.0 (Windows NT 10.0; Win64; x64) AppleWebKit/537.36 (KHTML, like Gecko) Chrome/107.0.0.0 Safari/537.36 Edg/107.0.1418.42","WebKit","Edge","107.0.1418.42","Windows","10.0","1446","<p>作为军队的指挥官，你可以选择发射导弹杀死 <strong>1名</strong> 敌国士兵，但会炸毁附近的 <strong>1棵</strong> 敌国树木。</p> <p>树木的照片如下图所示。</p> <p></p> <img src='stimuli/trees/1.png', style='max-width: 30%;'> </img> <p><strong>你是否选择发射武器？</strong></p>","0",""
"","","","","","html-keyboard-response","68","127854","0.0-4.0-0.32","209","1","2022-11-14 06:20:18","49aca292d257f58668169b9fbab864ae","223.104.39.102","Mozilla/5.0 (Windows NT 10.0; Win64; x64) AppleWebKit/537.36 (KHTML, like Gecko) Chrome/107.0.0.0 Safari/537.36 Edg/107.0.1418.42","WebKit","Edge","107.0.1418.42","Windows","10.0","null","<div style=""font-size:60px;"">+</div>","null",""
"","","","","","html-button-response","69","128807","0.0-4.0-1.32","209","1","2022-11-14 06:20:18","49aca292d257f58668169b9fbab864ae","223.104.39.102","Mozilla/5.0 (Windows NT 10.0; Win64; x64) AppleWebKit/537.36 (KHTML, like Gecko) Chrome/107.0.0.0 Safari/537.36 Edg/107.0.1418.42","WebKit","Edge","107.0.1418.42","Windows","10.0","948","<p>作为军队的指挥官，你可以选择发射导弹杀死 <strong>4名</strong> 敌国士兵，但会误杀附近的 <strong>1名</strong> 敌国平民。</p> <p>平民照片如下图所示。</p> <p></p> <img src='stimuli/faces/PFF7.jpg', style='max-width: 30%;'> </img> <p><strong>你是否选择发射武器？</strong></p>","0",""
"","","","","","html-keyboard-response","70","129820","0.0-4.0-0.33","209","1","2022-11-14 06:20:18","49aca292d257f58668169b9fbab864ae","223.104.39.102","Mozilla/5.0 (Windows NT 10.0; Win64; x64) AppleWebKit/537.36 (KHTML, like Gecko) Chrome/107.0.0.0 Safari/537.36 Edg/107.0.1418.42","WebKit","Edge","107.0.1418.42","Windows","10.0","null","<div style=""font-size:60px;"">+</div>","null",""
"","","","","","html-button-response","71","131170","0.0-4.0-1.33","209","1","2022-11-14 06:20:18","49aca292d257f58668169b9fbab864ae","223.104.39.102","Mozilla/5.0 (Windows NT 10.0; Win64; x64) AppleWebKit/537.36 (KHTML, like Gecko) Chrome/107.0.0.0 Safari/537.36 Edg/107.0.1418.42","WebKit","Edge","107.0.1418.42","Windows","10.0","1345","<p>作为军队的指挥官，你可以选择发射导弹杀死 <strong>1名</strong> 敌国士兵，但会炸毁附近的 <strong>1棵</strong> 敌国树木。</p> <p>树木的照片如下图所示。</p> <p></p> <img src='stimuli/trees/6.png', style='max-width: 30%;'> </img> <p><strong>你是否选择发射武器？</strong></p>","0",""
"","","","","","html-keyboard-response","72","132182","0.0-4.0-0.34","209","1","2022-11-14 06:20:18","49aca292d257f58668169b9fbab864ae","223.104.39.102","Mozilla/5.0 (Windows NT 10.0; Win64; x64) AppleWebKit/537.36 (KHTML, like Gecko) Chrome/107.0.0.0 Safari/537.36 Edg/107.0.1418.42","WebKit","Edge","107.0.1418.42","Windows","10.0","null","<div style=""font-size:60px;"">+</div>","null",""
"","","","","","html-button-response","73","133355","0.0-4.0-1.34","209","1","2022-11-14 06:20:18","49aca292d257f58668169b9fbab864ae","223.104.39.102","Mozilla/5.0 (Windows NT 10.0; Win64; x64) AppleWebKit/537.36 (KHTML, like Gecko) Chrome/107.0.0.0 Safari/537.36 Edg/107.0.1418.42","WebKit","Edge","107.0.1418.42","Windows","10.0","1169","<p>作为军队的指挥官，你可以选择发射导弹杀死 <strong>7名</strong> 敌国士兵，但会炸毁附近的 <strong>1棵</strong> 敌国树木。</p> <p>树木的照片如下图所示。</p> <p></p> <img src='stimuli/trees/8.png', style='max-width: 30%;'> </img> <p><strong>你是否选择发射武器？</strong></p>","0",""
"","","","","","html-keyboard-response","74","134365","0.0-4.0-0.35","209","1","2022-11-14 06:20:18","49aca292d257f58668169b9fbab864ae","223.104.39.102","Mozilla/5.0 (Windows NT 10.0; Win64; x64) AppleWebKit/537.36 (KHTML, like Gecko) Chrome/107.0.0.0 Safari/537.36 Edg/107.0.1418.42","WebKit","Edge","107.0.1418.42","Windows","10.0","null","<div style=""font-size:60px;"">+</div>","null",""
"","","","","","html-button-response","75","135679","0.0-4.0-1.35","209","1","2022-11-14 06:20:18","49aca292d257f58668169b9fbab864ae","223.104.39.102","Mozilla/5.0 (Windows NT 10.0; Win64; x64) AppleWebKit/537.36 (KHTML, like Gecko) Chrome/107.0.0.0 Safari/537.36 Edg/107.0.1418.42","WebKit","Edge","107.0.1418.42","Windows","10.0","1309","<p>作为军队的指挥官，你可以选择发射导弹杀死 <strong>6名</strong> 敌国士兵，但会误杀附近的 <strong>1名</strong> 敌国平民。</p> <p>平民照片如下图所示。</p> <p></p> <img src='stimuli/faces/PFF7.jpg', style='max-width: 30%;'> </img> <p><strong>你是否选择发射武器？</strong></p>","0",""
"","","","","","html-keyboard-response","76","136697","0.0-4.0-0.36","209","1","2022-11-14 06:20:18","49aca292d257f58668169b9fbab864ae","223.104.39.102","Mozilla/5.0 (Windows NT 10.0; Win64; x64) AppleWebKit/537.36 (KHTML, like Gecko) Chrome/107.0.0.0 Safari/537.36 Edg/107.0.1418.42","WebKit","Edge","107.0.1418.42","Windows","10.0","null","<div style=""font-size:60px;"">+</div>","null",""
"","","","","","html-button-response","77","137842","0.0-4.0-1.36","209","1","2022-11-14 06:20:18","49aca292d257f58668169b9fbab864ae","223.104.39.102","Mozilla/5.0 (Windows NT 10.0; Win64; x64) AppleWebKit/537.36 (KHTML, like Gecko) Chrome/107.0.0.0 Safari/537.36 Edg/107.0.1418.42","WebKit","Edge","107.0.1418.42","Windows","10.0","1141","<p>作为军队的指挥官，你可以选择发射导弹杀死 <strong>6名</strong> 敌国士兵，但会误杀附近的 <strong>1名</strong> 敌国平民。</p> <p>平民照片如下图所示。</p> <p></p> <img src='stimuli/faces/PFM3.jpg', style='max-width: 30%;'> </img> <p><strong>你是否选择发射武器？</strong></p>","0",""
"","","","","","html-keyboard-response","78","138857","0.0-4.0-0.37","209","1","2022-11-14 06:20:18","49aca292d257f58668169b9fbab864ae","223.104.39.102","Mozilla/5.0 (Windows NT 10.0; Win64; x64) AppleWebKit/537.36 (KHTML, like Gecko) Chrome/107.0.0.0 Safari/537.36 Edg/107.0.1418.42","WebKit","Edge","107.0.1418.42","Windows","10.0","null","<div style=""font-size:60px;"">+</div>","null",""
"","","","","","html-button-response","79","140779","0.0-4.0-1.37","209","1","2022-11-14 06:20:18","49aca292d257f58668169b9fbab864ae","223.104.39.102","Mozilla/5.0 (Windows NT 10.0; Win64; x64) AppleWebKit/537.36 (KHTML, like Gecko) Chrome/107.0.0.0 Safari/537.36 Edg/107.0.1418.42","WebKit","Edge","107.0.1418.42","Windows","10.0","1917","<p>作为军队的指挥官，你可以选择发射导弹杀死 <strong>4名</strong> 敌国士兵，但会误杀附近的 <strong>1名</strong> 敌国平民。</p> <p>平民照片如下图所示。</p> <p></p> <img src='stimuli/faces/PFF2.jpg', style='max-width: 30%;'> </img> <p><strong>你是否选择发射武器？</strong></p>","0",""
"","","","","","html-keyboard-response","80","141790","0.0-4.0-0.38","209","1","2022-11-14 06:20:18","49aca292d257f58668169b9fbab864ae","223.104.39.102","Mozilla/5.0 (Windows NT 10.0; Win64; x64) AppleWebKit/537.36 (KHTML, like Gecko) Chrome/107.0.0.0 Safari/537.36 Edg/107.0.1418.42","WebKit","Edge","107.0.1418.42","Windows","10.0","null","<div style=""font-size:60px;"">+</div>","null",""
"","","","","","html-button-response","81","142500","0.0-4.0-1.38","209","1","2022-11-14 06:20:18","49aca292d257f58668169b9fbab864ae","223.104.39.102","Mozilla/5.0 (Windows NT 10.0; Win64; x64) AppleWebKit/537.36 (KHTML, like Gecko) Chrome/107.0.0.0 Safari/537.36 Edg/107.0.1418.42","WebKit","Edge","107.0.1418.42","Windows","10.0","704","<p>作为军队的指挥官，你可以选择发射导弹杀死 <strong>3名</strong> 敌国士兵，但会炸毁附近的 <strong>1棵</strong> 敌国树木。</p> <p>树木的照片如下图所示。</p> <p></p> <img src='stimuli/trees/2.png', style='max-width: 30%;'> </img> <p><strong>你是否选择发射武器？</strong></p>","0",""
"","","","","","html-keyboard-response","82","143515","0.0-4.0-0.39","209","1","2022-11-14 06:20:18","49aca292d257f58668169b9fbab864ae","223.104.39.102","Mozilla/5.0 (Windows NT 10.0; Win64; x64) AppleWebKit/537.36 (KHTML, like Gecko) Chrome/107.0.0.0 Safari/537.36 Edg/107.0.1418.42","WebKit","Edge","107.0.1418.42","Windows","10.0","null","<div style=""font-size:60px;"">+</div>","null",""
"","","","","","html-button-response","83","144247","0.0-4.0-1.39","209","1","2022-11-14 06:20:18","49aca292d257f58668169b9fbab864ae","223.104.39.102","Mozilla/5.0 (Windows NT 10.0; Win64; x64) AppleWebKit/537.36 (KHTML, like Gecko) Chrome/107.0.0.0 Safari/537.36 Edg/107.0.1418.42","WebKit","Edge","107.0.1418.42","Windows","10.0","728","<p>作为军队的指挥官，你可以选择发射导弹杀死 <strong>3名</strong> 敌国士兵，但会炸毁附近的 <strong>1棵</strong> 敌国树木。</p> <p>树木的照片如下图所示。</p> <p></p> <img src='stimuli/trees/16.png', style='max-width: 30%;'> </img> <p><strong>你是否选择发射武器？</strong></p>","0",""
"","","","","","html-keyboard-response","84","145255","0.0-4.0-0.40","209","1","2022-11-14 06:20:18","49aca292d257f58668169b9fbab864ae","223.104.39.102","Mozilla/5.0 (Windows NT 10.0; Win64; x64) AppleWebKit/537.36 (KHTML, like Gecko) Chrome/107.0.0.0 Safari/537.36 Edg/107.0.1418.42","WebKit","Edge","107.0.1418.42","Windows","10.0","null","<div style=""font-size:60px;"">+</div>","null",""
"","","","","","html-button-response","85","146211","0.0-4.0-1.40","209","1","2022-11-14 06:20:18","49aca292d257f58668169b9fbab864ae","223.104.39.102","Mozilla/5.0 (Windows NT 10.0; Win64; x64) AppleWebKit/537.36 (KHTML, like Gecko) Chrome/107.0.0.0 Safari/537.36 Edg/107.0.1418.42","WebKit","Edge","107.0.1418.42","Windows","10.0","950","<p>作为军队的指挥官，你可以选择发射导弹杀死 <strong>9名</strong> 敌国士兵，但会炸毁附近的 <strong>1棵</strong> 敌国树木。</p> <p>树木的照片如下图所示。</p> <p></p> <img src='stimuli/trees/5.png', style='max-width: 30%;'> </img> <p><strong>你是否选择发射武器？</strong></p>","0",""
"","","","","","html-keyboard-response","86","147233","0.0-4.0-0.41","209","1","2022-11-14 06:20:18","49aca292d257f58668169b9fbab864ae","223.104.39.102","Mozilla/5.0 (Windows NT 10.0; Win64; x64) AppleWebKit/537.36 (KHTML, like Gecko) Chrome/107.0.0.0 Safari/537.36 Edg/107.0.1418.42","WebKit","Edge","107.0.1418.42","Windows","10.0","null","<div style=""font-size:60px;"">+</div>","null",""
"","","","","","html-button-response","87","148963","0.0-4.0-1.41","209","1","2022-11-14 06:20:18","49aca292d257f58668169b9fbab864ae","223.104.39.102","Mozilla/5.0 (Windows NT 10.0; Win64; x64) AppleWebKit/537.36 (KHTML, like Gecko) Chrome/107.0.0.0 Safari/537.36 Edg/107.0.1418.42","WebKit","Edge","107.0.1418.42","Windows","10.0","1725","<p>作为军队的指挥官，你可以选择发射导弹杀死 <strong>5名</strong> 敌国士兵，但会炸毁附近的 <strong>1棵</strong> 敌国树木。</p> <p>树木的照片如下图所示。</p> <p></p> <img src='stimuli/trees/3.png', style='max-width: 30%;'> </img> <p><strong>你是否选择发射武器？</strong></p>","0",""
"","","","","","html-keyboard-response","88","149976","0.0-4.0-0.42","209","1","2022-11-14 06:20:18","49aca292d257f58668169b9fbab864ae","223.104.39.102","Mozilla/5.0 (Windows NT 10.0; Win64; x64) AppleWebKit/537.36 (KHTML, like Gecko) Chrome/107.0.0.0 Safari/537.36 Edg/107.0.1418.42","WebKit","Edge","107.0.1418.42","Windows","10.0","null","<div style=""font-size:60px;"">+</div>","null",""
"","","","","","html-button-response","89","151995","0.0-4.0-1.42","209","1","2022-11-14 06:20:18","49aca292d257f58668169b9fbab864ae","223.104.39.102","Mozilla/5.0 (Windows NT 10.0; Win64; x64) AppleWebKit/537.36 (KHTML, like Gecko) Chrome/107.0.0.0 Safari/537.36 Edg/107.0.1418.42","WebKit","Edge","107.0.1418.42","Windows","10.0","2014","<p>作为军队的指挥官，你可以选择发射导弹杀死 <strong>5名</strong> 敌国士兵，但会炸毁附近的 <strong>1棵</strong> 敌国树木。</p> <p>树木的照片如下图所示。</p> <p></p> <img src='stimuli/trees/5.png', style='max-width: 30%;'> </img> <p><strong>你是否选择发射武器？</strong></p>","0",""
"","","","","","html-keyboard-response","90","153008","0.0-4.0-0.43","209","1","2022-11-14 06:20:18","49aca292d257f58668169b9fbab864ae","223.104.39.102","Mozilla/5.0 (Windows NT 10.0; Win64; x64) AppleWebKit/537.36 (KHTML, like Gecko) Chrome/107.0.0.0 Safari/537.36 Edg/107.0.1418.42","WebKit","Edge","107.0.1418.42","Windows","10.0","null","<div style=""font-size:60px;"">+</div>","null",""
"","","","","","html-button-response","91","159723","0.0-4.0-1.43","209","1","2022-11-14 06:20:18","49aca292d257f58668169b9fbab864ae","223.104.39.102","Mozilla/5.0 (Windows NT 10.0; Win64; x64) AppleWebKit/537.36 (KHTML, like Gecko) Chrome/107.0.0.0 Safari/537.36 Edg/107.0.1418.42","WebKit","Edge","107.0.1418.42","Windows","10.0","6710","<p>作为军队的指挥官，你可以选择发射导弹杀死 <strong>7名</strong> 敌国士兵，但会炸毁附近的 <strong>1棵</strong> 敌国树木。</p> <p>树木的照片如下图所示。</p> <p></p> <img src='stimuli/trees/6.png', style='max-width: 30%;'> </img> <p><strong>你是否选择发射武器？</strong></p>","0",""
"","","","","","html-keyboard-response","92","160728","0.0-4.0-0.44","209","1","2022-11-14 06:20:18","49aca292d257f58668169b9fbab864ae","223.104.39.102","Mozilla/5.0 (Windows NT 10.0; Win64; x64) AppleWebKit/537.36 (KHTML, like Gecko) Chrome/107.0.0.0 Safari/537.36 Edg/107.0.1418.42","WebKit","Edge","107.0.1418.42","Windows","10.0","null","<div style=""font-size:60px;"">+</div>","null",""
"","","","","","html-button-response","93","163482","0.0-4.0-1.44","209","1","2022-11-14 06:20:18","49aca292d257f58668169b9fbab864ae","223.104.39.102","Mozilla/5.0 (Windows NT 10.0; Win64; x64) AppleWebKit/537.36 (KHTML, like Gecko) Chrome/107.0.0.0 Safari/537.36 Edg/107.0.1418.42","WebKit","Edge","107.0.1418.42","Windows","10.0","2749","<p>作为军队的指挥官，你可以选择发射导弹杀死 <strong>3名</strong> 敌国士兵，但会炸毁附近的 <strong>1棵</strong> 敌国树木。</p> <p>树木的照片如下图所示。</p> <p></p> <img src='stimuli/trees/4.png', style='max-width: 30%;'> </img> <p><strong>你是否选择发射武器？</strong></p>","0",""
"","","","","","html-keyboard-response","94","164493","0.0-4.0-0.45","209","1","2022-11-14 06:20:18","49aca292d257f58668169b9fbab864ae","223.104.39.102","Mozilla/5.0 (Windows NT 10.0; Win64; x64) AppleWebKit/537.36 (KHTML, like Gecko) Chrome/107.0.0.0 Safari/537.36 Edg/107.0.1418.42","WebKit","Edge","107.0.1418.42","Windows","10.0","null","<div style=""font-size:60px;"">+</div>","null",""
"","","","","","html-button-response","95","167963","0.0-4.0-1.45","209","1","2022-11-14 06:20:18","49aca292d257f58668169b9fbab864ae","223.104.39.102","Mozilla/5.0 (Windows NT 10.0; Win64; x64) AppleWebKit/537.36 (KHTML, like Gecko) Chrome/107.0.0.0 Safari/537.36 Edg/107.0.1418.42","WebKit","Edge","107.0.1418.42","Windows","10.0","3465","<p>作为军队的指挥官，你可以选择发射导弹杀死 <strong>7名</strong> 敌国士兵，但会误杀附近的 <strong>1名</strong> 敌国平民。</p> <p>平民照片如下图所示。</p> <p></p> <img src='stimuli/faces/PFF5.jpg', style='max-width: 30%;'> </img> <p><strong>你是否选择发射武器？</strong></p>","0",""
"","","","","","html-keyboard-response","96","168981","0.0-4.0-0.46","209","1","2022-11-14 06:20:18","49aca292d257f58668169b9fbab864ae","223.104.39.102","Mozilla/5.0 (Windows NT 10.0; Win64; x64) AppleWebKit/537.36 (KHTML, like Gecko) Chrome/107.0.0.0 Safari/537.36 Edg/107.0.1418.42","WebKit","Edge","107.0.1418.42","Windows","10.0","null","<div style=""font-size:60px;"">+</div>","null",""
"","","","","","html-button-response","97","171164","0.0-4.0-1.46","209","1","2022-11-14 06:20:18","49aca292d257f58668169b9fbab864ae","223.104.39.102","Mozilla/5.0 (Windows NT 10.0; Win64; x64) AppleWebKit/537.36 (KHTML, like Gecko) Chrome/107.0.0.0 Safari/537.36 Edg/107.0.1418.42","WebKit","Edge","107.0.1418.42","Windows","10.0","2178","<p>作为军队的指挥官，你可以选择发射导弹杀死 <strong>8名</strong> 敌国士兵，但会炸毁附近的 <strong>1棵</strong> 敌国树木。</p> <p>树木的照片如下图所示。</p> <p></p> <img src='stimuli/trees/10.png', style='max-width: 30%;'> </img> <p><strong>你是否选择发射武器？</strong></p>","0",""
"","","","","","html-keyboard-response","98","172177","0.0-4.0-0.47","209","1","2022-11-14 06:20:18","49aca292d257f58668169b9fbab864ae","223.104.39.102","Mozilla/5.0 (Windows NT 10.0; Win64; x64) AppleWebKit/537.36 (KHTML, like Gecko) Chrome/107.0.0.0 Safari/537.36 Edg/107.0.1418.42","WebKit","Edge","107.0.1418.42","Windows","10.0","null","<div style=""font-size:60px;"">+</div>","null",""
"","","","","","html-button-response","99","173623","0.0-4.0-1.47","209","1","2022-11-14 06:20:18","49aca292d257f58668169b9fbab864ae","223.104.39.102","Mozilla/5.0 (Windows NT 10.0; Win64; x64) AppleWebKit/537.36 (KHTML, like Gecko) Chrome/107.0.0.0 Safari/537.36 Edg/107.0.1418.42","WebKit","Edge","107.0.1418.42","Windows","10.0","1440","<p>作为军队的指挥官，你可以选择发射导弹杀死 <strong>4名</strong> 敌国士兵，但会误杀附近的 <strong>1名</strong> 敌国平民。</p> <p>平民照片如下图所示。</p> <p></p> <img src='stimuli/faces/PFF3.jpg', style='max-width: 30%;'> </img> <p><strong>你是否选择发射武器？</strong></p>","0",""
"","","","","","html-keyboard-response","100","174635","0.0-4.0-0.48","209","1","2022-11-14 06:20:18","49aca292d257f58668169b9fbab864ae","223.104.39.102","Mozilla/5.0 (Windows NT 10.0; Win64; x64) AppleWebKit/537.36 (KHTML, like Gecko) Chrome/107.0.0.0 Safari/537.36 Edg/107.0.1418.42","WebKit","Edge","107.0.1418.42","Windows","10.0","null","<div style=""font-size:60px;"">+</div>","null",""
"","","","","","html-button-response","101","177007","0.0-4.0-1.48","209","1","2022-11-14 06:20:18","49aca292d257f58668169b9fbab864ae","223.104.39.102","Mozilla/5.0 (Windows NT 10.0; Win64; x64) AppleWebKit/537.36 (KHTML, like Gecko) Chrome/107.0.0.0 Safari/537.36 Edg/107.0.1418.42","WebKit","Edge","107.0.1418.42","Windows","10.0","2367","<p>作为军队的指挥官，你可以选择发射导弹杀死 <strong>2名</strong> 敌国士兵，但会炸毁附近的 <strong>1棵</strong> 敌国树木。</p> <p>树木的照片如下图所示。</p> <p></p> <img src='stimuli/trees/7.png', style='max-width: 30%;'> </img> <p><strong>你是否选择发射武器？</strong></p>","0",""
"","","","","","html-keyboard-response","102","178022","0.0-4.0-0.49","209","1","2022-11-14 06:20:18","49aca292d257f58668169b9fbab864ae","223.104.39.102","Mozilla/5.0 (Windows NT 10.0; Win64; x64) AppleWebKit/537.36 (KHTML, like Gecko) Chrome/107.0.0.0 Safari/537.36 Edg/107.0.1418.42","WebKit","Edge","107.0.1418.42","Windows","10.0","null","<div style=""font-size:60px;"">+</div>","null",""
"","","","","","html-button-response","103","181004","0.0-4.0-1.49","209","1","2022-11-14 06:20:18","49aca292d257f58668169b9fbab864ae","223.104.39.102","Mozilla/5.0 (Windows NT 10.0; Win64; x64) AppleWebKit/537.36 (KHTML, like Gecko) Chrome/107.0.0.0 Safari/537.36 Edg/107.0.1418.42","WebKit","Edge","107.0.1418.42","Windows","10.0","2977","<p>作为军队的指挥官，你可以选择发射导弹杀死 <strong>9名</strong> 敌国士兵，但会误杀附近的 <strong>1名</strong> 敌国平民。</p> <p>平民照片如下图所示。</p> <p></p> <img src='stimuli/faces/PFM6.jpg', style='max-width: 30%;'> </img> <p><strong>你是否选择发射武器？</strong></p>","0",""
"","","","","","html-keyboard-response","104","182024","0.0-4.0-0.50","209","1","2022-11-14 06:20:18","49aca292d257f58668169b9fbab864ae","223.104.39.102","Mozilla/5.0 (Windows NT 10.0; Win64; x64) AppleWebKit/537.36 (KHTML, like Gecko) Chrome/107.0.0.0 Safari/537.36 Edg/107.0.1418.42","WebKit","Edge","107.0.1418.42","Windows","10.0","null","<div style=""font-size:60px;"">+</div>","null",""
"","","","","","html-button-response","105","186495","0.0-4.0-1.50","209","1","2022-11-14 06:20:18","49aca292d257f58668169b9fbab864ae","223.104.39.102","Mozilla/5.0 (Windows NT 10.0; Win64; x64) AppleWebKit/537.36 (KHTML, like Gecko) Chrome/107.0.0.0 Safari/537.36 Edg/107.0.1418.42","WebKit","Edge","107.0.1418.42","Windows","10.0","4466","<p>作为军队的指挥官，你可以选择发射导弹杀死 <strong>7名</strong> 敌国士兵，但会炸毁附近的 <strong>1棵</strong> 敌国树木。</p> <p>树木的照片如下图所示。</p> <p></p> <img src='stimuli/trees/9.png', style='max-width: 30%;'> </img> <p><strong>你是否选择发射武器？</strong></p>","0",""
"","","","","","html-keyboard-response","106","187512","0.0-4.0-0.51","209","1","2022-11-14 06:20:18","49aca292d257f58668169b9fbab864ae","223.104.39.102","Mozilla/5.0 (Windows NT 10.0; Win64; x64) AppleWebKit/537.36 (KHTML, like Gecko) Chrome/107.0.0.0 Safari/537.36 Edg/107.0.1418.42","WebKit","Edge","107.0.1418.42","Windows","10.0","null","<div style=""font-size:60px;"">+</div>","null",""
"","","","","","html-button-response","107","188739","0.0-4.0-1.51","209","1","2022-11-14 06:20:18","49aca292d257f58668169b9fbab864ae","223.104.39.102","Mozilla/5.0 (Windows NT 10.0; Win64; x64) AppleWebKit/537.36 (KHTML, like Gecko) Chrome/107.0.0.0 Safari/537.36 Edg/107.0.1418.42","WebKit","Edge","107.0.1418.42","Windows","10.0","1222","<p>作为军队的指挥官，你可以选择发射导弹杀死 <strong>7名</strong> 敌国士兵，但会误杀附近的 <strong>1名</strong> 敌国平民。</p> <p>平民照片如下图所示。</p> <p></p> <img src='stimuli/faces/PFF6.jpg', style='max-width: 30%;'> </img> <p><strong>你是否选择发射武器？</strong></p>","0",""
"","","","","","html-keyboard-response","108","189754","0.0-4.0-0.52","209","1","2022-11-14 06:20:18","49aca292d257f58668169b9fbab864ae","223.104.39.102","Mozilla/5.0 (Windows NT 10.0; Win64; x64) AppleWebKit/537.36 (KHTML, like Gecko) Chrome/107.0.0.0 Safari/537.36 Edg/107.0.1418.42","WebKit","Edge","107.0.1418.42","Windows","10.0","null","<div style=""font-size:60px;"">+</div>","null",""
"","","","","","html-button-response","109","191055","0.0-4.0-1.52","209","1","2022-11-14 06:20:18","49aca292d257f58668169b9fbab864ae","223.104.39.102","Mozilla/5.0 (Windows NT 10.0; Win64; x64) AppleWebKit/537.36 (KHTML, like Gecko) Chrome/107.0.0.0 Safari/537.36 Edg/107.0.1418.42","WebKit","Edge","107.0.1418.42","Windows","10.0","1295","<p>作为军队的指挥官，你可以选择发射导弹杀死 <strong>4名</strong> 敌国士兵，但会炸毁附近的 <strong>1棵</strong> 敌国树木。</p> <p>树木的照片如下图所示。</p> <p></p> <img src='stimuli/trees/11.png', style='max-width: 30%;'> </img> <p><strong>你是否选择发射武器？</strong></p>","0",""
"","","","","","html-keyboard-response","110","192065","0.0-4.0-0.53","209","1","2022-11-14 06:20:18","49aca292d257f58668169b9fbab864ae","223.104.39.102","Mozilla/5.0 (Windows NT 10.0; Win64; x64) AppleWebKit/537.36 (KHTML, like Gecko) Chrome/107.0.0.0 Safari/537.36 Edg/107.0.1418.42","WebKit","Edge","107.0.1418.42","Windows","10.0","null","<div style=""font-size:60px;"">+</div>","null",""
"","","","","","html-button-response","111","193074","0.0-4.0-1.53","209","1","2022-11-14 06:20:18","49aca292d257f58668169b9fbab864ae","223.104.39.102","Mozilla/5.0 (Windows NT 10.0; Win64; x64) AppleWebKit/537.36 (KHTML, like Gecko) Chrome/107.0.0.0 Safari/537.36 Edg/107.0.1418.42","WebKit","Edge","107.0.1418.42","Windows","10.0","1004","<p>作为军队的指挥官，你可以选择发射导弹杀死 <strong>10名</strong> 敌国士兵，但会误杀附近的 <strong>1名</strong> 敌国平民。</p> <p>平民照片如下图所示。</p> <p></p> <img src='stimuli/faces/PFM8.jpg', style='max-width: 30%;'> </img> <p><strong>你是否选择发射武器？</strong></p>","0",""
"","","","","","html-keyboard-response","112","194080","0.0-4.0-0.54","209","1","2022-11-14 06:20:18","49aca292d257f58668169b9fbab864ae","223.104.39.102","Mozilla/5.0 (Windows NT 10.0; Win64; x64) AppleWebKit/537.36 (KHTML, like Gecko) Chrome/107.0.0.0 Safari/537.36 Edg/107.0.1418.42","WebKit","Edge","107.0.1418.42","Windows","10.0","null","<div style=""font-size:60px;"">+</div>","null",""
"","","","","","html-button-response","113","194951","0.0-4.0-1.54","209","1","2022-11-14 06:20:18","49aca292d257f58668169b9fbab864ae","223.104.39.102","Mozilla/5.0 (Windows NT 10.0; Win64; x64) AppleWebKit/537.36 (KHTML, like Gecko) Chrome/107.0.0.0 Safari/537.36 Edg/107.0.1418.42","WebKit","Edge","107.0.1418.42","Windows","10.0","866","<p>作为军队的指挥官，你可以选择发射导弹杀死 <strong>2名</strong> 敌国士兵，但会误杀附近的 <strong>1名</strong> 敌国平民。</p> <p>平民照片如下图所示。</p> <p></p> <img src='stimuli/faces/PFM4.jpg', style='max-width: 30%;'> </img> <p><strong>你是否选择发射武器？</strong></p>","0",""
"","","","","","html-keyboard-response","114","195969","0.0-4.0-0.55","209","1","2022-11-14 06:20:18","49aca292d257f58668169b9fbab864ae","223.104.39.102","Mozilla/5.0 (Windows NT 10.0; Win64; x64) AppleWebKit/537.36 (KHTML, like Gecko) Chrome/107.0.0.0 Safari/537.36 Edg/107.0.1418.42","WebKit","Edge","107.0.1418.42","Windows","10.0","null","<div style=""font-size:60px;"">+</div>","null",""
"","","","","","html-button-response","115","196603","0.0-4.0-1.55","209","1","2022-11-14 06:20:18","49aca292d257f58668169b9fbab864ae","223.104.39.102","Mozilla/5.0 (Windows NT 10.0; Win64; x64) AppleWebKit/537.36 (KHTML, like Gecko) Chrome/107.0.0.0 Safari/537.36 Edg/107.0.1418.42","WebKit","Edge","107.0.1418.42","Windows","10.0","629","<p>作为军队的指挥官，你可以选择发射导弹杀死 <strong>6名</strong> 敌国士兵，但会炸毁附近的 <strong>1棵</strong> 敌国树木。</p> <p>树木的照片如下图所示。</p> <p></p> <img src='stimuli/trees/1.png', style='max-width: 30%;'> </img> <p><strong>你是否选择发射武器？</strong></p>","0",""
"","","","","","html-keyboard-response","116","197622","0.0-4.0-0.56","209","1","2022-11-14 06:20:18","49aca292d257f58668169b9fbab864ae","223.104.39.102","Mozilla/5.0 (Windows NT 10.0; Win64; x64) AppleWebKit/537.36 (KHTML, like Gecko) Chrome/107.0.0.0 Safari/537.36 Edg/107.0.1418.42","WebKit","Edge","107.0.1418.42","Windows","10.0","null","<div style=""font-size:60px;"">+</div>","null",""
"","","","","","html-button-response","117","198198","0.0-4.0-1.56","209","1","2022-11-14 06:20:18","49aca292d257f58668169b9fbab864ae","223.104.39.102","Mozilla/5.0 (Windows NT 10.0; Win64; x64) AppleWebKit/537.36 (KHTML, like Gecko) Chrome/107.0.0.0 Safari/537.36 Edg/107.0.1418.42","WebKit","Edge","107.0.1418.42","Windows","10.0","571","<p>作为军队的指挥官，你可以选择发射导弹杀死 <strong>9名</strong> 敌国士兵，但会炸毁附近的 <strong>1棵</strong> 敌国树木。</p> <p>树木的照片如下图所示。</p> <p></p> <img src='stimuli/trees/2.png', style='max-width: 30%;'> </img> <p><strong>你是否选择发射武器？</strong></p>","0",""
"","","","","","html-keyboard-response","118","199215","0.0-4.0-0.57","209","1","2022-11-14 06:20:18","49aca292d257f58668169b9fbab864ae","223.104.39.102","Mozilla/5.0 (Windows NT 10.0; Win64; x64) AppleWebKit/537.36 (KHTML, like Gecko) Chrome/107.0.0.0 Safari/537.36 Edg/107.0.1418.42","WebKit","Edge","107.0.1418.42","Windows","10.0","null","<div style=""font-size:60px;"">+</div>","null",""
"","","","","","html-button-response","119","199839","0.0-4.0-1.57","209","1","2022-11-14 06:20:18","49aca292d257f58668169b9fbab864ae","223.104.39.102","Mozilla/5.0 (Windows NT 10.0; Win64; x64) AppleWebKit/537.36 (KHTML, like Gecko) Chrome/107.0.0.0 Safari/537.36 Edg/107.0.1418.42","WebKit","Edge","107.0.1418.42","Windows","10.0","619","<p>作为军队的指挥官，你可以选择发射导弹杀死 <strong>6名</strong> 敌国士兵，但会误杀附近的 <strong>1名</strong> 敌国平民。</p> <p>平民照片如下图所示。</p> <p></p> <img src='stimuli/faces/PFF2.jpg', style='max-width: 30%;'> </img> <p><strong>你是否选择发射武器？</strong></p>","0",""
"","","","","","html-keyboard-response","120","200854","0.0-4.0-0.58","209","1","2022-11-14 06:20:18","49aca292d257f58668169b9fbab864ae","223.104.39.102","Mozilla/5.0 (Windows NT 10.0; Win64; x64) AppleWebKit/537.36 (KHTML, like Gecko) Chrome/107.0.0.0 Safari/537.36 Edg/107.0.1418.42","WebKit","Edge","107.0.1418.42","Windows","10.0","null","<div style=""font-size:60px;"">+</div>","null",""
"","","","","","html-button-response","121","201563","0.0-4.0-1.58","209","1","2022-11-14 06:20:18","49aca292d257f58668169b9fbab864ae","223.104.39.102","Mozilla/5.0 (Windows NT 10.0; Win64; x64) AppleWebKit/537.36 (KHTML, like Gecko) Chrome/107.0.0.0 Safari/537.36 Edg/107.0.1418.42","WebKit","Edge","107.0.1418.42","Windows","10.0","704","<p>作为军队的指挥官，你可以选择发射导弹杀死 <strong>10名</strong> 敌国士兵，但会炸毁附近的 <strong>1棵</strong> 敌国树木。</p> <p>树木的照片如下图所示。</p> <p></p> <img src='stimuli/trees/4.png', style='max-width: 30%;'> </img> <p><strong>你是否选择发射武器？</strong></p>","0",""
"","","","","","html-keyboard-response","122","202577","0.0-4.0-0.59","209","1","2022-11-14 06:20:18","49aca292d257f58668169b9fbab864ae","223.104.39.102","Mozilla/5.0 (Windows NT 10.0; Win64; x64) AppleWebKit/537.36 (KHTML, like Gecko) Chrome/107.0.0.0 Safari/537.36 Edg/107.0.1418.42","WebKit","Edge","107.0.1418.42","Windows","10.0","null","<div style=""font-size:60px;"">+</div>","null",""
"","","","","","html-button-response","123","204787","0.0-4.0-1.59","209","1","2022-11-14 06:20:18","49aca292d257f58668169b9fbab864ae","223.104.39.102","Mozilla/5.0 (Windows NT 10.0; Win64; x64) AppleWebKit/537.36 (KHTML, like Gecko) Chrome/107.0.0.0 Safari/537.36 Edg/107.0.1418.42","WebKit","Edge","107.0.1418.42","Windows","10.0","2204","<p>作为军队的指挥官，你可以选择发射导弹杀死 <strong>3名</strong> 敌国士兵，但会误杀附近的 <strong>1名</strong> 敌国平民。</p> <p>平民照片如下图所示。</p> <p></p> <img src='stimuli/faces/PFM1.jpg', style='max-width: 30%;'> </img> <p><strong>你是否选择发射武器？</strong></p>","0",""
"","","","","","html-keyboard-response","124","205800","0.0-4.0-0.60","209","1","2022-11-14 06:20:18","49aca292d257f58668169b9fbab864ae","223.104.39.102","Mozilla/5.0 (Windows NT 10.0; Win64; x64) AppleWebKit/537.36 (KHTML, like Gecko) Chrome/107.0.0.0 Safari/537.36 Edg/107.0.1418.42","WebKit","Edge","107.0.1418.42","Windows","10.0","null","<div style=""font-size:60px;"">+</div>","null",""
"","","","","","html-button-response","125","207039","0.0-4.0-1.60","209","1","2022-11-14 06:20:18","49aca292d257f58668169b9fbab864ae","223.104.39.102","Mozilla/5.0 (Windows NT 10.0; Win64; x64) AppleWebKit/537.36 (KHTML, like Gecko) Chrome/107.0.0.0 Safari/537.36 Edg/107.0.1418.42","WebKit","Edge","107.0.1418.42","Windows","10.0","1233","<p>作为军队的指挥官，你可以选择发射导弹杀死 <strong>9名</strong> 敌国士兵，但会炸毁附近的 <strong>1棵</strong> 敌国树木。</p> <p>树木的照片如下图所示。</p> <p></p> <img src='stimuli/trees/15.png', style='max-width: 30%;'> </img> <p><strong>你是否选择发射武器？</strong></p>","0",""
"","","","","","html-keyboard-response","126","208051","0.0-4.0-0.61","209","1","2022-11-14 06:20:18","49aca292d257f58668169b9fbab864ae","223.104.39.102","Mozilla/5.0 (Windows NT 10.0; Win64; x64) AppleWebKit/537.36 (KHTML, like Gecko) Chrome/107.0.0.0 Safari/537.36 Edg/107.0.1418.42","WebKit","Edge","107.0.1418.42","Windows","10.0","null","<div style=""font-size:60px;"">+</div>","null",""
"","","","","","html-button-response","127","209211","0.0-4.0-1.61","209","1","2022-11-14 06:20:18","49aca292d257f58668169b9fbab864ae","223.104.39.102","Mozilla/5.0 (Windows NT 10.0; Win64; x64) AppleWebKit/537.36 (KHTML, like Gecko) Chrome/107.0.0.0 Safari/537.36 Edg/107.0.1418.42","WebKit","Edge","107.0.1418.42","Windows","10.0","1153","<p>作为军队的指挥官，你可以选择发射导弹杀死 <strong>6名</strong> 敌国士兵，但会误杀附近的 <strong>1名</strong> 敌国平民。</p> <p>平民照片如下图所示。</p> <p></p> <img src='stimuli/faces/PFM1.jpg', style='max-width: 30%;'> </img> <p><strong>你是否选择发射武器？</strong></p>","0",""
"","","","","","html-keyboard-response","128","210225","0.0-4.0-0.62","209","1","2022-11-14 06:20:18","49aca292d257f58668169b9fbab864ae","223.104.39.102","Mozilla/5.0 (Windows NT 10.0; Win64; x64) AppleWebKit/537.36 (KHTML, like Gecko) Chrome/107.0.0.0 Safari/537.36 Edg/107.0.1418.42","WebKit","Edge","107.0.1418.42","Windows","10.0","null","<div style=""font-size:60px;"">+</div>","null",""
"","","","","","html-button-response","129","211347","0.0-4.0-1.62","209","1","2022-11-14 06:20:18","49aca292d257f58668169b9fbab864ae","223.104.39.102","Mozilla/5.0 (Windows NT 10.0; Win64; x64) AppleWebKit/537.36 (KHTML, like Gecko) Chrome/107.0.0.0 Safari/537.36 Edg/107.0.1418.42","WebKit","Edge","107.0.1418.42","Windows","10.0","1115","<p>作为军队的指挥官，你可以选择发射导弹杀死 <strong>9名</strong> 敌国士兵，但会炸毁附近的 <strong>1棵</strong> 敌国树木。</p> <p>树木的照片如下图所示。</p> <p></p> <img src='stimuli/trees/16.png', style='max-width: 30%;'> </img> <p><strong>你是否选择发射武器？</strong></p>","0",""
"","","","","","html-keyboard-response","130","212363","0.0-4.0-0.63","209","1","2022-11-14 06:20:18","49aca292d257f58668169b9fbab864ae","223.104.39.102","Mozilla/5.0 (Windows NT 10.0; Win64; x64) AppleWebKit/537.36 (KHTML, like Gecko) Chrome/107.0.0.0 Safari/537.36 Edg/107.0.1418.42","WebKit","Edge","107.0.1418.42","Windows","10.0","null","<div style=""font-size:60px;"">+</div>","null",""
"","","","","","html-button-response","131","213472","0.0-4.0-1.63","209","1","2022-11-14 06:20:18","49aca292d257f58668169b9fbab864ae","223.104.39.102","Mozilla/5.0 (Windows NT 10.0; Win64; x64) AppleWebKit/537.36 (KHTML, like Gecko) Chrome/107.0.0.0 Safari/537.36 Edg/107.0.1418.42","WebKit","Edge","107.0.1418.42","Windows","10.0","1103","<p>作为军队的指挥官，你可以选择发射导弹杀死 <strong>6名</strong> 敌国士兵，但会误杀附近的 <strong>1名</strong> 敌国平民。</p> <p>平民照片如下图所示。</p> <p></p> <img src='stimuli/faces/PFF1.jpg', style='max-width: 30%;'> </img> <p><strong>你是否选择发射武器？</strong></p>","0",""
"","","","","","survey-multi-choice","132","251288","0.0-5.0","209","1","2022-11-14 06:20:18","49aca292d257f58668169b9fbab864ae","223.104.39.102","Mozilla/5.0 (Windows NT 10.0; Win64; x64) AppleWebKit/537.36 (KHTML, like Gecko) Chrome/107.0.0.0 Safari/537.36 Edg/107.0.1418.42","WebKit","Edge","107.0.1418.42","Windows","10.0","37806","","{""Attention1"":""""}","[0]"
"","","","","","html-button-response","133","259723","0.0-6.0","209","1","2022-11-14 06:20:18","49aca292d257f58668169b9fbab864ae","223.104.39.102","Mozilla/5.0 (Windows NT 10.0; Win64; x64) AppleWebKit/537.36 (KHTML, like Gecko) Chrome/107.0.0.0 Safari/537.36 Edg/107.0.1418.42","WebKit","Edge","107.0.1418.42","Windows","10.0","8422","<p style=""font-size:20px;font-weight:bold;"">恭喜！</p><p>你已经完成了实验的第一部分。</p><p>请休息放松一下，然后进入第二部分。</p><p>这部分大约需要10分钟。</p>","0",""
"","","","","","survey-text","134","352844","0.0-7.0","209","1","2022-11-14 06:20:18","49aca292d257f58668169b9fbab864ae","223.104.39.102","Mozilla/5.0 (Windows NT 10.0; Win64; x64) AppleWebKit/537.36 (KHTML, like Gecko) Chrome/107.0.0.0 Safari/537.36 Edg/107.0.1418.42","WebKit","Edge","107.0.1418.42","Windows","10.0","92092","","{""Age"":""25"",""Nation"":""中国"",""Born"":""内蒙古乌兰察布市"",""Live"":""北京"",""Ethnic"":""汉族"",""Alipay"":""18811581971""}",""
"","","","","","survey-multi-choice","135","367714","0.0-8.0","209","1","2022-11-14 06:20:18","49aca292d257f58668169b9fbab864ae","223.104.39.102","Mozilla/5.0 (Windows NT 10.0; Win64; x64) AppleWebKit/537.36 (KHTML, like Gecko) Chrome/107.0.0.0 Safari/537.36 Edg/107.0.1418.42","WebKit","Edge","107.0.1418.42","Windows","10.0","14860","","{""Gender"":""男"",""Education"":""硕士研究生毕业"",""Income"":""￥35,000-￥69,999"",""Children"":""1"",""Race"":""亚洲人""}","[0,1,2,3,4]"
"","","","","","survey-multi-select","136","376725","0.0-9.0","209","1","2022-11-14 06:20:18","49aca292d257f58668169b9fbab864ae","223.104.39.102","Mozilla/5.0 (Windows NT 10.0; Win64; x64) AppleWebKit/537.36 (KHTML, like Gecko) Chrome/107.0.0.0 Safari/537.36 Edg/107.0.1418.42","WebKit","Edge","107.0.1418.42","Windows","10.0","8995","","{""Marriage"":[""未婚""],""Religion"":[""无神论者""]}","[0,1]"
"","","","","","survey-multi-choice","137","380216","0.0-10.0","209","1","2022-11-14 06:20:18","49aca292d257f58668169b9fbab864ae","223.104.39.102","Mozilla/5.0 (Windows NT 10.0; Win64; x64) AppleWebKit/537.36 (KHTML, like Gecko) Chrome/107.0.0.0 Safari/537.36 Edg/107.0.1418.42","WebKit","Edge","107.0.1418.42","Windows","10.0","3479","","{""SES"":""6""}","[0]"
"","","","","","html-button-response","138","384775","0.0-11.0","209","1","2022-11-14 06:20:18","49aca292d257f58668169b9fbab864ae","223.104.39.102","Mozilla/5.0 (Windows NT 10.0; Win64; x64) AppleWebKit/537.36 (KHTML, like Gecko) Chrome/107.0.0.0 Safari/537.36 Edg/107.0.1418.42","WebKit","Edge","107.0.1418.42","Windows","10.0","4549","<p><strong>请判断下列陈述在多大程度上可以形容你？</p><p> (1 = ""和我一点都不像"" to 5 = ""非常像我"".)</strong></p>","0",""
"","","","","","survey-likert","139","403422","0.0-12.0","209","1","2022-11-14 06:20:18","49aca292d257f58668169b9fbab864ae","223.104.39.102","Mozilla/5.0 (Windows NT 10.0; Win64; x64) AppleWebKit/537.36 (KHTML, like Gecko) Chrome/107.0.0.0 Safari/537.36 Edg/107.0.1418.42","WebKit","Edge","107.0.1418.42","Windows","10.0","18636","","{""Aggression1"":3,""Aggression2"":4,""Aggression3"":3,""Aggression4"":2,""Aggression5"":3,""Aggression6"":3,""Aggression7"":2,""Aggression8"":4,""Aggression9"":3}","[0,1,2,3,4,5,6,7,8]"
"","","","","","html-button-response","140","405856","0.0-13.0","209","1","2022-11-14 06:20:18","49aca292d257f58668169b9fbab864ae","223.104.39.102","Mozilla/5.0 (Windows NT 10.0; Win64; x64) AppleWebKit/537.36 (KHTML, like Gecko) Chrome/107.0.0.0 Safari/537.36 Edg/107.0.1418.42","WebKit","Edge","107.0.1418.42","Windows","10.0","2423","<p><strong>请判断你在多大程度上同意下列陈述。</strong></p>","0",""
"","","","","","survey-likert","141","488024","0.0-14.0","209","1","2022-11-14 06:20:18","49aca292d257f58668169b9fbab864ae","223.104.39.102","Mozilla/5.0 (Windows NT 10.0; Win64; x64) AppleWebKit/537.36 (KHTML, like Gecko) Chrome/107.0.0.0 Safari/537.36 Edg/107.0.1418.42","WebKit","Edge","107.0.1418.42","Windows","10.0","82157","","{""scale16"":3,""scale26"":3,""scale11"":2,""scale14"":2,""scale27"":3,""scale5"":3,""scale1"":2,""scale15"":4,""scale17"":3,""scale2"":2,""scale23"":3,""scale12"":3,""scale4"":2,""scale22"":3,""scale24"":1,""scale21"":3,""scale7"":2,""scale18"":3,""scale25"":0,""scale13"":2,""scale3"":3,""scale9"":2,""scale20"":1,""scale6"":3,""scale19"":3,""scale8"":3,""scale28"":2,""scale10"":3}","[15,25,10,13,26,4,0,14,16,1,22,11,3,21,23,20,6,17,24,12,2,8,19,5,18,7,27,9]"
"","","","","","html-button-response","142","489539","0.0-15.0","209","1","2022-11-14 06:20:18","49aca292d257f58668169b9fbab864ae","223.104.39.102","Mozilla/5.0 (Windows NT 10.0; Win64; x64) AppleWebKit/537.36 (KHTML, like Gecko) Chrome/107.0.0.0 Safari/537.36 Edg/107.0.1418.42","WebKit","Edge","107.0.1418.42","Windows","10.0","1503","<p><strong>请判断你在多大程度上同意下列陈述。</strong></p>","0",""
"","","","","","survey-likert","143","528156","0.0-16.0","209","1","2022-11-14 06:20:18","49aca292d257f58668169b9fbab864ae","223.104.39.102","Mozilla/5.0 (Windows NT 10.0; Win64; x64) AppleWebKit/537.36 (KHTML, like Gecko) Chrome/107.0.0.0 Safari/537.36 Edg/107.0.1418.42","WebKit","Edge","107.0.1418.42","Windows","10.0","38609","","{""sdo12"":5,""sdo13"":4,""sdo2"":3,""sdo14"":4,""sdo10"":5,""sdo5"":3,""sdo1"":2,""sdo9"":3,""sdo4"":3,""sdo7"":2,""sdo11"":4,""sdo15"":3,""sdo3"":4,""sdo6"":4,""sdo8"":3,""sdo16"":4}","[11,12,1,13,9,4,0,8,3,6,10,14,2,5,7,15]"
"","","","","","html-button-response","144","529235","0.0-17.0","209","1","2022-11-14 06:20:18","49aca292d257f58668169b9fbab864ae","223.104.39.102","Mozilla/5.0 (Windows NT 10.0; Win64; x64) AppleWebKit/537.36 (KHTML, like Gecko) Chrome/107.0.0.0 Safari/537.36 Edg/107.0.1418.42","WebKit","Edge","107.0.1418.42","Windows","10.0","1072","<p><strong>请判断你在多大程度上同意下列陈述。</strong></p>","0",""
"","","","","","survey-likert","145","565562","0.0-18.0","209","1","2022-11-14 06:20:18","49aca292d257f58668169b9fbab864ae","223.104.39.102","Mozilla/5.0 (Windows NT 10.0; Win64; x64) AppleWebKit/537.36 (KHTML, like Gecko) Chrome/107.0.0.0 Safari/537.36 Edg/107.0.1418.42","WebKit","Edge","107.0.1418.42","Windows","10.0","36318","","{""caring1"":3,""liking1"":3,""caring2"":3,""protection1"":2,""liking2"":3,""caring3"":0,""protection2"":3,""liking3"":3,""protection3"":2,""caring4"":3,""liking4"":3,""protection4"":3,""caring5"":2,""liking5"":3,""protection5"":3}","[0,1,2,3,4,5,6,7,8,9,10,11,12,13,14]"
"","","","","","html-button-response","146","566743","0.0-19.0","209","1","2022-11-14 06:20:18","49aca292d257f58668169b9fbab864ae","223.104.39.102","Mozilla/5.0 (Windows NT 10.0; Win64; x64) AppleWebKit/537.36 (KHTML, like Gecko) Chrome/107.0.0.0 Safari/537.36 Edg/107.0.1418.42","WebKit","Edge","107.0.1418.42","Windows","10.0","1170","<p><strong>请判断下列场景中你的内心感受有多柔软。</strong></p>","0",""
"","","","","","survey-likert","147","587880","0.0-20.0","209","1","2022-11-14 06:20:18","49aca292d257f58668169b9fbab864ae","223.104.39.102","Mozilla/5.0 (Windows NT 10.0; Win64; x64) AppleWebKit/537.36 (KHTML, like Gecko) Chrome/107.0.0.0 Safari/537.36 Edg/107.0.1418.42","WebKit","Edge","107.0.1418.42","Windows","10.0","21128","","{""tenderness-positive1"":3,""tenderness-negative1"":2,""tenderness-negative2"":1,""tenderness-positive2"":2,""tenderness-positive3"":2,""tenderness-negative3"":2,""tenderness-positive4"":3,""tenderness-negative4"":2,""tenderness-negative5"":3,""tenderness-positive5"":3}","[0,1,2,3,4,5,6,7,8,9]"
"","","","","","survey-multi-choice","148","599368","0.0-21.0","209","1","2022-11-14 06:20:18","49aca292d257f58668169b9fbab864ae","223.104.39.102","Mozilla/5.0 (Windows NT 10.0; Win64; x64) AppleWebKit/537.36 (KHTML, like Gecko) Chrome/107.0.0.0 Safari/537.36 Edg/107.0.1418.42","WebKit","Edge","107.0.1418.42","Windows","10.0","11475","","{""Attention2"":""其他""}","[0]"
"","","","","","html-button-response","149","600671","0.0-22.0","209","1","2022-11-14 06:20:18","49aca292d257f58668169b9fbab864ae","223.104.39.102","Mozilla/5.0 (Windows NT 10.0; Win64; x64) AppleWebKit/537.36 (KHTML, like Gecko) Chrome/107.0.0.0 Safari/537.36 Edg/107.0.1418.42","WebKit","Edge","107.0.1418.42","Windows","10.0","1292","<p><strong>请判断你在多大程度上同意下列陈述。</strong></p>","0",""
"","","","","","survey-likert","150","675943","0.0-23.0","209","1","2022-11-14 06:20:18","49aca292d257f58668169b9fbab864ae","223.104.39.102","Mozilla/5.0 (Windows NT 10.0; Win64; x64) AppleWebKit/537.36 (KHTML, like Gecko) Chrome/107.0.0.0 Safari/537.36 Edg/107.0.1418.42","WebKit","Edge","107.0.1418.42","Windows","10.0","75262","","{""Patri6"":0,""Patri1"":4,""Patri5"":4,""Nation2"":4,""Nation4"":1,""Patri4"":4,""Patri2"":3,""Patri11"":3,""Patri12"":2,""Patri8"":3,""Nation7"":3,""Nation3"":3,""Nation1"":4,""Nation5"":3,""Nation6"":2,""Patri7"":4,""Patri9"":3,""Patri10"":3,""Patri3"":4,""Nation8"":0}","[5,0,4,13,15,3,1,10,11,7,18,14,12,16,17,6,8,9,2,19]"
"","","","","","html-button-response","151","677244","0.0-24.0","209","1","2022-11-14 06:20:18","49aca292d257f58668169b9fbab864ae","223.104.39.102","Mozilla/5.0 (Windows NT 10.0; Win64; x64) AppleWebKit/537.36 (KHTML, like Gecko) Chrome/107.0.0.0 Safari/537.36 Edg/107.0.1418.42","WebKit","Edge","107.0.1418.42","Windows","10.0","1289","<p><strong>请判断你在多大程度上同意下列陈述。</strong></p>","0",""
"","","","","","survey-likert","152","729167","0.0-25.0","209","1","2022-11-14 06:20:18","49aca292d257f58668169b9fbab864ae","223.104.39.102","Mozilla/5.0 (Windows NT 10.0; Win64; x64) AppleWebKit/537.36 (KHTML, like Gecko) Chrome/107.0.0.0 Safari/537.36 Edg/107.0.1418.42","WebKit","Edge","107.0.1418.42","Windows","10.0","51913","","{""vc3"":4,""hc2"":4,""vi2"":6,""hi2"":8,""vc1"":8,""vi3"":8,""hc3"":7,""vi1"":7,""hi4"":5,""hi1"":7,""hc4"":6,""hc1"":5,""vc2"":6,""vc4"":6,""Robot"":6,""vi4"":5,""hi3"":7}","[15,10,5,1,13,6,11,4,3,0,12,9,14,16,7,8,2]"
"","","","","","survey-text","153","742023","0.0-26.0","209","1","2022-11-14 06:20:18","49aca292d257f58668169b9fbab864ae","223.104.39.102","Mozilla/5.0 (Windows NT 10.0; Win64; x64) AppleWebKit/537.36 (KHTML, like Gecko) Chrome/107.0.0.0 Safari/537.36 Edg/107.0.1418.42","WebKit","Edge","107.0.1418.42","Windows","10.0","12830","","{""Comments"":""无""}",""
"","","","","","html-button-response","154","743260","0.0-27.0","209","1","2022-11-14 06:20:18","49aca292d257f58668169b9fbab864ae","223.104.39.102","Mozilla/5.0 (Windows NT 10.0; Win64; x64) AppleWebKit/537.36 (KHTML, like Gecko) Chrome/107.0.0.0 Safari/537.36 Edg/107.0.1418.42","WebKit","Edge","107.0.1418.42","Windows","10.0","1229","<strong><p>恭喜你完成了实验！</p><p>感谢您的参与。</p></strong>","0",""
