"success","timeout","failed_images","failed_audio","failed_video","trial_type","trial_index","time_elapsed","internal_node_id","run_id","condition","recorded_at","source_code_version","ip","user_agent","device","browser","browser_version","platform","platform_version","rt","stimulus","response","question_order"
"true","false","[]","[]","[]","preload","0","1701","0.0-0.0","214","1","2022-11-14 10:21:10","49aca292d257f58668169b9fbab864ae","117.136.45.160","Mozilla/5.0 (Windows NT 10.0; Win64; x64) AppleWebKit/537.36 (KHTML, like Gecko) Chrome/107.0.0.0 Safari/537.36 Edg/107.0.1418.42","WebKit","Edge","107.0.1418.42","Windows","10.0","","","",""
"true","","","","","fullscreen","1","3782","0.0-1.0","214","1","2022-11-14 10:21:10","49aca292d257f58668169b9fbab864ae","117.136.45.160","Mozilla/5.0 (Windows NT 10.0; Win64; x64) AppleWebKit/537.36 (KHTML, like Gecko) Chrome/107.0.0.0 Safari/537.36 Edg/107.0.1418.42","WebKit","Edge","107.0.1418.42","Windows","10.0","","","",""
"","","","","","html-button-response","2","5107","0.0-2.0","214","1","2022-11-14 10:21:10","49aca292d257f58668169b9fbab864ae","117.136.45.160","Mozilla/5.0 (Windows NT 10.0; Win64; x64) AppleWebKit/537.36 (KHTML, like Gecko) Chrome/107.0.0.0 Safari/537.36 Edg/107.0.1418.42","WebKit","Edge","107.0.1418.42","Windows","10.0","1322","<p style=""font-size:20px;font-weight:bold;"">实验知情同意书</p><p style=""text-align:left;""><strong>实验名称：</strong>社会冲突研究</p><p style=""text-align:left;""><strong>主要研究者：</strong>韩晓春副教授（北京师范大学心理学部）</p><p style=""text-align:left;""><strong>联系方式：</strong>发送邮件至xiaochun.han@bnu.edu.cn</p><p style=""text-align:left;""><strong>研究目的：</strong>研究旨在了解人类面对群体冲突时的决策方式，以及相关的心理学特质。实验调查大约需要20分钟。</p><p style=""text-align:left;""><strong>实验流程：</strong>实验包含两部分。第一部分呈现一系列群体冲突场景，请你决定如何对这些冲突进行反应，大约需要10分钟完成。第二部分包含一系列人口统计学信息收集和心理学问卷，大约需要10分钟完成。</p><p style=""text-align:left;""><strong>参加及退出规则：</strong>参加本实验完全取决于您的个人意愿。在参与过程中，您可以随时退出，并且不用承担任何后果。</p><p style=""text-align:left;""><strong>隐私：</strong>本实验完全匿名进行，不会收集您的姓名或其他能够识别您身份的信息。实验中收集的作答仅用作科学研究使用，可能会在学术期刊/书籍上发表，或者用于教学，您的数据未来可能会和其他研究者或实验室分享，但您的个人身份不会被识别。</p><p style=""text-align:left;""><strong>实验报酬：</strong>实验完成后，您将获得15元人民币报酬，以感谢您的时间和努力。调查问卷中包含几道题目用以测验您作答时的认真度。只有完成全部实验，并且正确回答认真度测验的被试才能获得实验报酬。实验报酬将通过支付宝转账发放。</p><p style=""text-align:left;font-size:20px;""><strong>如果您同意以上实验知情同意书的内容，请点击'同意并且开始实验'按钮；否则请关闭浏览器界面，退出实验。</strong></p>","0",""
"","","","","","html-button-response","3","8459","0.0-3.0","214","1","2022-11-14 10:21:10","49aca292d257f58668169b9fbab864ae","117.136.45.160","Mozilla/5.0 (Windows NT 10.0; Win64; x64) AppleWebKit/537.36 (KHTML, like Gecko) Chrome/107.0.0.0 Safari/537.36 Edg/107.0.1418.42","WebKit","Edge","107.0.1418.42","Windows","10.0","3351","<p ><strong>实验任务一：</strong></p><p>请想象你的国家与另一个国家发生了军事冲突。</p><p>你是国家军队的指挥官，你将如何在冲突中进行决策。</p><p>具体来说，作为军队指挥官，请你决定是否发射导弹进行打击。</p><p>接下来，你会面对一系列场景，请仔细阅读每个场景，然后进行决策。</p><p>这部分实验任务大约需要10分钟。</p><p><strong>实验过程中，请集中注意力。</strong></p>","0",""
"","","","","","html-keyboard-response","4","9465","0.0-4.0-0.0","214","1","2022-11-14 10:21:10","49aca292d257f58668169b9fbab864ae","117.136.45.160","Mozilla/5.0 (Windows NT 10.0; Win64; x64) AppleWebKit/537.36 (KHTML, like Gecko) Chrome/107.0.0.0 Safari/537.36 Edg/107.0.1418.42","WebKit","Edge","107.0.1418.42","Windows","10.0","null","<div style=""font-size:60px;"">+</div>","null",""
"","","","","","html-button-response","5","11009","0.0-4.0-1.0","214","1","2022-11-14 10:21:10","49aca292d257f58668169b9fbab864ae","117.136.45.160","Mozilla/5.0 (Windows NT 10.0; Win64; x64) AppleWebKit/537.36 (KHTML, like Gecko) Chrome/107.0.0.0 Safari/537.36 Edg/107.0.1418.42","WebKit","Edge","107.0.1418.42","Windows","10.0","1542","<p>作为军队的指挥官，你可以选择发射导弹杀死 <strong>9名</strong> 敌国士兵，但会误杀附近的 <strong>1名</strong> 敌国平民。</p> <p>平民照片如下图所示。</p> <p></p> <img src='stimuli/faces/PFF1.jpg', style='max-width: 30%;'> </img> <p><strong>你是否选择发射武器？</strong></p>","0",""
"","","","","","html-keyboard-response","6","12012","0.0-4.0-0.1","214","1","2022-11-14 10:21:10","49aca292d257f58668169b9fbab864ae","117.136.45.160","Mozilla/5.0 (Windows NT 10.0; Win64; x64) AppleWebKit/537.36 (KHTML, like Gecko) Chrome/107.0.0.0 Safari/537.36 Edg/107.0.1418.42","WebKit","Edge","107.0.1418.42","Windows","10.0","null","<div style=""font-size:60px;"">+</div>","null",""
"","","","","","html-button-response","7","13266","0.0-4.0-1.1","214","1","2022-11-14 10:21:10","49aca292d257f58668169b9fbab864ae","117.136.45.160","Mozilla/5.0 (Windows NT 10.0; Win64; x64) AppleWebKit/537.36 (KHTML, like Gecko) Chrome/107.0.0.0 Safari/537.36 Edg/107.0.1418.42","WebKit","Edge","107.0.1418.42","Windows","10.0","1253","<p>作为军队的指挥官，你可以选择发射导弹杀死 <strong>9名</strong> 敌国士兵，但会炸毁附近的 <strong>1棵</strong> 敌国树木。</p> <p>树木的照片如下图所示。</p> <p></p> <img src='stimuli/trees/8.png', style='max-width: 30%;'> </img> <p><strong>你是否选择发射武器？</strong></p>","0",""
"","","","","","html-keyboard-response","8","14279","0.0-4.0-0.2","214","1","2022-11-14 10:21:10","49aca292d257f58668169b9fbab864ae","117.136.45.160","Mozilla/5.0 (Windows NT 10.0; Win64; x64) AppleWebKit/537.36 (KHTML, like Gecko) Chrome/107.0.0.0 Safari/537.36 Edg/107.0.1418.42","WebKit","Edge","107.0.1418.42","Windows","10.0","null","<div style=""font-size:60px;"">+</div>","null",""
"","","","","","html-button-response","9","15338","0.0-4.0-1.2","214","1","2022-11-14 10:21:10","49aca292d257f58668169b9fbab864ae","117.136.45.160","Mozilla/5.0 (Windows NT 10.0; Win64; x64) AppleWebKit/537.36 (KHTML, like Gecko) Chrome/107.0.0.0 Safari/537.36 Edg/107.0.1418.42","WebKit","Edge","107.0.1418.42","Windows","10.0","1057","<p>作为军队的指挥官，你可以选择发射导弹杀死 <strong>10名</strong> 敌国士兵，但会炸毁附近的 <strong>1棵</strong> 敌国树木。</p> <p>树木的照片如下图所示。</p> <p></p> <img src='stimuli/trees/14.png', style='max-width: 30%;'> </img> <p><strong>你是否选择发射武器？</strong></p>","0",""
"","","","","","html-keyboard-response","10","16347","0.0-4.0-0.3","214","1","2022-11-14 10:21:10","49aca292d257f58668169b9fbab864ae","117.136.45.160","Mozilla/5.0 (Windows NT 10.0; Win64; x64) AppleWebKit/537.36 (KHTML, like Gecko) Chrome/107.0.0.0 Safari/537.36 Edg/107.0.1418.42","WebKit","Edge","107.0.1418.42","Windows","10.0","null","<div style=""font-size:60px;"">+</div>","null",""
"","","","","","html-button-response","11","17651","0.0-4.0-1.3","214","1","2022-11-14 10:21:10","49aca292d257f58668169b9fbab864ae","117.136.45.160","Mozilla/5.0 (Windows NT 10.0; Win64; x64) AppleWebKit/537.36 (KHTML, like Gecko) Chrome/107.0.0.0 Safari/537.36 Edg/107.0.1418.42","WebKit","Edge","107.0.1418.42","Windows","10.0","1302","<p>作为军队的指挥官，你可以选择发射导弹杀死 <strong>5名</strong> 敌国士兵，但会炸毁附近的 <strong>1棵</strong> 敌国树木。</p> <p>树木的照片如下图所示。</p> <p></p> <img src='stimuli/trees/10.png', style='max-width: 30%;'> </img> <p><strong>你是否选择发射武器？</strong></p>","0",""
"","","","","","html-keyboard-response","12","18660","0.0-4.0-0.4","214","1","2022-11-14 10:21:10","49aca292d257f58668169b9fbab864ae","117.136.45.160","Mozilla/5.0 (Windows NT 10.0; Win64; x64) AppleWebKit/537.36 (KHTML, like Gecko) Chrome/107.0.0.0 Safari/537.36 Edg/107.0.1418.42","WebKit","Edge","107.0.1418.42","Windows","10.0","null","<div style=""font-size:60px;"">+</div>","null",""
"","","","","","html-button-response","13","21226","0.0-4.0-1.4","214","1","2022-11-14 10:21:10","49aca292d257f58668169b9fbab864ae","117.136.45.160","Mozilla/5.0 (Windows NT 10.0; Win64; x64) AppleWebKit/537.36 (KHTML, like Gecko) Chrome/107.0.0.0 Safari/537.36 Edg/107.0.1418.42","WebKit","Edge","107.0.1418.42","Windows","10.0","2565","<p>作为军队的指挥官，你可以选择发射导弹杀死 <strong>5名</strong> 敌国士兵，但会炸毁附近的 <strong>1棵</strong> 敌国树木。</p> <p>树木的照片如下图所示。</p> <p></p> <img src='stimuli/trees/7.png', style='max-width: 30%;'> </img> <p><strong>你是否选择发射武器？</strong></p>","0",""
"","","","","","html-keyboard-response","14","22235","0.0-4.0-0.5","214","1","2022-11-14 10:21:10","49aca292d257f58668169b9fbab864ae","117.136.45.160","Mozilla/5.0 (Windows NT 10.0; Win64; x64) AppleWebKit/537.36 (KHTML, like Gecko) Chrome/107.0.0.0 Safari/537.36 Edg/107.0.1418.42","WebKit","Edge","107.0.1418.42","Windows","10.0","null","<div style=""font-size:60px;"">+</div>","null",""
"","","","","","html-button-response","15","23490","0.0-4.0-1.5","214","1","2022-11-14 10:21:10","49aca292d257f58668169b9fbab864ae","117.136.45.160","Mozilla/5.0 (Windows NT 10.0; Win64; x64) AppleWebKit/537.36 (KHTML, like Gecko) Chrome/107.0.0.0 Safari/537.36 Edg/107.0.1418.42","WebKit","Edge","107.0.1418.42","Windows","10.0","1252","<p>作为军队的指挥官，你可以选择发射导弹杀死 <strong>10名</strong> 敌国士兵，但会误杀附近的 <strong>1名</strong> 敌国平民。</p> <p>平民照片如下图所示。</p> <p></p> <img src='stimuli/faces/PFF5.jpg', style='max-width: 30%;'> </img> <p><strong>你是否选择发射武器？</strong></p>","0",""
"","","","","","html-keyboard-response","16","24494","0.0-4.0-0.6","214","1","2022-11-14 10:21:10","49aca292d257f58668169b9fbab864ae","117.136.45.160","Mozilla/5.0 (Windows NT 10.0; Win64; x64) AppleWebKit/537.36 (KHTML, like Gecko) Chrome/107.0.0.0 Safari/537.36 Edg/107.0.1418.42","WebKit","Edge","107.0.1418.42","Windows","10.0","null","<div style=""font-size:60px;"">+</div>","null",""
"","","","","","html-button-response","17","25762","0.0-4.0-1.6","214","1","2022-11-14 10:21:10","49aca292d257f58668169b9fbab864ae","117.136.45.160","Mozilla/5.0 (Windows NT 10.0; Win64; x64) AppleWebKit/537.36 (KHTML, like Gecko) Chrome/107.0.0.0 Safari/537.36 Edg/107.0.1418.42","WebKit","Edge","107.0.1418.42","Windows","10.0","1266","<p>作为军队的指挥官，你可以选择发射导弹杀死 <strong>1名</strong> 敌国士兵，但会误杀附近的 <strong>1名</strong> 敌国平民。</p> <p>平民照片如下图所示。</p> <p></p> <img src='stimuli/faces/PFM7.jpg', style='max-width: 30%;'> </img> <p><strong>你是否选择发射武器？</strong></p>","1",""
"","","","","","html-keyboard-response","18","26771","0.0-4.0-0.7","214","1","2022-11-14 10:21:10","49aca292d257f58668169b9fbab864ae","117.136.45.160","Mozilla/5.0 (Windows NT 10.0; Win64; x64) AppleWebKit/537.36 (KHTML, like Gecko) Chrome/107.0.0.0 Safari/537.36 Edg/107.0.1418.42","WebKit","Edge","107.0.1418.42","Windows","10.0","null","<div style=""font-size:60px;"">+</div>","null",""
"","","","","","html-button-response","19","28123","0.0-4.0-1.7","214","1","2022-11-14 10:21:10","49aca292d257f58668169b9fbab864ae","117.136.45.160","Mozilla/5.0 (Windows NT 10.0; Win64; x64) AppleWebKit/537.36 (KHTML, like Gecko) Chrome/107.0.0.0 Safari/537.36 Edg/107.0.1418.42","WebKit","Edge","107.0.1418.42","Windows","10.0","1350","<p>作为军队的指挥官，你可以选择发射导弹杀死 <strong>10名</strong> 敌国士兵，但会误杀附近的 <strong>1名</strong> 敌国平民。</p> <p>平民照片如下图所示。</p> <p></p> <img src='stimuli/faces/PFM6.jpg', style='max-width: 30%;'> </img> <p><strong>你是否选择发射武器？</strong></p>","0",""
"","","","","","html-keyboard-response","20","29131","0.0-4.0-0.8","214","1","2022-11-14 10:21:10","49aca292d257f58668169b9fbab864ae","117.136.45.160","Mozilla/5.0 (Windows NT 10.0; Win64; x64) AppleWebKit/537.36 (KHTML, like Gecko) Chrome/107.0.0.0 Safari/537.36 Edg/107.0.1418.42","WebKit","Edge","107.0.1418.42","Windows","10.0","null","<div style=""font-size:60px;"">+</div>","null",""
"","","","","","html-button-response","21","30522","0.0-4.0-1.8","214","1","2022-11-14 10:21:10","49aca292d257f58668169b9fbab864ae","117.136.45.160","Mozilla/5.0 (Windows NT 10.0; Win64; x64) AppleWebKit/537.36 (KHTML, like Gecko) Chrome/107.0.0.0 Safari/537.36 Edg/107.0.1418.42","WebKit","Edge","107.0.1418.42","Windows","10.0","1389","<p>作为军队的指挥官，你可以选择发射导弹杀死 <strong>7名</strong> 敌国士兵，但会误杀附近的 <strong>1名</strong> 敌国平民。</p> <p>平民照片如下图所示。</p> <p></p> <img src='stimuli/faces/PFF3.jpg', style='max-width: 30%;'> </img> <p><strong>你是否选择发射武器？</strong></p>","0",""
"","","","","","html-keyboard-response","22","31529","0.0-4.0-0.9","214","1","2022-11-14 10:21:10","49aca292d257f58668169b9fbab864ae","117.136.45.160","Mozilla/5.0 (Windows NT 10.0; Win64; x64) AppleWebKit/537.36 (KHTML, like Gecko) Chrome/107.0.0.0 Safari/537.36 Edg/107.0.1418.42","WebKit","Edge","107.0.1418.42","Windows","10.0","null","<div style=""font-size:60px;"">+</div>","null",""
"","","","","","html-button-response","23","32962","0.0-4.0-1.9","214","1","2022-11-14 10:21:10","49aca292d257f58668169b9fbab864ae","117.136.45.160","Mozilla/5.0 (Windows NT 10.0; Win64; x64) AppleWebKit/537.36 (KHTML, like Gecko) Chrome/107.0.0.0 Safari/537.36 Edg/107.0.1418.42","WebKit","Edge","107.0.1418.42","Windows","10.0","1432","<p>作为军队的指挥官，你可以选择发射导弹杀死 <strong>2名</strong> 敌国士兵，但会炸毁附近的 <strong>1棵</strong> 敌国树木。</p> <p>树木的照片如下图所示。</p> <p></p> <img src='stimuli/trees/9.png', style='max-width: 30%;'> </img> <p><strong>你是否选择发射武器？</strong></p>","0",""
"","","","","","html-keyboard-response","24","33980","0.0-4.0-0.10","214","1","2022-11-14 10:21:10","49aca292d257f58668169b9fbab864ae","117.136.45.160","Mozilla/5.0 (Windows NT 10.0; Win64; x64) AppleWebKit/537.36 (KHTML, like Gecko) Chrome/107.0.0.0 Safari/537.36 Edg/107.0.1418.42","WebKit","Edge","107.0.1418.42","Windows","10.0","null","<div style=""font-size:60px;"">+</div>","null",""
"","","","","","html-button-response","25","34794","0.0-4.0-1.10","214","1","2022-11-14 10:21:10","49aca292d257f58668169b9fbab864ae","117.136.45.160","Mozilla/5.0 (Windows NT 10.0; Win64; x64) AppleWebKit/537.36 (KHTML, like Gecko) Chrome/107.0.0.0 Safari/537.36 Edg/107.0.1418.42","WebKit","Edge","107.0.1418.42","Windows","10.0","812","<p>作为军队的指挥官，你可以选择发射导弹杀死 <strong>10名</strong> 敌国士兵，但会误杀附近的 <strong>1名</strong> 敌国平民。</p> <p>平民照片如下图所示。</p> <p></p> <img src='stimuli/faces/PFF7.jpg', style='max-width: 30%;'> </img> <p><strong>你是否选择发射武器？</strong></p>","0",""
"","","","","","html-keyboard-response","26","35805","0.0-4.0-0.11","214","1","2022-11-14 10:21:10","49aca292d257f58668169b9fbab864ae","117.136.45.160","Mozilla/5.0 (Windows NT 10.0; Win64; x64) AppleWebKit/537.36 (KHTML, like Gecko) Chrome/107.0.0.0 Safari/537.36 Edg/107.0.1418.42","WebKit","Edge","107.0.1418.42","Windows","10.0","null","<div style=""font-size:60px;"">+</div>","null",""
"","","","","","html-button-response","27","36859","0.0-4.0-1.11","214","1","2022-11-14 10:21:10","49aca292d257f58668169b9fbab864ae","117.136.45.160","Mozilla/5.0 (Windows NT 10.0; Win64; x64) AppleWebKit/537.36 (KHTML, like Gecko) Chrome/107.0.0.0 Safari/537.36 Edg/107.0.1418.42","WebKit","Edge","107.0.1418.42","Windows","10.0","1052","<p>作为军队的指挥官，你可以选择发射导弹杀死 <strong>8名</strong> 敌国士兵，但会炸毁附近的 <strong>1棵</strong> 敌国树木。</p> <p>树木的照片如下图所示。</p> <p></p> <img src='stimuli/trees/3.png', style='max-width: 30%;'> </img> <p><strong>你是否选择发射武器？</strong></p>","0",""
"","","","","","html-keyboard-response","28","37881","0.0-4.0-0.12","214","1","2022-11-14 10:21:10","49aca292d257f58668169b9fbab864ae","117.136.45.160","Mozilla/5.0 (Windows NT 10.0; Win64; x64) AppleWebKit/537.36 (KHTML, like Gecko) Chrome/107.0.0.0 Safari/537.36 Edg/107.0.1418.42","WebKit","Edge","107.0.1418.42","Windows","10.0","null","<div style=""font-size:60px;"">+</div>","null",""
"","","","","","html-button-response","29","39123","0.0-4.0-1.12","214","1","2022-11-14 10:21:10","49aca292d257f58668169b9fbab864ae","117.136.45.160","Mozilla/5.0 (Windows NT 10.0; Win64; x64) AppleWebKit/537.36 (KHTML, like Gecko) Chrome/107.0.0.0 Safari/537.36 Edg/107.0.1418.42","WebKit","Edge","107.0.1418.42","Windows","10.0","1240","<p>作为军队的指挥官，你可以选择发射导弹杀死 <strong>10名</strong> 敌国士兵，但会炸毁附近的 <strong>1棵</strong> 敌国树木。</p> <p>树木的照片如下图所示。</p> <p></p> <img src='stimuli/trees/7.png', style='max-width: 30%;'> </img> <p><strong>你是否选择发射武器？</strong></p>","0",""
"","","","","","html-keyboard-response","30","40145","0.0-4.0-0.13","214","1","2022-11-14 10:21:10","49aca292d257f58668169b9fbab864ae","117.136.45.160","Mozilla/5.0 (Windows NT 10.0; Win64; x64) AppleWebKit/537.36 (KHTML, like Gecko) Chrome/107.0.0.0 Safari/537.36 Edg/107.0.1418.42","WebKit","Edge","107.0.1418.42","Windows","10.0","null","<div style=""font-size:60px;"">+</div>","null",""
"","","","","","html-button-response","31","40842","0.0-4.0-1.13","214","1","2022-11-14 10:21:10","49aca292d257f58668169b9fbab864ae","117.136.45.160","Mozilla/5.0 (Windows NT 10.0; Win64; x64) AppleWebKit/537.36 (KHTML, like Gecko) Chrome/107.0.0.0 Safari/537.36 Edg/107.0.1418.42","WebKit","Edge","107.0.1418.42","Windows","10.0","695","<p>作为军队的指挥官，你可以选择发射导弹杀死 <strong>9名</strong> 敌国士兵，但会炸毁附近的 <strong>1棵</strong> 敌国树木。</p> <p>树木的照片如下图所示。</p> <p></p> <img src='stimuli/trees/6.png', style='max-width: 30%;'> </img> <p><strong>你是否选择发射武器？</strong></p>","0",""
"","","","","","html-keyboard-response","32","41859","0.0-4.0-0.14","214","1","2022-11-14 10:21:10","49aca292d257f58668169b9fbab864ae","117.136.45.160","Mozilla/5.0 (Windows NT 10.0; Win64; x64) AppleWebKit/537.36 (KHTML, like Gecko) Chrome/107.0.0.0 Safari/537.36 Edg/107.0.1418.42","WebKit","Edge","107.0.1418.42","Windows","10.0","null","<div style=""font-size:60px;"">+</div>","null",""
"","","","","","html-button-response","33","43049","0.0-4.0-1.14","214","1","2022-11-14 10:21:10","49aca292d257f58668169b9fbab864ae","117.136.45.160","Mozilla/5.0 (Windows NT 10.0; Win64; x64) AppleWebKit/537.36 (KHTML, like Gecko) Chrome/107.0.0.0 Safari/537.36 Edg/107.0.1418.42","WebKit","Edge","107.0.1418.42","Windows","10.0","1190","<p>作为军队的指挥官，你可以选择发射导弹杀死 <strong>2名</strong> 敌国士兵，但会误杀附近的 <strong>1名</strong> 敌国平民。</p> <p>平民照片如下图所示。</p> <p></p> <img src='stimuli/faces/PFM6.jpg', style='max-width: 30%;'> </img> <p><strong>你是否选择发射武器？</strong></p>","1",""
"","","","","","html-keyboard-response","34","44051","0.0-4.0-0.15","214","1","2022-11-14 10:21:10","49aca292d257f58668169b9fbab864ae","117.136.45.160","Mozilla/5.0 (Windows NT 10.0; Win64; x64) AppleWebKit/537.36 (KHTML, like Gecko) Chrome/107.0.0.0 Safari/537.36 Edg/107.0.1418.42","WebKit","Edge","107.0.1418.42","Windows","10.0","null","<div style=""font-size:60px;"">+</div>","null",""
"","","","","","html-button-response","35","45090","0.0-4.0-1.15","214","1","2022-11-14 10:21:10","49aca292d257f58668169b9fbab864ae","117.136.45.160","Mozilla/5.0 (Windows NT 10.0; Win64; x64) AppleWebKit/537.36 (KHTML, like Gecko) Chrome/107.0.0.0 Safari/537.36 Edg/107.0.1418.42","WebKit","Edge","107.0.1418.42","Windows","10.0","1037","<p>作为军队的指挥官，你可以选择发射导弹杀死 <strong>10名</strong> 敌国士兵，但会炸毁附近的 <strong>1棵</strong> 敌国树木。</p> <p>树木的照片如下图所示。</p> <p></p> <img src='stimuli/trees/9.png', style='max-width: 30%;'> </img> <p><strong>你是否选择发射武器？</strong></p>","0",""
"","","","","","html-keyboard-response","36","46109","0.0-4.0-0.16","214","1","2022-11-14 10:21:10","49aca292d257f58668169b9fbab864ae","117.136.45.160","Mozilla/5.0 (Windows NT 10.0; Win64; x64) AppleWebKit/537.36 (KHTML, like Gecko) Chrome/107.0.0.0 Safari/537.36 Edg/107.0.1418.42","WebKit","Edge","107.0.1418.42","Windows","10.0","null","<div style=""font-size:60px;"">+</div>","null",""
"","","","","","html-button-response","37","47242","0.0-4.0-1.16","214","1","2022-11-14 10:21:10","49aca292d257f58668169b9fbab864ae","117.136.45.160","Mozilla/5.0 (Windows NT 10.0; Win64; x64) AppleWebKit/537.36 (KHTML, like Gecko) Chrome/107.0.0.0 Safari/537.36 Edg/107.0.1418.42","WebKit","Edge","107.0.1418.42","Windows","10.0","1131","<p>作为军队的指挥官，你可以选择发射导弹杀死 <strong>2名</strong> 敌国士兵，但会炸毁附近的 <strong>1棵</strong> 敌国树木。</p> <p>树木的照片如下图所示。</p> <p></p> <img src='stimuli/trees/5.png', style='max-width: 30%;'> </img> <p><strong>你是否选择发射武器？</strong></p>","1",""
"","","","","","html-keyboard-response","38","48251","0.0-4.0-0.17","214","1","2022-11-14 10:21:10","49aca292d257f58668169b9fbab864ae","117.136.45.160","Mozilla/5.0 (Windows NT 10.0; Win64; x64) AppleWebKit/537.36 (KHTML, like Gecko) Chrome/107.0.0.0 Safari/537.36 Edg/107.0.1418.42","WebKit","Edge","107.0.1418.42","Windows","10.0","null","<div style=""font-size:60px;"">+</div>","null",""
"","","","","","html-button-response","39","50538","0.0-4.0-1.17","214","1","2022-11-14 10:21:10","49aca292d257f58668169b9fbab864ae","117.136.45.160","Mozilla/5.0 (Windows NT 10.0; Win64; x64) AppleWebKit/537.36 (KHTML, like Gecko) Chrome/107.0.0.0 Safari/537.36 Edg/107.0.1418.42","WebKit","Edge","107.0.1418.42","Windows","10.0","2286","<p>作为军队的指挥官，你可以选择发射导弹杀死 <strong>2名</strong> 敌国士兵，但会误杀附近的 <strong>1名</strong> 敌国平民。</p> <p>平民照片如下图所示。</p> <p></p> <img src='stimuli/faces/PFM5.jpg', style='max-width: 30%;'> </img> <p><strong>你是否选择发射武器？</strong></p>","1",""
"","","","","","html-keyboard-response","40","51549","0.0-4.0-0.18","214","1","2022-11-14 10:21:10","49aca292d257f58668169b9fbab864ae","117.136.45.160","Mozilla/5.0 (Windows NT 10.0; Win64; x64) AppleWebKit/537.36 (KHTML, like Gecko) Chrome/107.0.0.0 Safari/537.36 Edg/107.0.1418.42","WebKit","Edge","107.0.1418.42","Windows","10.0","null","<div style=""font-size:60px;"">+</div>","null",""
"","","","","","html-button-response","41","53194","0.0-4.0-1.18","214","1","2022-11-14 10:21:10","49aca292d257f58668169b9fbab864ae","117.136.45.160","Mozilla/5.0 (Windows NT 10.0; Win64; x64) AppleWebKit/537.36 (KHTML, like Gecko) Chrome/107.0.0.0 Safari/537.36 Edg/107.0.1418.42","WebKit","Edge","107.0.1418.42","Windows","10.0","1642","<p>作为军队的指挥官，你可以选择发射导弹杀死 <strong>3名</strong> 敌国士兵，但会炸毁附近的 <strong>1棵</strong> 敌国树木。</p> <p>树木的照片如下图所示。</p> <p></p> <img src='stimuli/trees/6.png', style='max-width: 30%;'> </img> <p><strong>你是否选择发射武器？</strong></p>","0",""
"","","","","","html-keyboard-response","42","54203","0.0-4.0-0.19","214","1","2022-11-14 10:21:10","49aca292d257f58668169b9fbab864ae","117.136.45.160","Mozilla/5.0 (Windows NT 10.0; Win64; x64) AppleWebKit/537.36 (KHTML, like Gecko) Chrome/107.0.0.0 Safari/537.36 Edg/107.0.1418.42","WebKit","Edge","107.0.1418.42","Windows","10.0","null","<div style=""font-size:60px;"">+</div>","null",""
"","","","","","html-button-response","43","55307","0.0-4.0-1.19","214","1","2022-11-14 10:21:10","49aca292d257f58668169b9fbab864ae","117.136.45.160","Mozilla/5.0 (Windows NT 10.0; Win64; x64) AppleWebKit/537.36 (KHTML, like Gecko) Chrome/107.0.0.0 Safari/537.36 Edg/107.0.1418.42","WebKit","Edge","107.0.1418.42","Windows","10.0","1101","<p>作为军队的指挥官，你可以选择发射导弹杀死 <strong>6名</strong> 敌国士兵，但会误杀附近的 <strong>1名</strong> 敌国平民。</p> <p>平民照片如下图所示。</p> <p></p> <img src='stimuli/faces/PFF6.jpg', style='max-width: 30%;'> </img> <p><strong>你是否选择发射武器？</strong></p>","0",""
"","","","","","html-keyboard-response","44","56326","0.0-4.0-0.20","214","1","2022-11-14 10:21:10","49aca292d257f58668169b9fbab864ae","117.136.45.160","Mozilla/5.0 (Windows NT 10.0; Win64; x64) AppleWebKit/537.36 (KHTML, like Gecko) Chrome/107.0.0.0 Safari/537.36 Edg/107.0.1418.42","WebKit","Edge","107.0.1418.42","Windows","10.0","null","<div style=""font-size:60px;"">+</div>","null",""
"","","","","","html-button-response","45","57971","0.0-4.0-1.20","214","1","2022-11-14 10:21:10","49aca292d257f58668169b9fbab864ae","117.136.45.160","Mozilla/5.0 (Windows NT 10.0; Win64; x64) AppleWebKit/537.36 (KHTML, like Gecko) Chrome/107.0.0.0 Safari/537.36 Edg/107.0.1418.42","WebKit","Edge","107.0.1418.42","Windows","10.0","1642","<p>作为军队的指挥官，你可以选择发射导弹杀死 <strong>3名</strong> 敌国士兵，但会炸毁附近的 <strong>1棵</strong> 敌国树木。</p> <p>树木的照片如下图所示。</p> <p></p> <img src='stimuli/trees/2.png', style='max-width: 30%;'> </img> <p><strong>你是否选择发射武器？</strong></p>","0",""
"","","","","","html-keyboard-response","46","58981","0.0-4.0-0.21","214","1","2022-11-14 10:21:10","49aca292d257f58668169b9fbab864ae","117.136.45.160","Mozilla/5.0 (Windows NT 10.0; Win64; x64) AppleWebKit/537.36 (KHTML, like Gecko) Chrome/107.0.0.0 Safari/537.36 Edg/107.0.1418.42","WebKit","Edge","107.0.1418.42","Windows","10.0","null","<div style=""font-size:60px;"">+</div>","null",""
"","","","","","html-button-response","47","59635","0.0-4.0-1.21","214","1","2022-11-14 10:21:10","49aca292d257f58668169b9fbab864ae","117.136.45.160","Mozilla/5.0 (Windows NT 10.0; Win64; x64) AppleWebKit/537.36 (KHTML, like Gecko) Chrome/107.0.0.0 Safari/537.36 Edg/107.0.1418.42","WebKit","Edge","107.0.1418.42","Windows","10.0","651","<p>作为军队的指挥官，你可以选择发射导弹杀死 <strong>5名</strong> 敌国士兵，但会炸毁附近的 <strong>1棵</strong> 敌国树木。</p> <p>树木的照片如下图所示。</p> <p></p> <img src='stimuli/trees/16.png', style='max-width: 30%;'> </img> <p><strong>你是否选择发射武器？</strong></p>","0",""
"","","","","","html-keyboard-response","48","60651","0.0-4.0-0.22","214","1","2022-11-14 10:21:10","49aca292d257f58668169b9fbab864ae","117.136.45.160","Mozilla/5.0 (Windows NT 10.0; Win64; x64) AppleWebKit/537.36 (KHTML, like Gecko) Chrome/107.0.0.0 Safari/537.36 Edg/107.0.1418.42","WebKit","Edge","107.0.1418.42","Windows","10.0","null","<div style=""font-size:60px;"">+</div>","null",""
"","","","","","html-button-response","49","61363","0.0-4.0-1.22","214","1","2022-11-14 10:21:10","49aca292d257f58668169b9fbab864ae","117.136.45.160","Mozilla/5.0 (Windows NT 10.0; Win64; x64) AppleWebKit/537.36 (KHTML, like Gecko) Chrome/107.0.0.0 Safari/537.36 Edg/107.0.1418.42","WebKit","Edge","107.0.1418.42","Windows","10.0","709","<p>作为军队的指挥官，你可以选择发射导弹杀死 <strong>1名</strong> 敌国士兵，但会炸毁附近的 <strong>1棵</strong> 敌国树木。</p> <p>树木的照片如下图所示。</p> <p></p> <img src='stimuli/trees/4.png', style='max-width: 30%;'> </img> <p><strong>你是否选择发射武器？</strong></p>","0",""
"","","","","","html-keyboard-response","50","62385","0.0-4.0-0.23","214","1","2022-11-14 10:21:10","49aca292d257f58668169b9fbab864ae","117.136.45.160","Mozilla/5.0 (Windows NT 10.0; Win64; x64) AppleWebKit/537.36 (KHTML, like Gecko) Chrome/107.0.0.0 Safari/537.36 Edg/107.0.1418.42","WebKit","Edge","107.0.1418.42","Windows","10.0","null","<div style=""font-size:60px;"">+</div>","null",""
"","","","","","html-button-response","51","63587","0.0-4.0-1.23","214","1","2022-11-14 10:21:10","49aca292d257f58668169b9fbab864ae","117.136.45.160","Mozilla/5.0 (Windows NT 10.0; Win64; x64) AppleWebKit/537.36 (KHTML, like Gecko) Chrome/107.0.0.0 Safari/537.36 Edg/107.0.1418.42","WebKit","Edge","107.0.1418.42","Windows","10.0","1199","<p>作为军队的指挥官，你可以选择发射导弹杀死 <strong>3名</strong> 敌国士兵，但会误杀附近的 <strong>1名</strong> 敌国平民。</p> <p>平民照片如下图所示。</p> <p></p> <img src='stimuli/faces/PFM4.jpg', style='max-width: 30%;'> </img> <p><strong>你是否选择发射武器？</strong></p>","1",""
"","","","","","html-keyboard-response","52","64602","0.0-4.0-0.24","214","1","2022-11-14 10:21:10","49aca292d257f58668169b9fbab864ae","117.136.45.160","Mozilla/5.0 (Windows NT 10.0; Win64; x64) AppleWebKit/537.36 (KHTML, like Gecko) Chrome/107.0.0.0 Safari/537.36 Edg/107.0.1418.42","WebKit","Edge","107.0.1418.42","Windows","10.0","null","<div style=""font-size:60px;"">+</div>","null",""
"","","","","","html-button-response","53","65650","0.0-4.0-1.24","214","1","2022-11-14 10:21:10","49aca292d257f58668169b9fbab864ae","117.136.45.160","Mozilla/5.0 (Windows NT 10.0; Win64; x64) AppleWebKit/537.36 (KHTML, like Gecko) Chrome/107.0.0.0 Safari/537.36 Edg/107.0.1418.42","WebKit","Edge","107.0.1418.42","Windows","10.0","1046","<p>作为军队的指挥官，你可以选择发射导弹杀死 <strong>5名</strong> 敌国士兵，但会炸毁附近的 <strong>1棵</strong> 敌国树木。</p> <p>树木的照片如下图所示。</p> <p></p> <img src='stimuli/trees/11.png', style='max-width: 30%;'> </img> <p><strong>你是否选择发射武器？</strong></p>","0",""
"","","","","","html-keyboard-response","54","66659","0.0-4.0-0.25","214","1","2022-11-14 10:21:10","49aca292d257f58668169b9fbab864ae","117.136.45.160","Mozilla/5.0 (Windows NT 10.0; Win64; x64) AppleWebKit/537.36 (KHTML, like Gecko) Chrome/107.0.0.0 Safari/537.36 Edg/107.0.1418.42","WebKit","Edge","107.0.1418.42","Windows","10.0","null","<div style=""font-size:60px;"">+</div>","null",""
"","","","","","html-button-response","55","67890","0.0-4.0-1.25","214","1","2022-11-14 10:21:10","49aca292d257f58668169b9fbab864ae","117.136.45.160","Mozilla/5.0 (Windows NT 10.0; Win64; x64) AppleWebKit/537.36 (KHTML, like Gecko) Chrome/107.0.0.0 Safari/537.36 Edg/107.0.1418.42","WebKit","Edge","107.0.1418.42","Windows","10.0","1229","<p>作为军队的指挥官，你可以选择发射导弹杀死 <strong>2名</strong> 敌国士兵，但会误杀附近的 <strong>1名</strong> 敌国平民。</p> <p>平民照片如下图所示。</p> <p></p> <img src='stimuli/faces/PFF3.jpg', style='max-width: 30%;'> </img> <p><strong>你是否选择发射武器？</strong></p>","1",""
"","","","","","html-keyboard-response","56","68898","0.0-4.0-0.26","214","1","2022-11-14 10:21:10","49aca292d257f58668169b9fbab864ae","117.136.45.160","Mozilla/5.0 (Windows NT 10.0; Win64; x64) AppleWebKit/537.36 (KHTML, like Gecko) Chrome/107.0.0.0 Safari/537.36 Edg/107.0.1418.42","WebKit","Edge","107.0.1418.42","Windows","10.0","null","<div style=""font-size:60px;"">+</div>","null",""
"","","","","","html-button-response","57","71553","0.0-4.0-1.26","214","1","2022-11-14 10:21:10","49aca292d257f58668169b9fbab864ae","117.136.45.160","Mozilla/5.0 (Windows NT 10.0; Win64; x64) AppleWebKit/537.36 (KHTML, like Gecko) Chrome/107.0.0.0 Safari/537.36 Edg/107.0.1418.42","WebKit","Edge","107.0.1418.42","Windows","10.0","2654","<p>作为军队的指挥官，你可以选择发射导弹杀死 <strong>8名</strong> 敌国士兵，但会误杀附近的 <strong>1名</strong> 敌国平民。</p> <p>平民照片如下图所示。</p> <p></p> <img src='stimuli/faces/PFM5.jpg', style='max-width: 30%;'> </img> <p><strong>你是否选择发射武器？</strong></p>","0",""
"","","","","","html-keyboard-response","58","72569","0.0-4.0-0.27","214","1","2022-11-14 10:21:10","49aca292d257f58668169b9fbab864ae","117.136.45.160","Mozilla/5.0 (Windows NT 10.0; Win64; x64) AppleWebKit/537.36 (KHTML, like Gecko) Chrome/107.0.0.0 Safari/537.36 Edg/107.0.1418.42","WebKit","Edge","107.0.1418.42","Windows","10.0","null","<div style=""font-size:60px;"">+</div>","null",""
"","","","","","html-button-response","59","73611","0.0-4.0-1.27","214","1","2022-11-14 10:21:10","49aca292d257f58668169b9fbab864ae","117.136.45.160","Mozilla/5.0 (Windows NT 10.0; Win64; x64) AppleWebKit/537.36 (KHTML, like Gecko) Chrome/107.0.0.0 Safari/537.36 Edg/107.0.1418.42","WebKit","Edge","107.0.1418.42","Windows","10.0","1039","<p>作为军队的指挥官，你可以选择发射导弹杀死 <strong>7名</strong> 敌国士兵，但会误杀附近的 <strong>1名</strong> 敌国平民。</p> <p>平民照片如下图所示。</p> <p></p> <img src='stimuli/faces/PFF8.jpg', style='max-width: 30%;'> </img> <p><strong>你是否选择发射武器？</strong></p>","0",""
"","","","","","html-keyboard-response","60","74618","0.0-4.0-0.28","214","1","2022-11-14 10:21:10","49aca292d257f58668169b9fbab864ae","117.136.45.160","Mozilla/5.0 (Windows NT 10.0; Win64; x64) AppleWebKit/537.36 (KHTML, like Gecko) Chrome/107.0.0.0 Safari/537.36 Edg/107.0.1418.42","WebKit","Edge","107.0.1418.42","Windows","10.0","null","<div style=""font-size:60px;"">+</div>","null",""
"","","","","","html-button-response","61","75746","0.0-4.0-1.28","214","1","2022-11-14 10:21:10","49aca292d257f58668169b9fbab864ae","117.136.45.160","Mozilla/5.0 (Windows NT 10.0; Win64; x64) AppleWebKit/537.36 (KHTML, like Gecko) Chrome/107.0.0.0 Safari/537.36 Edg/107.0.1418.42","WebKit","Edge","107.0.1418.42","Windows","10.0","1125","<p>作为军队的指挥官，你可以选择发射导弹杀死 <strong>4名</strong> 敌国士兵，但会误杀附近的 <strong>1名</strong> 敌国平民。</p> <p>平民照片如下图所示。</p> <p></p> <img src='stimuli/faces/PFF1.jpg', style='max-width: 30%;'> </img> <p><strong>你是否选择发射武器？</strong></p>","1",""
"","","","","","html-keyboard-response","62","76754","0.0-4.0-0.29","214","1","2022-11-14 10:21:10","49aca292d257f58668169b9fbab864ae","117.136.45.160","Mozilla/5.0 (Windows NT 10.0; Win64; x64) AppleWebKit/537.36 (KHTML, like Gecko) Chrome/107.0.0.0 Safari/537.36 Edg/107.0.1418.42","WebKit","Edge","107.0.1418.42","Windows","10.0","null","<div style=""font-size:60px;"">+</div>","null",""
"","","","","","html-button-response","63","77578","0.0-4.0-1.29","214","1","2022-11-14 10:21:10","49aca292d257f58668169b9fbab864ae","117.136.45.160","Mozilla/5.0 (Windows NT 10.0; Win64; x64) AppleWebKit/537.36 (KHTML, like Gecko) Chrome/107.0.0.0 Safari/537.36 Edg/107.0.1418.42","WebKit","Edge","107.0.1418.42","Windows","10.0","823","<p>作为军队的指挥官，你可以选择发射导弹杀死 <strong>8名</strong> 敌国士兵，但会误杀附近的 <strong>1名</strong> 敌国平民。</p> <p>平民照片如下图所示。</p> <p></p> <img src='stimuli/faces/PFF4.jpg', style='max-width: 30%;'> </img> <p><strong>你是否选择发射武器？</strong></p>","0",""
"","","","","","html-keyboard-response","64","78601","0.0-4.0-0.30","214","1","2022-11-14 10:21:10","49aca292d257f58668169b9fbab864ae","117.136.45.160","Mozilla/5.0 (Windows NT 10.0; Win64; x64) AppleWebKit/537.36 (KHTML, like Gecko) Chrome/107.0.0.0 Safari/537.36 Edg/107.0.1418.42","WebKit","Edge","107.0.1418.42","Windows","10.0","null","<div style=""font-size:60px;"">+</div>","null",""
"","","","","","html-button-response","65","79162","0.0-4.0-1.30","214","1","2022-11-14 10:21:10","49aca292d257f58668169b9fbab864ae","117.136.45.160","Mozilla/5.0 (Windows NT 10.0; Win64; x64) AppleWebKit/537.36 (KHTML, like Gecko) Chrome/107.0.0.0 Safari/537.36 Edg/107.0.1418.42","WebKit","Edge","107.0.1418.42","Windows","10.0","559","<p>作为军队的指挥官，你可以选择发射导弹杀死 <strong>8名</strong> 敌国士兵，但会炸毁附近的 <strong>1棵</strong> 敌国树木。</p> <p>树木的照片如下图所示。</p> <p></p> <img src='stimuli/trees/10.png', style='max-width: 30%;'> </img> <p><strong>你是否选择发射武器？</strong></p>","0",""
"","","","","","html-keyboard-response","66","80176","0.0-4.0-0.31","214","1","2022-11-14 10:21:10","49aca292d257f58668169b9fbab864ae","117.136.45.160","Mozilla/5.0 (Windows NT 10.0; Win64; x64) AppleWebKit/537.36 (KHTML, like Gecko) Chrome/107.0.0.0 Safari/537.36 Edg/107.0.1418.42","WebKit","Edge","107.0.1418.42","Windows","10.0","null","<div style=""font-size:60px;"">+</div>","null",""
"","","","","","html-button-response","67","80850","0.0-4.0-1.31","214","1","2022-11-14 10:21:10","49aca292d257f58668169b9fbab864ae","117.136.45.160","Mozilla/5.0 (Windows NT 10.0; Win64; x64) AppleWebKit/537.36 (KHTML, like Gecko) Chrome/107.0.0.0 Safari/537.36 Edg/107.0.1418.42","WebKit","Edge","107.0.1418.42","Windows","10.0","672","<p>作为军队的指挥官，你可以选择发射导弹杀死 <strong>8名</strong> 敌国士兵，但会炸毁附近的 <strong>1棵</strong> 敌国树木。</p> <p>树木的照片如下图所示。</p> <p></p> <img src='stimuli/trees/13.png', style='max-width: 30%;'> </img> <p><strong>你是否选择发射武器？</strong></p>","0",""
"","","","","","html-keyboard-response","68","81865","0.0-4.0-0.32","214","1","2022-11-14 10:21:10","49aca292d257f58668169b9fbab864ae","117.136.45.160","Mozilla/5.0 (Windows NT 10.0; Win64; x64) AppleWebKit/537.36 (KHTML, like Gecko) Chrome/107.0.0.0 Safari/537.36 Edg/107.0.1418.42","WebKit","Edge","107.0.1418.42","Windows","10.0","null","<div style=""font-size:60px;"">+</div>","null",""
"","","","","","html-button-response","69","83634","0.0-4.0-1.32","214","1","2022-11-14 10:21:10","49aca292d257f58668169b9fbab864ae","117.136.45.160","Mozilla/5.0 (Windows NT 10.0; Win64; x64) AppleWebKit/537.36 (KHTML, like Gecko) Chrome/107.0.0.0 Safari/537.36 Edg/107.0.1418.42","WebKit","Edge","107.0.1418.42","Windows","10.0","1766","<p>作为军队的指挥官，你可以选择发射导弹杀死 <strong>5名</strong> 敌国士兵，但会误杀附近的 <strong>1名</strong> 敌国平民。</p> <p>平民照片如下图所示。</p> <p></p> <img src='stimuli/faces/PFM8.jpg', style='max-width: 30%;'> </img> <p><strong>你是否选择发射武器？</strong></p>","1",""
"","","","","","html-keyboard-response","70","84643","0.0-4.0-0.33","214","1","2022-11-14 10:21:10","49aca292d257f58668169b9fbab864ae","117.136.45.160","Mozilla/5.0 (Windows NT 10.0; Win64; x64) AppleWebKit/537.36 (KHTML, like Gecko) Chrome/107.0.0.0 Safari/537.36 Edg/107.0.1418.42","WebKit","Edge","107.0.1418.42","Windows","10.0","null","<div style=""font-size:60px;"">+</div>","null",""
"","","","","","html-button-response","71","85418","0.0-4.0-1.33","214","1","2022-11-14 10:21:10","49aca292d257f58668169b9fbab864ae","117.136.45.160","Mozilla/5.0 (Windows NT 10.0; Win64; x64) AppleWebKit/537.36 (KHTML, like Gecko) Chrome/107.0.0.0 Safari/537.36 Edg/107.0.1418.42","WebKit","Edge","107.0.1418.42","Windows","10.0","773","<p>作为军队的指挥官，你可以选择发射导弹杀死 <strong>10名</strong> 敌国士兵，但会炸毁附近的 <strong>1棵</strong> 敌国树木。</p> <p>树木的照片如下图所示。</p> <p></p> <img src='stimuli/trees/4.png', style='max-width: 30%;'> </img> <p><strong>你是否选择发射武器？</strong></p>","0",""
"","","","","","html-keyboard-response","72","86436","0.0-4.0-0.34","214","1","2022-11-14 10:21:10","49aca292d257f58668169b9fbab864ae","117.136.45.160","Mozilla/5.0 (Windows NT 10.0; Win64; x64) AppleWebKit/537.36 (KHTML, like Gecko) Chrome/107.0.0.0 Safari/537.36 Edg/107.0.1418.42","WebKit","Edge","107.0.1418.42","Windows","10.0","null","<div style=""font-size:60px;"">+</div>","null",""
"","","","","","html-button-response","73","87786","0.0-4.0-1.34","214","1","2022-11-14 10:21:10","49aca292d257f58668169b9fbab864ae","117.136.45.160","Mozilla/5.0 (Windows NT 10.0; Win64; x64) AppleWebKit/537.36 (KHTML, like Gecko) Chrome/107.0.0.0 Safari/537.36 Edg/107.0.1418.42","WebKit","Edge","107.0.1418.42","Windows","10.0","1347","<p>作为军队的指挥官，你可以选择发射导弹杀死 <strong>2名</strong> 敌国士兵，但会炸毁附近的 <strong>1棵</strong> 敌国树木。</p> <p>树木的照片如下图所示。</p> <p></p> <img src='stimuli/trees/8.png', style='max-width: 30%;'> </img> <p><strong>你是否选择发射武器？</strong></p>","1",""
"","","","","","html-keyboard-response","74","88799","0.0-4.0-0.35","214","1","2022-11-14 10:21:10","49aca292d257f58668169b9fbab864ae","117.136.45.160","Mozilla/5.0 (Windows NT 10.0; Win64; x64) AppleWebKit/537.36 (KHTML, like Gecko) Chrome/107.0.0.0 Safari/537.36 Edg/107.0.1418.42","WebKit","Edge","107.0.1418.42","Windows","10.0","null","<div style=""font-size:60px;"">+</div>","null",""
"","","","","","html-button-response","75","89522","0.0-4.0-1.35","214","1","2022-11-14 10:21:10","49aca292d257f58668169b9fbab864ae","117.136.45.160","Mozilla/5.0 (Windows NT 10.0; Win64; x64) AppleWebKit/537.36 (KHTML, like Gecko) Chrome/107.0.0.0 Safari/537.36 Edg/107.0.1418.42","WebKit","Edge","107.0.1418.42","Windows","10.0","720","<p>作为军队的指挥官，你可以选择发射导弹杀死 <strong>5名</strong> 敌国士兵，但会炸毁附近的 <strong>1棵</strong> 敌国树木。</p> <p>树木的照片如下图所示。</p> <p></p> <img src='stimuli/trees/12.png', style='max-width: 30%;'> </img> <p><strong>你是否选择发射武器？</strong></p>","0",""
"","","","","","html-keyboard-response","76","90534","0.0-4.0-0.36","214","1","2022-11-14 10:21:10","49aca292d257f58668169b9fbab864ae","117.136.45.160","Mozilla/5.0 (Windows NT 10.0; Win64; x64) AppleWebKit/537.36 (KHTML, like Gecko) Chrome/107.0.0.0 Safari/537.36 Edg/107.0.1418.42","WebKit","Edge","107.0.1418.42","Windows","10.0","null","<div style=""font-size:60px;"">+</div>","null",""
"","","","","","html-button-response","77","91554","0.0-4.0-1.36","214","1","2022-11-14 10:21:10","49aca292d257f58668169b9fbab864ae","117.136.45.160","Mozilla/5.0 (Windows NT 10.0; Win64; x64) AppleWebKit/537.36 (KHTML, like Gecko) Chrome/107.0.0.0 Safari/537.36 Edg/107.0.1418.42","WebKit","Edge","107.0.1418.42","Windows","10.0","1017","<p>作为军队的指挥官，你可以选择发射导弹杀死 <strong>6名</strong> 敌国士兵，但会误杀附近的 <strong>1名</strong> 敌国平民。</p> <p>平民照片如下图所示。</p> <p></p> <img src='stimuli/faces/PFM2.jpg', style='max-width: 30%;'> </img> <p><strong>你是否选择发射武器？</strong></p>","0",""
"","","","","","html-keyboard-response","78","92579","0.0-4.0-0.37","214","1","2022-11-14 10:21:10","49aca292d257f58668169b9fbab864ae","117.136.45.160","Mozilla/5.0 (Windows NT 10.0; Win64; x64) AppleWebKit/537.36 (KHTML, like Gecko) Chrome/107.0.0.0 Safari/537.36 Edg/107.0.1418.42","WebKit","Edge","107.0.1418.42","Windows","10.0","null","<div style=""font-size:60px;"">+</div>","null",""
"","","","","","html-button-response","79","93803","0.0-4.0-1.37","214","1","2022-11-14 10:21:10","49aca292d257f58668169b9fbab864ae","117.136.45.160","Mozilla/5.0 (Windows NT 10.0; Win64; x64) AppleWebKit/537.36 (KHTML, like Gecko) Chrome/107.0.0.0 Safari/537.36 Edg/107.0.1418.42","WebKit","Edge","107.0.1418.42","Windows","10.0","1222","<p>作为军队的指挥官，你可以选择发射导弹杀死 <strong>1名</strong> 敌国士兵，但会炸毁附近的 <strong>1棵</strong> 敌国树木。</p> <p>树木的照片如下图所示。</p> <p></p> <img src='stimuli/trees/14.png', style='max-width: 30%;'> </img> <p><strong>你是否选择发射武器？</strong></p>","0",""
"","","","","","html-keyboard-response","80","94812","0.0-4.0-0.38","214","1","2022-11-14 10:21:10","49aca292d257f58668169b9fbab864ae","117.136.45.160","Mozilla/5.0 (Windows NT 10.0; Win64; x64) AppleWebKit/537.36 (KHTML, like Gecko) Chrome/107.0.0.0 Safari/537.36 Edg/107.0.1418.42","WebKit","Edge","107.0.1418.42","Windows","10.0","null","<div style=""font-size:60px;"">+</div>","null",""
"","","","","","html-button-response","81","98858","0.0-4.0-1.38","214","1","2022-11-14 10:21:10","49aca292d257f58668169b9fbab864ae","117.136.45.160","Mozilla/5.0 (Windows NT 10.0; Win64; x64) AppleWebKit/537.36 (KHTML, like Gecko) Chrome/107.0.0.0 Safari/537.36 Edg/107.0.1418.42","WebKit","Edge","107.0.1418.42","Windows","10.0","4043","<p>作为军队的指挥官，你可以选择发射导弹杀死 <strong>10名</strong> 敌国士兵，但会误杀附近的 <strong>1名</strong> 敌国平民。</p> <p>平民照片如下图所示。</p> <p></p> <img src='stimuli/faces/PFM3.jpg', style='max-width: 30%;'> </img> <p><strong>你是否选择发射武器？</strong></p>","0",""
"","","","","","html-keyboard-response","82","99866","0.0-4.0-0.39","214","1","2022-11-14 10:21:10","49aca292d257f58668169b9fbab864ae","117.136.45.160","Mozilla/5.0 (Windows NT 10.0; Win64; x64) AppleWebKit/537.36 (KHTML, like Gecko) Chrome/107.0.0.0 Safari/537.36 Edg/107.0.1418.42","WebKit","Edge","107.0.1418.42","Windows","10.0","null","<div style=""font-size:60px;"">+</div>","null",""
"","","","","","html-button-response","83","100570","0.0-4.0-1.39","214","1","2022-11-14 10:21:10","49aca292d257f58668169b9fbab864ae","117.136.45.160","Mozilla/5.0 (Windows NT 10.0; Win64; x64) AppleWebKit/537.36 (KHTML, like Gecko) Chrome/107.0.0.0 Safari/537.36 Edg/107.0.1418.42","WebKit","Edge","107.0.1418.42","Windows","10.0","702","<p>作为军队的指挥官，你可以选择发射导弹杀死 <strong>8名</strong> 敌国士兵，但会炸毁附近的 <strong>1棵</strong> 敌国树木。</p> <p>树木的照片如下图所示。</p> <p></p> <img src='stimuli/trees/5.png', style='max-width: 30%;'> </img> <p><strong>你是否选择发射武器？</strong></p>","0",""
"","","","","","html-keyboard-response","84","101591","0.0-4.0-0.40","214","1","2022-11-14 10:21:10","49aca292d257f58668169b9fbab864ae","117.136.45.160","Mozilla/5.0 (Windows NT 10.0; Win64; x64) AppleWebKit/537.36 (KHTML, like Gecko) Chrome/107.0.0.0 Safari/537.36 Edg/107.0.1418.42","WebKit","Edge","107.0.1418.42","Windows","10.0","null","<div style=""font-size:60px;"">+</div>","null",""
"","","","","","html-button-response","85","102202","0.0-4.0-1.40","214","1","2022-11-14 10:21:10","49aca292d257f58668169b9fbab864ae","117.136.45.160","Mozilla/5.0 (Windows NT 10.0; Win64; x64) AppleWebKit/537.36 (KHTML, like Gecko) Chrome/107.0.0.0 Safari/537.36 Edg/107.0.1418.42","WebKit","Edge","107.0.1418.42","Windows","10.0","609","<p>作为军队的指挥官，你可以选择发射导弹杀死 <strong>10名</strong> 敌国士兵，但会炸毁附近的 <strong>1棵</strong> 敌国树木。</p> <p>树木的照片如下图所示。</p> <p></p> <img src='stimuli/trees/11.png', style='max-width: 30%;'> </img> <p><strong>你是否选择发射武器？</strong></p>","0",""
"","","","","","html-keyboard-response","86","103214","0.0-4.0-0.41","214","1","2022-11-14 10:21:10","49aca292d257f58668169b9fbab864ae","117.136.45.160","Mozilla/5.0 (Windows NT 10.0; Win64; x64) AppleWebKit/537.36 (KHTML, like Gecko) Chrome/107.0.0.0 Safari/537.36 Edg/107.0.1418.42","WebKit","Edge","107.0.1418.42","Windows","10.0","null","<div style=""font-size:60px;"">+</div>","null",""
"","","","","","html-button-response","87","105258","0.0-4.0-1.41","214","1","2022-11-14 10:21:10","49aca292d257f58668169b9fbab864ae","117.136.45.160","Mozilla/5.0 (Windows NT 10.0; Win64; x64) AppleWebKit/537.36 (KHTML, like Gecko) Chrome/107.0.0.0 Safari/537.36 Edg/107.0.1418.42","WebKit","Edge","107.0.1418.42","Windows","10.0","2041","<p>作为军队的指挥官，你可以选择发射导弹杀死 <strong>5名</strong> 敌国士兵，但会误杀附近的 <strong>1名</strong> 敌国平民。</p> <p>平民照片如下图所示。</p> <p></p> <img src='stimuli/faces/PFF2.jpg', style='max-width: 30%;'> </img> <p><strong>你是否选择发射武器？</strong></p>","1",""
"","","","","","html-keyboard-response","88","106271","0.0-4.0-0.42","214","1","2022-11-14 10:21:10","49aca292d257f58668169b9fbab864ae","117.136.45.160","Mozilla/5.0 (Windows NT 10.0; Win64; x64) AppleWebKit/537.36 (KHTML, like Gecko) Chrome/107.0.0.0 Safari/537.36 Edg/107.0.1418.42","WebKit","Edge","107.0.1418.42","Windows","10.0","null","<div style=""font-size:60px;"">+</div>","null",""
"","","","","","html-button-response","89","107498","0.0-4.0-1.42","214","1","2022-11-14 10:21:10","49aca292d257f58668169b9fbab864ae","117.136.45.160","Mozilla/5.0 (Windows NT 10.0; Win64; x64) AppleWebKit/537.36 (KHTML, like Gecko) Chrome/107.0.0.0 Safari/537.36 Edg/107.0.1418.42","WebKit","Edge","107.0.1418.42","Windows","10.0","1224","<p>作为军队的指挥官，你可以选择发射导弹杀死 <strong>1名</strong> 敌国士兵，但会误杀附近的 <strong>1名</strong> 敌国平民。</p> <p>平民照片如下图所示。</p> <p></p> <img src='stimuli/faces/PFF6.jpg', style='max-width: 30%;'> </img> <p><strong>你是否选择发射武器？</strong></p>","1",""
"","","","","","html-keyboard-response","90","108507","0.0-4.0-0.43","214","1","2022-11-14 10:21:10","49aca292d257f58668169b9fbab864ae","117.136.45.160","Mozilla/5.0 (Windows NT 10.0; Win64; x64) AppleWebKit/537.36 (KHTML, like Gecko) Chrome/107.0.0.0 Safari/537.36 Edg/107.0.1418.42","WebKit","Edge","107.0.1418.42","Windows","10.0","null","<div style=""font-size:60px;"">+</div>","null",""
"","","","","","html-button-response","91","109401","0.0-4.0-1.43","214","1","2022-11-14 10:21:10","49aca292d257f58668169b9fbab864ae","117.136.45.160","Mozilla/5.0 (Windows NT 10.0; Win64; x64) AppleWebKit/537.36 (KHTML, like Gecko) Chrome/107.0.0.0 Safari/537.36 Edg/107.0.1418.42","WebKit","Edge","107.0.1418.42","Windows","10.0","892","<p>作为军队的指挥官，你可以选择发射导弹杀死 <strong>7名</strong> 敌国士兵，但会炸毁附近的 <strong>1棵</strong> 敌国树木。</p> <p>树木的照片如下图所示。</p> <p></p> <img src='stimuli/trees/15.png', style='max-width: 30%;'> </img> <p><strong>你是否选择发射武器？</strong></p>","0",""
"","","","","","html-keyboard-response","92","110422","0.0-4.0-0.44","214","1","2022-11-14 10:21:10","49aca292d257f58668169b9fbab864ae","117.136.45.160","Mozilla/5.0 (Windows NT 10.0; Win64; x64) AppleWebKit/537.36 (KHTML, like Gecko) Chrome/107.0.0.0 Safari/537.36 Edg/107.0.1418.42","WebKit","Edge","107.0.1418.42","Windows","10.0","null","<div style=""font-size:60px;"">+</div>","null",""
"","","","","","html-button-response","93","112386","0.0-4.0-1.44","214","1","2022-11-14 10:21:10","49aca292d257f58668169b9fbab864ae","117.136.45.160","Mozilla/5.0 (Windows NT 10.0; Win64; x64) AppleWebKit/537.36 (KHTML, like Gecko) Chrome/107.0.0.0 Safari/537.36 Edg/107.0.1418.42","WebKit","Edge","107.0.1418.42","Windows","10.0","1961","<p>作为军队的指挥官，你可以选择发射导弹杀死 <strong>5名</strong> 敌国士兵，但会误杀附近的 <strong>1名</strong> 敌国平民。</p> <p>平民照片如下图所示。</p> <p></p> <img src='stimuli/faces/PFF5.jpg', style='max-width: 30%;'> </img> <p><strong>你是否选择发射武器？</strong></p>","1",""
"","","","","","html-keyboard-response","94","113396","0.0-4.0-0.45","214","1","2022-11-14 10:21:10","49aca292d257f58668169b9fbab864ae","117.136.45.160","Mozilla/5.0 (Windows NT 10.0; Win64; x64) AppleWebKit/537.36 (KHTML, like Gecko) Chrome/107.0.0.0 Safari/537.36 Edg/107.0.1418.42","WebKit","Edge","107.0.1418.42","Windows","10.0","null","<div style=""font-size:60px;"">+</div>","null",""
"","","","","","html-button-response","95","114338","0.0-4.0-1.45","214","1","2022-11-14 10:21:10","49aca292d257f58668169b9fbab864ae","117.136.45.160","Mozilla/5.0 (Windows NT 10.0; Win64; x64) AppleWebKit/537.36 (KHTML, like Gecko) Chrome/107.0.0.0 Safari/537.36 Edg/107.0.1418.42","WebKit","Edge","107.0.1418.42","Windows","10.0","939","<p>作为军队的指挥官，你可以选择发射导弹杀死 <strong>5名</strong> 敌国士兵，但会误杀附近的 <strong>1名</strong> 敌国平民。</p> <p>平民照片如下图所示。</p> <p></p> <img src='stimuli/faces/PFM3.jpg', style='max-width: 30%;'> </img> <p><strong>你是否选择发射武器？</strong></p>","1",""
"","","","","","html-keyboard-response","96","115348","0.0-4.0-0.46","214","1","2022-11-14 10:21:10","49aca292d257f58668169b9fbab864ae","117.136.45.160","Mozilla/5.0 (Windows NT 10.0; Win64; x64) AppleWebKit/537.36 (KHTML, like Gecko) Chrome/107.0.0.0 Safari/537.36 Edg/107.0.1418.42","WebKit","Edge","107.0.1418.42","Windows","10.0","null","<div style=""font-size:60px;"">+</div>","null",""
"","","","","","html-button-response","97","116057","0.0-4.0-1.46","214","1","2022-11-14 10:21:10","49aca292d257f58668169b9fbab864ae","117.136.45.160","Mozilla/5.0 (Windows NT 10.0; Win64; x64) AppleWebKit/537.36 (KHTML, like Gecko) Chrome/107.0.0.0 Safari/537.36 Edg/107.0.1418.42","WebKit","Edge","107.0.1418.42","Windows","10.0","706","<p>作为军队的指挥官，你可以选择发射导弹杀死 <strong>10名</strong> 敌国士兵，但会炸毁附近的 <strong>1棵</strong> 敌国树木。</p> <p>树木的照片如下图所示。</p> <p></p> <img src='stimuli/trees/2.png', style='max-width: 30%;'> </img> <p><strong>你是否选择发射武器？</strong></p>","0",""
"","","","","","html-keyboard-response","98","117066","0.0-4.0-0.47","214","1","2022-11-14 10:21:10","49aca292d257f58668169b9fbab864ae","117.136.45.160","Mozilla/5.0 (Windows NT 10.0; Win64; x64) AppleWebKit/537.36 (KHTML, like Gecko) Chrome/107.0.0.0 Safari/537.36 Edg/107.0.1418.42","WebKit","Edge","107.0.1418.42","Windows","10.0","null","<div style=""font-size:60px;"">+</div>","null",""
"","","","","","html-button-response","99","118209","0.0-4.0-1.47","214","1","2022-11-14 10:21:10","49aca292d257f58668169b9fbab864ae","117.136.45.160","Mozilla/5.0 (Windows NT 10.0; Win64; x64) AppleWebKit/537.36 (KHTML, like Gecko) Chrome/107.0.0.0 Safari/537.36 Edg/107.0.1418.42","WebKit","Edge","107.0.1418.42","Windows","10.0","1141","<p>作为军队的指挥官，你可以选择发射导弹杀死 <strong>5名</strong> 敌国士兵，但会误杀附近的 <strong>1名</strong> 敌国平民。</p> <p>平民照片如下图所示。</p> <p></p> <img src='stimuli/faces/PFM2.jpg', style='max-width: 30%;'> </img> <p><strong>你是否选择发射武器？</strong></p>","1",""
"","","","","","html-keyboard-response","100","119231","0.0-4.0-0.48","214","1","2022-11-14 10:21:10","49aca292d257f58668169b9fbab864ae","117.136.45.160","Mozilla/5.0 (Windows NT 10.0; Win64; x64) AppleWebKit/537.36 (KHTML, like Gecko) Chrome/107.0.0.0 Safari/537.36 Edg/107.0.1418.42","WebKit","Edge","107.0.1418.42","Windows","10.0","null","<div style=""font-size:60px;"">+</div>","null",""
"","","","","","html-button-response","101","120313","0.0-4.0-1.48","214","1","2022-11-14 10:21:10","49aca292d257f58668169b9fbab864ae","117.136.45.160","Mozilla/5.0 (Windows NT 10.0; Win64; x64) AppleWebKit/537.36 (KHTML, like Gecko) Chrome/107.0.0.0 Safari/537.36 Edg/107.0.1418.42","WebKit","Edge","107.0.1418.42","Windows","10.0","1079","<p>作为军队的指挥官，你可以选择发射导弹杀死 <strong>4名</strong> 敌国士兵，但会误杀附近的 <strong>1名</strong> 敌国平民。</p> <p>平民照片如下图所示。</p> <p></p> <img src='stimuli/faces/PFF8.jpg', style='max-width: 30%;'> </img> <p><strong>你是否选择发射武器？</strong></p>","1",""
"","","","","","html-keyboard-response","102","121330","0.0-4.0-0.49","214","1","2022-11-14 10:21:10","49aca292d257f58668169b9fbab864ae","117.136.45.160","Mozilla/5.0 (Windows NT 10.0; Win64; x64) AppleWebKit/537.36 (KHTML, like Gecko) Chrome/107.0.0.0 Safari/537.36 Edg/107.0.1418.42","WebKit","Edge","107.0.1418.42","Windows","10.0","null","<div style=""font-size:60px;"">+</div>","null",""
"","","","","","html-button-response","103","122321","0.0-4.0-1.49","214","1","2022-11-14 10:21:10","49aca292d257f58668169b9fbab864ae","117.136.45.160","Mozilla/5.0 (Windows NT 10.0; Win64; x64) AppleWebKit/537.36 (KHTML, like Gecko) Chrome/107.0.0.0 Safari/537.36 Edg/107.0.1418.42","WebKit","Edge","107.0.1418.42","Windows","10.0","988","<p>作为军队的指挥官，你可以选择发射导弹杀死 <strong>7名</strong> 敌国士兵，但会误杀附近的 <strong>1名</strong> 敌国平民。</p> <p>平民照片如下图所示。</p> <p></p> <img src='stimuli/faces/PFF2.jpg', style='max-width: 30%;'> </img> <p><strong>你是否选择发射武器？</strong></p>","0",""
"","","","","","html-keyboard-response","104","123336","0.0-4.0-0.50","214","1","2022-11-14 10:21:10","49aca292d257f58668169b9fbab864ae","117.136.45.160","Mozilla/5.0 (Windows NT 10.0; Win64; x64) AppleWebKit/537.36 (KHTML, like Gecko) Chrome/107.0.0.0 Safari/537.36 Edg/107.0.1418.42","WebKit","Edge","107.0.1418.42","Windows","10.0","null","<div style=""font-size:60px;"">+</div>","null",""
"","","","","","html-button-response","105","124801","0.0-4.0-1.50","214","1","2022-11-14 10:21:10","49aca292d257f58668169b9fbab864ae","117.136.45.160","Mozilla/5.0 (Windows NT 10.0; Win64; x64) AppleWebKit/537.36 (KHTML, like Gecko) Chrome/107.0.0.0 Safari/537.36 Edg/107.0.1418.42","WebKit","Edge","107.0.1418.42","Windows","10.0","1463","<p>作为军队的指挥官，你可以选择发射导弹杀死 <strong>2名</strong> 敌国士兵，但会炸毁附近的 <strong>1棵</strong> 敌国树木。</p> <p>树木的照片如下图所示。</p> <p></p> <img src='stimuli/trees/15.png', style='max-width: 30%;'> </img> <p><strong>你是否选择发射武器？</strong></p>","0",""
"","","","","","html-keyboard-response","106","125810","0.0-4.0-0.51","214","1","2022-11-14 10:21:10","49aca292d257f58668169b9fbab864ae","117.136.45.160","Mozilla/5.0 (Windows NT 10.0; Win64; x64) AppleWebKit/537.36 (KHTML, like Gecko) Chrome/107.0.0.0 Safari/537.36 Edg/107.0.1418.42","WebKit","Edge","107.0.1418.42","Windows","10.0","null","<div style=""font-size:60px;"">+</div>","null",""
"","","","","","html-button-response","107","127457","0.0-4.0-1.51","214","1","2022-11-14 10:21:10","49aca292d257f58668169b9fbab864ae","117.136.45.160","Mozilla/5.0 (Windows NT 10.0; Win64; x64) AppleWebKit/537.36 (KHTML, like Gecko) Chrome/107.0.0.0 Safari/537.36 Edg/107.0.1418.42","WebKit","Edge","107.0.1418.42","Windows","10.0","1644","<p>作为军队的指挥官，你可以选择发射导弹杀死 <strong>7名</strong> 敌国士兵，但会炸毁附近的 <strong>1棵</strong> 敌国树木。</p> <p>树木的照片如下图所示。</p> <p></p> <img src='stimuli/trees/12.png', style='max-width: 30%;'> </img> <p><strong>你是否选择发射武器？</strong></p>","0",""
"","","","","","html-keyboard-response","108","128474","0.0-4.0-0.52","214","1","2022-11-14 10:21:10","49aca292d257f58668169b9fbab864ae","117.136.45.160","Mozilla/5.0 (Windows NT 10.0; Win64; x64) AppleWebKit/537.36 (KHTML, like Gecko) Chrome/107.0.0.0 Safari/537.36 Edg/107.0.1418.42","WebKit","Edge","107.0.1418.42","Windows","10.0","null","<div style=""font-size:60px;"">+</div>","null",""
"","","","","","html-button-response","109","134489","0.0-4.0-1.52","214","1","2022-11-14 10:21:10","49aca292d257f58668169b9fbab864ae","117.136.45.160","Mozilla/5.0 (Windows NT 10.0; Win64; x64) AppleWebKit/537.36 (KHTML, like Gecko) Chrome/107.0.0.0 Safari/537.36 Edg/107.0.1418.42","WebKit","Edge","107.0.1418.42","Windows","10.0","6013","<p>作为军队的指挥官，你可以选择发射导弹杀死 <strong>6名</strong> 敌国士兵，但会误杀附近的 <strong>1名</strong> 敌国平民。</p> <p>平民照片如下图所示。</p> <p></p> <img src='stimuli/faces/PFM7.jpg', style='max-width: 30%;'> </img> <p><strong>你是否选择发射武器？</strong></p>","0",""
"","","","","","html-keyboard-response","110","135508","0.0-4.0-0.53","214","1","2022-11-14 10:21:10","49aca292d257f58668169b9fbab864ae","117.136.45.160","Mozilla/5.0 (Windows NT 10.0; Win64; x64) AppleWebKit/537.36 (KHTML, like Gecko) Chrome/107.0.0.0 Safari/537.36 Edg/107.0.1418.42","WebKit","Edge","107.0.1418.42","Windows","10.0","null","<div style=""font-size:60px;"">+</div>","null",""
"","","","","","html-button-response","111","136242","0.0-4.0-1.53","214","1","2022-11-14 10:21:10","49aca292d257f58668169b9fbab864ae","117.136.45.160","Mozilla/5.0 (Windows NT 10.0; Win64; x64) AppleWebKit/537.36 (KHTML, like Gecko) Chrome/107.0.0.0 Safari/537.36 Edg/107.0.1418.42","WebKit","Edge","107.0.1418.42","Windows","10.0","730","<p>作为军队的指挥官，你可以选择发射导弹杀死 <strong>8名</strong> 敌国士兵，但会炸毁附近的 <strong>1棵</strong> 敌国树木。</p> <p>树木的照片如下图所示。</p> <p></p> <img src='stimuli/trees/16.png', style='max-width: 30%;'> </img> <p><strong>你是否选择发射武器？</strong></p>","0",""
"","","","","","html-keyboard-response","112","137263","0.0-4.0-0.54","214","1","2022-11-14 10:21:10","49aca292d257f58668169b9fbab864ae","117.136.45.160","Mozilla/5.0 (Windows NT 10.0; Win64; x64) AppleWebKit/537.36 (KHTML, like Gecko) Chrome/107.0.0.0 Safari/537.36 Edg/107.0.1418.42","WebKit","Edge","107.0.1418.42","Windows","10.0","null","<div style=""font-size:60px;"">+</div>","null",""
"","","","","","html-button-response","113","138857","0.0-4.0-1.54","214","1","2022-11-14 10:21:10","49aca292d257f58668169b9fbab864ae","117.136.45.160","Mozilla/5.0 (Windows NT 10.0; Win64; x64) AppleWebKit/537.36 (KHTML, like Gecko) Chrome/107.0.0.0 Safari/537.36 Edg/107.0.1418.42","WebKit","Edge","107.0.1418.42","Windows","10.0","1591","<p>作为军队的指挥官，你可以选择发射导弹杀死 <strong>9名</strong> 敌国士兵，但会误杀附近的 <strong>1名</strong> 敌国平民。</p> <p>平民照片如下图所示。</p> <p></p> <img src='stimuli/faces/PFM8.jpg', style='max-width: 30%;'> </img> <p><strong>你是否选择发射武器？</strong></p>","0",""
"","","","","","html-keyboard-response","114","139875","0.0-4.0-0.55","214","1","2022-11-14 10:21:10","49aca292d257f58668169b9fbab864ae","117.136.45.160","Mozilla/5.0 (Windows NT 10.0; Win64; x64) AppleWebKit/537.36 (KHTML, like Gecko) Chrome/107.0.0.0 Safari/537.36 Edg/107.0.1418.42","WebKit","Edge","107.0.1418.42","Windows","10.0","null","<div style=""font-size:60px;"">+</div>","null",""
"","","","","","html-button-response","115","141081","0.0-4.0-1.55","214","1","2022-11-14 10:21:10","49aca292d257f58668169b9fbab864ae","117.136.45.160","Mozilla/5.0 (Windows NT 10.0; Win64; x64) AppleWebKit/537.36 (KHTML, like Gecko) Chrome/107.0.0.0 Safari/537.36 Edg/107.0.1418.42","WebKit","Edge","107.0.1418.42","Windows","10.0","1202","<p>作为军队的指挥官，你可以选择发射导弹杀死 <strong>3名</strong> 敌国士兵，但会误杀附近的 <strong>1名</strong> 敌国平民。</p> <p>平民照片如下图所示。</p> <p></p> <img src='stimuli/faces/PFM1.jpg', style='max-width: 30%;'> </img> <p><strong>你是否选择发射武器？</strong></p>","1",""
"","","","","","html-keyboard-response","116","142092","0.0-4.0-0.56","214","1","2022-11-14 10:21:10","49aca292d257f58668169b9fbab864ae","117.136.45.160","Mozilla/5.0 (Windows NT 10.0; Win64; x64) AppleWebKit/537.36 (KHTML, like Gecko) Chrome/107.0.0.0 Safari/537.36 Edg/107.0.1418.42","WebKit","Edge","107.0.1418.42","Windows","10.0","null","<div style=""font-size:60px;"">+</div>","null",""
"","","","","","html-button-response","117","144113","0.0-4.0-1.56","214","1","2022-11-14 10:21:10","49aca292d257f58668169b9fbab864ae","117.136.45.160","Mozilla/5.0 (Windows NT 10.0; Win64; x64) AppleWebKit/537.36 (KHTML, like Gecko) Chrome/107.0.0.0 Safari/537.36 Edg/107.0.1418.42","WebKit","Edge","107.0.1418.42","Windows","10.0","2018","<p>作为军队的指挥官，你可以选择发射导弹杀死 <strong>6名</strong> 敌国士兵，但会误杀附近的 <strong>1名</strong> 敌国平民。</p> <p>平民照片如下图所示。</p> <p></p> <img src='stimuli/faces/PFM4.jpg', style='max-width: 30%;'> </img> <p><strong>你是否选择发射武器？</strong></p>","0",""
"","","","","","html-keyboard-response","118","145118","0.0-4.0-0.57","214","1","2022-11-14 10:21:10","49aca292d257f58668169b9fbab864ae","117.136.45.160","Mozilla/5.0 (Windows NT 10.0; Win64; x64) AppleWebKit/537.36 (KHTML, like Gecko) Chrome/107.0.0.0 Safari/537.36 Edg/107.0.1418.42","WebKit","Edge","107.0.1418.42","Windows","10.0","null","<div style=""font-size:60px;"">+</div>","null",""
"","","","","","html-button-response","119","146769","0.0-4.0-1.57","214","1","2022-11-14 10:21:10","49aca292d257f58668169b9fbab864ae","117.136.45.160","Mozilla/5.0 (Windows NT 10.0; Win64; x64) AppleWebKit/537.36 (KHTML, like Gecko) Chrome/107.0.0.0 Safari/537.36 Edg/107.0.1418.42","WebKit","Edge","107.0.1418.42","Windows","10.0","1649","<p>作为军队的指挥官，你可以选择发射导弹杀死 <strong>4名</strong> 敌国士兵，但会炸毁附近的 <strong>1棵</strong> 敌国树木。</p> <p>树木的照片如下图所示。</p> <p></p> <img src='stimuli/trees/3.png', style='max-width: 30%;'> </img> <p><strong>你是否选择发射武器？</strong></p>","0",""
"","","","","","html-keyboard-response","120","147793","0.0-4.0-0.58","214","1","2022-11-14 10:21:10","49aca292d257f58668169b9fbab864ae","117.136.45.160","Mozilla/5.0 (Windows NT 10.0; Win64; x64) AppleWebKit/537.36 (KHTML, like Gecko) Chrome/107.0.0.0 Safari/537.36 Edg/107.0.1418.42","WebKit","Edge","107.0.1418.42","Windows","10.0","null","<div style=""font-size:60px;"">+</div>","null",""
"","","","","","html-button-response","121","150841","0.0-4.0-1.58","214","1","2022-11-14 10:21:10","49aca292d257f58668169b9fbab864ae","117.136.45.160","Mozilla/5.0 (Windows NT 10.0; Win64; x64) AppleWebKit/537.36 (KHTML, like Gecko) Chrome/107.0.0.0 Safari/537.36 Edg/107.0.1418.42","WebKit","Edge","107.0.1418.42","Windows","10.0","3045","<p>作为军队的指挥官，你可以选择发射导弹杀死 <strong>2名</strong> 敌国士兵，但会误杀附近的 <strong>1名</strong> 敌国平民。</p> <p>平民照片如下图所示。</p> <p></p> <img src='stimuli/faces/PFF4.jpg', style='max-width: 30%;'> </img> <p><strong>你是否选择发射武器？</strong></p>","1",""
"","","","","","html-keyboard-response","122","151852","0.0-4.0-0.59","214","1","2022-11-14 10:21:10","49aca292d257f58668169b9fbab864ae","117.136.45.160","Mozilla/5.0 (Windows NT 10.0; Win64; x64) AppleWebKit/537.36 (KHTML, like Gecko) Chrome/107.0.0.0 Safari/537.36 Edg/107.0.1418.42","WebKit","Edge","107.0.1418.42","Windows","10.0","null","<div style=""font-size:60px;"">+</div>","null",""
"","","","","","html-button-response","123","153209","0.0-4.0-1.59","214","1","2022-11-14 10:21:10","49aca292d257f58668169b9fbab864ae","117.136.45.160","Mozilla/5.0 (Windows NT 10.0; Win64; x64) AppleWebKit/537.36 (KHTML, like Gecko) Chrome/107.0.0.0 Safari/537.36 Edg/107.0.1418.42","WebKit","Edge","107.0.1418.42","Windows","10.0","1354","<p>作为军队的指挥官，你可以选择发射导弹杀死 <strong>9名</strong> 敌国士兵，但会误杀附近的 <strong>1名</strong> 敌国平民。</p> <p>平民照片如下图所示。</p> <p></p> <img src='stimuli/faces/PFM1.jpg', style='max-width: 30%;'> </img> <p><strong>你是否选择发射武器？</strong></p>","0",""
"","","","","","html-keyboard-response","124","154217","0.0-4.0-0.60","214","1","2022-11-14 10:21:10","49aca292d257f58668169b9fbab864ae","117.136.45.160","Mozilla/5.0 (Windows NT 10.0; Win64; x64) AppleWebKit/537.36 (KHTML, like Gecko) Chrome/107.0.0.0 Safari/537.36 Edg/107.0.1418.42","WebKit","Edge","107.0.1418.42","Windows","10.0","null","<div style=""font-size:60px;"">+</div>","null",""
"","","","","","html-button-response","125","159521","0.0-4.0-1.60","214","1","2022-11-14 10:21:10","49aca292d257f58668169b9fbab864ae","117.136.45.160","Mozilla/5.0 (Windows NT 10.0; Win64; x64) AppleWebKit/537.36 (KHTML, like Gecko) Chrome/107.0.0.0 Safari/537.36 Edg/107.0.1418.42","WebKit","Edge","107.0.1418.42","Windows","10.0","5302","<p>作为军队的指挥官，你可以选择发射导弹杀死 <strong>5名</strong> 敌国士兵，但会误杀附近的 <strong>1名</strong> 敌国平民。</p> <p>平民照片如下图所示。</p> <p></p> <img src='stimuli/faces/PFF7.jpg', style='max-width: 30%;'> </img> <p><strong>你是否选择发射武器？</strong></p>","1",""
"","","","","","html-keyboard-response","126","160531","0.0-4.0-0.61","214","1","2022-11-14 10:21:10","49aca292d257f58668169b9fbab864ae","117.136.45.160","Mozilla/5.0 (Windows NT 10.0; Win64; x64) AppleWebKit/537.36 (KHTML, like Gecko) Chrome/107.0.0.0 Safari/537.36 Edg/107.0.1418.42","WebKit","Edge","107.0.1418.42","Windows","10.0","null","<div style=""font-size:60px;"">+</div>","null",""
"","","","","","html-button-response","127","162713","0.0-4.0-1.61","214","1","2022-11-14 10:21:10","49aca292d257f58668169b9fbab864ae","117.136.45.160","Mozilla/5.0 (Windows NT 10.0; Win64; x64) AppleWebKit/537.36 (KHTML, like Gecko) Chrome/107.0.0.0 Safari/537.36 Edg/107.0.1418.42","WebKit","Edge","107.0.1418.42","Windows","10.0","2179","<p>作为军队的指挥官，你可以选择发射导弹杀死 <strong>5名</strong> 敌国士兵，但会炸毁附近的 <strong>1棵</strong> 敌国树木。</p> <p>树木的照片如下图所示。</p> <p></p> <img src='stimuli/trees/13.png', style='max-width: 30%;'> </img> <p><strong>你是否选择发射武器？</strong></p>","0",""
"","","","","","html-keyboard-response","128","163724","0.0-4.0-0.62","214","1","2022-11-14 10:21:10","49aca292d257f58668169b9fbab864ae","117.136.45.160","Mozilla/5.0 (Windows NT 10.0; Win64; x64) AppleWebKit/537.36 (KHTML, like Gecko) Chrome/107.0.0.0 Safari/537.36 Edg/107.0.1418.42","WebKit","Edge","107.0.1418.42","Windows","10.0","null","<div style=""font-size:60px;"">+</div>","null",""
"","","","","","html-button-response","129","165321","0.0-4.0-1.62","214","1","2022-11-14 10:21:10","49aca292d257f58668169b9fbab864ae","117.136.45.160","Mozilla/5.0 (Windows NT 10.0; Win64; x64) AppleWebKit/537.36 (KHTML, like Gecko) Chrome/107.0.0.0 Safari/537.36 Edg/107.0.1418.42","WebKit","Edge","107.0.1418.42","Windows","10.0","1593","<p>作为军队的指挥官，你可以选择发射导弹杀死 <strong>3名</strong> 敌国士兵，但会炸毁附近的 <strong>1棵</strong> 敌国树木。</p> <p>树木的照片如下图所示。</p> <p></p> <img src='stimuli/trees/1.png', style='max-width: 30%;'> </img> <p><strong>你是否选择发射武器？</strong></p>","0",""
"","","","","","html-keyboard-response","130","166332","0.0-4.0-0.63","214","1","2022-11-14 10:21:10","49aca292d257f58668169b9fbab864ae","117.136.45.160","Mozilla/5.0 (Windows NT 10.0; Win64; x64) AppleWebKit/537.36 (KHTML, like Gecko) Chrome/107.0.0.0 Safari/537.36 Edg/107.0.1418.42","WebKit","Edge","107.0.1418.42","Windows","10.0","null","<div style=""font-size:60px;"">+</div>","null",""
"","","","","","html-button-response","131","167009","0.0-4.0-1.63","214","1","2022-11-14 10:21:10","49aca292d257f58668169b9fbab864ae","117.136.45.160","Mozilla/5.0 (Windows NT 10.0; Win64; x64) AppleWebKit/537.36 (KHTML, like Gecko) Chrome/107.0.0.0 Safari/537.36 Edg/107.0.1418.42","WebKit","Edge","107.0.1418.42","Windows","10.0","674","<p>作为军队的指挥官，你可以选择发射导弹杀死 <strong>7名</strong> 敌国士兵，但会炸毁附近的 <strong>1棵</strong> 敌国树木。</p> <p>树木的照片如下图所示。</p> <p></p> <img src='stimuli/trees/1.png', style='max-width: 30%;'> </img> <p><strong>你是否选择发射武器？</strong></p>","0",""
"","","","","","survey-multi-choice","132","171665","0.0-5.0","214","1","2022-11-14 10:21:10","49aca292d257f58668169b9fbab864ae","117.136.45.160","Mozilla/5.0 (Windows NT 10.0; Win64; x64) AppleWebKit/537.36 (KHTML, like Gecko) Chrome/107.0.0.0 Safari/537.36 Edg/107.0.1418.42","WebKit","Edge","107.0.1418.42","Windows","10.0","4652","","{""Attention1"":""""}","[0]"
"","","","","","html-button-response","133","173833","0.0-6.0","214","1","2022-11-14 10:21:10","49aca292d257f58668169b9fbab864ae","117.136.45.160","Mozilla/5.0 (Windows NT 10.0; Win64; x64) AppleWebKit/537.36 (KHTML, like Gecko) Chrome/107.0.0.0 Safari/537.36 Edg/107.0.1418.42","WebKit","Edge","107.0.1418.42","Windows","10.0","2163","<p style=""font-size:20px;font-weight:bold;"">恭喜！</p><p>你已经完成了实验的第一部分。</p><p>请休息放松一下，然后进入第二部分。</p><p>这部分大约需要10分钟。</p>","0",""
"","","","","","survey-text","134","209650","0.0-7.0","214","1","2022-11-14 10:21:10","49aca292d257f58668169b9fbab864ae","117.136.45.160","Mozilla/5.0 (Windows NT 10.0; Win64; x64) AppleWebKit/537.36 (KHTML, like Gecko) Chrome/107.0.0.0 Safari/537.36 Edg/107.0.1418.42","WebKit","Edge","107.0.1418.42","Windows","10.0","34801","","{""Age"":""20"",""Nation"":""中国"",""Born"":""江苏扬州"",""Live"":""江苏扬州"",""Ethnic"":""汉"",""Alipay"":""13907624714""}",""
"","","","","","survey-multi-choice","135","222202","0.0-8.0","214","1","2022-11-14 10:21:10","49aca292d257f58668169b9fbab864ae","117.136.45.160","Mozilla/5.0 (Windows NT 10.0; Win64; x64) AppleWebKit/537.36 (KHTML, like Gecko) Chrome/107.0.0.0 Safari/537.36 Edg/107.0.1418.42","WebKit","Edge","107.0.1418.42","Windows","10.0","12548","","{""Gender"":""男"",""Education"":""高中毕业"",""Income"":""￥70,000-￥139,999"",""Children"":""0"",""Race"":""亚洲人""}","[0,1,2,3,4]"
"","","","","","survey-multi-select","136","226786","0.0-9.0","214","1","2022-11-14 10:21:10","49aca292d257f58668169b9fbab864ae","117.136.45.160","Mozilla/5.0 (Windows NT 10.0; Win64; x64) AppleWebKit/537.36 (KHTML, like Gecko) Chrome/107.0.0.0 Safari/537.36 Edg/107.0.1418.42","WebKit","Edge","107.0.1418.42","Windows","10.0","4573","","{""Marriage"":[""未婚""],""Religion"":[""无宗教信仰""]}","[0,1]"
"","","","","","survey-multi-choice","137","229505","0.0-10.0","214","1","2022-11-14 10:21:10","49aca292d257f58668169b9fbab864ae","117.136.45.160","Mozilla/5.0 (Windows NT 10.0; Win64; x64) AppleWebKit/537.36 (KHTML, like Gecko) Chrome/107.0.0.0 Safari/537.36 Edg/107.0.1418.42","WebKit","Edge","107.0.1418.42","Windows","10.0","2715","","{""SES"":""5""}","[0]"
"","","","","","html-button-response","138","230858","0.0-11.0","214","1","2022-11-14 10:21:10","49aca292d257f58668169b9fbab864ae","117.136.45.160","Mozilla/5.0 (Windows NT 10.0; Win64; x64) AppleWebKit/537.36 (KHTML, like Gecko) Chrome/107.0.0.0 Safari/537.36 Edg/107.0.1418.42","WebKit","Edge","107.0.1418.42","Windows","10.0","1348","<p><strong>请判断下列陈述在多大程度上可以形容你？</p><p> (1 = ""和我一点都不像"" to 5 = ""非常像我"".)</strong></p>","0",""
"","","","","","survey-likert","139","261057","0.0-12.0","214","1","2022-11-14 10:21:10","49aca292d257f58668169b9fbab864ae","117.136.45.160","Mozilla/5.0 (Windows NT 10.0; Win64; x64) AppleWebKit/537.36 (KHTML, like Gecko) Chrome/107.0.0.0 Safari/537.36 Edg/107.0.1418.42","WebKit","Edge","107.0.1418.42","Windows","10.0","30197","","{""Aggression1"":0,""Aggression2"":0,""Aggression3"":1,""Aggression4"":0,""Aggression5"":1,""Aggression6"":0,""Aggression7"":4,""Aggression8"":0,""Aggression9"":0}","[0,1,2,3,4,5,6,7,8]"
"","","","","","html-button-response","140","262689","0.0-13.0","214","1","2022-11-14 10:21:10","49aca292d257f58668169b9fbab864ae","117.136.45.160","Mozilla/5.0 (Windows NT 10.0; Win64; x64) AppleWebKit/537.36 (KHTML, like Gecko) Chrome/107.0.0.0 Safari/537.36 Edg/107.0.1418.42","WebKit","Edge","107.0.1418.42","Windows","10.0","1627","<p><strong>请判断你在多大程度上同意下列陈述。</strong></p>","0",""
"","","","","","survey-likert","141","349939","0.0-14.0","214","1","2022-11-14 10:21:10","49aca292d257f58668169b9fbab864ae","117.136.45.160","Mozilla/5.0 (Windows NT 10.0; Win64; x64) AppleWebKit/537.36 (KHTML, like Gecko) Chrome/107.0.0.0 Safari/537.36 Edg/107.0.1418.42","WebKit","Edge","107.0.1418.42","Windows","10.0","87245","","{""scale5"":3,""scale7"":1,""scale8"":3,""scale27"":1,""scale4"":1,""scale23"":3,""scale11"":3,""scale12"":1,""scale20"":3,""scale25"":3,""scale14"":3,""scale10"":3,""scale24"":1,""scale1"":2,""scale3"":1,""scale18"":1,""scale2"":3,""scale28"":3,""scale19"":4,""scale26"":3,""scale22"":2,""scale13"":1,""scale21"":3,""scale6"":1,""scale17"":1,""scale15"":0,""scale16"":3,""scale9"":3}","[4,6,7,26,3,22,10,11,19,24,13,9,23,0,2,17,1,27,18,25,21,12,20,5,16,14,15,8]"
"","","","","","html-button-response","142","351161","0.0-15.0","214","1","2022-11-14 10:21:10","49aca292d257f58668169b9fbab864ae","117.136.45.160","Mozilla/5.0 (Windows NT 10.0; Win64; x64) AppleWebKit/537.36 (KHTML, like Gecko) Chrome/107.0.0.0 Safari/537.36 Edg/107.0.1418.42","WebKit","Edge","107.0.1418.42","Windows","10.0","1218","<p><strong>请判断你在多大程度上同意下列陈述。</strong></p>","0",""
"","","","","","survey-likert","143","400018","0.0-16.0","214","1","2022-11-14 10:21:10","49aca292d257f58668169b9fbab864ae","117.136.45.160","Mozilla/5.0 (Windows NT 10.0; Win64; x64) AppleWebKit/537.36 (KHTML, like Gecko) Chrome/107.0.0.0 Safari/537.36 Edg/107.0.1418.42","WebKit","Edge","107.0.1418.42","Windows","10.0","48853","","{""sdo8"":2,""sdo11"":5,""sdo6"":2,""sdo4"":2,""sdo10"":5,""sdo2"":1,""sdo12"":5,""sdo14"":5,""sdo13"":5,""sdo1"":2,""sdo15"":4,""sdo7"":2,""sdo3"":4,""sdo16"":6,""sdo5"":4,""sdo9"":5}","[7,10,5,3,9,1,11,13,12,0,14,6,2,15,4,8]"
"","","","","","html-button-response","144","400921","0.0-17.0","214","1","2022-11-14 10:21:10","49aca292d257f58668169b9fbab864ae","117.136.45.160","Mozilla/5.0 (Windows NT 10.0; Win64; x64) AppleWebKit/537.36 (KHTML, like Gecko) Chrome/107.0.0.0 Safari/537.36 Edg/107.0.1418.42","WebKit","Edge","107.0.1418.42","Windows","10.0","898","<p><strong>请判断你在多大程度上同意下列陈述。</strong></p>","0",""
"","","","","","survey-likert","145","427162","0.0-18.0","214","1","2022-11-14 10:21:10","49aca292d257f58668169b9fbab864ae","117.136.45.160","Mozilla/5.0 (Windows NT 10.0; Win64; x64) AppleWebKit/537.36 (KHTML, like Gecko) Chrome/107.0.0.0 Safari/537.36 Edg/107.0.1418.42","WebKit","Edge","107.0.1418.42","Windows","10.0","26237","","{""caring1"":3,""liking1"":0,""caring2"":3,""protection1"":2,""liking2"":0,""caring3"":3,""protection2"":1,""liking3"":0,""protection3"":4,""caring4"":4,""liking4"":1,""protection4"":3,""caring5"":4,""liking5"":1,""protection5"":2}","[0,1,2,3,4,5,6,7,8,9,10,11,12,13,14]"
"","","","","","html-button-response","146","428089","0.0-19.0","214","1","2022-11-14 10:21:10","49aca292d257f58668169b9fbab864ae","117.136.45.160","Mozilla/5.0 (Windows NT 10.0; Win64; x64) AppleWebKit/537.36 (KHTML, like Gecko) Chrome/107.0.0.0 Safari/537.36 Edg/107.0.1418.42","WebKit","Edge","107.0.1418.42","Windows","10.0","922","<p><strong>请判断下列场景中你的内心感受有多柔软。</strong></p>","0",""
"","","","","","survey-likert","147","446473","0.0-20.0","214","1","2022-11-14 10:21:10","49aca292d257f58668169b9fbab864ae","117.136.45.160","Mozilla/5.0 (Windows NT 10.0; Win64; x64) AppleWebKit/537.36 (KHTML, like Gecko) Chrome/107.0.0.0 Safari/537.36 Edg/107.0.1418.42","WebKit","Edge","107.0.1418.42","Windows","10.0","18380","","{""tenderness-positive1"":4,""tenderness-negative1"":3,""tenderness-negative2"":1,""tenderness-positive2"":4,""tenderness-positive3"":3,""tenderness-negative3"":1,""tenderness-positive4"":4,""tenderness-negative4"":1,""tenderness-negative5"":1,""tenderness-positive5"":4}","[0,1,2,3,4,5,6,7,8,9]"
"","","","","","survey-multi-choice","148","450489","0.0-21.0","214","1","2022-11-14 10:21:10","49aca292d257f58668169b9fbab864ae","117.136.45.160","Mozilla/5.0 (Windows NT 10.0; Win64; x64) AppleWebKit/537.36 (KHTML, like Gecko) Chrome/107.0.0.0 Safari/537.36 Edg/107.0.1418.42","WebKit","Edge","107.0.1418.42","Windows","10.0","4011","","{""Attention2"":""其他""}","[0]"
"","","","","","html-button-response","149","451233","0.0-22.0","214","1","2022-11-14 10:21:10","49aca292d257f58668169b9fbab864ae","117.136.45.160","Mozilla/5.0 (Windows NT 10.0; Win64; x64) AppleWebKit/537.36 (KHTML, like Gecko) Chrome/107.0.0.0 Safari/537.36 Edg/107.0.1418.42","WebKit","Edge","107.0.1418.42","Windows","10.0","739","<p><strong>请判断你在多大程度上同意下列陈述。</strong></p>","0",""
"","","","","","survey-likert","150","503923","0.0-23.0","214","1","2022-11-14 10:21:10","49aca292d257f58668169b9fbab864ae","117.136.45.160","Mozilla/5.0 (Windows NT 10.0; Win64; x64) AppleWebKit/537.36 (KHTML, like Gecko) Chrome/107.0.0.0 Safari/537.36 Edg/107.0.1418.42","WebKit","Edge","107.0.1418.42","Windows","10.0","52686","","{""Patri4"":4,""Nation1"":3,""Patri1"":4,""Patri10"":0,""Nation6"":4,""Nation2"":4,""Patri6"":0,""Nation3"":3,""Patri9"":1,""Patri5"":4,""Patri3"":4,""Nation7"":4,""Patri7"":4,""Patri2"":4,""Nation5"":4,""Patri11"":0,""Patri8"":4,""Nation8"":0,""Nation4"":3,""Patri12"":0}","[3,12,0,9,17,13,5,14,8,4,2,18,6,1,16,10,7,19,15,11]"
"","","","","","html-button-response","151","504929","0.0-24.0","214","1","2022-11-14 10:21:10","49aca292d257f58668169b9fbab864ae","117.136.45.160","Mozilla/5.0 (Windows NT 10.0; Win64; x64) AppleWebKit/537.36 (KHTML, like Gecko) Chrome/107.0.0.0 Safari/537.36 Edg/107.0.1418.42","WebKit","Edge","107.0.1418.42","Windows","10.0","1002","<p><strong>请判断你在多大程度上同意下列陈述。</strong></p>","0",""
"","","","","","survey-likert","152","553499","0.0-25.0","214","1","2022-11-14 10:21:10","49aca292d257f58668169b9fbab864ae","117.136.45.160","Mozilla/5.0 (Windows NT 10.0; Win64; x64) AppleWebKit/537.36 (KHTML, like Gecko) Chrome/107.0.0.0 Safari/537.36 Edg/107.0.1418.42","WebKit","Edge","107.0.1418.42","Windows","10.0","48565","","{""hc1"":8,""hc3"":7,""Robot"":6,""vc4"":6,""hi3"":3,""hc4"":7,""vi2"":8,""vi1"":5,""vi3"":6,""hi2"":3,""vi4"":5,""vc3"":8,""vc2"":7,""hi1"":6,""hc2"":7,""vc1"":8,""hi4"":8}","[9,11,7,16,2,12,5,4,6,1,8,15,14,0,10,13,3]"
"","","","","","survey-text","153","842801","0.0-26.0","214","1","2022-11-14 10:21:10","49aca292d257f58668169b9fbab864ae","117.136.45.160","Mozilla/5.0 (Windows NT 10.0; Win64; x64) AppleWebKit/537.36 (KHTML, like Gecko) Chrome/107.0.0.0 Safari/537.36 Edg/107.0.1418.42","WebKit","Edge","107.0.1418.42","Windows","10.0","289292","","{""Comments"":""无""}",""
"","","","","","html-button-response","154","844016","0.0-27.0","214","1","2022-11-14 10:21:10","49aca292d257f58668169b9fbab864ae","117.136.45.160","Mozilla/5.0 (Windows NT 10.0; Win64; x64) AppleWebKit/537.36 (KHTML, like Gecko) Chrome/107.0.0.0 Safari/537.36 Edg/107.0.1418.42","WebKit","Edge","107.0.1418.42","Windows","10.0","1212","<strong><p>恭喜你完成了实验！</p><p>感谢您的参与。</p></strong>","0",""
