"success","timeout","failed_images","failed_audio","failed_video","trial_type","trial_index","time_elapsed","internal_node_id","run_id","condition","recorded_at","source_code_version","ip","user_agent","device","browser","browser_version","platform","platform_version","rt","stimulus","response","question_order"
"true","false","[]","[]","[]","preload","0","63","0.0-0.0","224","1","2022-11-14 13:55:27","49aca292d257f58668169b9fbab864ae","182.102.137.203","Mozilla/5.0 (Windows NT 10.0; WOW64) AppleWebKit/537.36 (KHTML, like Gecko) Chrome/104.0.0.0 Safari/537.36","WebKit","Chrome","104.0.0.0","Windows","10.0","","","",""
"true","","","","","fullscreen","1","2248","0.0-1.0","224","1","2022-11-14 13:55:27","49aca292d257f58668169b9fbab864ae","182.102.137.203","Mozilla/5.0 (Windows NT 10.0; WOW64) AppleWebKit/537.36 (KHTML, like Gecko) Chrome/104.0.0.0 Safari/537.36","WebKit","Chrome","104.0.0.0","Windows","10.0","","","",""
"","","","","","html-button-response","2","3309","0.0-2.0","224","1","2022-11-14 13:55:27","49aca292d257f58668169b9fbab864ae","182.102.137.203","Mozilla/5.0 (Windows NT 10.0; WOW64) AppleWebKit/537.36 (KHTML, like Gecko) Chrome/104.0.0.0 Safari/537.36","WebKit","Chrome","104.0.0.0","Windows","10.0","1060","<p style=""font-size:20px;font-weight:bold;"">实验知情同意书</p><p style=""text-align:left;""><strong>实验名称：</strong>社会冲突研究</p><p style=""text-align:left;""><strong>主要研究者：</strong>韩晓春副教授（北京师范大学心理学部）</p><p style=""text-align:left;""><strong>联系方式：</strong>发送邮件至xiaochun.han@bnu.edu.cn</p><p style=""text-align:left;""><strong>研究目的：</strong>研究旨在了解人类面对群体冲突时的决策方式，以及相关的心理学特质。实验调查大约需要20分钟。</p><p style=""text-align:left;""><strong>实验流程：</strong>实验包含两部分。第一部分呈现一系列群体冲突场景，请你决定如何对这些冲突进行反应，大约需要10分钟完成。第二部分包含一系列人口统计学信息收集和心理学问卷，大约需要10分钟完成。</p><p style=""text-align:left;""><strong>参加及退出规则：</strong>参加本实验完全取决于您的个人意愿。在参与过程中，您可以随时退出，并且不用承担任何后果。</p><p style=""text-align:left;""><strong>隐私：</strong>本实验完全匿名进行，不会收集您的姓名或其他能够识别您身份的信息。实验中收集的作答仅用作科学研究使用，可能会在学术期刊/书籍上发表，或者用于教学，您的数据未来可能会和其他研究者或实验室分享，但您的个人身份不会被识别。</p><p style=""text-align:left;""><strong>实验报酬：</strong>实验完成后，您将获得15元人民币报酬，以感谢您的时间和努力。调查问卷中包含几道题目用以测验您作答时的认真度。只有完成全部实验，并且正确回答认真度测验的被试才能获得实验报酬。实验报酬将通过支付宝转账发放。</p><p style=""text-align:left;font-size:20px;""><strong>如果您同意以上实验知情同意书的内容，请点击'同意并且开始实验'按钮；否则请关闭浏览器界面，退出实验。</strong></p>","0",""
"","","","","","html-button-response","3","3900","0.0-3.0","224","1","2022-11-14 13:55:27","49aca292d257f58668169b9fbab864ae","182.102.137.203","Mozilla/5.0 (Windows NT 10.0; WOW64) AppleWebKit/537.36 (KHTML, like Gecko) Chrome/104.0.0.0 Safari/537.36","WebKit","Chrome","104.0.0.0","Windows","10.0","591","<p ><strong>实验任务一：</strong></p><p>请想象你的国家与另一个国家发生了军事冲突。</p><p>你是国家军队的指挥官，你将如何在冲突中进行决策。</p><p>具体来说，作为军队指挥官，请你决定是否发射导弹进行打击。</p><p>接下来，你会面对一系列场景，请仔细阅读每个场景，然后进行决策。</p><p>这部分实验任务大约需要10分钟。</p><p><strong>实验过程中，请集中注意力。</strong></p>","0",""
"","","","","","html-keyboard-response","4","4913","0.0-4.0-0.0","224","1","2022-11-14 13:55:27","49aca292d257f58668169b9fbab864ae","182.102.137.203","Mozilla/5.0 (Windows NT 10.0; WOW64) AppleWebKit/537.36 (KHTML, like Gecko) Chrome/104.0.0.0 Safari/537.36","WebKit","Chrome","104.0.0.0","Windows","10.0","null","<div style=""font-size:60px;"">+</div>","null",""
"","","","","","html-button-response","5","6168","0.0-4.0-1.0","224","1","2022-11-14 13:55:27","49aca292d257f58668169b9fbab864ae","182.102.137.203","Mozilla/5.0 (Windows NT 10.0; WOW64) AppleWebKit/537.36 (KHTML, like Gecko) Chrome/104.0.0.0 Safari/537.36","WebKit","Chrome","104.0.0.0","Windows","10.0","1254","<p>作为军队的指挥官，你可以选择发射导弹杀死 <strong>4名</strong> 敌国士兵，但会炸毁附近的 <strong>1棵</strong> 敌国树木。</p> <p>树木的照片如下图所示。</p> <p></p> <img src='stimuli/trees/12.png', style='max-width: 30%;'> </img> <p><strong>你是否选择发射武器？</strong></p>","0",""
"","","","","","html-keyboard-response","6","7177","0.0-4.0-0.1","224","1","2022-11-14 13:55:27","49aca292d257f58668169b9fbab864ae","182.102.137.203","Mozilla/5.0 (Windows NT 10.0; WOW64) AppleWebKit/537.36 (KHTML, like Gecko) Chrome/104.0.0.0 Safari/537.36","WebKit","Chrome","104.0.0.0","Windows","10.0","null","<div style=""font-size:60px;"">+</div>","null",""
"","","","","","html-button-response","7","7797","0.0-4.0-1.1","224","1","2022-11-14 13:55:27","49aca292d257f58668169b9fbab864ae","182.102.137.203","Mozilla/5.0 (Windows NT 10.0; WOW64) AppleWebKit/537.36 (KHTML, like Gecko) Chrome/104.0.0.0 Safari/537.36","WebKit","Chrome","104.0.0.0","Windows","10.0","619","<p>作为军队的指挥官，你可以选择发射导弹杀死 <strong>7名</strong> 敌国士兵，但会炸毁附近的 <strong>1棵</strong> 敌国树木。</p> <p>树木的照片如下图所示。</p> <p></p> <img src='stimuli/trees/15.png', style='max-width: 30%;'> </img> <p><strong>你是否选择发射武器？</strong></p>","0",""
"","","","","","html-keyboard-response","8","8799","0.0-4.0-0.2","224","1","2022-11-14 13:55:27","49aca292d257f58668169b9fbab864ae","182.102.137.203","Mozilla/5.0 (Windows NT 10.0; WOW64) AppleWebKit/537.36 (KHTML, like Gecko) Chrome/104.0.0.0 Safari/537.36","WebKit","Chrome","104.0.0.0","Windows","10.0","null","<div style=""font-size:60px;"">+</div>","null",""
"","","","","","html-button-response","9","10133","0.0-4.0-1.2","224","1","2022-11-14 13:55:27","49aca292d257f58668169b9fbab864ae","182.102.137.203","Mozilla/5.0 (Windows NT 10.0; WOW64) AppleWebKit/537.36 (KHTML, like Gecko) Chrome/104.0.0.0 Safari/537.36","WebKit","Chrome","104.0.0.0","Windows","10.0","1332","<p>作为军队的指挥官，你可以选择发射导弹杀死 <strong>2名</strong> 敌国士兵，但会误杀附近的 <strong>1名</strong> 敌国平民。</p> <p>平民照片如下图所示。</p> <p></p> <img src='stimuli/faces/PFM5.jpg', style='max-width: 30%;'> </img> <p><strong>你是否选择发射武器？</strong></p>","1",""
"","","","","","html-keyboard-response","10","11134","0.0-4.0-0.3","224","1","2022-11-14 13:55:27","49aca292d257f58668169b9fbab864ae","182.102.137.203","Mozilla/5.0 (Windows NT 10.0; WOW64) AppleWebKit/537.36 (KHTML, like Gecko) Chrome/104.0.0.0 Safari/537.36","WebKit","Chrome","104.0.0.0","Windows","10.0","null","<div style=""font-size:60px;"">+</div>","null",""
"","","","","","html-button-response","11","11661","0.0-4.0-1.3","224","1","2022-11-14 13:55:27","49aca292d257f58668169b9fbab864ae","182.102.137.203","Mozilla/5.0 (Windows NT 10.0; WOW64) AppleWebKit/537.36 (KHTML, like Gecko) Chrome/104.0.0.0 Safari/537.36","WebKit","Chrome","104.0.0.0","Windows","10.0","525","<p>作为军队的指挥官，你可以选择发射导弹杀死 <strong>7名</strong> 敌国士兵，但会误杀附近的 <strong>1名</strong> 敌国平民。</p> <p>平民照片如下图所示。</p> <p></p> <img src='stimuli/faces/PFM4.jpg', style='max-width: 30%;'> </img> <p><strong>你是否选择发射武器？</strong></p>","0",""
"","","","","","html-keyboard-response","12","12665","0.0-4.0-0.4","224","1","2022-11-14 13:55:27","49aca292d257f58668169b9fbab864ae","182.102.137.203","Mozilla/5.0 (Windows NT 10.0; WOW64) AppleWebKit/537.36 (KHTML, like Gecko) Chrome/104.0.0.0 Safari/537.36","WebKit","Chrome","104.0.0.0","Windows","10.0","null","<div style=""font-size:60px;"">+</div>","null",""
"","","","","","html-button-response","13","13479","0.0-4.0-1.4","224","1","2022-11-14 13:55:27","49aca292d257f58668169b9fbab864ae","182.102.137.203","Mozilla/5.0 (Windows NT 10.0; WOW64) AppleWebKit/537.36 (KHTML, like Gecko) Chrome/104.0.0.0 Safari/537.36","WebKit","Chrome","104.0.0.0","Windows","10.0","812","<p>作为军队的指挥官，你可以选择发射导弹杀死 <strong>10名</strong> 敌国士兵，但会误杀附近的 <strong>1名</strong> 敌国平民。</p> <p>平民照片如下图所示。</p> <p></p> <img src='stimuli/faces/PFF1.jpg', style='max-width: 30%;'> </img> <p><strong>你是否选择发射武器？</strong></p>","0",""
"","","","","","html-keyboard-response","14","14492","0.0-4.0-0.5","224","1","2022-11-14 13:55:27","49aca292d257f58668169b9fbab864ae","182.102.137.203","Mozilla/5.0 (Windows NT 10.0; WOW64) AppleWebKit/537.36 (KHTML, like Gecko) Chrome/104.0.0.0 Safari/537.36","WebKit","Chrome","104.0.0.0","Windows","10.0","null","<div style=""font-size:60px;"">+</div>","null",""
"","","","","","html-button-response","15","14834","0.0-4.0-1.5","224","1","2022-11-14 13:55:27","49aca292d257f58668169b9fbab864ae","182.102.137.203","Mozilla/5.0 (Windows NT 10.0; WOW64) AppleWebKit/537.36 (KHTML, like Gecko) Chrome/104.0.0.0 Safari/537.36","WebKit","Chrome","104.0.0.0","Windows","10.0","341","<p>作为军队的指挥官，你可以选择发射导弹杀死 <strong>9名</strong> 敌国士兵，但会误杀附近的 <strong>1名</strong> 敌国平民。</p> <p>平民照片如下图所示。</p> <p></p> <img src='stimuli/faces/PFM2.jpg', style='max-width: 30%;'> </img> <p><strong>你是否选择发射武器？</strong></p>","0",""
"","","","","","html-keyboard-response","16","15845","0.0-4.0-0.6","224","1","2022-11-14 13:55:27","49aca292d257f58668169b9fbab864ae","182.102.137.203","Mozilla/5.0 (Windows NT 10.0; WOW64) AppleWebKit/537.36 (KHTML, like Gecko) Chrome/104.0.0.0 Safari/537.36","WebKit","Chrome","104.0.0.0","Windows","10.0","null","<div style=""font-size:60px;"">+</div>","null",""
"","","","","","html-button-response","17","16237","0.0-4.0-1.6","224","1","2022-11-14 13:55:27","49aca292d257f58668169b9fbab864ae","182.102.137.203","Mozilla/5.0 (Windows NT 10.0; WOW64) AppleWebKit/537.36 (KHTML, like Gecko) Chrome/104.0.0.0 Safari/537.36","WebKit","Chrome","104.0.0.0","Windows","10.0","391","<p>作为军队的指挥官，你可以选择发射导弹杀死 <strong>6名</strong> 敌国士兵，但会炸毁附近的 <strong>1棵</strong> 敌国树木。</p> <p>树木的照片如下图所示。</p> <p></p> <img src='stimuli/trees/8.png', style='max-width: 30%;'> </img> <p><strong>你是否选择发射武器？</strong></p>","0",""
"","","","","","html-keyboard-response","18","17251","0.0-4.0-0.7","224","1","2022-11-14 13:55:27","49aca292d257f58668169b9fbab864ae","182.102.137.203","Mozilla/5.0 (Windows NT 10.0; WOW64) AppleWebKit/537.36 (KHTML, like Gecko) Chrome/104.0.0.0 Safari/537.36","WebKit","Chrome","104.0.0.0","Windows","10.0","null","<div style=""font-size:60px;"">+</div>","null",""
"","","","","","html-button-response","19","18646","0.0-4.0-1.7","224","1","2022-11-14 13:55:27","49aca292d257f58668169b9fbab864ae","182.102.137.203","Mozilla/5.0 (Windows NT 10.0; WOW64) AppleWebKit/537.36 (KHTML, like Gecko) Chrome/104.0.0.0 Safari/537.36","WebKit","Chrome","104.0.0.0","Windows","10.0","1393","<p>作为军队的指挥官，你可以选择发射导弹杀死 <strong>1名</strong> 敌国士兵，但会炸毁附近的 <strong>1棵</strong> 敌国树木。</p> <p>树木的照片如下图所示。</p> <p></p> <img src='stimuli/trees/16.png', style='max-width: 30%;'> </img> <p><strong>你是否选择发射武器？</strong></p>","0",""
"","","","","","html-keyboard-response","20","19659","0.0-4.0-0.8","224","1","2022-11-14 13:55:27","49aca292d257f58668169b9fbab864ae","182.102.137.203","Mozilla/5.0 (Windows NT 10.0; WOW64) AppleWebKit/537.36 (KHTML, like Gecko) Chrome/104.0.0.0 Safari/537.36","WebKit","Chrome","104.0.0.0","Windows","10.0","null","<div style=""font-size:60px;"">+</div>","null",""
"","","","","","html-button-response","21","20444","0.0-4.0-1.8","224","1","2022-11-14 13:55:27","49aca292d257f58668169b9fbab864ae","182.102.137.203","Mozilla/5.0 (Windows NT 10.0; WOW64) AppleWebKit/537.36 (KHTML, like Gecko) Chrome/104.0.0.0 Safari/537.36","WebKit","Chrome","104.0.0.0","Windows","10.0","784","<p>作为军队的指挥官，你可以选择发射导弹杀死 <strong>10名</strong> 敌国士兵，但会误杀附近的 <strong>1名</strong> 敌国平民。</p> <p>平民照片如下图所示。</p> <p></p> <img src='stimuli/faces/PFM7.jpg', style='max-width: 30%;'> </img> <p><strong>你是否选择发射武器？</strong></p>","0",""
"","","","","","html-keyboard-response","22","21451","0.0-4.0-0.9","224","1","2022-11-14 13:55:27","49aca292d257f58668169b9fbab864ae","182.102.137.203","Mozilla/5.0 (Windows NT 10.0; WOW64) AppleWebKit/537.36 (KHTML, like Gecko) Chrome/104.0.0.0 Safari/537.36","WebKit","Chrome","104.0.0.0","Windows","10.0","null","<div style=""font-size:60px;"">+</div>","null",""
"","","","","","html-button-response","23","22119","0.0-4.0-1.9","224","1","2022-11-14 13:55:27","49aca292d257f58668169b9fbab864ae","182.102.137.203","Mozilla/5.0 (Windows NT 10.0; WOW64) AppleWebKit/537.36 (KHTML, like Gecko) Chrome/104.0.0.0 Safari/537.36","WebKit","Chrome","104.0.0.0","Windows","10.0","668","<p>作为军队的指挥官，你可以选择发射导弹杀死 <strong>4名</strong> 敌国士兵，但会炸毁附近的 <strong>1棵</strong> 敌国树木。</p> <p>树木的照片如下图所示。</p> <p></p> <img src='stimuli/trees/14.png', style='max-width: 30%;'> </img> <p><strong>你是否选择发射武器？</strong></p>","0",""
"","","","","","html-keyboard-response","24","23131","0.0-4.0-0.10","224","1","2022-11-14 13:55:27","49aca292d257f58668169b9fbab864ae","182.102.137.203","Mozilla/5.0 (Windows NT 10.0; WOW64) AppleWebKit/537.36 (KHTML, like Gecko) Chrome/104.0.0.0 Safari/537.36","WebKit","Chrome","104.0.0.0","Windows","10.0","null","<div style=""font-size:60px;"">+</div>","null",""
"","","","","","html-button-response","25","23574","0.0-4.0-1.10","224","1","2022-11-14 13:55:27","49aca292d257f58668169b9fbab864ae","182.102.137.203","Mozilla/5.0 (Windows NT 10.0; WOW64) AppleWebKit/537.36 (KHTML, like Gecko) Chrome/104.0.0.0 Safari/537.36","WebKit","Chrome","104.0.0.0","Windows","10.0","442","<p>作为军队的指挥官，你可以选择发射导弹杀死 <strong>9名</strong> 敌国士兵，但会误杀附近的 <strong>1名</strong> 敌国平民。</p> <p>平民照片如下图所示。</p> <p></p> <img src='stimuli/faces/PFF3.jpg', style='max-width: 30%;'> </img> <p><strong>你是否选择发射武器？</strong></p>","0",""
"","","","","","html-keyboard-response","26","24590","0.0-4.0-0.11","224","1","2022-11-14 13:55:27","49aca292d257f58668169b9fbab864ae","182.102.137.203","Mozilla/5.0 (Windows NT 10.0; WOW64) AppleWebKit/537.36 (KHTML, like Gecko) Chrome/104.0.0.0 Safari/537.36","WebKit","Chrome","104.0.0.0","Windows","10.0","null","<div style=""font-size:60px;"">+</div>","null",""
"","","","","","html-button-response","27","25451","0.0-4.0-1.11","224","1","2022-11-14 13:55:27","49aca292d257f58668169b9fbab864ae","182.102.137.203","Mozilla/5.0 (Windows NT 10.0; WOW64) AppleWebKit/537.36 (KHTML, like Gecko) Chrome/104.0.0.0 Safari/537.36","WebKit","Chrome","104.0.0.0","Windows","10.0","860","<p>作为军队的指挥官，你可以选择发射导弹杀死 <strong>1名</strong> 敌国士兵，但会误杀附近的 <strong>1名</strong> 敌国平民。</p> <p>平民照片如下图所示。</p> <p></p> <img src='stimuli/faces/PFF6.jpg', style='max-width: 30%;'> </img> <p><strong>你是否选择发射武器？</strong></p>","1",""
"","","","","","html-keyboard-response","28","26460","0.0-4.0-0.12","224","1","2022-11-14 13:55:27","49aca292d257f58668169b9fbab864ae","182.102.137.203","Mozilla/5.0 (Windows NT 10.0; WOW64) AppleWebKit/537.36 (KHTML, like Gecko) Chrome/104.0.0.0 Safari/537.36","WebKit","Chrome","104.0.0.0","Windows","10.0","null","<div style=""font-size:60px;"">+</div>","null",""
"","","","","","html-button-response","29","26761","0.0-4.0-1.12","224","1","2022-11-14 13:55:27","49aca292d257f58668169b9fbab864ae","182.102.137.203","Mozilla/5.0 (Windows NT 10.0; WOW64) AppleWebKit/537.36 (KHTML, like Gecko) Chrome/104.0.0.0 Safari/537.36","WebKit","Chrome","104.0.0.0","Windows","10.0","300","<p>作为军队的指挥官，你可以选择发射导弹杀死 <strong>10名</strong> 敌国士兵，但会炸毁附近的 <strong>1棵</strong> 敌国树木。</p> <p>树木的照片如下图所示。</p> <p></p> <img src='stimuli/trees/4.png', style='max-width: 30%;'> </img> <p><strong>你是否选择发射武器？</strong></p>","0",""
"","","","","","html-keyboard-response","30","27766","0.0-4.0-0.13","224","1","2022-11-14 13:55:27","49aca292d257f58668169b9fbab864ae","182.102.137.203","Mozilla/5.0 (Windows NT 10.0; WOW64) AppleWebKit/537.36 (KHTML, like Gecko) Chrome/104.0.0.0 Safari/537.36","WebKit","Chrome","104.0.0.0","Windows","10.0","null","<div style=""font-size:60px;"">+</div>","null",""
"","","","","","html-button-response","31","27990","0.0-4.0-1.13","224","1","2022-11-14 13:55:27","49aca292d257f58668169b9fbab864ae","182.102.137.203","Mozilla/5.0 (Windows NT 10.0; WOW64) AppleWebKit/537.36 (KHTML, like Gecko) Chrome/104.0.0.0 Safari/537.36","WebKit","Chrome","104.0.0.0","Windows","10.0","223","<p>作为军队的指挥官，你可以选择发射导弹杀死 <strong>4名</strong> 敌国士兵，但会误杀附近的 <strong>1名</strong> 敌国平民。</p> <p>平民照片如下图所示。</p> <p></p> <img src='stimuli/faces/PFM2.jpg', style='max-width: 30%;'> </img> <p><strong>你是否选择发射武器？</strong></p>","0",""
"","","","","","html-keyboard-response","32","28996","0.0-4.0-0.14","224","1","2022-11-14 13:55:27","49aca292d257f58668169b9fbab864ae","182.102.137.203","Mozilla/5.0 (Windows NT 10.0; WOW64) AppleWebKit/537.36 (KHTML, like Gecko) Chrome/104.0.0.0 Safari/537.36","WebKit","Chrome","104.0.0.0","Windows","10.0","null","<div style=""font-size:60px;"">+</div>","null",""
"","","","","","html-button-response","33","29331","0.0-4.0-1.14","224","1","2022-11-14 13:55:27","49aca292d257f58668169b9fbab864ae","182.102.137.203","Mozilla/5.0 (Windows NT 10.0; WOW64) AppleWebKit/537.36 (KHTML, like Gecko) Chrome/104.0.0.0 Safari/537.36","WebKit","Chrome","104.0.0.0","Windows","10.0","334","<p>作为军队的指挥官，你可以选择发射导弹杀死 <strong>1名</strong> 敌国士兵，但会炸毁附近的 <strong>1棵</strong> 敌国树木。</p> <p>树木的照片如下图所示。</p> <p></p> <img src='stimuli/trees/15.png', style='max-width: 30%;'> </img> <p><strong>你是否选择发射武器？</strong></p>","0",""
"","","","","","html-keyboard-response","34","30336","0.0-4.0-0.15","224","1","2022-11-14 13:55:27","49aca292d257f58668169b9fbab864ae","182.102.137.203","Mozilla/5.0 (Windows NT 10.0; WOW64) AppleWebKit/537.36 (KHTML, like Gecko) Chrome/104.0.0.0 Safari/537.36","WebKit","Chrome","104.0.0.0","Windows","10.0","null","<div style=""font-size:60px;"">+</div>","null",""
"","","","","","html-button-response","35","30602","0.0-4.0-1.15","224","1","2022-11-14 13:55:27","49aca292d257f58668169b9fbab864ae","182.102.137.203","Mozilla/5.0 (Windows NT 10.0; WOW64) AppleWebKit/537.36 (KHTML, like Gecko) Chrome/104.0.0.0 Safari/537.36","WebKit","Chrome","104.0.0.0","Windows","10.0","265","<p>作为军队的指挥官，你可以选择发射导弹杀死 <strong>10名</strong> 敌国士兵，但会炸毁附近的 <strong>1棵</strong> 敌国树木。</p> <p>树木的照片如下图所示。</p> <p></p> <img src='stimuli/trees/11.png', style='max-width: 30%;'> </img> <p><strong>你是否选择发射武器？</strong></p>","0",""
"","","","","","html-keyboard-response","36","31613","0.0-4.0-0.16","224","1","2022-11-14 13:55:27","49aca292d257f58668169b9fbab864ae","182.102.137.203","Mozilla/5.0 (Windows NT 10.0; WOW64) AppleWebKit/537.36 (KHTML, like Gecko) Chrome/104.0.0.0 Safari/537.36","WebKit","Chrome","104.0.0.0","Windows","10.0","null","<div style=""font-size:60px;"">+</div>","null",""
"","","","","","html-button-response","37","31943","0.0-4.0-1.16","224","1","2022-11-14 13:55:27","49aca292d257f58668169b9fbab864ae","182.102.137.203","Mozilla/5.0 (Windows NT 10.0; WOW64) AppleWebKit/537.36 (KHTML, like Gecko) Chrome/104.0.0.0 Safari/537.36","WebKit","Chrome","104.0.0.0","Windows","10.0","328","<p>作为军队的指挥官，你可以选择发射导弹杀死 <strong>6名</strong> 敌国士兵，但会炸毁附近的 <strong>1棵</strong> 敌国树木。</p> <p>树木的照片如下图所示。</p> <p></p> <img src='stimuli/trees/6.png', style='max-width: 30%;'> </img> <p><strong>你是否选择发射武器？</strong></p>","0",""
"","","","","","html-keyboard-response","38","32951","0.0-4.0-0.17","224","1","2022-11-14 13:55:27","49aca292d257f58668169b9fbab864ae","182.102.137.203","Mozilla/5.0 (Windows NT 10.0; WOW64) AppleWebKit/537.36 (KHTML, like Gecko) Chrome/104.0.0.0 Safari/537.36","WebKit","Chrome","104.0.0.0","Windows","10.0","null","<div style=""font-size:60px;"">+</div>","null",""
"","","","","","html-button-response","39","33110","0.0-4.0-1.17","224","1","2022-11-14 13:55:27","49aca292d257f58668169b9fbab864ae","182.102.137.203","Mozilla/5.0 (Windows NT 10.0; WOW64) AppleWebKit/537.36 (KHTML, like Gecko) Chrome/104.0.0.0 Safari/537.36","WebKit","Chrome","104.0.0.0","Windows","10.0","158","<p>作为军队的指挥官，你可以选择发射导弹杀死 <strong>3名</strong> 敌国士兵，但会误杀附近的 <strong>1名</strong> 敌国平民。</p> <p>平民照片如下图所示。</p> <p></p> <img src='stimuli/faces/PFF3.jpg', style='max-width: 30%;'> </img> <p><strong>你是否选择发射武器？</strong></p>","0",""
"","","","","","html-keyboard-response","40","34119","0.0-4.0-0.18","224","1","2022-11-14 13:55:27","49aca292d257f58668169b9fbab864ae","182.102.137.203","Mozilla/5.0 (Windows NT 10.0; WOW64) AppleWebKit/537.36 (KHTML, like Gecko) Chrome/104.0.0.0 Safari/537.36","WebKit","Chrome","104.0.0.0","Windows","10.0","null","<div style=""font-size:60px;"">+</div>","null",""
"","","","","","html-button-response","41","34323","0.0-4.0-1.18","224","1","2022-11-14 13:55:27","49aca292d257f58668169b9fbab864ae","182.102.137.203","Mozilla/5.0 (Windows NT 10.0; WOW64) AppleWebKit/537.36 (KHTML, like Gecko) Chrome/104.0.0.0 Safari/537.36","WebKit","Chrome","104.0.0.0","Windows","10.0","201","<p>作为军队的指挥官，你可以选择发射导弹杀死 <strong>2名</strong> 敌国士兵，但会误杀附近的 <strong>1名</strong> 敌国平民。</p> <p>平民照片如下图所示。</p> <p></p> <img src='stimuli/faces/PFM4.jpg', style='max-width: 30%;'> </img> <p><strong>你是否选择发射武器？</strong></p>","0",""
"","","","","","html-keyboard-response","42","35336","0.0-4.0-0.19","224","1","2022-11-14 13:55:27","49aca292d257f58668169b9fbab864ae","182.102.137.203","Mozilla/5.0 (Windows NT 10.0; WOW64) AppleWebKit/537.36 (KHTML, like Gecko) Chrome/104.0.0.0 Safari/537.36","WebKit","Chrome","104.0.0.0","Windows","10.0","null","<div style=""font-size:60px;"">+</div>","null",""
"","","","","","html-button-response","43","35770","0.0-4.0-1.19","224","1","2022-11-14 13:55:27","49aca292d257f58668169b9fbab864ae","182.102.137.203","Mozilla/5.0 (Windows NT 10.0; WOW64) AppleWebKit/537.36 (KHTML, like Gecko) Chrome/104.0.0.0 Safari/537.36","WebKit","Chrome","104.0.0.0","Windows","10.0","432","<p>作为军队的指挥官，你可以选择发射导弹杀死 <strong>10名</strong> 敌国士兵，但会炸毁附近的 <strong>1棵</strong> 敌国树木。</p> <p>树木的照片如下图所示。</p> <p></p> <img src='stimuli/trees/2.png', style='max-width: 30%;'> </img> <p><strong>你是否选择发射武器？</strong></p>","0",""
"","","","","","html-keyboard-response","44","36775","0.0-4.0-0.20","224","1","2022-11-14 13:55:27","49aca292d257f58668169b9fbab864ae","182.102.137.203","Mozilla/5.0 (Windows NT 10.0; WOW64) AppleWebKit/537.36 (KHTML, like Gecko) Chrome/104.0.0.0 Safari/537.36","WebKit","Chrome","104.0.0.0","Windows","10.0","null","<div style=""font-size:60px;"">+</div>","null",""
"","","","","","html-button-response","45","37188","0.0-4.0-1.20","224","1","2022-11-14 13:55:27","49aca292d257f58668169b9fbab864ae","182.102.137.203","Mozilla/5.0 (Windows NT 10.0; WOW64) AppleWebKit/537.36 (KHTML, like Gecko) Chrome/104.0.0.0 Safari/537.36","WebKit","Chrome","104.0.0.0","Windows","10.0","411","<p>作为军队的指挥官，你可以选择发射导弹杀死 <strong>8名</strong> 敌国士兵，但会炸毁附近的 <strong>1棵</strong> 敌国树木。</p> <p>树木的照片如下图所示。</p> <p></p> <img src='stimuli/trees/10.png', style='max-width: 30%;'> </img> <p><strong>你是否选择发射武器？</strong></p>","0",""
"","","","","","html-keyboard-response","46","38192","0.0-4.0-0.21","224","1","2022-11-14 13:55:27","49aca292d257f58668169b9fbab864ae","182.102.137.203","Mozilla/5.0 (Windows NT 10.0; WOW64) AppleWebKit/537.36 (KHTML, like Gecko) Chrome/104.0.0.0 Safari/537.36","WebKit","Chrome","104.0.0.0","Windows","10.0","null","<div style=""font-size:60px;"">+</div>","null",""
"","","","","","html-button-response","47","38523","0.0-4.0-1.21","224","1","2022-11-14 13:55:27","49aca292d257f58668169b9fbab864ae","182.102.137.203","Mozilla/5.0 (Windows NT 10.0; WOW64) AppleWebKit/537.36 (KHTML, like Gecko) Chrome/104.0.0.0 Safari/537.36","WebKit","Chrome","104.0.0.0","Windows","10.0","330","<p>作为军队的指挥官，你可以选择发射导弹杀死 <strong>4名</strong> 敌国士兵，但会炸毁附近的 <strong>1棵</strong> 敌国树木。</p> <p>树木的照片如下图所示。</p> <p></p> <img src='stimuli/trees/11.png', style='max-width: 30%;'> </img> <p><strong>你是否选择发射武器？</strong></p>","0",""
"","","","","","html-keyboard-response","48","39528","0.0-4.0-0.22","224","1","2022-11-14 13:55:27","49aca292d257f58668169b9fbab864ae","182.102.137.203","Mozilla/5.0 (Windows NT 10.0; WOW64) AppleWebKit/537.36 (KHTML, like Gecko) Chrome/104.0.0.0 Safari/537.36","WebKit","Chrome","104.0.0.0","Windows","10.0","null","<div style=""font-size:60px;"">+</div>","null",""
"","","","","","html-button-response","49","39928","0.0-4.0-1.22","224","1","2022-11-14 13:55:27","49aca292d257f58668169b9fbab864ae","182.102.137.203","Mozilla/5.0 (Windows NT 10.0; WOW64) AppleWebKit/537.36 (KHTML, like Gecko) Chrome/104.0.0.0 Safari/537.36","WebKit","Chrome","104.0.0.0","Windows","10.0","397","<p>作为军队的指挥官，你可以选择发射导弹杀死 <strong>6名</strong> 敌国士兵，但会误杀附近的 <strong>1名</strong> 敌国平民。</p> <p>平民照片如下图所示。</p> <p></p> <img src='stimuli/faces/PFM5.jpg', style='max-width: 30%;'> </img> <p><strong>你是否选择发射武器？</strong></p>","0",""
"","","","","","html-keyboard-response","50","40934","0.0-4.0-0.23","224","1","2022-11-14 13:55:27","49aca292d257f58668169b9fbab864ae","182.102.137.203","Mozilla/5.0 (Windows NT 10.0; WOW64) AppleWebKit/537.36 (KHTML, like Gecko) Chrome/104.0.0.0 Safari/537.36","WebKit","Chrome","104.0.0.0","Windows","10.0","null","<div style=""font-size:60px;"">+</div>","null",""
"","","","","","html-button-response","51","41453","0.0-4.0-1.23","224","1","2022-11-14 13:55:27","49aca292d257f58668169b9fbab864ae","182.102.137.203","Mozilla/5.0 (Windows NT 10.0; WOW64) AppleWebKit/537.36 (KHTML, like Gecko) Chrome/104.0.0.0 Safari/537.36","WebKit","Chrome","104.0.0.0","Windows","10.0","516","<p>作为军队的指挥官，你可以选择发射导弹杀死 <strong>2名</strong> 敌国士兵，但会炸毁附近的 <strong>1棵</strong> 敌国树木。</p> <p>树木的照片如下图所示。</p> <p></p> <img src='stimuli/trees/10.png', style='max-width: 30%;'> </img> <p><strong>你是否选择发射武器？</strong></p>","0",""
"","","","","","html-keyboard-response","52","42454","0.0-4.0-0.24","224","1","2022-11-14 13:55:27","49aca292d257f58668169b9fbab864ae","182.102.137.203","Mozilla/5.0 (Windows NT 10.0; WOW64) AppleWebKit/537.36 (KHTML, like Gecko) Chrome/104.0.0.0 Safari/537.36","WebKit","Chrome","104.0.0.0","Windows","10.0","null","<div style=""font-size:60px;"">+</div>","null",""
"","","","","","html-button-response","53","42860","0.0-4.0-1.24","224","1","2022-11-14 13:55:27","49aca292d257f58668169b9fbab864ae","182.102.137.203","Mozilla/5.0 (Windows NT 10.0; WOW64) AppleWebKit/537.36 (KHTML, like Gecko) Chrome/104.0.0.0 Safari/537.36","WebKit","Chrome","104.0.0.0","Windows","10.0","404","<p>作为军队的指挥官，你可以选择发射导弹杀死 <strong>6名</strong> 敌国士兵，但会炸毁附近的 <strong>1棵</strong> 敌国树木。</p> <p>树木的照片如下图所示。</p> <p></p> <img src='stimuli/trees/9.png', style='max-width: 30%;'> </img> <p><strong>你是否选择发射武器？</strong></p>","0",""
"","","","","","html-keyboard-response","54","43872","0.0-4.0-0.25","224","1","2022-11-14 13:55:27","49aca292d257f58668169b9fbab864ae","182.102.137.203","Mozilla/5.0 (Windows NT 10.0; WOW64) AppleWebKit/537.36 (KHTML, like Gecko) Chrome/104.0.0.0 Safari/537.36","WebKit","Chrome","104.0.0.0","Windows","10.0","null","<div style=""font-size:60px;"">+</div>","null",""
"","","","","","html-button-response","55","44334","0.0-4.0-1.25","224","1","2022-11-14 13:55:27","49aca292d257f58668169b9fbab864ae","182.102.137.203","Mozilla/5.0 (Windows NT 10.0; WOW64) AppleWebKit/537.36 (KHTML, like Gecko) Chrome/104.0.0.0 Safari/537.36","WebKit","Chrome","104.0.0.0","Windows","10.0","461","<p>作为军队的指挥官，你可以选择发射导弹杀死 <strong>4名</strong> 敌国士兵，但会炸毁附近的 <strong>1棵</strong> 敌国树木。</p> <p>树木的照片如下图所示。</p> <p></p> <img src='stimuli/trees/5.png', style='max-width: 30%;'> </img> <p><strong>你是否选择发射武器？</strong></p>","0",""
"","","","","","html-keyboard-response","56","45347","0.0-4.0-0.26","224","1","2022-11-14 13:55:27","49aca292d257f58668169b9fbab864ae","182.102.137.203","Mozilla/5.0 (Windows NT 10.0; WOW64) AppleWebKit/537.36 (KHTML, like Gecko) Chrome/104.0.0.0 Safari/537.36","WebKit","Chrome","104.0.0.0","Windows","10.0","null","<div style=""font-size:60px;"">+</div>","null",""
"","","","","","html-button-response","57","45716","0.0-4.0-1.26","224","1","2022-11-14 13:55:27","49aca292d257f58668169b9fbab864ae","182.102.137.203","Mozilla/5.0 (Windows NT 10.0; WOW64) AppleWebKit/537.36 (KHTML, like Gecko) Chrome/104.0.0.0 Safari/537.36","WebKit","Chrome","104.0.0.0","Windows","10.0","367","<p>作为军队的指挥官，你可以选择发射导弹杀死 <strong>9名</strong> 敌国士兵，但会误杀附近的 <strong>1名</strong> 敌国平民。</p> <p>平民照片如下图所示。</p> <p></p> <img src='stimuli/faces/PFM8.jpg', style='max-width: 30%;'> </img> <p><strong>你是否选择发射武器？</strong></p>","0",""
"","","","","","html-keyboard-response","58","46723","0.0-4.0-0.27","224","1","2022-11-14 13:55:27","49aca292d257f58668169b9fbab864ae","182.102.137.203","Mozilla/5.0 (Windows NT 10.0; WOW64) AppleWebKit/537.36 (KHTML, like Gecko) Chrome/104.0.0.0 Safari/537.36","WebKit","Chrome","104.0.0.0","Windows","10.0","null","<div style=""font-size:60px;"">+</div>","null",""
"","","","","","html-button-response","59","47114","0.0-4.0-1.27","224","1","2022-11-14 13:55:27","49aca292d257f58668169b9fbab864ae","182.102.137.203","Mozilla/5.0 (Windows NT 10.0; WOW64) AppleWebKit/537.36 (KHTML, like Gecko) Chrome/104.0.0.0 Safari/537.36","WebKit","Chrome","104.0.0.0","Windows","10.0","390","<p>作为军队的指挥官，你可以选择发射导弹杀死 <strong>4名</strong> 敌国士兵，但会炸毁附近的 <strong>1棵</strong> 敌国树木。</p> <p>树木的照片如下图所示。</p> <p></p> <img src='stimuli/trees/9.png', style='max-width: 30%;'> </img> <p><strong>你是否选择发射武器？</strong></p>","0",""
"","","","","","html-keyboard-response","60","48122","0.0-4.0-0.28","224","1","2022-11-14 13:55:27","49aca292d257f58668169b9fbab864ae","182.102.137.203","Mozilla/5.0 (Windows NT 10.0; WOW64) AppleWebKit/537.36 (KHTML, like Gecko) Chrome/104.0.0.0 Safari/537.36","WebKit","Chrome","104.0.0.0","Windows","10.0","null","<div style=""font-size:60px;"">+</div>","null",""
"","","","","","html-button-response","61","48485","0.0-4.0-1.28","224","1","2022-11-14 13:55:27","49aca292d257f58668169b9fbab864ae","182.102.137.203","Mozilla/5.0 (Windows NT 10.0; WOW64) AppleWebKit/537.36 (KHTML, like Gecko) Chrome/104.0.0.0 Safari/537.36","WebKit","Chrome","104.0.0.0","Windows","10.0","362","<p>作为军队的指挥官，你可以选择发射导弹杀死 <strong>2名</strong> 敌国士兵，但会炸毁附近的 <strong>1棵</strong> 敌国树木。</p> <p>树木的照片如下图所示。</p> <p></p> <img src='stimuli/trees/2.png', style='max-width: 30%;'> </img> <p><strong>你是否选择发射武器？</strong></p>","0",""
"","","","","","html-keyboard-response","62","49498","0.0-4.0-0.29","224","1","2022-11-14 13:55:27","49aca292d257f58668169b9fbab864ae","182.102.137.203","Mozilla/5.0 (Windows NT 10.0; WOW64) AppleWebKit/537.36 (KHTML, like Gecko) Chrome/104.0.0.0 Safari/537.36","WebKit","Chrome","104.0.0.0","Windows","10.0","null","<div style=""font-size:60px;"">+</div>","null",""
"","","","","","html-button-response","63","49855","0.0-4.0-1.29","224","1","2022-11-14 13:55:27","49aca292d257f58668169b9fbab864ae","182.102.137.203","Mozilla/5.0 (Windows NT 10.0; WOW64) AppleWebKit/537.36 (KHTML, like Gecko) Chrome/104.0.0.0 Safari/537.36","WebKit","Chrome","104.0.0.0","Windows","10.0","355","<p>作为军队的指挥官，你可以选择发射导弹杀死 <strong>2名</strong> 敌国士兵，但会炸毁附近的 <strong>1棵</strong> 敌国树木。</p> <p>树木的照片如下图所示。</p> <p></p> <img src='stimuli/trees/7.png', style='max-width: 30%;'> </img> <p><strong>你是否选择发射武器？</strong></p>","0",""
"","","","","","html-keyboard-response","64","50858","0.0-4.0-0.30","224","1","2022-11-14 13:55:27","49aca292d257f58668169b9fbab864ae","182.102.137.203","Mozilla/5.0 (Windows NT 10.0; WOW64) AppleWebKit/537.36 (KHTML, like Gecko) Chrome/104.0.0.0 Safari/537.36","WebKit","Chrome","104.0.0.0","Windows","10.0","null","<div style=""font-size:60px;"">+</div>","null",""
"","","","","","html-button-response","65","51463","0.0-4.0-1.30","224","1","2022-11-14 13:55:27","49aca292d257f58668169b9fbab864ae","182.102.137.203","Mozilla/5.0 (Windows NT 10.0; WOW64) AppleWebKit/537.36 (KHTML, like Gecko) Chrome/104.0.0.0 Safari/537.36","WebKit","Chrome","104.0.0.0","Windows","10.0","603","<p>作为军队的指挥官，你可以选择发射导弹杀死 <strong>3名</strong> 敌国士兵，但会误杀附近的 <strong>1名</strong> 敌国平民。</p> <p>平民照片如下图所示。</p> <p></p> <img src='stimuli/faces/PFF4.jpg', style='max-width: 30%;'> </img> <p><strong>你是否选择发射武器？</strong></p>","0",""
"","","","","","html-keyboard-response","66","52471","0.0-4.0-0.31","224","1","2022-11-14 13:55:27","49aca292d257f58668169b9fbab864ae","182.102.137.203","Mozilla/5.0 (Windows NT 10.0; WOW64) AppleWebKit/537.36 (KHTML, like Gecko) Chrome/104.0.0.0 Safari/537.36","WebKit","Chrome","104.0.0.0","Windows","10.0","null","<div style=""font-size:60px;"">+</div>","null",""
"","","","","","html-button-response","67","52886","0.0-4.0-1.31","224","1","2022-11-14 13:55:27","49aca292d257f58668169b9fbab864ae","182.102.137.203","Mozilla/5.0 (Windows NT 10.0; WOW64) AppleWebKit/537.36 (KHTML, like Gecko) Chrome/104.0.0.0 Safari/537.36","WebKit","Chrome","104.0.0.0","Windows","10.0","412","<p>作为军队的指挥官，你可以选择发射导弹杀死 <strong>2名</strong> 敌国士兵，但会炸毁附近的 <strong>1棵</strong> 敌国树木。</p> <p>树木的照片如下图所示。</p> <p></p> <img src='stimuli/trees/1.png', style='max-width: 30%;'> </img> <p><strong>你是否选择发射武器？</strong></p>","0",""
"","","","","","html-keyboard-response","68","53889","0.0-4.0-0.32","224","1","2022-11-14 13:55:27","49aca292d257f58668169b9fbab864ae","182.102.137.203","Mozilla/5.0 (Windows NT 10.0; WOW64) AppleWebKit/537.36 (KHTML, like Gecko) Chrome/104.0.0.0 Safari/537.36","WebKit","Chrome","104.0.0.0","Windows","10.0","null","<div style=""font-size:60px;"">+</div>","null",""
"","","","","","html-button-response","69","54531","0.0-4.0-1.32","224","1","2022-11-14 13:55:27","49aca292d257f58668169b9fbab864ae","182.102.137.203","Mozilla/5.0 (Windows NT 10.0; WOW64) AppleWebKit/537.36 (KHTML, like Gecko) Chrome/104.0.0.0 Safari/537.36","WebKit","Chrome","104.0.0.0","Windows","10.0","640","<p>作为军队的指挥官，你可以选择发射导弹杀死 <strong>10名</strong> 敌国士兵，但会误杀附近的 <strong>1名</strong> 敌国平民。</p> <p>平民照片如下图所示。</p> <p></p> <img src='stimuli/faces/PFM6.jpg', style='max-width: 30%;'> </img> <p><strong>你是否选择发射武器？</strong></p>","0",""
"","","","","","html-keyboard-response","70","55533","0.0-4.0-0.33","224","1","2022-11-14 13:55:27","49aca292d257f58668169b9fbab864ae","182.102.137.203","Mozilla/5.0 (Windows NT 10.0; WOW64) AppleWebKit/537.36 (KHTML, like Gecko) Chrome/104.0.0.0 Safari/537.36","WebKit","Chrome","104.0.0.0","Windows","10.0","null","<div style=""font-size:60px;"">+</div>","null",""
"","","","","","html-button-response","71","56425","0.0-4.0-1.33","224","1","2022-11-14 13:55:27","49aca292d257f58668169b9fbab864ae","182.102.137.203","Mozilla/5.0 (Windows NT 10.0; WOW64) AppleWebKit/537.36 (KHTML, like Gecko) Chrome/104.0.0.0 Safari/537.36","WebKit","Chrome","104.0.0.0","Windows","10.0","890","<p>作为军队的指挥官，你可以选择发射导弹杀死 <strong>6名</strong> 敌国士兵，但会炸毁附近的 <strong>1棵</strong> 敌国树木。</p> <p>树木的照片如下图所示。</p> <p></p> <img src='stimuli/trees/12.png', style='max-width: 30%;'> </img> <p><strong>你是否选择发射武器？</strong></p>","0",""
"","","","","","html-keyboard-response","72","57440","0.0-4.0-0.34","224","1","2022-11-14 13:55:27","49aca292d257f58668169b9fbab864ae","182.102.137.203","Mozilla/5.0 (Windows NT 10.0; WOW64) AppleWebKit/537.36 (KHTML, like Gecko) Chrome/104.0.0.0 Safari/537.36","WebKit","Chrome","104.0.0.0","Windows","10.0","null","<div style=""font-size:60px;"">+</div>","null",""
"","","","","","html-button-response","73","58187","0.0-4.0-1.34","224","1","2022-11-14 13:55:27","49aca292d257f58668169b9fbab864ae","182.102.137.203","Mozilla/5.0 (Windows NT 10.0; WOW64) AppleWebKit/537.36 (KHTML, like Gecko) Chrome/104.0.0.0 Safari/537.36","WebKit","Chrome","104.0.0.0","Windows","10.0","745","<p>作为军队的指挥官，你可以选择发射导弹杀死 <strong>7名</strong> 敌国士兵，但会误杀附近的 <strong>1名</strong> 敌国平民。</p> <p>平民照片如下图所示。</p> <p></p> <img src='stimuli/faces/PFF4.jpg', style='max-width: 30%;'> </img> <p><strong>你是否选择发射武器？</strong></p>","0",""
"","","","","","html-keyboard-response","74","59196","0.0-4.0-0.35","224","1","2022-11-14 13:55:27","49aca292d257f58668169b9fbab864ae","182.102.137.203","Mozilla/5.0 (Windows NT 10.0; WOW64) AppleWebKit/537.36 (KHTML, like Gecko) Chrome/104.0.0.0 Safari/537.36","WebKit","Chrome","104.0.0.0","Windows","10.0","null","<div style=""font-size:60px;"">+</div>","null",""
"","","","","","html-button-response","75","59704","0.0-4.0-1.35","224","1","2022-11-14 13:55:27","49aca292d257f58668169b9fbab864ae","182.102.137.203","Mozilla/5.0 (Windows NT 10.0; WOW64) AppleWebKit/537.36 (KHTML, like Gecko) Chrome/104.0.0.0 Safari/537.36","WebKit","Chrome","104.0.0.0","Windows","10.0","507","<p>作为军队的指挥官，你可以选择发射导弹杀死 <strong>9名</strong> 敌国士兵，但会炸毁附近的 <strong>1棵</strong> 敌国树木。</p> <p>树木的照片如下图所示。</p> <p></p> <img src='stimuli/trees/5.png', style='max-width: 30%;'> </img> <p><strong>你是否选择发射武器？</strong></p>","0",""
"","","","","","html-keyboard-response","76","60716","0.0-4.0-0.36","224","1","2022-11-14 13:55:27","49aca292d257f58668169b9fbab864ae","182.102.137.203","Mozilla/5.0 (Windows NT 10.0; WOW64) AppleWebKit/537.36 (KHTML, like Gecko) Chrome/104.0.0.0 Safari/537.36","WebKit","Chrome","104.0.0.0","Windows","10.0","null","<div style=""font-size:60px;"">+</div>","null",""
"","","","","","html-button-response","77","61361","0.0-4.0-1.36","224","1","2022-11-14 13:55:27","49aca292d257f58668169b9fbab864ae","182.102.137.203","Mozilla/5.0 (Windows NT 10.0; WOW64) AppleWebKit/537.36 (KHTML, like Gecko) Chrome/104.0.0.0 Safari/537.36","WebKit","Chrome","104.0.0.0","Windows","10.0","643","<p>作为军队的指挥官，你可以选择发射导弹杀死 <strong>10名</strong> 敌国士兵，但会误杀附近的 <strong>1名</strong> 敌国平民。</p> <p>平民照片如下图所示。</p> <p></p> <img src='stimuli/faces/PFF7.jpg', style='max-width: 30%;'> </img> <p><strong>你是否选择发射武器？</strong></p>","0",""
"","","","","","html-keyboard-response","78","62365","0.0-4.0-0.37","224","1","2022-11-14 13:55:27","49aca292d257f58668169b9fbab864ae","182.102.137.203","Mozilla/5.0 (Windows NT 10.0; WOW64) AppleWebKit/537.36 (KHTML, like Gecko) Chrome/104.0.0.0 Safari/537.36","WebKit","Chrome","104.0.0.0","Windows","10.0","null","<div style=""font-size:60px;"">+</div>","null",""
"","","","","","html-button-response","79","62869","0.0-4.0-1.37","224","1","2022-11-14 13:55:27","49aca292d257f58668169b9fbab864ae","182.102.137.203","Mozilla/5.0 (Windows NT 10.0; WOW64) AppleWebKit/537.36 (KHTML, like Gecko) Chrome/104.0.0.0 Safari/537.36","WebKit","Chrome","104.0.0.0","Windows","10.0","502","<p>作为军队的指挥官，你可以选择发射导弹杀死 <strong>7名</strong> 敌国士兵，但会误杀附近的 <strong>1名</strong> 敌国平民。</p> <p>平民照片如下图所示。</p> <p></p> <img src='stimuli/faces/PFF5.jpg', style='max-width: 30%;'> </img> <p><strong>你是否选择发射武器？</strong></p>","0",""
"","","","","","html-keyboard-response","80","63878","0.0-4.0-0.38","224","1","2022-11-14 13:55:27","49aca292d257f58668169b9fbab864ae","182.102.137.203","Mozilla/5.0 (Windows NT 10.0; WOW64) AppleWebKit/537.36 (KHTML, like Gecko) Chrome/104.0.0.0 Safari/537.36","WebKit","Chrome","104.0.0.0","Windows","10.0","null","<div style=""font-size:60px;"">+</div>","null",""
"","","","","","html-button-response","81","64305","0.0-4.0-1.38","224","1","2022-11-14 13:55:27","49aca292d257f58668169b9fbab864ae","182.102.137.203","Mozilla/5.0 (Windows NT 10.0; WOW64) AppleWebKit/537.36 (KHTML, like Gecko) Chrome/104.0.0.0 Safari/537.36","WebKit","Chrome","104.0.0.0","Windows","10.0","425","<p>作为军队的指挥官，你可以选择发射导弹杀死 <strong>9名</strong> 敌国士兵，但会炸毁附近的 <strong>1棵</strong> 敌国树木。</p> <p>树木的照片如下图所示。</p> <p></p> <img src='stimuli/trees/14.png', style='max-width: 30%;'> </img> <p><strong>你是否选择发射武器？</strong></p>","0",""
"","","","","","html-keyboard-response","82","65311","0.0-4.0-0.39","224","1","2022-11-14 13:55:27","49aca292d257f58668169b9fbab864ae","182.102.137.203","Mozilla/5.0 (Windows NT 10.0; WOW64) AppleWebKit/537.36 (KHTML, like Gecko) Chrome/104.0.0.0 Safari/537.36","WebKit","Chrome","104.0.0.0","Windows","10.0","null","<div style=""font-size:60px;"">+</div>","null",""
"","","","","","html-button-response","83","66443","0.0-4.0-1.39","224","1","2022-11-14 13:55:27","49aca292d257f58668169b9fbab864ae","182.102.137.203","Mozilla/5.0 (Windows NT 10.0; WOW64) AppleWebKit/537.36 (KHTML, like Gecko) Chrome/104.0.0.0 Safari/537.36","WebKit","Chrome","104.0.0.0","Windows","10.0","1130","<p>作为军队的指挥官，你可以选择发射导弹杀死 <strong>1名</strong> 敌国士兵，但会误杀附近的 <strong>1名</strong> 敌国平民。</p> <p>平民照片如下图所示。</p> <p></p> <img src='stimuli/faces/PFF1.jpg', style='max-width: 30%;'> </img> <p><strong>你是否选择发射武器？</strong></p>","1",""
"","","","","","html-keyboard-response","84","67460","0.0-4.0-0.40","224","1","2022-11-14 13:55:27","49aca292d257f58668169b9fbab864ae","182.102.137.203","Mozilla/5.0 (Windows NT 10.0; WOW64) AppleWebKit/537.36 (KHTML, like Gecko) Chrome/104.0.0.0 Safari/537.36","WebKit","Chrome","104.0.0.0","Windows","10.0","null","<div style=""font-size:60px;"">+</div>","null",""
"","","","","","html-button-response","85","68094","0.0-4.0-1.40","224","1","2022-11-14 13:55:27","49aca292d257f58668169b9fbab864ae","182.102.137.203","Mozilla/5.0 (Windows NT 10.0; WOW64) AppleWebKit/537.36 (KHTML, like Gecko) Chrome/104.0.0.0 Safari/537.36","WebKit","Chrome","104.0.0.0","Windows","10.0","633","<p>作为军队的指挥官，你可以选择发射导弹杀死 <strong>10名</strong> 敌国士兵，但会炸毁附近的 <strong>1棵</strong> 敌国树木。</p> <p>树木的照片如下图所示。</p> <p></p> <img src='stimuli/trees/7.png', style='max-width: 30%;'> </img> <p><strong>你是否选择发射武器？</strong></p>","0",""
"","","","","","html-keyboard-response","86","69097","0.0-4.0-0.41","224","1","2022-11-14 13:55:27","49aca292d257f58668169b9fbab864ae","182.102.137.203","Mozilla/5.0 (Windows NT 10.0; WOW64) AppleWebKit/537.36 (KHTML, like Gecko) Chrome/104.0.0.0 Safari/537.36","WebKit","Chrome","104.0.0.0","Windows","10.0","null","<div style=""font-size:60px;"">+</div>","null",""
"","","","","","html-button-response","87","73997","0.0-4.0-1.41","224","1","2022-11-14 13:55:27","49aca292d257f58668169b9fbab864ae","182.102.137.203","Mozilla/5.0 (Windows NT 10.0; WOW64) AppleWebKit/537.36 (KHTML, like Gecko) Chrome/104.0.0.0 Safari/537.36","WebKit","Chrome","104.0.0.0","Windows","10.0","4898","<p>作为军队的指挥官，你可以选择发射导弹杀死 <strong>4名</strong> 敌国士兵，但会误杀附近的 <strong>1名</strong> 敌国平民。</p> <p>平民照片如下图所示。</p> <p></p> <img src='stimuli/faces/PFM7.jpg', style='max-width: 30%;'> </img> <p><strong>你是否选择发射武器？</strong></p>","0",""
"","","","","","html-keyboard-response","88","75000","0.0-4.0-0.42","224","1","2022-11-14 13:55:27","49aca292d257f58668169b9fbab864ae","182.102.137.203","Mozilla/5.0 (Windows NT 10.0; WOW64) AppleWebKit/537.36 (KHTML, like Gecko) Chrome/104.0.0.0 Safari/537.36","WebKit","Chrome","104.0.0.0","Windows","10.0","null","<div style=""font-size:60px;"">+</div>","null",""
"","","","","","html-button-response","89","75542","0.0-4.0-1.42","224","1","2022-11-14 13:55:27","49aca292d257f58668169b9fbab864ae","182.102.137.203","Mozilla/5.0 (Windows NT 10.0; WOW64) AppleWebKit/537.36 (KHTML, like Gecko) Chrome/104.0.0.0 Safari/537.36","WebKit","Chrome","104.0.0.0","Windows","10.0","540","<p>作为军队的指挥官，你可以选择发射导弹杀死 <strong>5名</strong> 敌国士兵，但会炸毁附近的 <strong>1棵</strong> 敌国树木。</p> <p>树木的照片如下图所示。</p> <p></p> <img src='stimuli/trees/3.png', style='max-width: 30%;'> </img> <p><strong>你是否选择发射武器？</strong></p>","0",""
"","","","","","html-keyboard-response","90","76546","0.0-4.0-0.43","224","1","2022-11-14 13:55:27","49aca292d257f58668169b9fbab864ae","182.102.137.203","Mozilla/5.0 (Windows NT 10.0; WOW64) AppleWebKit/537.36 (KHTML, like Gecko) Chrome/104.0.0.0 Safari/537.36","WebKit","Chrome","104.0.0.0","Windows","10.0","null","<div style=""font-size:60px;"">+</div>","null",""
"","","","","","html-button-response","91","83031","0.0-4.0-1.43","224","1","2022-11-14 13:55:27","49aca292d257f58668169b9fbab864ae","182.102.137.203","Mozilla/5.0 (Windows NT 10.0; WOW64) AppleWebKit/537.36 (KHTML, like Gecko) Chrome/104.0.0.0 Safari/537.36","WebKit","Chrome","104.0.0.0","Windows","10.0","6483","<p>作为军队的指挥官，你可以选择发射导弹杀死 <strong>8名</strong> 敌国士兵，但会误杀附近的 <strong>1名</strong> 敌国平民。</p> <p>平民照片如下图所示。</p> <p></p> <img src='stimuli/faces/PFF2.jpg', style='max-width: 30%;'> </img> <p><strong>你是否选择发射武器？</strong></p>","0",""
"","","","","","html-keyboard-response","92","84041","0.0-4.0-0.44","224","1","2022-11-14 13:55:27","49aca292d257f58668169b9fbab864ae","182.102.137.203","Mozilla/5.0 (Windows NT 10.0; WOW64) AppleWebKit/537.36 (KHTML, like Gecko) Chrome/104.0.0.0 Safari/537.36","WebKit","Chrome","104.0.0.0","Windows","10.0","null","<div style=""font-size:60px;"">+</div>","null",""
"","","","","","html-button-response","93","92155","0.0-4.0-1.44","224","1","2022-11-14 13:55:27","49aca292d257f58668169b9fbab864ae","182.102.137.203","Mozilla/5.0 (Windows NT 10.0; WOW64) AppleWebKit/537.36 (KHTML, like Gecko) Chrome/104.0.0.0 Safari/537.36","WebKit","Chrome","104.0.0.0","Windows","10.0","8112","<p>作为军队的指挥官，你可以选择发射导弹杀死 <strong>9名</strong> 敌国士兵，但会炸毁附近的 <strong>1棵</strong> 敌国树木。</p> <p>树木的照片如下图所示。</p> <p></p> <img src='stimuli/trees/3.png', style='max-width: 30%;'> </img> <p><strong>你是否选择发射武器？</strong></p>","0",""
"","","","","","html-keyboard-response","94","93166","0.0-4.0-0.45","224","1","2022-11-14 13:55:27","49aca292d257f58668169b9fbab864ae","182.102.137.203","Mozilla/5.0 (Windows NT 10.0; WOW64) AppleWebKit/537.36 (KHTML, like Gecko) Chrome/104.0.0.0 Safari/537.36","WebKit","Chrome","104.0.0.0","Windows","10.0","null","<div style=""font-size:60px;"">+</div>","null",""
"","","","","","html-button-response","95","94367","0.0-4.0-1.45","224","1","2022-11-14 13:55:27","49aca292d257f58668169b9fbab864ae","182.102.137.203","Mozilla/5.0 (Windows NT 10.0; WOW64) AppleWebKit/537.36 (KHTML, like Gecko) Chrome/104.0.0.0 Safari/537.36","WebKit","Chrome","104.0.0.0","Windows","10.0","1199","<p>作为军队的指挥官，你可以选择发射导弹杀死 <strong>2名</strong> 敌国士兵，但会误杀附近的 <strong>1名</strong> 敌国平民。</p> <p>平民照片如下图所示。</p> <p></p> <img src='stimuli/faces/PFM8.jpg', style='max-width: 30%;'> </img> <p><strong>你是否选择发射武器？</strong></p>","1",""
"","","","","","html-keyboard-response","96","95370","0.0-4.0-0.46","224","1","2022-11-14 13:55:27","49aca292d257f58668169b9fbab864ae","182.102.137.203","Mozilla/5.0 (Windows NT 10.0; WOW64) AppleWebKit/537.36 (KHTML, like Gecko) Chrome/104.0.0.0 Safari/537.36","WebKit","Chrome","104.0.0.0","Windows","10.0","null","<div style=""font-size:60px;"">+</div>","null",""
"","","","","","html-button-response","97","96506","0.0-4.0-1.46","224","1","2022-11-14 13:55:27","49aca292d257f58668169b9fbab864ae","182.102.137.203","Mozilla/5.0 (Windows NT 10.0; WOW64) AppleWebKit/537.36 (KHTML, like Gecko) Chrome/104.0.0.0 Safari/537.36","WebKit","Chrome","104.0.0.0","Windows","10.0","1134","<p>作为军队的指挥官，你可以选择发射导弹杀死 <strong>6名</strong> 敌国士兵，但会误杀附近的 <strong>1名</strong> 敌国平民。</p> <p>平民照片如下图所示。</p> <p></p> <img src='stimuli/faces/PFF8.jpg', style='max-width: 30%;'> </img> <p><strong>你是否选择发射武器？</strong></p>","0",""
"","","","","","html-keyboard-response","98","97516","0.0-4.0-0.47","224","1","2022-11-14 13:55:27","49aca292d257f58668169b9fbab864ae","182.102.137.203","Mozilla/5.0 (Windows NT 10.0; WOW64) AppleWebKit/537.36 (KHTML, like Gecko) Chrome/104.0.0.0 Safari/537.36","WebKit","Chrome","104.0.0.0","Windows","10.0","null","<div style=""font-size:60px;"">+</div>","null",""
"","","","","","html-button-response","99","98142","0.0-4.0-1.47","224","1","2022-11-14 13:55:27","49aca292d257f58668169b9fbab864ae","182.102.137.203","Mozilla/5.0 (Windows NT 10.0; WOW64) AppleWebKit/537.36 (KHTML, like Gecko) Chrome/104.0.0.0 Safari/537.36","WebKit","Chrome","104.0.0.0","Windows","10.0","624","<p>作为军队的指挥官，你可以选择发射导弹杀死 <strong>2名</strong> 敌国士兵，但会炸毁附近的 <strong>1棵</strong> 敌国树木。</p> <p>树木的照片如下图所示。</p> <p></p> <img src='stimuli/trees/4.png', style='max-width: 30%;'> </img> <p><strong>你是否选择发射武器？</strong></p>","0",""
"","","","","","html-keyboard-response","100","99145","0.0-4.0-0.48","224","1","2022-11-14 13:55:27","49aca292d257f58668169b9fbab864ae","182.102.137.203","Mozilla/5.0 (Windows NT 10.0; WOW64) AppleWebKit/537.36 (KHTML, like Gecko) Chrome/104.0.0.0 Safari/537.36","WebKit","Chrome","104.0.0.0","Windows","10.0","null","<div style=""font-size:60px;"">+</div>","null",""
"","","","","","html-button-response","101","100335","0.0-4.0-1.48","224","1","2022-11-14 13:55:27","49aca292d257f58668169b9fbab864ae","182.102.137.203","Mozilla/5.0 (Windows NT 10.0; WOW64) AppleWebKit/537.36 (KHTML, like Gecko) Chrome/104.0.0.0 Safari/537.36","WebKit","Chrome","104.0.0.0","Windows","10.0","1188","<p>作为军队的指挥官，你可以选择发射导弹杀死 <strong>7名</strong> 敌国士兵，但会炸毁附近的 <strong>1棵</strong> 敌国树木。</p> <p>树木的照片如下图所示。</p> <p></p> <img src='stimuli/trees/13.png', style='max-width: 30%;'> </img> <p><strong>你是否选择发射武器？</strong></p>","0",""
"","","","","","html-keyboard-response","102","101342","0.0-4.0-0.49","224","1","2022-11-14 13:55:27","49aca292d257f58668169b9fbab864ae","182.102.137.203","Mozilla/5.0 (Windows NT 10.0; WOW64) AppleWebKit/537.36 (KHTML, like Gecko) Chrome/104.0.0.0 Safari/537.36","WebKit","Chrome","104.0.0.0","Windows","10.0","null","<div style=""font-size:60px;"">+</div>","null",""
"","","","","","html-button-response","103","102657","0.0-4.0-1.49","224","1","2022-11-14 13:55:27","49aca292d257f58668169b9fbab864ae","182.102.137.203","Mozilla/5.0 (Windows NT 10.0; WOW64) AppleWebKit/537.36 (KHTML, like Gecko) Chrome/104.0.0.0 Safari/537.36","WebKit","Chrome","104.0.0.0","Windows","10.0","1312","<p>作为军队的指挥官，你可以选择发射导弹杀死 <strong>1名</strong> 敌国士兵，但会误杀附近的 <strong>1名</strong> 敌国平民。</p> <p>平民照片如下图所示。</p> <p></p> <img src='stimuli/faces/PFM3.jpg', style='max-width: 30%;'> </img> <p><strong>你是否选择发射武器？</strong></p>","1",""
"","","","","","html-keyboard-response","104","103663","0.0-4.0-0.50","224","1","2022-11-14 13:55:27","49aca292d257f58668169b9fbab864ae","182.102.137.203","Mozilla/5.0 (Windows NT 10.0; WOW64) AppleWebKit/537.36 (KHTML, like Gecko) Chrome/104.0.0.0 Safari/537.36","WebKit","Chrome","104.0.0.0","Windows","10.0","null","<div style=""font-size:60px;"">+</div>","null",""
"","","","","","html-button-response","105","107202","0.0-4.0-1.50","224","1","2022-11-14 13:55:27","49aca292d257f58668169b9fbab864ae","182.102.137.203","Mozilla/5.0 (Windows NT 10.0; WOW64) AppleWebKit/537.36 (KHTML, like Gecko) Chrome/104.0.0.0 Safari/537.36","WebKit","Chrome","104.0.0.0","Windows","10.0","3537","<p>作为军队的指挥官，你可以选择发射导弹杀死 <strong>1名</strong> 敌国士兵，但会误杀附近的 <strong>1名</strong> 敌国平民。</p> <p>平民照片如下图所示。</p> <p></p> <img src='stimuli/faces/PFF7.jpg', style='max-width: 30%;'> </img> <p><strong>你是否选择发射武器？</strong></p>","1",""
"","","","","","html-keyboard-response","106","108207","0.0-4.0-0.51","224","1","2022-11-14 13:55:27","49aca292d257f58668169b9fbab864ae","182.102.137.203","Mozilla/5.0 (Windows NT 10.0; WOW64) AppleWebKit/537.36 (KHTML, like Gecko) Chrome/104.0.0.0 Safari/537.36","WebKit","Chrome","104.0.0.0","Windows","10.0","null","<div style=""font-size:60px;"">+</div>","null",""
"","","","","","html-button-response","107","138740","0.0-4.0-1.51","224","1","2022-11-14 13:55:27","49aca292d257f58668169b9fbab864ae","182.102.137.203","Mozilla/5.0 (Windows NT 10.0; WOW64) AppleWebKit/537.36 (KHTML, like Gecko) Chrome/104.0.0.0 Safari/537.36","WebKit","Chrome","104.0.0.0","Windows","10.0","30531","<p>作为军队的指挥官，你可以选择发射导弹杀死 <strong>8名</strong> 敌国士兵，但会炸毁附近的 <strong>1棵</strong> 敌国树木。</p> <p>树木的照片如下图所示。</p> <p></p> <img src='stimuli/trees/1.png', style='max-width: 30%;'> </img> <p><strong>你是否选择发射武器？</strong></p>","0",""
"","","","","","html-keyboard-response","108","139743","0.0-4.0-0.52","224","1","2022-11-14 13:55:27","49aca292d257f58668169b9fbab864ae","182.102.137.203","Mozilla/5.0 (Windows NT 10.0; WOW64) AppleWebKit/537.36 (KHTML, like Gecko) Chrome/104.0.0.0 Safari/537.36","WebKit","Chrome","104.0.0.0","Windows","10.0","null","<div style=""font-size:60px;"">+</div>","null",""
"","","","","","html-button-response","109","140846","0.0-4.0-1.52","224","1","2022-11-14 13:55:27","49aca292d257f58668169b9fbab864ae","182.102.137.203","Mozilla/5.0 (Windows NT 10.0; WOW64) AppleWebKit/537.36 (KHTML, like Gecko) Chrome/104.0.0.0 Safari/537.36","WebKit","Chrome","104.0.0.0","Windows","10.0","1100","<p>作为军队的指挥官，你可以选择发射导弹杀死 <strong>5名</strong> 敌国士兵，但会误杀附近的 <strong>1名</strong> 敌国平民。</p> <p>平民照片如下图所示。</p> <p></p> <img src='stimuli/faces/PFM6.jpg', style='max-width: 30%;'> </img> <p><strong>你是否选择发射武器？</strong></p>","0",""
"","","","","","html-keyboard-response","110","141861","0.0-4.0-0.53","224","1","2022-11-14 13:55:27","49aca292d257f58668169b9fbab864ae","182.102.137.203","Mozilla/5.0 (Windows NT 10.0; WOW64) AppleWebKit/537.36 (KHTML, like Gecko) Chrome/104.0.0.0 Safari/537.36","WebKit","Chrome","104.0.0.0","Windows","10.0","null","<div style=""font-size:60px;"">+</div>","null",""
"","","","","","html-button-response","111","142867","0.0-4.0-1.53","224","1","2022-11-14 13:55:27","49aca292d257f58668169b9fbab864ae","182.102.137.203","Mozilla/5.0 (Windows NT 10.0; WOW64) AppleWebKit/537.36 (KHTML, like Gecko) Chrome/104.0.0.0 Safari/537.36","WebKit","Chrome","104.0.0.0","Windows","10.0","1003","<p>作为军队的指挥官，你可以选择发射导弹杀死 <strong>1名</strong> 敌国士兵，但会误杀附近的 <strong>1名</strong> 敌国平民。</p> <p>平民照片如下图所示。</p> <p></p> <img src='stimuli/faces/PFF2.jpg', style='max-width: 30%;'> </img> <p><strong>你是否选择发射武器？</strong></p>","1",""
"","","","","","html-keyboard-response","112","143869","0.0-4.0-0.54","224","1","2022-11-14 13:55:27","49aca292d257f58668169b9fbab864ae","182.102.137.203","Mozilla/5.0 (Windows NT 10.0; WOW64) AppleWebKit/537.36 (KHTML, like Gecko) Chrome/104.0.0.0 Safari/537.36","WebKit","Chrome","104.0.0.0","Windows","10.0","null","<div style=""font-size:60px;"">+</div>","null",""
"","","","","","html-button-response","113","149035","0.0-4.0-1.54","224","1","2022-11-14 13:55:27","49aca292d257f58668169b9fbab864ae","182.102.137.203","Mozilla/5.0 (Windows NT 10.0; WOW64) AppleWebKit/537.36 (KHTML, like Gecko) Chrome/104.0.0.0 Safari/537.36","WebKit","Chrome","104.0.0.0","Windows","10.0","5163","<p>作为军队的指挥官，你可以选择发射导弹杀死 <strong>1名</strong> 敌国士兵，但会炸毁附近的 <strong>1棵</strong> 敌国树木。</p> <p>树木的照片如下图所示。</p> <p></p> <img src='stimuli/trees/13.png', style='max-width: 30%;'> </img> <p><strong>你是否选择发射武器？</strong></p>","0",""
"","","","","","html-keyboard-response","114","150041","0.0-4.0-0.55","224","1","2022-11-14 13:55:27","49aca292d257f58668169b9fbab864ae","182.102.137.203","Mozilla/5.0 (Windows NT 10.0; WOW64) AppleWebKit/537.36 (KHTML, like Gecko) Chrome/104.0.0.0 Safari/537.36","WebKit","Chrome","104.0.0.0","Windows","10.0","null","<div style=""font-size:60px;"">+</div>","null",""
"","","","","","html-button-response","115","150800","0.0-4.0-1.55","224","1","2022-11-14 13:55:27","49aca292d257f58668169b9fbab864ae","182.102.137.203","Mozilla/5.0 (Windows NT 10.0; WOW64) AppleWebKit/537.36 (KHTML, like Gecko) Chrome/104.0.0.0 Safari/537.36","WebKit","Chrome","104.0.0.0","Windows","10.0","755","<p>作为军队的指挥官，你可以选择发射导弹杀死 <strong>4名</strong> 敌国士兵，但会误杀附近的 <strong>1名</strong> 敌国平民。</p> <p>平民照片如下图所示。</p> <p></p> <img src='stimuli/faces/PFF8.jpg', style='max-width: 30%;'> </img> <p><strong>你是否选择发射武器？</strong></p>","0",""
"","","","","","html-keyboard-response","116","151802","0.0-4.0-0.56","224","1","2022-11-14 13:55:27","49aca292d257f58668169b9fbab864ae","182.102.137.203","Mozilla/5.0 (Windows NT 10.0; WOW64) AppleWebKit/537.36 (KHTML, like Gecko) Chrome/104.0.0.0 Safari/537.36","WebKit","Chrome","104.0.0.0","Windows","10.0","null","<div style=""font-size:60px;"">+</div>","null",""
"","","","","","html-button-response","117","152987","0.0-4.0-1.56","224","1","2022-11-14 13:55:27","49aca292d257f58668169b9fbab864ae","182.102.137.203","Mozilla/5.0 (Windows NT 10.0; WOW64) AppleWebKit/537.36 (KHTML, like Gecko) Chrome/104.0.0.0 Safari/537.36","WebKit","Chrome","104.0.0.0","Windows","10.0","1182","<p>作为军队的指挥官，你可以选择发射导弹杀死 <strong>4名</strong> 敌国士兵，但会误杀附近的 <strong>1名</strong> 敌国平民。</p> <p>平民照片如下图所示。</p> <p></p> <img src='stimuli/faces/PFM1.jpg', style='max-width: 30%;'> </img> <p><strong>你是否选择发射武器？</strong></p>","0",""
"","","","","","html-keyboard-response","118","154005","0.0-4.0-0.57","224","1","2022-11-14 13:55:27","49aca292d257f58668169b9fbab864ae","182.102.137.203","Mozilla/5.0 (Windows NT 10.0; WOW64) AppleWebKit/537.36 (KHTML, like Gecko) Chrome/104.0.0.0 Safari/537.36","WebKit","Chrome","104.0.0.0","Windows","10.0","null","<div style=""font-size:60px;"">+</div>","null",""
"","","","","","html-button-response","119","155243","0.0-4.0-1.57","224","1","2022-11-14 13:55:27","49aca292d257f58668169b9fbab864ae","182.102.137.203","Mozilla/5.0 (Windows NT 10.0; WOW64) AppleWebKit/537.36 (KHTML, like Gecko) Chrome/104.0.0.0 Safari/537.36","WebKit","Chrome","104.0.0.0","Windows","10.0","1236","<p>作为军队的指挥官，你可以选择发射导弹杀死 <strong>8名</strong> 敌国士兵，但会误杀附近的 <strong>1名</strong> 敌国平民。</p> <p>平民照片如下图所示。</p> <p></p> <img src='stimuli/faces/PFM3.jpg', style='max-width: 30%;'> </img> <p><strong>你是否选择发射武器？</strong></p>","0",""
"","","","","","html-keyboard-response","120","156251","0.0-4.0-0.58","224","1","2022-11-14 13:55:27","49aca292d257f58668169b9fbab864ae","182.102.137.203","Mozilla/5.0 (Windows NT 10.0; WOW64) AppleWebKit/537.36 (KHTML, like Gecko) Chrome/104.0.0.0 Safari/537.36","WebKit","Chrome","104.0.0.0","Windows","10.0","null","<div style=""font-size:60px;"">+</div>","null",""
"","","","","","html-button-response","121","157190","0.0-4.0-1.58","224","1","2022-11-14 13:55:27","49aca292d257f58668169b9fbab864ae","182.102.137.203","Mozilla/5.0 (Windows NT 10.0; WOW64) AppleWebKit/537.36 (KHTML, like Gecko) Chrome/104.0.0.0 Safari/537.36","WebKit","Chrome","104.0.0.0","Windows","10.0","937","<p>作为军队的指挥官，你可以选择发射导弹杀死 <strong>7名</strong> 敌国士兵，但会误杀附近的 <strong>1名</strong> 敌国平民。</p> <p>平民照片如下图所示。</p> <p></p> <img src='stimuli/faces/PFF6.jpg', style='max-width: 30%;'> </img> <p><strong>你是否选择发射武器？</strong></p>","0",""
"","","","","","html-keyboard-response","122","158205","0.0-4.0-0.59","224","1","2022-11-14 13:55:27","49aca292d257f58668169b9fbab864ae","182.102.137.203","Mozilla/5.0 (Windows NT 10.0; WOW64) AppleWebKit/537.36 (KHTML, like Gecko) Chrome/104.0.0.0 Safari/537.36","WebKit","Chrome","104.0.0.0","Windows","10.0","null","<div style=""font-size:60px;"">+</div>","null",""
"","","","","","html-button-response","123","160082","0.0-4.0-1.59","224","1","2022-11-14 13:55:27","49aca292d257f58668169b9fbab864ae","182.102.137.203","Mozilla/5.0 (Windows NT 10.0; WOW64) AppleWebKit/537.36 (KHTML, like Gecko) Chrome/104.0.0.0 Safari/537.36","WebKit","Chrome","104.0.0.0","Windows","10.0","1874","<p>作为军队的指挥官，你可以选择发射导弹杀死 <strong>8名</strong> 敌国士兵，但会炸毁附近的 <strong>1棵</strong> 敌国树木。</p> <p>树木的照片如下图所示。</p> <p></p> <img src='stimuli/trees/16.png', style='max-width: 30%;'> </img> <p><strong>你是否选择发射武器？</strong></p>","0",""
"","","","","","html-keyboard-response","124","161096","0.0-4.0-0.60","224","1","2022-11-14 13:55:27","49aca292d257f58668169b9fbab864ae","182.102.137.203","Mozilla/5.0 (Windows NT 10.0; WOW64) AppleWebKit/537.36 (KHTML, like Gecko) Chrome/104.0.0.0 Safari/537.36","WebKit","Chrome","104.0.0.0","Windows","10.0","null","<div style=""font-size:60px;"">+</div>","null",""
"","","","","","html-button-response","125","162572","0.0-4.0-1.60","224","1","2022-11-14 13:55:27","49aca292d257f58668169b9fbab864ae","182.102.137.203","Mozilla/5.0 (Windows NT 10.0; WOW64) AppleWebKit/537.36 (KHTML, like Gecko) Chrome/104.0.0.0 Safari/537.36","WebKit","Chrome","104.0.0.0","Windows","10.0","1473","<p>作为军队的指挥官，你可以选择发射导弹杀死 <strong>5名</strong> 敌国士兵，但会炸毁附近的 <strong>1棵</strong> 敌国树木。</p> <p>树木的照片如下图所示。</p> <p></p> <img src='stimuli/trees/6.png', style='max-width: 30%;'> </img> <p><strong>你是否选择发射武器？</strong></p>","0",""
"","","","","","html-keyboard-response","126","163588","0.0-4.0-0.61","224","1","2022-11-14 13:55:27","49aca292d257f58668169b9fbab864ae","182.102.137.203","Mozilla/5.0 (Windows NT 10.0; WOW64) AppleWebKit/537.36 (KHTML, like Gecko) Chrome/104.0.0.0 Safari/537.36","WebKit","Chrome","104.0.0.0","Windows","10.0","null","<div style=""font-size:60px;"">+</div>","null",""
"","","","","","html-button-response","127","165257","0.0-4.0-1.61","224","1","2022-11-14 13:55:27","49aca292d257f58668169b9fbab864ae","182.102.137.203","Mozilla/5.0 (Windows NT 10.0; WOW64) AppleWebKit/537.36 (KHTML, like Gecko) Chrome/104.0.0.0 Safari/537.36","WebKit","Chrome","104.0.0.0","Windows","10.0","1666","<p>作为军队的指挥官，你可以选择发射导弹杀死 <strong>1名</strong> 敌国士兵，但会炸毁附近的 <strong>1棵</strong> 敌国树木。</p> <p>树木的照片如下图所示。</p> <p></p> <img src='stimuli/trees/8.png', style='max-width: 30%;'> </img> <p><strong>你是否选择发射武器？</strong></p>","0",""
"","","","","","html-keyboard-response","128","166265","0.0-4.0-0.62","224","1","2022-11-14 13:55:27","49aca292d257f58668169b9fbab864ae","182.102.137.203","Mozilla/5.0 (Windows NT 10.0; WOW64) AppleWebKit/537.36 (KHTML, like Gecko) Chrome/104.0.0.0 Safari/537.36","WebKit","Chrome","104.0.0.0","Windows","10.0","null","<div style=""font-size:60px;"">+</div>","null",""
"","","","","","html-button-response","129","166913","0.0-4.0-1.62","224","1","2022-11-14 13:55:27","49aca292d257f58668169b9fbab864ae","182.102.137.203","Mozilla/5.0 (Windows NT 10.0; WOW64) AppleWebKit/537.36 (KHTML, like Gecko) Chrome/104.0.0.0 Safari/537.36","WebKit","Chrome","104.0.0.0","Windows","10.0","645","<p>作为军队的指挥官，你可以选择发射导弹杀死 <strong>9名</strong> 敌国士兵，但会误杀附近的 <strong>1名</strong> 敌国平民。</p> <p>平民照片如下图所示。</p> <p></p> <img src='stimuli/faces/PFM1.jpg', style='max-width: 30%;'> </img> <p><strong>你是否选择发射武器？</strong></p>","0",""
"","","","","","html-keyboard-response","130","167926","0.0-4.0-0.63","224","1","2022-11-14 13:55:27","49aca292d257f58668169b9fbab864ae","182.102.137.203","Mozilla/5.0 (Windows NT 10.0; WOW64) AppleWebKit/537.36 (KHTML, like Gecko) Chrome/104.0.0.0 Safari/537.36","WebKit","Chrome","104.0.0.0","Windows","10.0","null","<div style=""font-size:60px;"">+</div>","null",""
"","","","","","html-button-response","131","168533","0.0-4.0-1.63","224","1","2022-11-14 13:55:27","49aca292d257f58668169b9fbab864ae","182.102.137.203","Mozilla/5.0 (Windows NT 10.0; WOW64) AppleWebKit/537.36 (KHTML, like Gecko) Chrome/104.0.0.0 Safari/537.36","WebKit","Chrome","104.0.0.0","Windows","10.0","604","<p>作为军队的指挥官，你可以选择发射导弹杀死 <strong>4名</strong> 敌国士兵，但会误杀附近的 <strong>1名</strong> 敌国平民。</p> <p>平民照片如下图所示。</p> <p></p> <img src='stimuli/faces/PFF5.jpg', style='max-width: 30%;'> </img> <p><strong>你是否选择发射武器？</strong></p>","0",""
"","","","","","survey-multi-choice","132","173326","0.0-5.0","224","1","2022-11-14 13:55:27","49aca292d257f58668169b9fbab864ae","182.102.137.203","Mozilla/5.0 (Windows NT 10.0; WOW64) AppleWebKit/537.36 (KHTML, like Gecko) Chrome/104.0.0.0 Safari/537.36","WebKit","Chrome","104.0.0.0","Windows","10.0","4789","","{""Attention1"":""""}","[0]"
"","","","","","html-button-response","133","174813","0.0-6.0","224","1","2022-11-14 13:55:27","49aca292d257f58668169b9fbab864ae","182.102.137.203","Mozilla/5.0 (Windows NT 10.0; WOW64) AppleWebKit/537.36 (KHTML, like Gecko) Chrome/104.0.0.0 Safari/537.36","WebKit","Chrome","104.0.0.0","Windows","10.0","1484","<p style=""font-size:20px;font-weight:bold;"">恭喜！</p><p>你已经完成了实验的第一部分。</p><p>请休息放松一下，然后进入第二部分。</p><p>这部分大约需要10分钟。</p>","0",""
"","","","","","survey-text","134","258035","0.0-7.0","224","1","2022-11-14 13:55:27","49aca292d257f58668169b9fbab864ae","182.102.137.203","Mozilla/5.0 (Windows NT 10.0; WOW64) AppleWebKit/537.36 (KHTML, like Gecko) Chrome/104.0.0.0 Safari/537.36","WebKit","Chrome","104.0.0.0","Windows","10.0","82211","","{""Age"":""28"",""Nation"":""中国"",""Born"":""上海市"",""Live"":""上海市"",""Ethnic"":""汉族"",""Alipay"":"" 13232577440""}",""
"","","","","","survey-multi-choice","135","268388","0.0-8.0","224","1","2022-11-14 13:55:27","49aca292d257f58668169b9fbab864ae","182.102.137.203","Mozilla/5.0 (Windows NT 10.0; WOW64) AppleWebKit/537.36 (KHTML, like Gecko) Chrome/104.0.0.0 Safari/537.36","WebKit","Chrome","104.0.0.0","Windows","10.0","10350","","{""Gender"":""女"",""Education"":""专科毕业"",""Income"":""￥490,000-￥699,999"",""Children"":""2"",""Race"":""亚洲人""}","[0,1,2,3,4]"
"","","","","","survey-multi-select","136","272308","0.0-9.0","224","1","2022-11-14 13:55:27","49aca292d257f58668169b9fbab864ae","182.102.137.203","Mozilla/5.0 (Windows NT 10.0; WOW64) AppleWebKit/537.36 (KHTML, like Gecko) Chrome/104.0.0.0 Safari/537.36","WebKit","Chrome","104.0.0.0","Windows","10.0","3912","","{""Marriage"":[""已婚""],""Religion"":[""无宗教信仰""]}","[0,1]"
"","","","","","survey-multi-choice","137","275641","0.0-10.0","224","1","2022-11-14 13:55:27","49aca292d257f58668169b9fbab864ae","182.102.137.203","Mozilla/5.0 (Windows NT 10.0; WOW64) AppleWebKit/537.36 (KHTML, like Gecko) Chrome/104.0.0.0 Safari/537.36","WebKit","Chrome","104.0.0.0","Windows","10.0","3329","","{""SES"":""7""}","[0]"
"","","","","","html-button-response","138","279848","0.0-11.0","224","1","2022-11-14 13:55:27","49aca292d257f58668169b9fbab864ae","182.102.137.203","Mozilla/5.0 (Windows NT 10.0; WOW64) AppleWebKit/537.36 (KHTML, like Gecko) Chrome/104.0.0.0 Safari/537.36","WebKit","Chrome","104.0.0.0","Windows","10.0","4203","<p><strong>请判断下列陈述在多大程度上可以形容你？</p><p> (1 = ""和我一点都不像"" to 5 = ""非常像我"".)</strong></p>","0",""
"","","","","","survey-likert","139","320797","0.0-12.0","224","1","2022-11-14 13:55:27","49aca292d257f58668169b9fbab864ae","182.102.137.203","Mozilla/5.0 (Windows NT 10.0; WOW64) AppleWebKit/537.36 (KHTML, like Gecko) Chrome/104.0.0.0 Safari/537.36","WebKit","Chrome","104.0.0.0","Windows","10.0","40945","","{""Aggression1"":0,""Aggression2"":3,""Aggression3"":2,""Aggression4"":1,""Aggression5"":3,""Aggression6"":2,""Aggression7"":3,""Aggression8"":1,""Aggression9"":1}","[0,1,2,3,4,5,6,7,8]"
"","","","","","html-button-response","140","322247","0.0-13.0","224","1","2022-11-14 13:55:27","49aca292d257f58668169b9fbab864ae","182.102.137.203","Mozilla/5.0 (Windows NT 10.0; WOW64) AppleWebKit/537.36 (KHTML, like Gecko) Chrome/104.0.0.0 Safari/537.36","WebKit","Chrome","104.0.0.0","Windows","10.0","1447","<p><strong>请判断你在多大程度上同意下列陈述。</strong></p>","0",""
"","","","","","survey-likert","141","416578","0.0-14.0","224","1","2022-11-14 13:55:27","49aca292d257f58668169b9fbab864ae","182.102.137.203","Mozilla/5.0 (Windows NT 10.0; WOW64) AppleWebKit/537.36 (KHTML, like Gecko) Chrome/104.0.0.0 Safari/537.36","WebKit","Chrome","104.0.0.0","Windows","10.0","94326","","{""scale6"":3,""scale11"":2,""scale16"":3,""scale19"":3,""scale8"":3,""scale24"":1,""scale17"":3,""scale2"":3,""scale5"":3,""scale26"":4,""scale27"":1,""scale23"":3,""scale25"":4,""scale14"":3,""scale12"":1,""scale3"":3,""scale7"":1,""scale20"":3,""scale13"":1,""scale9"":3,""scale1"":4,""scale22"":4,""scale21"":3,""scale4"":3,""scale10"":1,""scale18"":3,""scale28"":3,""scale15"":4}","[5,10,15,18,7,23,16,1,4,25,26,22,24,13,11,2,6,19,12,8,0,21,20,3,9,17,27,14]"
"","","","","","html-button-response","142","417830","0.0-15.0","224","1","2022-11-14 13:55:27","49aca292d257f58668169b9fbab864ae","182.102.137.203","Mozilla/5.0 (Windows NT 10.0; WOW64) AppleWebKit/537.36 (KHTML, like Gecko) Chrome/104.0.0.0 Safari/537.36","WebKit","Chrome","104.0.0.0","Windows","10.0","1248","<p><strong>请判断你在多大程度上同意下列陈述。</strong></p>","0",""
"","","","","","survey-likert","143","467389","0.0-16.0","224","1","2022-11-14 13:55:27","49aca292d257f58668169b9fbab864ae","182.102.137.203","Mozilla/5.0 (Windows NT 10.0; WOW64) AppleWebKit/537.36 (KHTML, like Gecko) Chrome/104.0.0.0 Safari/537.36","WebKit","Chrome","104.0.0.0","Windows","10.0","49555","","{""sdo4"":5,""sdo12"":6,""sdo3"":5,""sdo2"":1,""sdo14"":5,""sdo1"":6,""sdo10"":4,""sdo13"":5,""sdo7"":5,""sdo6"":5,""sdo11"":6,""sdo9"":4,""sdo15"":6,""sdo16"":6,""sdo8"":4,""sdo5"":5}","[3,11,2,1,13,0,9,12,6,5,10,8,14,15,7,4]"
"","","","","","html-button-response","144","468200","0.0-17.0","224","1","2022-11-14 13:55:27","49aca292d257f58668169b9fbab864ae","182.102.137.203","Mozilla/5.0 (Windows NT 10.0; WOW64) AppleWebKit/537.36 (KHTML, like Gecko) Chrome/104.0.0.0 Safari/537.36","WebKit","Chrome","104.0.0.0","Windows","10.0","807","<p><strong>请判断你在多大程度上同意下列陈述。</strong></p>","0",""
"","","","","","survey-likert","145","507697","0.0-18.0","224","1","2022-11-14 13:55:27","49aca292d257f58668169b9fbab864ae","182.102.137.203","Mozilla/5.0 (Windows NT 10.0; WOW64) AppleWebKit/537.36 (KHTML, like Gecko) Chrome/104.0.0.0 Safari/537.36","WebKit","Chrome","104.0.0.0","Windows","10.0","39494","","{""caring1"":4,""liking1"":1,""caring2"":4,""protection1"":2,""liking2"":1,""caring3"":3,""protection2"":2,""liking3"":2,""protection3"":3,""caring4"":3,""liking4"":1,""protection4"":2,""caring5"":3,""liking5"":1,""protection5"":3}","[0,1,2,3,4,5,6,7,8,9,10,11,12,13,14]"
"","","","","","html-button-response","146","508287","0.0-19.0","224","1","2022-11-14 13:55:27","49aca292d257f58668169b9fbab864ae","182.102.137.203","Mozilla/5.0 (Windows NT 10.0; WOW64) AppleWebKit/537.36 (KHTML, like Gecko) Chrome/104.0.0.0 Safari/537.36","WebKit","Chrome","104.0.0.0","Windows","10.0","586","<p><strong>请判断下列场景中你的内心感受有多柔软。</strong></p>","0",""
"","","","","","survey-likert","147","527701","0.0-20.0","224","1","2022-11-14 13:55:27","49aca292d257f58668169b9fbab864ae","182.102.137.203","Mozilla/5.0 (Windows NT 10.0; WOW64) AppleWebKit/537.36 (KHTML, like Gecko) Chrome/104.0.0.0 Safari/537.36","WebKit","Chrome","104.0.0.0","Windows","10.0","19410","","{""tenderness-positive1"":4,""tenderness-negative1"":1,""tenderness-negative2"":1,""tenderness-positive2"":3,""tenderness-positive3"":4,""tenderness-negative3"":2,""tenderness-positive4"":3,""tenderness-negative4"":0,""tenderness-negative5"":2,""tenderness-positive5"":4}","[0,1,2,3,4,5,6,7,8,9]"
"","","","","","survey-multi-choice","148","530385","0.0-21.0","224","1","2022-11-14 13:55:27","49aca292d257f58668169b9fbab864ae","182.102.137.203","Mozilla/5.0 (Windows NT 10.0; WOW64) AppleWebKit/537.36 (KHTML, like Gecko) Chrome/104.0.0.0 Safari/537.36","WebKit","Chrome","104.0.0.0","Windows","10.0","2679","","{""Attention2"":""其他""}","[0]"
"","","","","","html-button-response","149","531166","0.0-22.0","224","1","2022-11-14 13:55:27","49aca292d257f58668169b9fbab864ae","182.102.137.203","Mozilla/5.0 (Windows NT 10.0; WOW64) AppleWebKit/537.36 (KHTML, like Gecko) Chrome/104.0.0.0 Safari/537.36","WebKit","Chrome","104.0.0.0","Windows","10.0","777","<p><strong>请判断你在多大程度上同意下列陈述。</strong></p>","0",""
"","","","","","survey-likert","150","808036","0.0-23.0","224","1","2022-11-14 13:55:27","49aca292d257f58668169b9fbab864ae","182.102.137.203","Mozilla/5.0 (Windows NT 10.0; WOW64) AppleWebKit/537.36 (KHTML, like Gecko) Chrome/104.0.0.0 Safari/537.36","WebKit","Chrome","104.0.0.0","Windows","10.0","276867","","{""Patri8"":3,""Patri3"":3,""Nation4"":2,""Nation5"":3,""Patri10"":0,""Patri2"":4,""Patri12"":0,""Nation1"":3,""Nation8"":1,""Patri5"":3,""Patri9"":1,""Patri1"":4,""Nation3"":1,""Patri7"":3,""Nation6"":3,""Patri4"":4,""Nation7"":3,""Nation2"":4,""Patri11"":0,""Patri6"":0}","[7,2,15,16,9,1,11,12,19,4,8,0,14,6,17,3,18,13,10,5]"
"","","","","","html-button-response","151","856927","0.0-24.0","224","1","2022-11-14 13:55:27","49aca292d257f58668169b9fbab864ae","182.102.137.203","Mozilla/5.0 (Windows NT 10.0; WOW64) AppleWebKit/537.36 (KHTML, like Gecko) Chrome/104.0.0.0 Safari/537.36","WebKit","Chrome","104.0.0.0","Windows","10.0","48885","<p><strong>请判断你在多大程度上同意下列陈述。</strong></p>","0",""
"","","","","","survey-likert","152","958936","0.0-25.0","224","1","2022-11-14 13:55:27","49aca292d257f58668169b9fbab864ae","182.102.137.203","Mozilla/5.0 (Windows NT 10.0; WOW64) AppleWebKit/537.36 (KHTML, like Gecko) Chrome/104.0.0.0 Safari/537.36","WebKit","Chrome","104.0.0.0","Windows","10.0","102004","","{""vc4"":7,""hc4"":8,""vi1"":6,""hi1"":7,""hi4"":7,""vi3"":3,""hc3"":7,""hc1"":5,""vc1"":8,""hi2"":6,""Robot"":6,""hc2"":5,""vi2"":4,""vi4"":3,""hi3"":7,""vc2"":7,""vc3"":8}","[16,12,4,0,3,6,11,9,13,1,7,10,5,8,2,14,15]"
"","","","","","survey-text","153","963892","0.0-26.0","224","1","2022-11-14 13:55:27","49aca292d257f58668169b9fbab864ae","182.102.137.203","Mozilla/5.0 (Windows NT 10.0; WOW64) AppleWebKit/537.36 (KHTML, like Gecko) Chrome/104.0.0.0 Safari/537.36","WebKit","Chrome","104.0.0.0","Windows","10.0","4936","","{""Comments"":""无""}",""
"","","","","","html-button-response","154","964606","0.0-27.0","224","1","2022-11-14 13:55:27","49aca292d257f58668169b9fbab864ae","182.102.137.203","Mozilla/5.0 (Windows NT 10.0; WOW64) AppleWebKit/537.36 (KHTML, like Gecko) Chrome/104.0.0.0 Safari/537.36","WebKit","Chrome","104.0.0.0","Windows","10.0","711","<strong><p>恭喜你完成了实验！</p><p>感谢您的参与。</p></strong>","0",""
