"success","timeout","failed_images","failed_audio","failed_video","trial_type","trial_index","time_elapsed","internal_node_id","run_id","condition","recorded_at","source_code_version","ip","user_agent","device","browser","browser_version","platform","platform_version","rt","stimulus","response","question_order"
"true","false","[]","[]","[]","preload","0","3883","0.0-0.0","265","1","2022-11-20 15:05:24","49aca292d257f58668169b9fbab864ae","39.144.25.78","Mozilla/5.0 (Linux; Android 10; V2002A Build/QP1A.190711.020; wv) AppleWebKit/537.36 (KHTML, like Gecko) Version/4.0 Chrome/86.0.4240.99 XWEB/4343 MMWEBSDK/20220903 Mobile Safari/537.36 MMWEBID/7187 MicroMessenger/8.0.28.2240(0x28001C57) WeChat/arm64 Weixin NetType/4G Language/zh_CN ABI/arm64","WebKit","Chrome","86.0.4240.99","AndroidOS","10","","","",""
"true","","","","","fullscreen","1","7374","0.0-1.0","265","1","2022-11-20 15:05:24","49aca292d257f58668169b9fbab864ae","39.144.25.78","Mozilla/5.0 (Linux; Android 10; V2002A Build/QP1A.190711.020; wv) AppleWebKit/537.36 (KHTML, like Gecko) Version/4.0 Chrome/86.0.4240.99 XWEB/4343 MMWEBSDK/20220903 Mobile Safari/537.36 MMWEBID/7187 MicroMessenger/8.0.28.2240(0x28001C57) WeChat/arm64 Weixin NetType/4G Language/zh_CN ABI/arm64","WebKit","Chrome","86.0.4240.99","AndroidOS","10","","","",""
"","","","","","html-button-response","2","11207","0.0-2.0","265","1","2022-11-20 15:05:24","49aca292d257f58668169b9fbab864ae","39.144.25.78","Mozilla/5.0 (Linux; Android 10; V2002A Build/QP1A.190711.020; wv) AppleWebKit/537.36 (KHTML, like Gecko) Version/4.0 Chrome/86.0.4240.99 XWEB/4343 MMWEBSDK/20220903 Mobile Safari/537.36 MMWEBID/7187 MicroMessenger/8.0.28.2240(0x28001C57) WeChat/arm64 Weixin NetType/4G Language/zh_CN ABI/arm64","WebKit","Chrome","86.0.4240.99","AndroidOS","10","3823","<p style=""font-size:20px;font-weight:bold;"">实验知情同意书</p><p style=""text-align:left;""><strong>实验名称：</strong>社会冲突研究</p><p style=""text-align:left;""><strong>主要研究者：</strong>韩晓春副教授（北京师范大学心理学部）</p><p style=""text-align:left;""><strong>联系方式：</strong>发送邮件至xiaochun.han@bnu.edu.cn</p><p style=""text-align:left;""><strong>研究目的：</strong>研究旨在了解人类面对群体冲突时的决策方式，以及相关的心理学特质。实验调查大约需要20分钟。</p><p style=""text-align:left;""><strong>实验流程：</strong>实验包含两部分。第一部分呈现一系列群体冲突场景，请你决定如何对这些冲突进行反应，大约需要10分钟完成。第二部分包含一系列人口统计学信息收集和心理学问卷，大约需要10分钟完成。</p><p style=""text-align:left;""><strong>参加及退出规则：</strong>参加本实验完全取决于您的个人意愿。在参与过程中，您可以随时退出，并且不用承担任何后果。</p><p style=""text-align:left;""><strong>隐私：</strong>本实验完全匿名进行，不会收集您的姓名或其他能够识别您身份的信息。实验中收集的作答仅用作科学研究使用，可能会在学术期刊/书籍上发表，或者用于教学，您的数据未来可能会和其他研究者或实验室分享，但您的个人身份不会被识别。</p><p style=""text-align:left;""><strong>实验报酬：</strong>实验完成后，您将获得15元人民币报酬，以感谢您的时间和努力。调查问卷中包含几道题目用以测验您作答时的认真度。只有完成全部实验，并且正确回答认真度测验的被试才能获得实验报酬。实验报酬将通过支付宝转账发放。</p><p style=""text-align:left;font-size:20px;""><strong>如果您同意以上实验知情同意书的内容，请点击'同意并且开始实验'按钮；否则请关闭浏览器界面，退出实验。</strong></p>","0",""
"","","","","","html-button-response","3","12264","0.0-3.0","265","1","2022-11-20 15:05:24","49aca292d257f58668169b9fbab864ae","39.144.25.78","Mozilla/5.0 (Linux; Android 10; V2002A Build/QP1A.190711.020; wv) AppleWebKit/537.36 (KHTML, like Gecko) Version/4.0 Chrome/86.0.4240.99 XWEB/4343 MMWEBSDK/20220903 Mobile Safari/537.36 MMWEBID/7187 MicroMessenger/8.0.28.2240(0x28001C57) WeChat/arm64 Weixin NetType/4G Language/zh_CN ABI/arm64","WebKit","Chrome","86.0.4240.99","AndroidOS","10","1049","<p ><strong>实验任务一：</strong></p><p>请想象你的国家与另一个国家发生了军事冲突。</p><p>你是国家军队的指挥官，你将如何在冲突中进行决策。</p><p>具体来说，作为军队指挥官，请你决定是否发射导弹进行打击。</p><p>接下来，你会面对一系列场景，请仔细阅读每个场景，然后进行决策。</p><p>这部分实验任务大约需要10分钟。</p><p><strong>实验过程中，请集中注意力。</strong></p>","0",""
"","","","","","html-keyboard-response","4","13272","0.0-4.0-0.0","265","1","2022-11-20 15:05:24","49aca292d257f58668169b9fbab864ae","39.144.25.78","Mozilla/5.0 (Linux; Android 10; V2002A Build/QP1A.190711.020; wv) AppleWebKit/537.36 (KHTML, like Gecko) Version/4.0 Chrome/86.0.4240.99 XWEB/4343 MMWEBSDK/20220903 Mobile Safari/537.36 MMWEBID/7187 MicroMessenger/8.0.28.2240(0x28001C57) WeChat/arm64 Weixin NetType/4G Language/zh_CN ABI/arm64","WebKit","Chrome","86.0.4240.99","AndroidOS","10","null","<div style=""font-size:60px;"">+</div>","null",""
"","","","","","html-button-response","5","15019","0.0-4.0-1.0","265","1","2022-11-20 15:05:24","49aca292d257f58668169b9fbab864ae","39.144.25.78","Mozilla/5.0 (Linux; Android 10; V2002A Build/QP1A.190711.020; wv) AppleWebKit/537.36 (KHTML, like Gecko) Version/4.0 Chrome/86.0.4240.99 XWEB/4343 MMWEBSDK/20220903 Mobile Safari/537.36 MMWEBID/7187 MicroMessenger/8.0.28.2240(0x28001C57) WeChat/arm64 Weixin NetType/4G Language/zh_CN ABI/arm64","WebKit","Chrome","86.0.4240.99","AndroidOS","10","1736","<p>作为军队的指挥官，你可以选择发射导弹杀死 <strong>10名</strong> 敌国士兵，但会炸毁附近的 <strong>1棵</strong> 敌国树木。</p> <p>树木的照片如下图所示。</p> <p></p> <img src='stimuli/trees/15.png', style='max-width: 30%;'> </img> <p><strong>你是否选择发射武器？</strong></p>","0",""
"","","","","","html-keyboard-response","6","16031","0.0-4.0-0.1","265","1","2022-11-20 15:05:24","49aca292d257f58668169b9fbab864ae","39.144.25.78","Mozilla/5.0 (Linux; Android 10; V2002A Build/QP1A.190711.020; wv) AppleWebKit/537.36 (KHTML, like Gecko) Version/4.0 Chrome/86.0.4240.99 XWEB/4343 MMWEBSDK/20220903 Mobile Safari/537.36 MMWEBID/7187 MicroMessenger/8.0.28.2240(0x28001C57) WeChat/arm64 Weixin NetType/4G Language/zh_CN ABI/arm64","WebKit","Chrome","86.0.4240.99","AndroidOS","10","null","<div style=""font-size:60px;"">+</div>","null",""
"","","","","","html-button-response","7","22069","0.0-4.0-1.1","265","1","2022-11-20 15:05:24","49aca292d257f58668169b9fbab864ae","39.144.25.78","Mozilla/5.0 (Linux; Android 10; V2002A Build/QP1A.190711.020; wv) AppleWebKit/537.36 (KHTML, like Gecko) Version/4.0 Chrome/86.0.4240.99 XWEB/4343 MMWEBSDK/20220903 Mobile Safari/537.36 MMWEBID/7187 MicroMessenger/8.0.28.2240(0x28001C57) WeChat/arm64 Weixin NetType/4G Language/zh_CN ABI/arm64","WebKit","Chrome","86.0.4240.99","AndroidOS","10","6031","<p>作为军队的指挥官，你可以选择发射导弹杀死 <strong>4名</strong> 敌国士兵，但会误杀附近的 <strong>1名</strong> 敌国平民。</p> <p>平民照片如下图所示。</p> <p></p> <img src='stimuli/faces/PFF7.jpg', style='max-width: 30%;'> </img> <p><strong>你是否选择发射武器？</strong></p>","0",""
"","","","","","html-keyboard-response","8","23074","0.0-4.0-0.2","265","1","2022-11-20 15:05:24","49aca292d257f58668169b9fbab864ae","39.144.25.78","Mozilla/5.0 (Linux; Android 10; V2002A Build/QP1A.190711.020; wv) AppleWebKit/537.36 (KHTML, like Gecko) Version/4.0 Chrome/86.0.4240.99 XWEB/4343 MMWEBSDK/20220903 Mobile Safari/537.36 MMWEBID/7187 MicroMessenger/8.0.28.2240(0x28001C57) WeChat/arm64 Weixin NetType/4G Language/zh_CN ABI/arm64","WebKit","Chrome","86.0.4240.99","AndroidOS","10","null","<div style=""font-size:60px;"">+</div>","null",""
"","","","","","html-button-response","9","26369","0.0-4.0-1.2","265","1","2022-11-20 15:05:24","49aca292d257f58668169b9fbab864ae","39.144.25.78","Mozilla/5.0 (Linux; Android 10; V2002A Build/QP1A.190711.020; wv) AppleWebKit/537.36 (KHTML, like Gecko) Version/4.0 Chrome/86.0.4240.99 XWEB/4343 MMWEBSDK/20220903 Mobile Safari/537.36 MMWEBID/7187 MicroMessenger/8.0.28.2240(0x28001C57) WeChat/arm64 Weixin NetType/4G Language/zh_CN ABI/arm64","WebKit","Chrome","86.0.4240.99","AndroidOS","10","3286","<p>作为军队的指挥官，你可以选择发射导弹杀死 <strong>5名</strong> 敌国士兵，但会误杀附近的 <strong>1名</strong> 敌国平民。</p> <p>平民照片如下图所示。</p> <p></p> <img src='stimuli/faces/PFF1.jpg', style='max-width: 30%;'> </img> <p><strong>你是否选择发射武器？</strong></p>","0",""
"","","","","","html-keyboard-response","10","27374","0.0-4.0-0.3","265","1","2022-11-20 15:05:24","49aca292d257f58668169b9fbab864ae","39.144.25.78","Mozilla/5.0 (Linux; Android 10; V2002A Build/QP1A.190711.020; wv) AppleWebKit/537.36 (KHTML, like Gecko) Version/4.0 Chrome/86.0.4240.99 XWEB/4343 MMWEBSDK/20220903 Mobile Safari/537.36 MMWEBID/7187 MicroMessenger/8.0.28.2240(0x28001C57) WeChat/arm64 Weixin NetType/4G Language/zh_CN ABI/arm64","WebKit","Chrome","86.0.4240.99","AndroidOS","10","null","<div style=""font-size:60px;"">+</div>","null",""
"","","","","","html-button-response","11","27909","0.0-4.0-1.3","265","1","2022-11-20 15:05:24","49aca292d257f58668169b9fbab864ae","39.144.25.78","Mozilla/5.0 (Linux; Android 10; V2002A Build/QP1A.190711.020; wv) AppleWebKit/537.36 (KHTML, like Gecko) Version/4.0 Chrome/86.0.4240.99 XWEB/4343 MMWEBSDK/20220903 Mobile Safari/537.36 MMWEBID/7187 MicroMessenger/8.0.28.2240(0x28001C57) WeChat/arm64 Weixin NetType/4G Language/zh_CN ABI/arm64","WebKit","Chrome","86.0.4240.99","AndroidOS","10","519","<p>作为军队的指挥官，你可以选择发射导弹杀死 <strong>6名</strong> 敌国士兵，但会误杀附近的 <strong>1名</strong> 敌国平民。</p> <p>平民照片如下图所示。</p> <p></p> <img src='stimuli/faces/PFM3.jpg', style='max-width: 30%;'> </img> <p><strong>你是否选择发射武器？</strong></p>","0",""
"","","","","","html-keyboard-response","12","28917","0.0-4.0-0.4","265","1","2022-11-20 15:05:24","49aca292d257f58668169b9fbab864ae","39.144.25.78","Mozilla/5.0 (Linux; Android 10; V2002A Build/QP1A.190711.020; wv) AppleWebKit/537.36 (KHTML, like Gecko) Version/4.0 Chrome/86.0.4240.99 XWEB/4343 MMWEBSDK/20220903 Mobile Safari/537.36 MMWEBID/7187 MicroMessenger/8.0.28.2240(0x28001C57) WeChat/arm64 Weixin NetType/4G Language/zh_CN ABI/arm64","WebKit","Chrome","86.0.4240.99","AndroidOS","10","null","<div style=""font-size:60px;"">+</div>","null",""
"","","","","","html-button-response","13","29865","0.0-4.0-1.4","265","1","2022-11-20 15:05:24","49aca292d257f58668169b9fbab864ae","39.144.25.78","Mozilla/5.0 (Linux; Android 10; V2002A Build/QP1A.190711.020; wv) AppleWebKit/537.36 (KHTML, like Gecko) Version/4.0 Chrome/86.0.4240.99 XWEB/4343 MMWEBSDK/20220903 Mobile Safari/537.36 MMWEBID/7187 MicroMessenger/8.0.28.2240(0x28001C57) WeChat/arm64 Weixin NetType/4G Language/zh_CN ABI/arm64","WebKit","Chrome","86.0.4240.99","AndroidOS","10","933","<p>作为军队的指挥官，你可以选择发射导弹杀死 <strong>3名</strong> 敌国士兵，但会炸毁附近的 <strong>1棵</strong> 敌国树木。</p> <p>树木的照片如下图所示。</p> <p></p> <img src='stimuli/trees/13.png', style='max-width: 30%;'> </img> <p><strong>你是否选择发射武器？</strong></p>","0",""
"","","","","","html-keyboard-response","14","30874","0.0-4.0-0.5","265","1","2022-11-20 15:05:24","49aca292d257f58668169b9fbab864ae","39.144.25.78","Mozilla/5.0 (Linux; Android 10; V2002A Build/QP1A.190711.020; wv) AppleWebKit/537.36 (KHTML, like Gecko) Version/4.0 Chrome/86.0.4240.99 XWEB/4343 MMWEBSDK/20220903 Mobile Safari/537.36 MMWEBID/7187 MicroMessenger/8.0.28.2240(0x28001C57) WeChat/arm64 Weixin NetType/4G Language/zh_CN ABI/arm64","WebKit","Chrome","86.0.4240.99","AndroidOS","10","null","<div style=""font-size:60px;"">+</div>","null",""
"","","","","","html-button-response","15","32221","0.0-4.0-1.5","265","1","2022-11-20 15:05:24","49aca292d257f58668169b9fbab864ae","39.144.25.78","Mozilla/5.0 (Linux; Android 10; V2002A Build/QP1A.190711.020; wv) AppleWebKit/537.36 (KHTML, like Gecko) Version/4.0 Chrome/86.0.4240.99 XWEB/4343 MMWEBSDK/20220903 Mobile Safari/537.36 MMWEBID/7187 MicroMessenger/8.0.28.2240(0x28001C57) WeChat/arm64 Weixin NetType/4G Language/zh_CN ABI/arm64","WebKit","Chrome","86.0.4240.99","AndroidOS","10","1337","<p>作为军队的指挥官，你可以选择发射导弹杀死 <strong>5名</strong> 敌国士兵，但会误杀附近的 <strong>1名</strong> 敌国平民。</p> <p>平民照片如下图所示。</p> <p></p> <img src='stimuli/faces/PFF6.jpg', style='max-width: 30%;'> </img> <p><strong>你是否选择发射武器？</strong></p>","0",""
"","","","","","html-keyboard-response","16","33227","0.0-4.0-0.6","265","1","2022-11-20 15:05:24","49aca292d257f58668169b9fbab864ae","39.144.25.78","Mozilla/5.0 (Linux; Android 10; V2002A Build/QP1A.190711.020; wv) AppleWebKit/537.36 (KHTML, like Gecko) Version/4.0 Chrome/86.0.4240.99 XWEB/4343 MMWEBSDK/20220903 Mobile Safari/537.36 MMWEBID/7187 MicroMessenger/8.0.28.2240(0x28001C57) WeChat/arm64 Weixin NetType/4G Language/zh_CN ABI/arm64","WebKit","Chrome","86.0.4240.99","AndroidOS","10","null","<div style=""font-size:60px;"">+</div>","null",""
"","","","","","html-button-response","17","34970","0.0-4.0-1.6","265","1","2022-11-20 15:05:24","49aca292d257f58668169b9fbab864ae","39.144.25.78","Mozilla/5.0 (Linux; Android 10; V2002A Build/QP1A.190711.020; wv) AppleWebKit/537.36 (KHTML, like Gecko) Version/4.0 Chrome/86.0.4240.99 XWEB/4343 MMWEBSDK/20220903 Mobile Safari/537.36 MMWEBID/7187 MicroMessenger/8.0.28.2240(0x28001C57) WeChat/arm64 Weixin NetType/4G Language/zh_CN ABI/arm64","WebKit","Chrome","86.0.4240.99","AndroidOS","10","1733","<p>作为军队的指挥官，你可以选择发射导弹杀死 <strong>9名</strong> 敌国士兵，但会炸毁附近的 <strong>1棵</strong> 敌国树木。</p> <p>树木的照片如下图所示。</p> <p></p> <img src='stimuli/trees/14.png', style='max-width: 30%;'> </img> <p><strong>你是否选择发射武器？</strong></p>","0",""
"","","","","","html-keyboard-response","18","36042","0.0-4.0-0.7","265","1","2022-11-20 15:05:24","49aca292d257f58668169b9fbab864ae","39.144.25.78","Mozilla/5.0 (Linux; Android 10; V2002A Build/QP1A.190711.020; wv) AppleWebKit/537.36 (KHTML, like Gecko) Version/4.0 Chrome/86.0.4240.99 XWEB/4343 MMWEBSDK/20220903 Mobile Safari/537.36 MMWEBID/7187 MicroMessenger/8.0.28.2240(0x28001C57) WeChat/arm64 Weixin NetType/4G Language/zh_CN ABI/arm64","WebKit","Chrome","86.0.4240.99","AndroidOS","10","null","<div style=""font-size:60px;"">+</div>","null",""
"","","","","","html-button-response","19","36059","0.0-4.0-1.7","265","1","2022-11-20 15:05:24","49aca292d257f58668169b9fbab864ae","39.144.25.78","Mozilla/5.0 (Linux; Android 10; V2002A Build/QP1A.190711.020; wv) AppleWebKit/537.36 (KHTML, like Gecko) Version/4.0 Chrome/86.0.4240.99 XWEB/4343 MMWEBSDK/20220903 Mobile Safari/537.36 MMWEBID/7187 MicroMessenger/8.0.28.2240(0x28001C57) WeChat/arm64 Weixin NetType/4G Language/zh_CN ABI/arm64","WebKit","Chrome","86.0.4240.99","AndroidOS","10","8","<p>作为军队的指挥官，你可以选择发射导弹杀死 <strong>10名</strong> 敌国士兵，但会炸毁附近的 <strong>1棵</strong> 敌国树木。</p> <p>树木的照片如下图所示。</p> <p></p> <img src='stimuli/trees/5.png', style='max-width: 30%;'> </img> <p><strong>你是否选择发射武器？</strong></p>","0",""
"","","","","","html-keyboard-response","20","37062","0.0-4.0-0.8","265","1","2022-11-20 15:05:24","49aca292d257f58668169b9fbab864ae","39.144.25.78","Mozilla/5.0 (Linux; Android 10; V2002A Build/QP1A.190711.020; wv) AppleWebKit/537.36 (KHTML, like Gecko) Version/4.0 Chrome/86.0.4240.99 XWEB/4343 MMWEBSDK/20220903 Mobile Safari/537.36 MMWEBID/7187 MicroMessenger/8.0.28.2240(0x28001C57) WeChat/arm64 Weixin NetType/4G Language/zh_CN ABI/arm64","WebKit","Chrome","86.0.4240.99","AndroidOS","10","null","<div style=""font-size:60px;"">+</div>","null",""
"","","","","","html-button-response","21","39228","0.0-4.0-1.8","265","1","2022-11-20 15:05:24","49aca292d257f58668169b9fbab864ae","39.144.25.78","Mozilla/5.0 (Linux; Android 10; V2002A Build/QP1A.190711.020; wv) AppleWebKit/537.36 (KHTML, like Gecko) Version/4.0 Chrome/86.0.4240.99 XWEB/4343 MMWEBSDK/20220903 Mobile Safari/537.36 MMWEBID/7187 MicroMessenger/8.0.28.2240(0x28001C57) WeChat/arm64 Weixin NetType/4G Language/zh_CN ABI/arm64","WebKit","Chrome","86.0.4240.99","AndroidOS","10","2156","<p>作为军队的指挥官，你可以选择发射导弹杀死 <strong>2名</strong> 敌国士兵，但会炸毁附近的 <strong>1棵</strong> 敌国树木。</p> <p>树木的照片如下图所示。</p> <p></p> <img src='stimuli/trees/10.png', style='max-width: 30%;'> </img> <p><strong>你是否选择发射武器？</strong></p>","0",""
"","","","","","html-keyboard-response","22","40237","0.0-4.0-0.9","265","1","2022-11-20 15:05:24","49aca292d257f58668169b9fbab864ae","39.144.25.78","Mozilla/5.0 (Linux; Android 10; V2002A Build/QP1A.190711.020; wv) AppleWebKit/537.36 (KHTML, like Gecko) Version/4.0 Chrome/86.0.4240.99 XWEB/4343 MMWEBSDK/20220903 Mobile Safari/537.36 MMWEBID/7187 MicroMessenger/8.0.28.2240(0x28001C57) WeChat/arm64 Weixin NetType/4G Language/zh_CN ABI/arm64","WebKit","Chrome","86.0.4240.99","AndroidOS","10","null","<div style=""font-size:60px;"">+</div>","null",""
"","","","","","html-button-response","23","41069","0.0-4.0-1.9","265","1","2022-11-20 15:05:24","49aca292d257f58668169b9fbab864ae","39.144.25.78","Mozilla/5.0 (Linux; Android 10; V2002A Build/QP1A.190711.020; wv) AppleWebKit/537.36 (KHTML, like Gecko) Version/4.0 Chrome/86.0.4240.99 XWEB/4343 MMWEBSDK/20220903 Mobile Safari/537.36 MMWEBID/7187 MicroMessenger/8.0.28.2240(0x28001C57) WeChat/arm64 Weixin NetType/4G Language/zh_CN ABI/arm64","WebKit","Chrome","86.0.4240.99","AndroidOS","10","817","<p>作为军队的指挥官，你可以选择发射导弹杀死 <strong>10名</strong> 敌国士兵，但会误杀附近的 <strong>1名</strong> 敌国平民。</p> <p>平民照片如下图所示。</p> <p></p> <img src='stimuli/faces/PFM8.jpg', style='max-width: 30%;'> </img> <p><strong>你是否选择发射武器？</strong></p>","0",""
"","","","","","html-keyboard-response","24","42076","0.0-4.0-0.10","265","1","2022-11-20 15:05:24","49aca292d257f58668169b9fbab864ae","39.144.25.78","Mozilla/5.0 (Linux; Android 10; V2002A Build/QP1A.190711.020; wv) AppleWebKit/537.36 (KHTML, like Gecko) Version/4.0 Chrome/86.0.4240.99 XWEB/4343 MMWEBSDK/20220903 Mobile Safari/537.36 MMWEBID/7187 MicroMessenger/8.0.28.2240(0x28001C57) WeChat/arm64 Weixin NetType/4G Language/zh_CN ABI/arm64","WebKit","Chrome","86.0.4240.99","AndroidOS","10","null","<div style=""font-size:60px;"">+</div>","null",""
"","","","","","html-button-response","25","43985","0.0-4.0-1.10","265","1","2022-11-20 15:05:24","49aca292d257f58668169b9fbab864ae","39.144.25.78","Mozilla/5.0 (Linux; Android 10; V2002A Build/QP1A.190711.020; wv) AppleWebKit/537.36 (KHTML, like Gecko) Version/4.0 Chrome/86.0.4240.99 XWEB/4343 MMWEBSDK/20220903 Mobile Safari/537.36 MMWEBID/7187 MicroMessenger/8.0.28.2240(0x28001C57) WeChat/arm64 Weixin NetType/4G Language/zh_CN ABI/arm64","WebKit","Chrome","86.0.4240.99","AndroidOS","10","1900","<p>作为军队的指挥官，你可以选择发射导弹杀死 <strong>6名</strong> 敌国士兵，但会炸毁附近的 <strong>1棵</strong> 敌国树木。</p> <p>树木的照片如下图所示。</p> <p></p> <img src='stimuli/trees/7.png', style='max-width: 30%;'> </img> <p><strong>你是否选择发射武器？</strong></p>","0",""
"","","","","","html-keyboard-response","26","44995","0.0-4.0-0.11","265","1","2022-11-20 15:05:24","49aca292d257f58668169b9fbab864ae","39.144.25.78","Mozilla/5.0 (Linux; Android 10; V2002A Build/QP1A.190711.020; wv) AppleWebKit/537.36 (KHTML, like Gecko) Version/4.0 Chrome/86.0.4240.99 XWEB/4343 MMWEBSDK/20220903 Mobile Safari/537.36 MMWEBID/7187 MicroMessenger/8.0.28.2240(0x28001C57) WeChat/arm64 Weixin NetType/4G Language/zh_CN ABI/arm64","WebKit","Chrome","86.0.4240.99","AndroidOS","10","null","<div style=""font-size:60px;"">+</div>","null",""
"","","","","","html-button-response","27","45768","0.0-4.0-1.11","265","1","2022-11-20 15:05:24","49aca292d257f58668169b9fbab864ae","39.144.25.78","Mozilla/5.0 (Linux; Android 10; V2002A Build/QP1A.190711.020; wv) AppleWebKit/537.36 (KHTML, like Gecko) Version/4.0 Chrome/86.0.4240.99 XWEB/4343 MMWEBSDK/20220903 Mobile Safari/537.36 MMWEBID/7187 MicroMessenger/8.0.28.2240(0x28001C57) WeChat/arm64 Weixin NetType/4G Language/zh_CN ABI/arm64","WebKit","Chrome","86.0.4240.99","AndroidOS","10","757","<p>作为军队的指挥官，你可以选择发射导弹杀死 <strong>9名</strong> 敌国士兵，但会误杀附近的 <strong>1名</strong> 敌国平民。</p> <p>平民照片如下图所示。</p> <p></p> <img src='stimuli/faces/PFF2.jpg', style='max-width: 30%;'> </img> <p><strong>你是否选择发射武器？</strong></p>","0",""
"","","","","","html-keyboard-response","28","46773","0.0-4.0-0.12","265","1","2022-11-20 15:05:24","49aca292d257f58668169b9fbab864ae","39.144.25.78","Mozilla/5.0 (Linux; Android 10; V2002A Build/QP1A.190711.020; wv) AppleWebKit/537.36 (KHTML, like Gecko) Version/4.0 Chrome/86.0.4240.99 XWEB/4343 MMWEBSDK/20220903 Mobile Safari/537.36 MMWEBID/7187 MicroMessenger/8.0.28.2240(0x28001C57) WeChat/arm64 Weixin NetType/4G Language/zh_CN ABI/arm64","WebKit","Chrome","86.0.4240.99","AndroidOS","10","null","<div style=""font-size:60px;"">+</div>","null",""
"","","","","","html-button-response","29","48206","0.0-4.0-1.12","265","1","2022-11-20 15:05:24","49aca292d257f58668169b9fbab864ae","39.144.25.78","Mozilla/5.0 (Linux; Android 10; V2002A Build/QP1A.190711.020; wv) AppleWebKit/537.36 (KHTML, like Gecko) Version/4.0 Chrome/86.0.4240.99 XWEB/4343 MMWEBSDK/20220903 Mobile Safari/537.36 MMWEBID/7187 MicroMessenger/8.0.28.2240(0x28001C57) WeChat/arm64 Weixin NetType/4G Language/zh_CN ABI/arm64","WebKit","Chrome","86.0.4240.99","AndroidOS","10","1419","<p>作为军队的指挥官，你可以选择发射导弹杀死 <strong>10名</strong> 敌国士兵，但会误杀附近的 <strong>1名</strong> 敌国平民。</p> <p>平民照片如下图所示。</p> <p></p> <img src='stimuli/faces/PFM1.jpg', style='max-width: 30%;'> </img> <p><strong>你是否选择发射武器？</strong></p>","0",""
"","","","","","html-keyboard-response","30","49218","0.0-4.0-0.13","265","1","2022-11-20 15:05:24","49aca292d257f58668169b9fbab864ae","39.144.25.78","Mozilla/5.0 (Linux; Android 10; V2002A Build/QP1A.190711.020; wv) AppleWebKit/537.36 (KHTML, like Gecko) Version/4.0 Chrome/86.0.4240.99 XWEB/4343 MMWEBSDK/20220903 Mobile Safari/537.36 MMWEBID/7187 MicroMessenger/8.0.28.2240(0x28001C57) WeChat/arm64 Weixin NetType/4G Language/zh_CN ABI/arm64","WebKit","Chrome","86.0.4240.99","AndroidOS","10","null","<div style=""font-size:60px;"">+</div>","null",""
"","","","","","html-button-response","31","50639","0.0-4.0-1.13","265","1","2022-11-20 15:05:24","49aca292d257f58668169b9fbab864ae","39.144.25.78","Mozilla/5.0 (Linux; Android 10; V2002A Build/QP1A.190711.020; wv) AppleWebKit/537.36 (KHTML, like Gecko) Version/4.0 Chrome/86.0.4240.99 XWEB/4343 MMWEBSDK/20220903 Mobile Safari/537.36 MMWEBID/7187 MicroMessenger/8.0.28.2240(0x28001C57) WeChat/arm64 Weixin NetType/4G Language/zh_CN ABI/arm64","WebKit","Chrome","86.0.4240.99","AndroidOS","10","1408","<p>作为军队的指挥官，你可以选择发射导弹杀死 <strong>8名</strong> 敌国士兵，但会误杀附近的 <strong>1名</strong> 敌国平民。</p> <p>平民照片如下图所示。</p> <p></p> <img src='stimuli/faces/PFF5.jpg', style='max-width: 30%;'> </img> <p><strong>你是否选择发射武器？</strong></p>","0",""
"","","","","","html-keyboard-response","32","51647","0.0-4.0-0.14","265","1","2022-11-20 15:05:24","49aca292d257f58668169b9fbab864ae","39.144.25.78","Mozilla/5.0 (Linux; Android 10; V2002A Build/QP1A.190711.020; wv) AppleWebKit/537.36 (KHTML, like Gecko) Version/4.0 Chrome/86.0.4240.99 XWEB/4343 MMWEBSDK/20220903 Mobile Safari/537.36 MMWEBID/7187 MicroMessenger/8.0.28.2240(0x28001C57) WeChat/arm64 Weixin NetType/4G Language/zh_CN ABI/arm64","WebKit","Chrome","86.0.4240.99","AndroidOS","10","null","<div style=""font-size:60px;"">+</div>","null",""
"","","","","","html-button-response","33","52487","0.0-4.0-1.14","265","1","2022-11-20 15:05:24","49aca292d257f58668169b9fbab864ae","39.144.25.78","Mozilla/5.0 (Linux; Android 10; V2002A Build/QP1A.190711.020; wv) AppleWebKit/537.36 (KHTML, like Gecko) Version/4.0 Chrome/86.0.4240.99 XWEB/4343 MMWEBSDK/20220903 Mobile Safari/537.36 MMWEBID/7187 MicroMessenger/8.0.28.2240(0x28001C57) WeChat/arm64 Weixin NetType/4G Language/zh_CN ABI/arm64","WebKit","Chrome","86.0.4240.99","AndroidOS","10","831","<p>作为军队的指挥官，你可以选择发射导弹杀死 <strong>7名</strong> 敌国士兵，但会误杀附近的 <strong>1名</strong> 敌国平民。</p> <p>平民照片如下图所示。</p> <p></p> <img src='stimuli/faces/PFM4.jpg', style='max-width: 30%;'> </img> <p><strong>你是否选择发射武器？</strong></p>","0",""
"","","","","","html-keyboard-response","34","53497","0.0-4.0-0.15","265","1","2022-11-20 15:05:24","49aca292d257f58668169b9fbab864ae","39.144.25.78","Mozilla/5.0 (Linux; Android 10; V2002A Build/QP1A.190711.020; wv) AppleWebKit/537.36 (KHTML, like Gecko) Version/4.0 Chrome/86.0.4240.99 XWEB/4343 MMWEBSDK/20220903 Mobile Safari/537.36 MMWEBID/7187 MicroMessenger/8.0.28.2240(0x28001C57) WeChat/arm64 Weixin NetType/4G Language/zh_CN ABI/arm64","WebKit","Chrome","86.0.4240.99","AndroidOS","10","null","<div style=""font-size:60px;"">+</div>","null",""
"","","","","","html-button-response","35","53929","0.0-4.0-1.15","265","1","2022-11-20 15:05:24","49aca292d257f58668169b9fbab864ae","39.144.25.78","Mozilla/5.0 (Linux; Android 10; V2002A Build/QP1A.190711.020; wv) AppleWebKit/537.36 (KHTML, like Gecko) Version/4.0 Chrome/86.0.4240.99 XWEB/4343 MMWEBSDK/20220903 Mobile Safari/537.36 MMWEBID/7187 MicroMessenger/8.0.28.2240(0x28001C57) WeChat/arm64 Weixin NetType/4G Language/zh_CN ABI/arm64","WebKit","Chrome","86.0.4240.99","AndroidOS","10","419","<p>作为军队的指挥官，你可以选择发射导弹杀死 <strong>6名</strong> 敌国士兵，但会炸毁附近的 <strong>1棵</strong> 敌国树木。</p> <p>树木的照片如下图所示。</p> <p></p> <img src='stimuli/trees/11.png', style='max-width: 30%;'> </img> <p><strong>你是否选择发射武器？</strong></p>","0",""
"","","","","","html-keyboard-response","36","54938","0.0-4.0-0.16","265","1","2022-11-20 15:05:24","49aca292d257f58668169b9fbab864ae","39.144.25.78","Mozilla/5.0 (Linux; Android 10; V2002A Build/QP1A.190711.020; wv) AppleWebKit/537.36 (KHTML, like Gecko) Version/4.0 Chrome/86.0.4240.99 XWEB/4343 MMWEBSDK/20220903 Mobile Safari/537.36 MMWEBID/7187 MicroMessenger/8.0.28.2240(0x28001C57) WeChat/arm64 Weixin NetType/4G Language/zh_CN ABI/arm64","WebKit","Chrome","86.0.4240.99","AndroidOS","10","null","<div style=""font-size:60px;"">+</div>","null",""
"","","","","","html-button-response","37","55658","0.0-4.0-1.16","265","1","2022-11-20 15:05:24","49aca292d257f58668169b9fbab864ae","39.144.25.78","Mozilla/5.0 (Linux; Android 10; V2002A Build/QP1A.190711.020; wv) AppleWebKit/537.36 (KHTML, like Gecko) Version/4.0 Chrome/86.0.4240.99 XWEB/4343 MMWEBSDK/20220903 Mobile Safari/537.36 MMWEBID/7187 MicroMessenger/8.0.28.2240(0x28001C57) WeChat/arm64 Weixin NetType/4G Language/zh_CN ABI/arm64","WebKit","Chrome","86.0.4240.99","AndroidOS","10","709","<p>作为军队的指挥官，你可以选择发射导弹杀死 <strong>6名</strong> 敌国士兵，但会炸毁附近的 <strong>1棵</strong> 敌国树木。</p> <p>树木的照片如下图所示。</p> <p></p> <img src='stimuli/trees/1.png', style='max-width: 30%;'> </img> <p><strong>你是否选择发射武器？</strong></p>","0",""
"","","","","","html-keyboard-response","38","56665","0.0-4.0-0.17","265","1","2022-11-20 15:05:24","49aca292d257f58668169b9fbab864ae","39.144.25.78","Mozilla/5.0 (Linux; Android 10; V2002A Build/QP1A.190711.020; wv) AppleWebKit/537.36 (KHTML, like Gecko) Version/4.0 Chrome/86.0.4240.99 XWEB/4343 MMWEBSDK/20220903 Mobile Safari/537.36 MMWEBID/7187 MicroMessenger/8.0.28.2240(0x28001C57) WeChat/arm64 Weixin NetType/4G Language/zh_CN ABI/arm64","WebKit","Chrome","86.0.4240.99","AndroidOS","10","null","<div style=""font-size:60px;"">+</div>","null",""
"","","","","","html-button-response","39","57339","0.0-4.0-1.17","265","1","2022-11-20 15:05:24","49aca292d257f58668169b9fbab864ae","39.144.25.78","Mozilla/5.0 (Linux; Android 10; V2002A Build/QP1A.190711.020; wv) AppleWebKit/537.36 (KHTML, like Gecko) Version/4.0 Chrome/86.0.4240.99 XWEB/4343 MMWEBSDK/20220903 Mobile Safari/537.36 MMWEBID/7187 MicroMessenger/8.0.28.2240(0x28001C57) WeChat/arm64 Weixin NetType/4G Language/zh_CN ABI/arm64","WebKit","Chrome","86.0.4240.99","AndroidOS","10","664","<p>作为军队的指挥官，你可以选择发射导弹杀死 <strong>4名</strong> 敌国士兵，但会误杀附近的 <strong>1名</strong> 敌国平民。</p> <p>平民照片如下图所示。</p> <p></p> <img src='stimuli/faces/PFM3.jpg', style='max-width: 30%;'> </img> <p><strong>你是否选择发射武器？</strong></p>","0",""
"","","","","","html-keyboard-response","40","58347","0.0-4.0-0.18","265","1","2022-11-20 15:05:24","49aca292d257f58668169b9fbab864ae","39.144.25.78","Mozilla/5.0 (Linux; Android 10; V2002A Build/QP1A.190711.020; wv) AppleWebKit/537.36 (KHTML, like Gecko) Version/4.0 Chrome/86.0.4240.99 XWEB/4343 MMWEBSDK/20220903 Mobile Safari/537.36 MMWEBID/7187 MicroMessenger/8.0.28.2240(0x28001C57) WeChat/arm64 Weixin NetType/4G Language/zh_CN ABI/arm64","WebKit","Chrome","86.0.4240.99","AndroidOS","10","null","<div style=""font-size:60px;"">+</div>","null",""
"","","","","","html-button-response","41","60280","0.0-4.0-1.18","265","1","2022-11-20 15:05:24","49aca292d257f58668169b9fbab864ae","39.144.25.78","Mozilla/5.0 (Linux; Android 10; V2002A Build/QP1A.190711.020; wv) AppleWebKit/537.36 (KHTML, like Gecko) Version/4.0 Chrome/86.0.4240.99 XWEB/4343 MMWEBSDK/20220903 Mobile Safari/537.36 MMWEBID/7187 MicroMessenger/8.0.28.2240(0x28001C57) WeChat/arm64 Weixin NetType/4G Language/zh_CN ABI/arm64","WebKit","Chrome","86.0.4240.99","AndroidOS","10","1920","<p>作为军队的指挥官，你可以选择发射导弹杀死 <strong>3名</strong> 敌国士兵，但会炸毁附近的 <strong>1棵</strong> 敌国树木。</p> <p>树木的照片如下图所示。</p> <p></p> <img src='stimuli/trees/8.png', style='max-width: 30%;'> </img> <p><strong>你是否选择发射武器？</strong></p>","1",""
"","","","","","html-keyboard-response","42","61287","0.0-4.0-0.19","265","1","2022-11-20 15:05:24","49aca292d257f58668169b9fbab864ae","39.144.25.78","Mozilla/5.0 (Linux; Android 10; V2002A Build/QP1A.190711.020; wv) AppleWebKit/537.36 (KHTML, like Gecko) Version/4.0 Chrome/86.0.4240.99 XWEB/4343 MMWEBSDK/20220903 Mobile Safari/537.36 MMWEBID/7187 MicroMessenger/8.0.28.2240(0x28001C57) WeChat/arm64 Weixin NetType/4G Language/zh_CN ABI/arm64","WebKit","Chrome","86.0.4240.99","AndroidOS","10","null","<div style=""font-size:60px;"">+</div>","null",""
"","","","","","html-button-response","43","62412","0.0-4.0-1.19","265","1","2022-11-20 15:05:24","49aca292d257f58668169b9fbab864ae","39.144.25.78","Mozilla/5.0 (Linux; Android 10; V2002A Build/QP1A.190711.020; wv) AppleWebKit/537.36 (KHTML, like Gecko) Version/4.0 Chrome/86.0.4240.99 XWEB/4343 MMWEBSDK/20220903 Mobile Safari/537.36 MMWEBID/7187 MicroMessenger/8.0.28.2240(0x28001C57) WeChat/arm64 Weixin NetType/4G Language/zh_CN ABI/arm64","WebKit","Chrome","86.0.4240.99","AndroidOS","10","1110","<p>作为军队的指挥官，你可以选择发射导弹杀死 <strong>4名</strong> 敌国士兵，但会炸毁附近的 <strong>1棵</strong> 敌国树木。</p> <p>树木的照片如下图所示。</p> <p></p> <img src='stimuli/trees/7.png', style='max-width: 30%;'> </img> <p><strong>你是否选择发射武器？</strong></p>","0",""
"","","","","","html-keyboard-response","44","63419","0.0-4.0-0.20","265","1","2022-11-20 15:05:24","49aca292d257f58668169b9fbab864ae","39.144.25.78","Mozilla/5.0 (Linux; Android 10; V2002A Build/QP1A.190711.020; wv) AppleWebKit/537.36 (KHTML, like Gecko) Version/4.0 Chrome/86.0.4240.99 XWEB/4343 MMWEBSDK/20220903 Mobile Safari/537.36 MMWEBID/7187 MicroMessenger/8.0.28.2240(0x28001C57) WeChat/arm64 Weixin NetType/4G Language/zh_CN ABI/arm64","WebKit","Chrome","86.0.4240.99","AndroidOS","10","null","<div style=""font-size:60px;"">+</div>","null",""
"","","","","","html-button-response","45","65581","0.0-4.0-1.20","265","1","2022-11-20 15:05:24","49aca292d257f58668169b9fbab864ae","39.144.25.78","Mozilla/5.0 (Linux; Android 10; V2002A Build/QP1A.190711.020; wv) AppleWebKit/537.36 (KHTML, like Gecko) Version/4.0 Chrome/86.0.4240.99 XWEB/4343 MMWEBSDK/20220903 Mobile Safari/537.36 MMWEBID/7187 MicroMessenger/8.0.28.2240(0x28001C57) WeChat/arm64 Weixin NetType/4G Language/zh_CN ABI/arm64","WebKit","Chrome","86.0.4240.99","AndroidOS","10","2147","<p>作为军队的指挥官，你可以选择发射导弹杀死 <strong>8名</strong> 敌国士兵，但会炸毁附近的 <strong>1棵</strong> 敌国树木。</p> <p>树木的照片如下图所示。</p> <p></p> <img src='stimuli/trees/3.png', style='max-width: 30%;'> </img> <p><strong>你是否选择发射武器？</strong></p>","0",""
"","","","","","html-keyboard-response","46","66592","0.0-4.0-0.21","265","1","2022-11-20 15:05:24","49aca292d257f58668169b9fbab864ae","39.144.25.78","Mozilla/5.0 (Linux; Android 10; V2002A Build/QP1A.190711.020; wv) AppleWebKit/537.36 (KHTML, like Gecko) Version/4.0 Chrome/86.0.4240.99 XWEB/4343 MMWEBSDK/20220903 Mobile Safari/537.36 MMWEBID/7187 MicroMessenger/8.0.28.2240(0x28001C57) WeChat/arm64 Weixin NetType/4G Language/zh_CN ABI/arm64","WebKit","Chrome","86.0.4240.99","AndroidOS","10","null","<div style=""font-size:60px;"">+</div>","null",""
"","","","","","html-button-response","47","67455","0.0-4.0-1.21","265","1","2022-11-20 15:05:24","49aca292d257f58668169b9fbab864ae","39.144.25.78","Mozilla/5.0 (Linux; Android 10; V2002A Build/QP1A.190711.020; wv) AppleWebKit/537.36 (KHTML, like Gecko) Version/4.0 Chrome/86.0.4240.99 XWEB/4343 MMWEBSDK/20220903 Mobile Safari/537.36 MMWEBID/7187 MicroMessenger/8.0.28.2240(0x28001C57) WeChat/arm64 Weixin NetType/4G Language/zh_CN ABI/arm64","WebKit","Chrome","86.0.4240.99","AndroidOS","10","850","<p>作为军队的指挥官，你可以选择发射导弹杀死 <strong>10名</strong> 敌国士兵，但会误杀附近的 <strong>1名</strong> 敌国平民。</p> <p>平民照片如下图所示。</p> <p></p> <img src='stimuli/faces/PFM6.jpg', style='max-width: 30%;'> </img> <p><strong>你是否选择发射武器？</strong></p>","0",""
"","","","","","html-keyboard-response","48","68461","0.0-4.0-0.22","265","1","2022-11-20 15:05:24","49aca292d257f58668169b9fbab864ae","39.144.25.78","Mozilla/5.0 (Linux; Android 10; V2002A Build/QP1A.190711.020; wv) AppleWebKit/537.36 (KHTML, like Gecko) Version/4.0 Chrome/86.0.4240.99 XWEB/4343 MMWEBSDK/20220903 Mobile Safari/537.36 MMWEBID/7187 MicroMessenger/8.0.28.2240(0x28001C57) WeChat/arm64 Weixin NetType/4G Language/zh_CN ABI/arm64","WebKit","Chrome","86.0.4240.99","AndroidOS","10","null","<div style=""font-size:60px;"">+</div>","null",""
"","","","","","html-button-response","49","69336","0.0-4.0-1.22","265","1","2022-11-20 15:05:24","49aca292d257f58668169b9fbab864ae","39.144.25.78","Mozilla/5.0 (Linux; Android 10; V2002A Build/QP1A.190711.020; wv) AppleWebKit/537.36 (KHTML, like Gecko) Version/4.0 Chrome/86.0.4240.99 XWEB/4343 MMWEBSDK/20220903 Mobile Safari/537.36 MMWEBID/7187 MicroMessenger/8.0.28.2240(0x28001C57) WeChat/arm64 Weixin NetType/4G Language/zh_CN ABI/arm64","WebKit","Chrome","86.0.4240.99","AndroidOS","10","868","<p>作为军队的指挥官，你可以选择发射导弹杀死 <strong>5名</strong> 敌国士兵，但会炸毁附近的 <strong>1棵</strong> 敌国树木。</p> <p>树木的照片如下图所示。</p> <p></p> <img src='stimuli/trees/2.png', style='max-width: 30%;'> </img> <p><strong>你是否选择发射武器？</strong></p>","0",""
"","","","","","html-keyboard-response","50","70345","0.0-4.0-0.23","265","1","2022-11-20 15:05:24","49aca292d257f58668169b9fbab864ae","39.144.25.78","Mozilla/5.0 (Linux; Android 10; V2002A Build/QP1A.190711.020; wv) AppleWebKit/537.36 (KHTML, like Gecko) Version/4.0 Chrome/86.0.4240.99 XWEB/4343 MMWEBSDK/20220903 Mobile Safari/537.36 MMWEBID/7187 MicroMessenger/8.0.28.2240(0x28001C57) WeChat/arm64 Weixin NetType/4G Language/zh_CN ABI/arm64","WebKit","Chrome","86.0.4240.99","AndroidOS","10","null","<div style=""font-size:60px;"">+</div>","null",""
"","","","","","html-button-response","51","72134","0.0-4.0-1.23","265","1","2022-11-20 15:05:24","49aca292d257f58668169b9fbab864ae","39.144.25.78","Mozilla/5.0 (Linux; Android 10; V2002A Build/QP1A.190711.020; wv) AppleWebKit/537.36 (KHTML, like Gecko) Version/4.0 Chrome/86.0.4240.99 XWEB/4343 MMWEBSDK/20220903 Mobile Safari/537.36 MMWEBID/7187 MicroMessenger/8.0.28.2240(0x28001C57) WeChat/arm64 Weixin NetType/4G Language/zh_CN ABI/arm64","WebKit","Chrome","86.0.4240.99","AndroidOS","10","1774","<p>作为军队的指挥官，你可以选择发射导弹杀死 <strong>2名</strong> 敌国士兵，但会误杀附近的 <strong>1名</strong> 敌国平民。</p> <p>平民照片如下图所示。</p> <p></p> <img src='stimuli/faces/PFM1.jpg', style='max-width: 30%;'> </img> <p><strong>你是否选择发射武器？</strong></p>","1",""
"","","","","","html-keyboard-response","52","73139","0.0-4.0-0.24","265","1","2022-11-20 15:05:24","49aca292d257f58668169b9fbab864ae","39.144.25.78","Mozilla/5.0 (Linux; Android 10; V2002A Build/QP1A.190711.020; wv) AppleWebKit/537.36 (KHTML, like Gecko) Version/4.0 Chrome/86.0.4240.99 XWEB/4343 MMWEBSDK/20220903 Mobile Safari/537.36 MMWEBID/7187 MicroMessenger/8.0.28.2240(0x28001C57) WeChat/arm64 Weixin NetType/4G Language/zh_CN ABI/arm64","WebKit","Chrome","86.0.4240.99","AndroidOS","10","null","<div style=""font-size:60px;"">+</div>","null",""
"","","","","","html-button-response","53","74101","0.0-4.0-1.24","265","1","2022-11-20 15:05:24","49aca292d257f58668169b9fbab864ae","39.144.25.78","Mozilla/5.0 (Linux; Android 10; V2002A Build/QP1A.190711.020; wv) AppleWebKit/537.36 (KHTML, like Gecko) Version/4.0 Chrome/86.0.4240.99 XWEB/4343 MMWEBSDK/20220903 Mobile Safari/537.36 MMWEBID/7187 MicroMessenger/8.0.28.2240(0x28001C57) WeChat/arm64 Weixin NetType/4G Language/zh_CN ABI/arm64","WebKit","Chrome","86.0.4240.99","AndroidOS","10","949","<p>作为军队的指挥官，你可以选择发射导弹杀死 <strong>9名</strong> 敌国士兵，但会炸毁附近的 <strong>1棵</strong> 敌国树木。</p> <p>树木的照片如下图所示。</p> <p></p> <img src='stimuli/trees/8.png', style='max-width: 30%;'> </img> <p><strong>你是否选择发射武器？</strong></p>","0",""
"","","","","","html-keyboard-response","54","75112","0.0-4.0-0.25","265","1","2022-11-20 15:05:24","49aca292d257f58668169b9fbab864ae","39.144.25.78","Mozilla/5.0 (Linux; Android 10; V2002A Build/QP1A.190711.020; wv) AppleWebKit/537.36 (KHTML, like Gecko) Version/4.0 Chrome/86.0.4240.99 XWEB/4343 MMWEBSDK/20220903 Mobile Safari/537.36 MMWEBID/7187 MicroMessenger/8.0.28.2240(0x28001C57) WeChat/arm64 Weixin NetType/4G Language/zh_CN ABI/arm64","WebKit","Chrome","86.0.4240.99","AndroidOS","10","null","<div style=""font-size:60px;"">+</div>","null",""
"","","","","","html-button-response","55","76388","0.0-4.0-1.25","265","1","2022-11-20 15:05:24","49aca292d257f58668169b9fbab864ae","39.144.25.78","Mozilla/5.0 (Linux; Android 10; V2002A Build/QP1A.190711.020; wv) AppleWebKit/537.36 (KHTML, like Gecko) Version/4.0 Chrome/86.0.4240.99 XWEB/4343 MMWEBSDK/20220903 Mobile Safari/537.36 MMWEBID/7187 MicroMessenger/8.0.28.2240(0x28001C57) WeChat/arm64 Weixin NetType/4G Language/zh_CN ABI/arm64","WebKit","Chrome","86.0.4240.99","AndroidOS","10","1257","<p>作为军队的指挥官，你可以选择发射导弹杀死 <strong>1名</strong> 敌国士兵，但会误杀附近的 <strong>1名</strong> 敌国平民。</p> <p>平民照片如下图所示。</p> <p></p> <img src='stimuli/faces/PFM2.jpg', style='max-width: 30%;'> </img> <p><strong>你是否选择发射武器？</strong></p>","1",""
"","","","","","html-keyboard-response","56","77401","0.0-4.0-0.26","265","1","2022-11-20 15:05:24","49aca292d257f58668169b9fbab864ae","39.144.25.78","Mozilla/5.0 (Linux; Android 10; V2002A Build/QP1A.190711.020; wv) AppleWebKit/537.36 (KHTML, like Gecko) Version/4.0 Chrome/86.0.4240.99 XWEB/4343 MMWEBSDK/20220903 Mobile Safari/537.36 MMWEBID/7187 MicroMessenger/8.0.28.2240(0x28001C57) WeChat/arm64 Weixin NetType/4G Language/zh_CN ABI/arm64","WebKit","Chrome","86.0.4240.99","AndroidOS","10","null","<div style=""font-size:60px;"">+</div>","null",""
"","","","","","html-button-response","57","78598","0.0-4.0-1.26","265","1","2022-11-20 15:05:24","49aca292d257f58668169b9fbab864ae","39.144.25.78","Mozilla/5.0 (Linux; Android 10; V2002A Build/QP1A.190711.020; wv) AppleWebKit/537.36 (KHTML, like Gecko) Version/4.0 Chrome/86.0.4240.99 XWEB/4343 MMWEBSDK/20220903 Mobile Safari/537.36 MMWEBID/7187 MicroMessenger/8.0.28.2240(0x28001C57) WeChat/arm64 Weixin NetType/4G Language/zh_CN ABI/arm64","WebKit","Chrome","86.0.4240.99","AndroidOS","10","1181","<p>作为军队的指挥官，你可以选择发射导弹杀死 <strong>7名</strong> 敌国士兵，但会炸毁附近的 <strong>1棵</strong> 敌国树木。</p> <p>树木的照片如下图所示。</p> <p></p> <img src='stimuli/trees/12.png', style='max-width: 30%;'> </img> <p><strong>你是否选择发射武器？</strong></p>","0",""
"","","","","","html-keyboard-response","58","79609","0.0-4.0-0.27","265","1","2022-11-20 15:05:24","49aca292d257f58668169b9fbab864ae","39.144.25.78","Mozilla/5.0 (Linux; Android 10; V2002A Build/QP1A.190711.020; wv) AppleWebKit/537.36 (KHTML, like Gecko) Version/4.0 Chrome/86.0.4240.99 XWEB/4343 MMWEBSDK/20220903 Mobile Safari/537.36 MMWEBID/7187 MicroMessenger/8.0.28.2240(0x28001C57) WeChat/arm64 Weixin NetType/4G Language/zh_CN ABI/arm64","WebKit","Chrome","86.0.4240.99","AndroidOS","10","null","<div style=""font-size:60px;"">+</div>","null",""
"","","","","","html-button-response","59","80029","0.0-4.0-1.27","265","1","2022-11-20 15:05:24","49aca292d257f58668169b9fbab864ae","39.144.25.78","Mozilla/5.0 (Linux; Android 10; V2002A Build/QP1A.190711.020; wv) AppleWebKit/537.36 (KHTML, like Gecko) Version/4.0 Chrome/86.0.4240.99 XWEB/4343 MMWEBSDK/20220903 Mobile Safari/537.36 MMWEBID/7187 MicroMessenger/8.0.28.2240(0x28001C57) WeChat/arm64 Weixin NetType/4G Language/zh_CN ABI/arm64","WebKit","Chrome","86.0.4240.99","AndroidOS","10","411","<p>作为军队的指挥官，你可以选择发射导弹杀死 <strong>2名</strong> 敌国士兵，但会炸毁附近的 <strong>1棵</strong> 敌国树木。</p> <p>树木的照片如下图所示。</p> <p></p> <img src='stimuli/trees/11.png', style='max-width: 30%;'> </img> <p><strong>你是否选择发射武器？</strong></p>","0",""
"","","","","","html-keyboard-response","60","81046","0.0-4.0-0.28","265","1","2022-11-20 15:05:24","49aca292d257f58668169b9fbab864ae","39.144.25.78","Mozilla/5.0 (Linux; Android 10; V2002A Build/QP1A.190711.020; wv) AppleWebKit/537.36 (KHTML, like Gecko) Version/4.0 Chrome/86.0.4240.99 XWEB/4343 MMWEBSDK/20220903 Mobile Safari/537.36 MMWEBID/7187 MicroMessenger/8.0.28.2240(0x28001C57) WeChat/arm64 Weixin NetType/4G Language/zh_CN ABI/arm64","WebKit","Chrome","86.0.4240.99","AndroidOS","10","null","<div style=""font-size:60px;"">+</div>","null",""
"","","","","","html-button-response","61","81686","0.0-4.0-1.28","265","1","2022-11-20 15:05:24","49aca292d257f58668169b9fbab864ae","39.144.25.78","Mozilla/5.0 (Linux; Android 10; V2002A Build/QP1A.190711.020; wv) AppleWebKit/537.36 (KHTML, like Gecko) Version/4.0 Chrome/86.0.4240.99 XWEB/4343 MMWEBSDK/20220903 Mobile Safari/537.36 MMWEBID/7187 MicroMessenger/8.0.28.2240(0x28001C57) WeChat/arm64 Weixin NetType/4G Language/zh_CN ABI/arm64","WebKit","Chrome","86.0.4240.99","AndroidOS","10","628","<p>作为军队的指挥官，你可以选择发射导弹杀死 <strong>4名</strong> 敌国士兵，但会误杀附近的 <strong>1名</strong> 敌国平民。</p> <p>平民照片如下图所示。</p> <p></p> <img src='stimuli/faces/PFF3.jpg', style='max-width: 30%;'> </img> <p><strong>你是否选择发射武器？</strong></p>","0",""
"","","","","","html-keyboard-response","62","82696","0.0-4.0-0.29","265","1","2022-11-20 15:05:24","49aca292d257f58668169b9fbab864ae","39.144.25.78","Mozilla/5.0 (Linux; Android 10; V2002A Build/QP1A.190711.020; wv) AppleWebKit/537.36 (KHTML, like Gecko) Version/4.0 Chrome/86.0.4240.99 XWEB/4343 MMWEBSDK/20220903 Mobile Safari/537.36 MMWEBID/7187 MicroMessenger/8.0.28.2240(0x28001C57) WeChat/arm64 Weixin NetType/4G Language/zh_CN ABI/arm64","WebKit","Chrome","86.0.4240.99","AndroidOS","10","null","<div style=""font-size:60px;"">+</div>","null",""
"","","","","","html-button-response","63","83826","0.0-4.0-1.29","265","1","2022-11-20 15:05:24","49aca292d257f58668169b9fbab864ae","39.144.25.78","Mozilla/5.0 (Linux; Android 10; V2002A Build/QP1A.190711.020; wv) AppleWebKit/537.36 (KHTML, like Gecko) Version/4.0 Chrome/86.0.4240.99 XWEB/4343 MMWEBSDK/20220903 Mobile Safari/537.36 MMWEBID/7187 MicroMessenger/8.0.28.2240(0x28001C57) WeChat/arm64 Weixin NetType/4G Language/zh_CN ABI/arm64","WebKit","Chrome","86.0.4240.99","AndroidOS","10","1121","<p>作为军队的指挥官，你可以选择发射导弹杀死 <strong>9名</strong> 敌国士兵，但会误杀附近的 <strong>1名</strong> 敌国平民。</p> <p>平民照片如下图所示。</p> <p></p> <img src='stimuli/faces/PFF4.jpg', style='max-width: 30%;'> </img> <p><strong>你是否选择发射武器？</strong></p>","0",""
"","","","","","html-keyboard-response","64","84833","0.0-4.0-0.30","265","1","2022-11-20 15:05:24","49aca292d257f58668169b9fbab864ae","39.144.25.78","Mozilla/5.0 (Linux; Android 10; V2002A Build/QP1A.190711.020; wv) AppleWebKit/537.36 (KHTML, like Gecko) Version/4.0 Chrome/86.0.4240.99 XWEB/4343 MMWEBSDK/20220903 Mobile Safari/537.36 MMWEBID/7187 MicroMessenger/8.0.28.2240(0x28001C57) WeChat/arm64 Weixin NetType/4G Language/zh_CN ABI/arm64","WebKit","Chrome","86.0.4240.99","AndroidOS","10","null","<div style=""font-size:60px;"">+</div>","null",""
"","","","","","html-button-response","65","86077","0.0-4.0-1.30","265","1","2022-11-20 15:05:24","49aca292d257f58668169b9fbab864ae","39.144.25.78","Mozilla/5.0 (Linux; Android 10; V2002A Build/QP1A.190711.020; wv) AppleWebKit/537.36 (KHTML, like Gecko) Version/4.0 Chrome/86.0.4240.99 XWEB/4343 MMWEBSDK/20220903 Mobile Safari/537.36 MMWEBID/7187 MicroMessenger/8.0.28.2240(0x28001C57) WeChat/arm64 Weixin NetType/4G Language/zh_CN ABI/arm64","WebKit","Chrome","86.0.4240.99","AndroidOS","10","1235","<p>作为军队的指挥官，你可以选择发射导弹杀死 <strong>3名</strong> 敌国士兵，但会炸毁附近的 <strong>1棵</strong> 敌国树木。</p> <p>树木的照片如下图所示。</p> <p></p> <img src='stimuli/trees/4.png', style='max-width: 30%;'> </img> <p><strong>你是否选择发射武器？</strong></p>","1",""
"","","","","","html-keyboard-response","66","87087","0.0-4.0-0.31","265","1","2022-11-20 15:05:24","49aca292d257f58668169b9fbab864ae","39.144.25.78","Mozilla/5.0 (Linux; Android 10; V2002A Build/QP1A.190711.020; wv) AppleWebKit/537.36 (KHTML, like Gecko) Version/4.0 Chrome/86.0.4240.99 XWEB/4343 MMWEBSDK/20220903 Mobile Safari/537.36 MMWEBID/7187 MicroMessenger/8.0.28.2240(0x28001C57) WeChat/arm64 Weixin NetType/4G Language/zh_CN ABI/arm64","WebKit","Chrome","86.0.4240.99","AndroidOS","10","null","<div style=""font-size:60px;"">+</div>","null",""
"","","","","","html-button-response","67","88444","0.0-4.0-1.31","265","1","2022-11-20 15:05:24","49aca292d257f58668169b9fbab864ae","39.144.25.78","Mozilla/5.0 (Linux; Android 10; V2002A Build/QP1A.190711.020; wv) AppleWebKit/537.36 (KHTML, like Gecko) Version/4.0 Chrome/86.0.4240.99 XWEB/4343 MMWEBSDK/20220903 Mobile Safari/537.36 MMWEBID/7187 MicroMessenger/8.0.28.2240(0x28001C57) WeChat/arm64 Weixin NetType/4G Language/zh_CN ABI/arm64","WebKit","Chrome","86.0.4240.99","AndroidOS","10","1338","<p>作为军队的指挥官，你可以选择发射导弹杀死 <strong>6名</strong> 敌国士兵，但会误杀附近的 <strong>1名</strong> 敌国平民。</p> <p>平民照片如下图所示。</p> <p></p> <img src='stimuli/faces/PFF6.jpg', style='max-width: 30%;'> </img> <p><strong>你是否选择发射武器？</strong></p>","0",""
"","","","","","html-keyboard-response","68","89462","0.0-4.0-0.32","265","1","2022-11-20 15:05:24","49aca292d257f58668169b9fbab864ae","39.144.25.78","Mozilla/5.0 (Linux; Android 10; V2002A Build/QP1A.190711.020; wv) AppleWebKit/537.36 (KHTML, like Gecko) Version/4.0 Chrome/86.0.4240.99 XWEB/4343 MMWEBSDK/20220903 Mobile Safari/537.36 MMWEBID/7187 MicroMessenger/8.0.28.2240(0x28001C57) WeChat/arm64 Weixin NetType/4G Language/zh_CN ABI/arm64","WebKit","Chrome","86.0.4240.99","AndroidOS","10","null","<div style=""font-size:60px;"">+</div>","null",""
"","","","","","html-button-response","69","90300","0.0-4.0-1.32","265","1","2022-11-20 15:05:24","49aca292d257f58668169b9fbab864ae","39.144.25.78","Mozilla/5.0 (Linux; Android 10; V2002A Build/QP1A.190711.020; wv) AppleWebKit/537.36 (KHTML, like Gecko) Version/4.0 Chrome/86.0.4240.99 XWEB/4343 MMWEBSDK/20220903 Mobile Safari/537.36 MMWEBID/7187 MicroMessenger/8.0.28.2240(0x28001C57) WeChat/arm64 Weixin NetType/4G Language/zh_CN ABI/arm64","WebKit","Chrome","86.0.4240.99","AndroidOS","10","823","<p>作为军队的指挥官，你可以选择发射导弹杀死 <strong>7名</strong> 敌国士兵，但会炸毁附近的 <strong>1棵</strong> 敌国树木。</p> <p>树木的照片如下图所示。</p> <p></p> <img src='stimuli/trees/9.png', style='max-width: 30%;'> </img> <p><strong>你是否选择发射武器？</strong></p>","0",""
"","","","","","html-keyboard-response","70","91308","0.0-4.0-0.33","265","1","2022-11-20 15:05:24","49aca292d257f58668169b9fbab864ae","39.144.25.78","Mozilla/5.0 (Linux; Android 10; V2002A Build/QP1A.190711.020; wv) AppleWebKit/537.36 (KHTML, like Gecko) Version/4.0 Chrome/86.0.4240.99 XWEB/4343 MMWEBSDK/20220903 Mobile Safari/537.36 MMWEBID/7187 MicroMessenger/8.0.28.2240(0x28001C57) WeChat/arm64 Weixin NetType/4G Language/zh_CN ABI/arm64","WebKit","Chrome","86.0.4240.99","AndroidOS","10","null","<div style=""font-size:60px;"">+</div>","null",""
"","","","","","html-button-response","71","92180","0.0-4.0-1.33","265","1","2022-11-20 15:05:24","49aca292d257f58668169b9fbab864ae","39.144.25.78","Mozilla/5.0 (Linux; Android 10; V2002A Build/QP1A.190711.020; wv) AppleWebKit/537.36 (KHTML, like Gecko) Version/4.0 Chrome/86.0.4240.99 XWEB/4343 MMWEBSDK/20220903 Mobile Safari/537.36 MMWEBID/7187 MicroMessenger/8.0.28.2240(0x28001C57) WeChat/arm64 Weixin NetType/4G Language/zh_CN ABI/arm64","WebKit","Chrome","86.0.4240.99","AndroidOS","10","849","<p>作为军队的指挥官，你可以选择发射导弹杀死 <strong>9名</strong> 敌国士兵，但会炸毁附近的 <strong>1棵</strong> 敌国树木。</p> <p>树木的照片如下图所示。</p> <p></p> <img src='stimuli/trees/10.png', style='max-width: 30%;'> </img> <p><strong>你是否选择发射武器？</strong></p>","0",""
"","","","","","html-keyboard-response","72","93186","0.0-4.0-0.34","265","1","2022-11-20 15:05:24","49aca292d257f58668169b9fbab864ae","39.144.25.78","Mozilla/5.0 (Linux; Android 10; V2002A Build/QP1A.190711.020; wv) AppleWebKit/537.36 (KHTML, like Gecko) Version/4.0 Chrome/86.0.4240.99 XWEB/4343 MMWEBSDK/20220903 Mobile Safari/537.36 MMWEBID/7187 MicroMessenger/8.0.28.2240(0x28001C57) WeChat/arm64 Weixin NetType/4G Language/zh_CN ABI/arm64","WebKit","Chrome","86.0.4240.99","AndroidOS","10","null","<div style=""font-size:60px;"">+</div>","null",""
"","","","","","html-button-response","73","93966","0.0-4.0-1.34","265","1","2022-11-20 15:05:24","49aca292d257f58668169b9fbab864ae","39.144.25.78","Mozilla/5.0 (Linux; Android 10; V2002A Build/QP1A.190711.020; wv) AppleWebKit/537.36 (KHTML, like Gecko) Version/4.0 Chrome/86.0.4240.99 XWEB/4343 MMWEBSDK/20220903 Mobile Safari/537.36 MMWEBID/7187 MicroMessenger/8.0.28.2240(0x28001C57) WeChat/arm64 Weixin NetType/4G Language/zh_CN ABI/arm64","WebKit","Chrome","86.0.4240.99","AndroidOS","10","769","<p>作为军队的指挥官，你可以选择发射导弹杀死 <strong>5名</strong> 敌国士兵，但会误杀附近的 <strong>1名</strong> 敌国平民。</p> <p>平民照片如下图所示。</p> <p></p> <img src='stimuli/faces/PFF5.jpg', style='max-width: 30%;'> </img> <p><strong>你是否选择发射武器？</strong></p>","0",""
"","","","","","html-keyboard-response","74","94974","0.0-4.0-0.35","265","1","2022-11-20 15:05:24","49aca292d257f58668169b9fbab864ae","39.144.25.78","Mozilla/5.0 (Linux; Android 10; V2002A Build/QP1A.190711.020; wv) AppleWebKit/537.36 (KHTML, like Gecko) Version/4.0 Chrome/86.0.4240.99 XWEB/4343 MMWEBSDK/20220903 Mobile Safari/537.36 MMWEBID/7187 MicroMessenger/8.0.28.2240(0x28001C57) WeChat/arm64 Weixin NetType/4G Language/zh_CN ABI/arm64","WebKit","Chrome","86.0.4240.99","AndroidOS","10","null","<div style=""font-size:60px;"">+</div>","null",""
"","","","","","html-button-response","75","95866","0.0-4.0-1.35","265","1","2022-11-20 15:05:24","49aca292d257f58668169b9fbab864ae","39.144.25.78","Mozilla/5.0 (Linux; Android 10; V2002A Build/QP1A.190711.020; wv) AppleWebKit/537.36 (KHTML, like Gecko) Version/4.0 Chrome/86.0.4240.99 XWEB/4343 MMWEBSDK/20220903 Mobile Safari/537.36 MMWEBID/7187 MicroMessenger/8.0.28.2240(0x28001C57) WeChat/arm64 Weixin NetType/4G Language/zh_CN ABI/arm64","WebKit","Chrome","86.0.4240.99","AndroidOS","10","876","<p>作为军队的指挥官，你可以选择发射导弹杀死 <strong>9名</strong> 敌国士兵，但会误杀附近的 <strong>1名</strong> 敌国平民。</p> <p>平民照片如下图所示。</p> <p></p> <img src='stimuli/faces/PFF1.jpg', style='max-width: 30%;'> </img> <p><strong>你是否选择发射武器？</strong></p>","0",""
"","","","","","html-keyboard-response","76","96875","0.0-4.0-0.36","265","1","2022-11-20 15:05:24","49aca292d257f58668169b9fbab864ae","39.144.25.78","Mozilla/5.0 (Linux; Android 10; V2002A Build/QP1A.190711.020; wv) AppleWebKit/537.36 (KHTML, like Gecko) Version/4.0 Chrome/86.0.4240.99 XWEB/4343 MMWEBSDK/20220903 Mobile Safari/537.36 MMWEBID/7187 MicroMessenger/8.0.28.2240(0x28001C57) WeChat/arm64 Weixin NetType/4G Language/zh_CN ABI/arm64","WebKit","Chrome","86.0.4240.99","AndroidOS","10","null","<div style=""font-size:60px;"">+</div>","null",""
"","","","","","html-button-response","77","97756","0.0-4.0-1.36","265","1","2022-11-20 15:05:24","49aca292d257f58668169b9fbab864ae","39.144.25.78","Mozilla/5.0 (Linux; Android 10; V2002A Build/QP1A.190711.020; wv) AppleWebKit/537.36 (KHTML, like Gecko) Version/4.0 Chrome/86.0.4240.99 XWEB/4343 MMWEBSDK/20220903 Mobile Safari/537.36 MMWEBID/7187 MicroMessenger/8.0.28.2240(0x28001C57) WeChat/arm64 Weixin NetType/4G Language/zh_CN ABI/arm64","WebKit","Chrome","86.0.4240.99","AndroidOS","10","855","<p>作为军队的指挥官，你可以选择发射导弹杀死 <strong>4名</strong> 敌国士兵，但会误杀附近的 <strong>1名</strong> 敌国平民。</p> <p>平民照片如下图所示。</p> <p></p> <img src='stimuli/faces/PFM4.jpg', style='max-width: 30%;'> </img> <p><strong>你是否选择发射武器？</strong></p>","0",""
"","","","","","html-keyboard-response","78","98769","0.0-4.0-0.37","265","1","2022-11-20 15:05:24","49aca292d257f58668169b9fbab864ae","39.144.25.78","Mozilla/5.0 (Linux; Android 10; V2002A Build/QP1A.190711.020; wv) AppleWebKit/537.36 (KHTML, like Gecko) Version/4.0 Chrome/86.0.4240.99 XWEB/4343 MMWEBSDK/20220903 Mobile Safari/537.36 MMWEBID/7187 MicroMessenger/8.0.28.2240(0x28001C57) WeChat/arm64 Weixin NetType/4G Language/zh_CN ABI/arm64","WebKit","Chrome","86.0.4240.99","AndroidOS","10","null","<div style=""font-size:60px;"">+</div>","null",""
"","","","","","html-button-response","79","99197","0.0-4.0-1.37","265","1","2022-11-20 15:05:24","49aca292d257f58668169b9fbab864ae","39.144.25.78","Mozilla/5.0 (Linux; Android 10; V2002A Build/QP1A.190711.020; wv) AppleWebKit/537.36 (KHTML, like Gecko) Version/4.0 Chrome/86.0.4240.99 XWEB/4343 MMWEBSDK/20220903 Mobile Safari/537.36 MMWEBID/7187 MicroMessenger/8.0.28.2240(0x28001C57) WeChat/arm64 Weixin NetType/4G Language/zh_CN ABI/arm64","WebKit","Chrome","86.0.4240.99","AndroidOS","10","411","<p>作为军队的指挥官，你可以选择发射导弹杀死 <strong>5名</strong> 敌国士兵，但会误杀附近的 <strong>1名</strong> 敌国平民。</p> <p>平民照片如下图所示。</p> <p></p> <img src='stimuli/faces/PFM7.jpg', style='max-width: 30%;'> </img> <p><strong>你是否选择发射武器？</strong></p>","1",""
"","","","","","html-keyboard-response","80","100204","0.0-4.0-0.38","265","1","2022-11-20 15:05:24","49aca292d257f58668169b9fbab864ae","39.144.25.78","Mozilla/5.0 (Linux; Android 10; V2002A Build/QP1A.190711.020; wv) AppleWebKit/537.36 (KHTML, like Gecko) Version/4.0 Chrome/86.0.4240.99 XWEB/4343 MMWEBSDK/20220903 Mobile Safari/537.36 MMWEBID/7187 MicroMessenger/8.0.28.2240(0x28001C57) WeChat/arm64 Weixin NetType/4G Language/zh_CN ABI/arm64","WebKit","Chrome","86.0.4240.99","AndroidOS","10","null","<div style=""font-size:60px;"">+</div>","null",""
"","","","","","html-button-response","81","100801","0.0-4.0-1.38","265","1","2022-11-20 15:05:24","49aca292d257f58668169b9fbab864ae","39.144.25.78","Mozilla/5.0 (Linux; Android 10; V2002A Build/QP1A.190711.020; wv) AppleWebKit/537.36 (KHTML, like Gecko) Version/4.0 Chrome/86.0.4240.99 XWEB/4343 MMWEBSDK/20220903 Mobile Safari/537.36 MMWEBID/7187 MicroMessenger/8.0.28.2240(0x28001C57) WeChat/arm64 Weixin NetType/4G Language/zh_CN ABI/arm64","WebKit","Chrome","86.0.4240.99","AndroidOS","10","589","<p>作为军队的指挥官，你可以选择发射导弹杀死 <strong>7名</strong> 敌国士兵，但会炸毁附近的 <strong>1棵</strong> 敌国树木。</p> <p>树木的照片如下图所示。</p> <p></p> <img src='stimuli/trees/13.png', style='max-width: 30%;'> </img> <p><strong>你是否选择发射武器？</strong></p>","0",""
"","","","","","html-keyboard-response","82","101808","0.0-4.0-0.39","265","1","2022-11-20 15:05:24","49aca292d257f58668169b9fbab864ae","39.144.25.78","Mozilla/5.0 (Linux; Android 10; V2002A Build/QP1A.190711.020; wv) AppleWebKit/537.36 (KHTML, like Gecko) Version/4.0 Chrome/86.0.4240.99 XWEB/4343 MMWEBSDK/20220903 Mobile Safari/537.36 MMWEBID/7187 MicroMessenger/8.0.28.2240(0x28001C57) WeChat/arm64 Weixin NetType/4G Language/zh_CN ABI/arm64","WebKit","Chrome","86.0.4240.99","AndroidOS","10","null","<div style=""font-size:60px;"">+</div>","null",""
"","","","","","html-button-response","83","102449","0.0-4.0-1.39","265","1","2022-11-20 15:05:24","49aca292d257f58668169b9fbab864ae","39.144.25.78","Mozilla/5.0 (Linux; Android 10; V2002A Build/QP1A.190711.020; wv) AppleWebKit/537.36 (KHTML, like Gecko) Version/4.0 Chrome/86.0.4240.99 XWEB/4343 MMWEBSDK/20220903 Mobile Safari/537.36 MMWEBID/7187 MicroMessenger/8.0.28.2240(0x28001C57) WeChat/arm64 Weixin NetType/4G Language/zh_CN ABI/arm64","WebKit","Chrome","86.0.4240.99","AndroidOS","10","630","<p>作为军队的指挥官，你可以选择发射导弹杀死 <strong>9名</strong> 敌国士兵，但会误杀附近的 <strong>1名</strong> 敌国平民。</p> <p>平民照片如下图所示。</p> <p></p> <img src='stimuli/faces/PFF3.jpg', style='max-width: 30%;'> </img> <p><strong>你是否选择发射武器？</strong></p>","0",""
"","","","","","html-keyboard-response","84","103457","0.0-4.0-0.40","265","1","2022-11-20 15:05:24","49aca292d257f58668169b9fbab864ae","39.144.25.78","Mozilla/5.0 (Linux; Android 10; V2002A Build/QP1A.190711.020; wv) AppleWebKit/537.36 (KHTML, like Gecko) Version/4.0 Chrome/86.0.4240.99 XWEB/4343 MMWEBSDK/20220903 Mobile Safari/537.36 MMWEBID/7187 MicroMessenger/8.0.28.2240(0x28001C57) WeChat/arm64 Weixin NetType/4G Language/zh_CN ABI/arm64","WebKit","Chrome","86.0.4240.99","AndroidOS","10","null","<div style=""font-size:60px;"">+</div>","null",""
"","","","","","html-button-response","85","104375","0.0-4.0-1.40","265","1","2022-11-20 15:05:24","49aca292d257f58668169b9fbab864ae","39.144.25.78","Mozilla/5.0 (Linux; Android 10; V2002A Build/QP1A.190711.020; wv) AppleWebKit/537.36 (KHTML, like Gecko) Version/4.0 Chrome/86.0.4240.99 XWEB/4343 MMWEBSDK/20220903 Mobile Safari/537.36 MMWEBID/7187 MicroMessenger/8.0.28.2240(0x28001C57) WeChat/arm64 Weixin NetType/4G Language/zh_CN ABI/arm64","WebKit","Chrome","86.0.4240.99","AndroidOS","10","903","<p>作为军队的指挥官，你可以选择发射导弹杀死 <strong>10名</strong> 敌国士兵，但会误杀附近的 <strong>1名</strong> 敌国平民。</p> <p>平民照片如下图所示。</p> <p></p> <img src='stimuli/faces/PFM7.jpg', style='max-width: 30%;'> </img> <p><strong>你是否选择发射武器？</strong></p>","0",""
"","","","","","html-keyboard-response","86","105381","0.0-4.0-0.41","265","1","2022-11-20 15:05:24","49aca292d257f58668169b9fbab864ae","39.144.25.78","Mozilla/5.0 (Linux; Android 10; V2002A Build/QP1A.190711.020; wv) AppleWebKit/537.36 (KHTML, like Gecko) Version/4.0 Chrome/86.0.4240.99 XWEB/4343 MMWEBSDK/20220903 Mobile Safari/537.36 MMWEBID/7187 MicroMessenger/8.0.28.2240(0x28001C57) WeChat/arm64 Weixin NetType/4G Language/zh_CN ABI/arm64","WebKit","Chrome","86.0.4240.99","AndroidOS","10","null","<div style=""font-size:60px;"">+</div>","null",""
"","","","","","html-button-response","87","108152","0.0-4.0-1.41","265","1","2022-11-20 15:05:24","49aca292d257f58668169b9fbab864ae","39.144.25.78","Mozilla/5.0 (Linux; Android 10; V2002A Build/QP1A.190711.020; wv) AppleWebKit/537.36 (KHTML, like Gecko) Version/4.0 Chrome/86.0.4240.99 XWEB/4343 MMWEBSDK/20220903 Mobile Safari/537.36 MMWEBID/7187 MicroMessenger/8.0.28.2240(0x28001C57) WeChat/arm64 Weixin NetType/4G Language/zh_CN ABI/arm64","WebKit","Chrome","86.0.4240.99","AndroidOS","10","2760","<p>作为军队的指挥官，你可以选择发射导弹杀死 <strong>3名</strong> 敌国士兵，但会误杀附近的 <strong>1名</strong> 敌国平民。</p> <p>平民照片如下图所示。</p> <p></p> <img src='stimuli/faces/PFF8.jpg', style='max-width: 30%;'> </img> <p><strong>你是否选择发射武器？</strong></p>","1",""
"","","","","","html-keyboard-response","88","109161","0.0-4.0-0.42","265","1","2022-11-20 15:05:24","49aca292d257f58668169b9fbab864ae","39.144.25.78","Mozilla/5.0 (Linux; Android 10; V2002A Build/QP1A.190711.020; wv) AppleWebKit/537.36 (KHTML, like Gecko) Version/4.0 Chrome/86.0.4240.99 XWEB/4343 MMWEBSDK/20220903 Mobile Safari/537.36 MMWEBID/7187 MicroMessenger/8.0.28.2240(0x28001C57) WeChat/arm64 Weixin NetType/4G Language/zh_CN ABI/arm64","WebKit","Chrome","86.0.4240.99","AndroidOS","10","null","<div style=""font-size:60px;"">+</div>","null",""
"","","","","","html-button-response","89","110207","0.0-4.0-1.42","265","1","2022-11-20 15:05:24","49aca292d257f58668169b9fbab864ae","39.144.25.78","Mozilla/5.0 (Linux; Android 10; V2002A Build/QP1A.190711.020; wv) AppleWebKit/537.36 (KHTML, like Gecko) Version/4.0 Chrome/86.0.4240.99 XWEB/4343 MMWEBSDK/20220903 Mobile Safari/537.36 MMWEBID/7187 MicroMessenger/8.0.28.2240(0x28001C57) WeChat/arm64 Weixin NetType/4G Language/zh_CN ABI/arm64","WebKit","Chrome","86.0.4240.99","AndroidOS","10","1029","<p>作为军队的指挥官，你可以选择发射导弹杀死 <strong>6名</strong> 敌国士兵，但会误杀附近的 <strong>1名</strong> 敌国平民。</p> <p>平民照片如下图所示。</p> <p></p> <img src='stimuli/faces/PFM5.jpg', style='max-width: 30%;'> </img> <p><strong>你是否选择发射武器？</strong></p>","0",""
"","","","","","html-keyboard-response","90","111219","0.0-4.0-0.43","265","1","2022-11-20 15:05:24","49aca292d257f58668169b9fbab864ae","39.144.25.78","Mozilla/5.0 (Linux; Android 10; V2002A Build/QP1A.190711.020; wv) AppleWebKit/537.36 (KHTML, like Gecko) Version/4.0 Chrome/86.0.4240.99 XWEB/4343 MMWEBSDK/20220903 Mobile Safari/537.36 MMWEBID/7187 MicroMessenger/8.0.28.2240(0x28001C57) WeChat/arm64 Weixin NetType/4G Language/zh_CN ABI/arm64","WebKit","Chrome","86.0.4240.99","AndroidOS","10","null","<div style=""font-size:60px;"">+</div>","null",""
"","","","","","html-button-response","91","112125","0.0-4.0-1.43","265","1","2022-11-20 15:05:24","49aca292d257f58668169b9fbab864ae","39.144.25.78","Mozilla/5.0 (Linux; Android 10; V2002A Build/QP1A.190711.020; wv) AppleWebKit/537.36 (KHTML, like Gecko) Version/4.0 Chrome/86.0.4240.99 XWEB/4343 MMWEBSDK/20220903 Mobile Safari/537.36 MMWEBID/7187 MicroMessenger/8.0.28.2240(0x28001C57) WeChat/arm64 Weixin NetType/4G Language/zh_CN ABI/arm64","WebKit","Chrome","86.0.4240.99","AndroidOS","10","895","<p>作为军队的指挥官，你可以选择发射导弹杀死 <strong>2名</strong> 敌国士兵，但会炸毁附近的 <strong>1棵</strong> 敌国树木。</p> <p>树木的照片如下图所示。</p> <p></p> <img src='stimuli/trees/6.png', style='max-width: 30%;'> </img> <p><strong>你是否选择发射武器？</strong></p>","1",""
"","","","","","html-keyboard-response","92","113133","0.0-4.0-0.44","265","1","2022-11-20 15:05:24","49aca292d257f58668169b9fbab864ae","39.144.25.78","Mozilla/5.0 (Linux; Android 10; V2002A Build/QP1A.190711.020; wv) AppleWebKit/537.36 (KHTML, like Gecko) Version/4.0 Chrome/86.0.4240.99 XWEB/4343 MMWEBSDK/20220903 Mobile Safari/537.36 MMWEBID/7187 MicroMessenger/8.0.28.2240(0x28001C57) WeChat/arm64 Weixin NetType/4G Language/zh_CN ABI/arm64","WebKit","Chrome","86.0.4240.99","AndroidOS","10","null","<div style=""font-size:60px;"">+</div>","null",""
"","","","","","html-button-response","93","113982","0.0-4.0-1.44","265","1","2022-11-20 15:05:24","49aca292d257f58668169b9fbab864ae","39.144.25.78","Mozilla/5.0 (Linux; Android 10; V2002A Build/QP1A.190711.020; wv) AppleWebKit/537.36 (KHTML, like Gecko) Version/4.0 Chrome/86.0.4240.99 XWEB/4343 MMWEBSDK/20220903 Mobile Safari/537.36 MMWEBID/7187 MicroMessenger/8.0.28.2240(0x28001C57) WeChat/arm64 Weixin NetType/4G Language/zh_CN ABI/arm64","WebKit","Chrome","86.0.4240.99","AndroidOS","10","831","<p>作为军队的指挥官，你可以选择发射导弹杀死 <strong>5名</strong> 敌国士兵，但会误杀附近的 <strong>1名</strong> 敌国平民。</p> <p>平民照片如下图所示。</p> <p></p> <img src='stimuli/faces/PFF4.jpg', style='max-width: 30%;'> </img> <p><strong>你是否选择发射武器？</strong></p>","0",""
"","","","","","html-keyboard-response","94","114997","0.0-4.0-0.45","265","1","2022-11-20 15:05:24","49aca292d257f58668169b9fbab864ae","39.144.25.78","Mozilla/5.0 (Linux; Android 10; V2002A Build/QP1A.190711.020; wv) AppleWebKit/537.36 (KHTML, like Gecko) Version/4.0 Chrome/86.0.4240.99 XWEB/4343 MMWEBSDK/20220903 Mobile Safari/537.36 MMWEBID/7187 MicroMessenger/8.0.28.2240(0x28001C57) WeChat/arm64 Weixin NetType/4G Language/zh_CN ABI/arm64","WebKit","Chrome","86.0.4240.99","AndroidOS","10","null","<div style=""font-size:60px;"">+</div>","null",""
"","","","","","html-button-response","95","117675","0.0-4.0-1.45","265","1","2022-11-20 15:05:24","49aca292d257f58668169b9fbab864ae","39.144.25.78","Mozilla/5.0 (Linux; Android 10; V2002A Build/QP1A.190711.020; wv) AppleWebKit/537.36 (KHTML, like Gecko) Version/4.0 Chrome/86.0.4240.99 XWEB/4343 MMWEBSDK/20220903 Mobile Safari/537.36 MMWEBID/7187 MicroMessenger/8.0.28.2240(0x28001C57) WeChat/arm64 Weixin NetType/4G Language/zh_CN ABI/arm64","WebKit","Chrome","86.0.4240.99","AndroidOS","10","2660","<p>作为军队的指挥官，你可以选择发射导弹杀死 <strong>2名</strong> 敌国士兵，但会炸毁附近的 <strong>1棵</strong> 敌国树木。</p> <p>树木的照片如下图所示。</p> <p></p> <img src='stimuli/trees/1.png', style='max-width: 30%;'> </img> <p><strong>你是否选择发射武器？</strong></p>","0",""
"","","","","","html-keyboard-response","96","118684","0.0-4.0-0.46","265","1","2022-11-20 15:05:24","49aca292d257f58668169b9fbab864ae","39.144.25.78","Mozilla/5.0 (Linux; Android 10; V2002A Build/QP1A.190711.020; wv) AppleWebKit/537.36 (KHTML, like Gecko) Version/4.0 Chrome/86.0.4240.99 XWEB/4343 MMWEBSDK/20220903 Mobile Safari/537.36 MMWEBID/7187 MicroMessenger/8.0.28.2240(0x28001C57) WeChat/arm64 Weixin NetType/4G Language/zh_CN ABI/arm64","WebKit","Chrome","86.0.4240.99","AndroidOS","10","null","<div style=""font-size:60px;"">+</div>","null",""
"","","","","","html-button-response","97","119524","0.0-4.0-1.46","265","1","2022-11-20 15:05:24","49aca292d257f58668169b9fbab864ae","39.144.25.78","Mozilla/5.0 (Linux; Android 10; V2002A Build/QP1A.190711.020; wv) AppleWebKit/537.36 (KHTML, like Gecko) Version/4.0 Chrome/86.0.4240.99 XWEB/4343 MMWEBSDK/20220903 Mobile Safari/537.36 MMWEBID/7187 MicroMessenger/8.0.28.2240(0x28001C57) WeChat/arm64 Weixin NetType/4G Language/zh_CN ABI/arm64","WebKit","Chrome","86.0.4240.99","AndroidOS","10","827","<p>作为军队的指挥官，你可以选择发射导弹杀死 <strong>4名</strong> 敌国士兵，但会误杀附近的 <strong>1名</strong> 敌国平民。</p> <p>平民照片如下图所示。</p> <p></p> <img src='stimuli/faces/PFM8.jpg', style='max-width: 30%;'> </img> <p><strong>你是否选择发射武器？</strong></p>","0",""
"","","","","","html-keyboard-response","98","120539","0.0-4.0-0.47","265","1","2022-11-20 15:05:24","49aca292d257f58668169b9fbab864ae","39.144.25.78","Mozilla/5.0 (Linux; Android 10; V2002A Build/QP1A.190711.020; wv) AppleWebKit/537.36 (KHTML, like Gecko) Version/4.0 Chrome/86.0.4240.99 XWEB/4343 MMWEBSDK/20220903 Mobile Safari/537.36 MMWEBID/7187 MicroMessenger/8.0.28.2240(0x28001C57) WeChat/arm64 Weixin NetType/4G Language/zh_CN ABI/arm64","WebKit","Chrome","86.0.4240.99","AndroidOS","10","null","<div style=""font-size:60px;"">+</div>","null",""
"","","","","","html-button-response","99","122066","0.0-4.0-1.47","265","1","2022-11-20 15:05:24","49aca292d257f58668169b9fbab864ae","39.144.25.78","Mozilla/5.0 (Linux; Android 10; V2002A Build/QP1A.190711.020; wv) AppleWebKit/537.36 (KHTML, like Gecko) Version/4.0 Chrome/86.0.4240.99 XWEB/4343 MMWEBSDK/20220903 Mobile Safari/537.36 MMWEBID/7187 MicroMessenger/8.0.28.2240(0x28001C57) WeChat/arm64 Weixin NetType/4G Language/zh_CN ABI/arm64","WebKit","Chrome","86.0.4240.99","AndroidOS","10","1507","<p>作为军队的指挥官，你可以选择发射导弹杀死 <strong>2名</strong> 敌国士兵，但会炸毁附近的 <strong>1棵</strong> 敌国树木。</p> <p>树木的照片如下图所示。</p> <p></p> <img src='stimuli/trees/9.png', style='max-width: 30%;'> </img> <p><strong>你是否选择发射武器？</strong></p>","0",""
"","","","","","html-keyboard-response","100","123075","0.0-4.0-0.48","265","1","2022-11-20 15:05:24","49aca292d257f58668169b9fbab864ae","39.144.25.78","Mozilla/5.0 (Linux; Android 10; V2002A Build/QP1A.190711.020; wv) AppleWebKit/537.36 (KHTML, like Gecko) Version/4.0 Chrome/86.0.4240.99 XWEB/4343 MMWEBSDK/20220903 Mobile Safari/537.36 MMWEBID/7187 MicroMessenger/8.0.28.2240(0x28001C57) WeChat/arm64 Weixin NetType/4G Language/zh_CN ABI/arm64","WebKit","Chrome","86.0.4240.99","AndroidOS","10","null","<div style=""font-size:60px;"">+</div>","null",""
"","","","","","html-button-response","101","124010","0.0-4.0-1.48","265","1","2022-11-20 15:05:24","49aca292d257f58668169b9fbab864ae","39.144.25.78","Mozilla/5.0 (Linux; Android 10; V2002A Build/QP1A.190711.020; wv) AppleWebKit/537.36 (KHTML, like Gecko) Version/4.0 Chrome/86.0.4240.99 XWEB/4343 MMWEBSDK/20220903 Mobile Safari/537.36 MMWEBID/7187 MicroMessenger/8.0.28.2240(0x28001C57) WeChat/arm64 Weixin NetType/4G Language/zh_CN ABI/arm64","WebKit","Chrome","86.0.4240.99","AndroidOS","10","914","<p>作为军队的指挥官，你可以选择发射导弹杀死 <strong>7名</strong> 敌国士兵，但会炸毁附近的 <strong>1棵</strong> 敌国树木。</p> <p>树木的照片如下图所示。</p> <p></p> <img src='stimuli/trees/2.png', style='max-width: 30%;'> </img> <p><strong>你是否选择发射武器？</strong></p>","0",""
"","","","","","html-keyboard-response","102","125018","0.0-4.0-0.49","265","1","2022-11-20 15:05:24","49aca292d257f58668169b9fbab864ae","39.144.25.78","Mozilla/5.0 (Linux; Android 10; V2002A Build/QP1A.190711.020; wv) AppleWebKit/537.36 (KHTML, like Gecko) Version/4.0 Chrome/86.0.4240.99 XWEB/4343 MMWEBSDK/20220903 Mobile Safari/537.36 MMWEBID/7187 MicroMessenger/8.0.28.2240(0x28001C57) WeChat/arm64 Weixin NetType/4G Language/zh_CN ABI/arm64","WebKit","Chrome","86.0.4240.99","AndroidOS","10","null","<div style=""font-size:60px;"">+</div>","null",""
"","","","","","html-button-response","103","127544","0.0-4.0-1.49","265","1","2022-11-20 15:05:24","49aca292d257f58668169b9fbab864ae","39.144.25.78","Mozilla/5.0 (Linux; Android 10; V2002A Build/QP1A.190711.020; wv) AppleWebKit/537.36 (KHTML, like Gecko) Version/4.0 Chrome/86.0.4240.99 XWEB/4343 MMWEBSDK/20220903 Mobile Safari/537.36 MMWEBID/7187 MicroMessenger/8.0.28.2240(0x28001C57) WeChat/arm64 Weixin NetType/4G Language/zh_CN ABI/arm64","WebKit","Chrome","86.0.4240.99","AndroidOS","10","2510","<p>作为军队的指挥官，你可以选择发射导弹杀死 <strong>1名</strong> 敌国士兵，但会炸毁附近的 <strong>1棵</strong> 敌国树木。</p> <p>树木的照片如下图所示。</p> <p></p> <img src='stimuli/trees/16.png', style='max-width: 30%;'> </img> <p><strong>你是否选择发射武器？</strong></p>","0",""
"","","","","","html-keyboard-response","104","128554","0.0-4.0-0.50","265","1","2022-11-20 15:05:24","49aca292d257f58668169b9fbab864ae","39.144.25.78","Mozilla/5.0 (Linux; Android 10; V2002A Build/QP1A.190711.020; wv) AppleWebKit/537.36 (KHTML, like Gecko) Version/4.0 Chrome/86.0.4240.99 XWEB/4343 MMWEBSDK/20220903 Mobile Safari/537.36 MMWEBID/7187 MicroMessenger/8.0.28.2240(0x28001C57) WeChat/arm64 Weixin NetType/4G Language/zh_CN ABI/arm64","WebKit","Chrome","86.0.4240.99","AndroidOS","10","null","<div style=""font-size:60px;"">+</div>","null",""
"","","","","","html-button-response","105","129545","0.0-4.0-1.50","265","1","2022-11-20 15:05:24","49aca292d257f58668169b9fbab864ae","39.144.25.78","Mozilla/5.0 (Linux; Android 10; V2002A Build/QP1A.190711.020; wv) AppleWebKit/537.36 (KHTML, like Gecko) Version/4.0 Chrome/86.0.4240.99 XWEB/4343 MMWEBSDK/20220903 Mobile Safari/537.36 MMWEBID/7187 MicroMessenger/8.0.28.2240(0x28001C57) WeChat/arm64 Weixin NetType/4G Language/zh_CN ABI/arm64","WebKit","Chrome","86.0.4240.99","AndroidOS","10","986","<p>作为军队的指挥官，你可以选择发射导弹杀死 <strong>5名</strong> 敌国士兵，但会误杀附近的 <strong>1名</strong> 敌国平民。</p> <p>平民照片如下图所示。</p> <p></p> <img src='stimuli/faces/PFM5.jpg', style='max-width: 30%;'> </img> <p><strong>你是否选择发射武器？</strong></p>","0",""
"","","","","","html-keyboard-response","106","130553","0.0-4.0-0.51","265","1","2022-11-20 15:05:24","49aca292d257f58668169b9fbab864ae","39.144.25.78","Mozilla/5.0 (Linux; Android 10; V2002A Build/QP1A.190711.020; wv) AppleWebKit/537.36 (KHTML, like Gecko) Version/4.0 Chrome/86.0.4240.99 XWEB/4343 MMWEBSDK/20220903 Mobile Safari/537.36 MMWEBID/7187 MicroMessenger/8.0.28.2240(0x28001C57) WeChat/arm64 Weixin NetType/4G Language/zh_CN ABI/arm64","WebKit","Chrome","86.0.4240.99","AndroidOS","10","null","<div style=""font-size:60px;"">+</div>","null",""
"","","","","","html-button-response","107","131532","0.0-4.0-1.51","265","1","2022-11-20 15:05:24","49aca292d257f58668169b9fbab864ae","39.144.25.78","Mozilla/5.0 (Linux; Android 10; V2002A Build/QP1A.190711.020; wv) AppleWebKit/537.36 (KHTML, like Gecko) Version/4.0 Chrome/86.0.4240.99 XWEB/4343 MMWEBSDK/20220903 Mobile Safari/537.36 MMWEBID/7187 MicroMessenger/8.0.28.2240(0x28001C57) WeChat/arm64 Weixin NetType/4G Language/zh_CN ABI/arm64","WebKit","Chrome","86.0.4240.99","AndroidOS","10","968","<p>作为军队的指挥官，你可以选择发射导弹杀死 <strong>2名</strong> 敌国士兵，但会炸毁附近的 <strong>1棵</strong> 敌国树木。</p> <p>树木的照片如下图所示。</p> <p></p> <img src='stimuli/trees/14.png', style='max-width: 30%;'> </img> <p><strong>你是否选择发射武器？</strong></p>","0",""
"","","","","","html-keyboard-response","108","132547","0.0-4.0-0.52","265","1","2022-11-20 15:05:24","49aca292d257f58668169b9fbab864ae","39.144.25.78","Mozilla/5.0 (Linux; Android 10; V2002A Build/QP1A.190711.020; wv) AppleWebKit/537.36 (KHTML, like Gecko) Version/4.0 Chrome/86.0.4240.99 XWEB/4343 MMWEBSDK/20220903 Mobile Safari/537.36 MMWEBID/7187 MicroMessenger/8.0.28.2240(0x28001C57) WeChat/arm64 Weixin NetType/4G Language/zh_CN ABI/arm64","WebKit","Chrome","86.0.4240.99","AndroidOS","10","null","<div style=""font-size:60px;"">+</div>","null",""
"","","","","","html-button-response","109","133301","0.0-4.0-1.52","265","1","2022-11-20 15:05:24","49aca292d257f58668169b9fbab864ae","39.144.25.78","Mozilla/5.0 (Linux; Android 10; V2002A Build/QP1A.190711.020; wv) AppleWebKit/537.36 (KHTML, like Gecko) Version/4.0 Chrome/86.0.4240.99 XWEB/4343 MMWEBSDK/20220903 Mobile Safari/537.36 MMWEBID/7187 MicroMessenger/8.0.28.2240(0x28001C57) WeChat/arm64 Weixin NetType/4G Language/zh_CN ABI/arm64","WebKit","Chrome","86.0.4240.99","AndroidOS","10","738","<p>作为军队的指挥官，你可以选择发射导弹杀死 <strong>9名</strong> 敌国士兵，但会炸毁附近的 <strong>1棵</strong> 敌国树木。</p> <p>树木的照片如下图所示。</p> <p></p> <img src='stimuli/trees/6.png', style='max-width: 30%;'> </img> <p><strong>你是否选择发射武器？</strong></p>","0",""
"","","","","","html-keyboard-response","110","134315","0.0-4.0-0.53","265","1","2022-11-20 15:05:24","49aca292d257f58668169b9fbab864ae","39.144.25.78","Mozilla/5.0 (Linux; Android 10; V2002A Build/QP1A.190711.020; wv) AppleWebKit/537.36 (KHTML, like Gecko) Version/4.0 Chrome/86.0.4240.99 XWEB/4343 MMWEBSDK/20220903 Mobile Safari/537.36 MMWEBID/7187 MicroMessenger/8.0.28.2240(0x28001C57) WeChat/arm64 Weixin NetType/4G Language/zh_CN ABI/arm64","WebKit","Chrome","86.0.4240.99","AndroidOS","10","null","<div style=""font-size:60px;"">+</div>","null",""
"","","","","","html-button-response","111","136662","0.0-4.0-1.53","265","1","2022-11-20 15:05:24","49aca292d257f58668169b9fbab864ae","39.144.25.78","Mozilla/5.0 (Linux; Android 10; V2002A Build/QP1A.190711.020; wv) AppleWebKit/537.36 (KHTML, like Gecko) Version/4.0 Chrome/86.0.4240.99 XWEB/4343 MMWEBSDK/20220903 Mobile Safari/537.36 MMWEBID/7187 MicroMessenger/8.0.28.2240(0x28001C57) WeChat/arm64 Weixin NetType/4G Language/zh_CN ABI/arm64","WebKit","Chrome","86.0.4240.99","AndroidOS","10","2322","<p>作为军队的指挥官，你可以选择发射导弹杀死 <strong>8名</strong> 敌国士兵，但会误杀附近的 <strong>1名</strong> 敌国平民。</p> <p>平民照片如下图所示。</p> <p></p> <img src='stimuli/faces/PFM2.jpg', style='max-width: 30%;'> </img> <p><strong>你是否选择发射武器？</strong></p>","0",""
"","","","","","html-keyboard-response","112","137674","0.0-4.0-0.54","265","1","2022-11-20 15:05:24","49aca292d257f58668169b9fbab864ae","39.144.25.78","Mozilla/5.0 (Linux; Android 10; V2002A Build/QP1A.190711.020; wv) AppleWebKit/537.36 (KHTML, like Gecko) Version/4.0 Chrome/86.0.4240.99 XWEB/4343 MMWEBSDK/20220903 Mobile Safari/537.36 MMWEBID/7187 MicroMessenger/8.0.28.2240(0x28001C57) WeChat/arm64 Weixin NetType/4G Language/zh_CN ABI/arm64","WebKit","Chrome","86.0.4240.99","AndroidOS","10","null","<div style=""font-size:60px;"">+</div>","null",""
"","","","","","html-button-response","113","138642","0.0-4.0-1.54","265","1","2022-11-20 15:05:24","49aca292d257f58668169b9fbab864ae","39.144.25.78","Mozilla/5.0 (Linux; Android 10; V2002A Build/QP1A.190711.020; wv) AppleWebKit/537.36 (KHTML, like Gecko) Version/4.0 Chrome/86.0.4240.99 XWEB/4343 MMWEBSDK/20220903 Mobile Safari/537.36 MMWEBID/7187 MicroMessenger/8.0.28.2240(0x28001C57) WeChat/arm64 Weixin NetType/4G Language/zh_CN ABI/arm64","WebKit","Chrome","86.0.4240.99","AndroidOS","10","952","<p>作为军队的指挥官，你可以选择发射导弹杀死 <strong>9名</strong> 敌国士兵，但会炸毁附近的 <strong>1棵</strong> 敌国树木。</p> <p>树木的照片如下图所示。</p> <p></p> <img src='stimuli/trees/4.png', style='max-width: 30%;'> </img> <p><strong>你是否选择发射武器？</strong></p>","0",""
"","","","","","html-keyboard-response","114","139651","0.0-4.0-0.55","265","1","2022-11-20 15:05:24","49aca292d257f58668169b9fbab864ae","39.144.25.78","Mozilla/5.0 (Linux; Android 10; V2002A Build/QP1A.190711.020; wv) AppleWebKit/537.36 (KHTML, like Gecko) Version/4.0 Chrome/86.0.4240.99 XWEB/4343 MMWEBSDK/20220903 Mobile Safari/537.36 MMWEBID/7187 MicroMessenger/8.0.28.2240(0x28001C57) WeChat/arm64 Weixin NetType/4G Language/zh_CN ABI/arm64","WebKit","Chrome","86.0.4240.99","AndroidOS","10","null","<div style=""font-size:60px;"">+</div>","null",""
"","","","","","html-button-response","115","140538","0.0-4.0-1.55","265","1","2022-11-20 15:05:24","49aca292d257f58668169b9fbab864ae","39.144.25.78","Mozilla/5.0 (Linux; Android 10; V2002A Build/QP1A.190711.020; wv) AppleWebKit/537.36 (KHTML, like Gecko) Version/4.0 Chrome/86.0.4240.99 XWEB/4343 MMWEBSDK/20220903 Mobile Safari/537.36 MMWEBID/7187 MicroMessenger/8.0.28.2240(0x28001C57) WeChat/arm64 Weixin NetType/4G Language/zh_CN ABI/arm64","WebKit","Chrome","86.0.4240.99","AndroidOS","10","869","<p>作为军队的指挥官，你可以选择发射导弹杀死 <strong>3名</strong> 敌国士兵，但会炸毁附近的 <strong>1棵</strong> 敌国树木。</p> <p>树木的照片如下图所示。</p> <p></p> <img src='stimuli/trees/3.png', style='max-width: 30%;'> </img> <p><strong>你是否选择发射武器？</strong></p>","0",""
"","","","","","html-keyboard-response","116","141546","0.0-4.0-0.56","265","1","2022-11-20 15:05:24","49aca292d257f58668169b9fbab864ae","39.144.25.78","Mozilla/5.0 (Linux; Android 10; V2002A Build/QP1A.190711.020; wv) AppleWebKit/537.36 (KHTML, like Gecko) Version/4.0 Chrome/86.0.4240.99 XWEB/4343 MMWEBSDK/20220903 Mobile Safari/537.36 MMWEBID/7187 MicroMessenger/8.0.28.2240(0x28001C57) WeChat/arm64 Weixin NetType/4G Language/zh_CN ABI/arm64","WebKit","Chrome","86.0.4240.99","AndroidOS","10","null","<div style=""font-size:60px;"">+</div>","null",""
"","","","","","html-button-response","117","142169","0.0-4.0-1.56","265","1","2022-11-20 15:05:24","49aca292d257f58668169b9fbab864ae","39.144.25.78","Mozilla/5.0 (Linux; Android 10; V2002A Build/QP1A.190711.020; wv) AppleWebKit/537.36 (KHTML, like Gecko) Version/4.0 Chrome/86.0.4240.99 XWEB/4343 MMWEBSDK/20220903 Mobile Safari/537.36 MMWEBID/7187 MicroMessenger/8.0.28.2240(0x28001C57) WeChat/arm64 Weixin NetType/4G Language/zh_CN ABI/arm64","WebKit","Chrome","86.0.4240.99","AndroidOS","10","612","<p>作为军队的指挥官，你可以选择发射导弹杀死 <strong>5名</strong> 敌国士兵，但会炸毁附近的 <strong>1棵</strong> 敌国树木。</p> <p>树木的照片如下图所示。</p> <p></p> <img src='stimuli/trees/5.png', style='max-width: 30%;'> </img> <p><strong>你是否选择发射武器？</strong></p>","1",""
"","","","","","html-keyboard-response","118","143179","0.0-4.0-0.57","265","1","2022-11-20 15:05:24","49aca292d257f58668169b9fbab864ae","39.144.25.78","Mozilla/5.0 (Linux; Android 10; V2002A Build/QP1A.190711.020; wv) AppleWebKit/537.36 (KHTML, like Gecko) Version/4.0 Chrome/86.0.4240.99 XWEB/4343 MMWEBSDK/20220903 Mobile Safari/537.36 MMWEBID/7187 MicroMessenger/8.0.28.2240(0x28001C57) WeChat/arm64 Weixin NetType/4G Language/zh_CN ABI/arm64","WebKit","Chrome","86.0.4240.99","AndroidOS","10","null","<div style=""font-size:60px;"">+</div>","null",""
"","","","","","html-button-response","119","143807","0.0-4.0-1.57","265","1","2022-11-20 15:05:24","49aca292d257f58668169b9fbab864ae","39.144.25.78","Mozilla/5.0 (Linux; Android 10; V2002A Build/QP1A.190711.020; wv) AppleWebKit/537.36 (KHTML, like Gecko) Version/4.0 Chrome/86.0.4240.99 XWEB/4343 MMWEBSDK/20220903 Mobile Safari/537.36 MMWEBID/7187 MicroMessenger/8.0.28.2240(0x28001C57) WeChat/arm64 Weixin NetType/4G Language/zh_CN ABI/arm64","WebKit","Chrome","86.0.4240.99","AndroidOS","10","599","<p>作为军队的指挥官，你可以选择发射导弹杀死 <strong>4名</strong> 敌国士兵，但会误杀附近的 <strong>1名</strong> 敌国平民。</p> <p>平民照片如下图所示。</p> <p></p> <img src='stimuli/faces/PFM6.jpg', style='max-width: 30%;'> </img> <p><strong>你是否选择发射武器？</strong></p>","0",""
"","","","","","html-keyboard-response","120","144825","0.0-4.0-0.58","265","1","2022-11-20 15:05:24","49aca292d257f58668169b9fbab864ae","39.144.25.78","Mozilla/5.0 (Linux; Android 10; V2002A Build/QP1A.190711.020; wv) AppleWebKit/537.36 (KHTML, like Gecko) Version/4.0 Chrome/86.0.4240.99 XWEB/4343 MMWEBSDK/20220903 Mobile Safari/537.36 MMWEBID/7187 MicroMessenger/8.0.28.2240(0x28001C57) WeChat/arm64 Weixin NetType/4G Language/zh_CN ABI/arm64","WebKit","Chrome","86.0.4240.99","AndroidOS","10","null","<div style=""font-size:60px;"">+</div>","null",""
"","","","","","html-button-response","121","145661","0.0-4.0-1.58","265","1","2022-11-20 15:05:24","49aca292d257f58668169b9fbab864ae","39.144.25.78","Mozilla/5.0 (Linux; Android 10; V2002A Build/QP1A.190711.020; wv) AppleWebKit/537.36 (KHTML, like Gecko) Version/4.0 Chrome/86.0.4240.99 XWEB/4343 MMWEBSDK/20220903 Mobile Safari/537.36 MMWEBID/7187 MicroMessenger/8.0.28.2240(0x28001C57) WeChat/arm64 Weixin NetType/4G Language/zh_CN ABI/arm64","WebKit","Chrome","86.0.4240.99","AndroidOS","10","820","<p>作为军队的指挥官，你可以选择发射导弹杀死 <strong>5名</strong> 敌国士兵，但会误杀附近的 <strong>1名</strong> 敌国平民。</p> <p>平民照片如下图所示。</p> <p></p> <img src='stimuli/faces/PFF2.jpg', style='max-width: 30%;'> </img> <p><strong>你是否选择发射武器？</strong></p>","0",""
"","","","","","html-keyboard-response","122","146675","0.0-4.0-0.59","265","1","2022-11-20 15:05:24","49aca292d257f58668169b9fbab864ae","39.144.25.78","Mozilla/5.0 (Linux; Android 10; V2002A Build/QP1A.190711.020; wv) AppleWebKit/537.36 (KHTML, like Gecko) Version/4.0 Chrome/86.0.4240.99 XWEB/4343 MMWEBSDK/20220903 Mobile Safari/537.36 MMWEBID/7187 MicroMessenger/8.0.28.2240(0x28001C57) WeChat/arm64 Weixin NetType/4G Language/zh_CN ABI/arm64","WebKit","Chrome","86.0.4240.99","AndroidOS","10","null","<div style=""font-size:60px;"">+</div>","null",""
"","","","","","html-button-response","123","148075","0.0-4.0-1.59","265","1","2022-11-20 15:05:24","49aca292d257f58668169b9fbab864ae","39.144.25.78","Mozilla/5.0 (Linux; Android 10; V2002A Build/QP1A.190711.020; wv) AppleWebKit/537.36 (KHTML, like Gecko) Version/4.0 Chrome/86.0.4240.99 XWEB/4343 MMWEBSDK/20220903 Mobile Safari/537.36 MMWEBID/7187 MicroMessenger/8.0.28.2240(0x28001C57) WeChat/arm64 Weixin NetType/4G Language/zh_CN ABI/arm64","WebKit","Chrome","86.0.4240.99","AndroidOS","10","1389","<p>作为军队的指挥官，你可以选择发射导弹杀死 <strong>2名</strong> 敌国士兵，但会炸毁附近的 <strong>1棵</strong> 敌国树木。</p> <p>树木的照片如下图所示。</p> <p></p> <img src='stimuli/trees/15.png', style='max-width: 30%;'> </img> <p><strong>你是否选择发射武器？</strong></p>","1",""
"","","","","","html-keyboard-response","124","149086","0.0-4.0-0.60","265","1","2022-11-20 15:05:24","49aca292d257f58668169b9fbab864ae","39.144.25.78","Mozilla/5.0 (Linux; Android 10; V2002A Build/QP1A.190711.020; wv) AppleWebKit/537.36 (KHTML, like Gecko) Version/4.0 Chrome/86.0.4240.99 XWEB/4343 MMWEBSDK/20220903 Mobile Safari/537.36 MMWEBID/7187 MicroMessenger/8.0.28.2240(0x28001C57) WeChat/arm64 Weixin NetType/4G Language/zh_CN ABI/arm64","WebKit","Chrome","86.0.4240.99","AndroidOS","10","null","<div style=""font-size:60px;"">+</div>","null",""
"","","","","","html-button-response","125","149830","0.0-4.0-1.60","265","1","2022-11-20 15:05:24","49aca292d257f58668169b9fbab864ae","39.144.25.78","Mozilla/5.0 (Linux; Android 10; V2002A Build/QP1A.190711.020; wv) AppleWebKit/537.36 (KHTML, like Gecko) Version/4.0 Chrome/86.0.4240.99 XWEB/4343 MMWEBSDK/20220903 Mobile Safari/537.36 MMWEBID/7187 MicroMessenger/8.0.28.2240(0x28001C57) WeChat/arm64 Weixin NetType/4G Language/zh_CN ABI/arm64","WebKit","Chrome","86.0.4240.99","AndroidOS","10","721","<p>作为军队的指挥官，你可以选择发射导弹杀死 <strong>10名</strong> 敌国士兵，但会炸毁附近的 <strong>1棵</strong> 敌国树木。</p> <p>树木的照片如下图所示。</p> <p></p> <img src='stimuli/trees/16.png', style='max-width: 30%;'> </img> <p><strong>你是否选择发射武器？</strong></p>","0",""
"","","","","","html-keyboard-response","126","150848","0.0-4.0-0.61","265","1","2022-11-20 15:05:24","49aca292d257f58668169b9fbab864ae","39.144.25.78","Mozilla/5.0 (Linux; Android 10; V2002A Build/QP1A.190711.020; wv) AppleWebKit/537.36 (KHTML, like Gecko) Version/4.0 Chrome/86.0.4240.99 XWEB/4343 MMWEBSDK/20220903 Mobile Safari/537.36 MMWEBID/7187 MicroMessenger/8.0.28.2240(0x28001C57) WeChat/arm64 Weixin NetType/4G Language/zh_CN ABI/arm64","WebKit","Chrome","86.0.4240.99","AndroidOS","10","null","<div style=""font-size:60px;"">+</div>","null",""
"","","","","","html-button-response","127","151798","0.0-4.0-1.61","265","1","2022-11-20 15:05:24","49aca292d257f58668169b9fbab864ae","39.144.25.78","Mozilla/5.0 (Linux; Android 10; V2002A Build/QP1A.190711.020; wv) AppleWebKit/537.36 (KHTML, like Gecko) Version/4.0 Chrome/86.0.4240.99 XWEB/4343 MMWEBSDK/20220903 Mobile Safari/537.36 MMWEBID/7187 MicroMessenger/8.0.28.2240(0x28001C57) WeChat/arm64 Weixin NetType/4G Language/zh_CN ABI/arm64","WebKit","Chrome","86.0.4240.99","AndroidOS","10","933","<p>作为军队的指挥官，你可以选择发射导弹杀死 <strong>6名</strong> 敌国士兵，但会误杀附近的 <strong>1名</strong> 敌国平民。</p> <p>平民照片如下图所示。</p> <p></p> <img src='stimuli/faces/PFF8.jpg', style='max-width: 30%;'> </img> <p><strong>你是否选择发射武器？</strong></p>","0",""
"","","","","","html-keyboard-response","128","152811","0.0-4.0-0.62","265","1","2022-11-20 15:05:24","49aca292d257f58668169b9fbab864ae","39.144.25.78","Mozilla/5.0 (Linux; Android 10; V2002A Build/QP1A.190711.020; wv) AppleWebKit/537.36 (KHTML, like Gecko) Version/4.0 Chrome/86.0.4240.99 XWEB/4343 MMWEBSDK/20220903 Mobile Safari/537.36 MMWEBID/7187 MicroMessenger/8.0.28.2240(0x28001C57) WeChat/arm64 Weixin NetType/4G Language/zh_CN ABI/arm64","WebKit","Chrome","86.0.4240.99","AndroidOS","10","null","<div style=""font-size:60px;"">+</div>","null",""
"","","","","","html-button-response","129","154066","0.0-4.0-1.62","265","1","2022-11-20 15:05:24","49aca292d257f58668169b9fbab864ae","39.144.25.78","Mozilla/5.0 (Linux; Android 10; V2002A Build/QP1A.190711.020; wv) AppleWebKit/537.36 (KHTML, like Gecko) Version/4.0 Chrome/86.0.4240.99 XWEB/4343 MMWEBSDK/20220903 Mobile Safari/537.36 MMWEBID/7187 MicroMessenger/8.0.28.2240(0x28001C57) WeChat/arm64 Weixin NetType/4G Language/zh_CN ABI/arm64","WebKit","Chrome","86.0.4240.99","AndroidOS","10","1241","<p>作为军队的指挥官，你可以选择发射导弹杀死 <strong>2名</strong> 敌国士兵，但会炸毁附近的 <strong>1棵</strong> 敌国树木。</p> <p>树木的照片如下图所示。</p> <p></p> <img src='stimuli/trees/12.png', style='max-width: 30%;'> </img> <p><strong>你是否选择发射武器？</strong></p>","1",""
"","","","","","html-keyboard-response","130","155077","0.0-4.0-0.63","265","1","2022-11-20 15:05:24","49aca292d257f58668169b9fbab864ae","39.144.25.78","Mozilla/5.0 (Linux; Android 10; V2002A Build/QP1A.190711.020; wv) AppleWebKit/537.36 (KHTML, like Gecko) Version/4.0 Chrome/86.0.4240.99 XWEB/4343 MMWEBSDK/20220903 Mobile Safari/537.36 MMWEBID/7187 MicroMessenger/8.0.28.2240(0x28001C57) WeChat/arm64 Weixin NetType/4G Language/zh_CN ABI/arm64","WebKit","Chrome","86.0.4240.99","AndroidOS","10","null","<div style=""font-size:60px;"">+</div>","null",""
"","","","","","html-button-response","131","156174","0.0-4.0-1.63","265","1","2022-11-20 15:05:24","49aca292d257f58668169b9fbab864ae","39.144.25.78","Mozilla/5.0 (Linux; Android 10; V2002A Build/QP1A.190711.020; wv) AppleWebKit/537.36 (KHTML, like Gecko) Version/4.0 Chrome/86.0.4240.99 XWEB/4343 MMWEBSDK/20220903 Mobile Safari/537.36 MMWEBID/7187 MicroMessenger/8.0.28.2240(0x28001C57) WeChat/arm64 Weixin NetType/4G Language/zh_CN ABI/arm64","WebKit","Chrome","86.0.4240.99","AndroidOS","10","1073","<p>作为军队的指挥官，你可以选择发射导弹杀死 <strong>6名</strong> 敌国士兵，但会误杀附近的 <strong>1名</strong> 敌国平民。</p> <p>平民照片如下图所示。</p> <p></p> <img src='stimuli/faces/PFF7.jpg', style='max-width: 30%;'> </img> <p><strong>你是否选择发射武器？</strong></p>","0",""
"","","","","","survey-multi-choice","132","172278","0.0-5.0","265","1","2022-11-20 15:05:24","49aca292d257f58668169b9fbab864ae","39.144.25.78","Mozilla/5.0 (Linux; Android 10; V2002A Build/QP1A.190711.020; wv) AppleWebKit/537.36 (KHTML, like Gecko) Version/4.0 Chrome/86.0.4240.99 XWEB/4343 MMWEBSDK/20220903 Mobile Safari/537.36 MMWEBID/7187 MicroMessenger/8.0.28.2240(0x28001C57) WeChat/arm64 Weixin NetType/4G Language/zh_CN ABI/arm64","WebKit","Chrome","86.0.4240.99","AndroidOS","10","16076","","{""Attention1"":""""}","[0]"
"","","","","","html-button-response","133","174671","0.0-6.0","265","1","2022-11-20 15:05:24","49aca292d257f58668169b9fbab864ae","39.144.25.78","Mozilla/5.0 (Linux; Android 10; V2002A Build/QP1A.190711.020; wv) AppleWebKit/537.36 (KHTML, like Gecko) Version/4.0 Chrome/86.0.4240.99 XWEB/4343 MMWEBSDK/20220903 Mobile Safari/537.36 MMWEBID/7187 MicroMessenger/8.0.28.2240(0x28001C57) WeChat/arm64 Weixin NetType/4G Language/zh_CN ABI/arm64","WebKit","Chrome","86.0.4240.99","AndroidOS","10","2375","<p style=""font-size:20px;font-weight:bold;"">恭喜！</p><p>你已经完成了实验的第一部分。</p><p>请休息放松一下，然后进入第二部分。</p><p>这部分大约需要10分钟。</p>","0",""
"","","","","","survey-text","134","199992","0.0-7.0","265","1","2022-11-20 15:05:24","49aca292d257f58668169b9fbab864ae","39.144.25.78","Mozilla/5.0 (Linux; Android 10; V2002A Build/QP1A.190711.020; wv) AppleWebKit/537.36 (KHTML, like Gecko) Version/4.0 Chrome/86.0.4240.99 XWEB/4343 MMWEBSDK/20220903 Mobile Safari/537.36 MMWEBID/7187 MicroMessenger/8.0.28.2240(0x28001C57) WeChat/arm64 Weixin NetType/4G Language/zh_CN ABI/arm64","WebKit","Chrome","86.0.4240.99","AndroidOS","10","24270","","{""Age"":""25"",""Nation"":""中国"",""Born"":""河南"",""Live"":""河南"",""Ethnic"":""汉族"",""Alipay"":""15239341663""}",""
"","","","","","survey-multi-choice","135","212058","0.0-8.0","265","1","2022-11-20 15:05:24","49aca292d257f58668169b9fbab864ae","39.144.25.78","Mozilla/5.0 (Linux; Android 10; V2002A Build/QP1A.190711.020; wv) AppleWebKit/537.36 (KHTML, like Gecko) Version/4.0 Chrome/86.0.4240.99 XWEB/4343 MMWEBSDK/20220903 Mobile Safari/537.36 MMWEBID/7187 MicroMessenger/8.0.28.2240(0x28001C57) WeChat/arm64 Weixin NetType/4G Language/zh_CN ABI/arm64","WebKit","Chrome","86.0.4240.99","AndroidOS","10","12048","","{""Gender"":""女"",""Education"":""本科毕业"",""Income"":""￥70,000-￥139,999"",""Children"":""1"",""Race"":""亚洲人""}","[0,1,2,3,4]"
"","","","","","survey-multi-select","136","230895","0.0-9.0","265","1","2022-11-20 15:05:24","49aca292d257f58668169b9fbab864ae","39.144.25.78","Mozilla/5.0 (Linux; Android 10; V2002A Build/QP1A.190711.020; wv) AppleWebKit/537.36 (KHTML, like Gecko) Version/4.0 Chrome/86.0.4240.99 XWEB/4343 MMWEBSDK/20220903 Mobile Safari/537.36 MMWEBID/7187 MicroMessenger/8.0.28.2240(0x28001C57) WeChat/arm64 Weixin NetType/4G Language/zh_CN ABI/arm64","WebKit","Chrome","86.0.4240.99","AndroidOS","10","18796","","{""Marriage"":[""已婚""],""Religion"":[""无宗教信仰""]}","[0,1]"
"","","","","","survey-multi-choice","137","234198","0.0-10.0","265","1","2022-11-20 15:05:24","49aca292d257f58668169b9fbab864ae","39.144.25.78","Mozilla/5.0 (Linux; Android 10; V2002A Build/QP1A.190711.020; wv) AppleWebKit/537.36 (KHTML, like Gecko) Version/4.0 Chrome/86.0.4240.99 XWEB/4343 MMWEBSDK/20220903 Mobile Safari/537.36 MMWEBID/7187 MicroMessenger/8.0.28.2240(0x28001C57) WeChat/arm64 Weixin NetType/4G Language/zh_CN ABI/arm64","WebKit","Chrome","86.0.4240.99","AndroidOS","10","3276","","{""SES"":""5""}","[0]"
"","","","","","html-button-response","138","235623","0.0-11.0","265","1","2022-11-20 15:05:24","49aca292d257f58668169b9fbab864ae","39.144.25.78","Mozilla/5.0 (Linux; Android 10; V2002A Build/QP1A.190711.020; wv) AppleWebKit/537.36 (KHTML, like Gecko) Version/4.0 Chrome/86.0.4240.99 XWEB/4343 MMWEBSDK/20220903 Mobile Safari/537.36 MMWEBID/7187 MicroMessenger/8.0.28.2240(0x28001C57) WeChat/arm64 Weixin NetType/4G Language/zh_CN ABI/arm64","WebKit","Chrome","86.0.4240.99","AndroidOS","10","1393","<p><strong>请判断下列陈述在多大程度上可以形容你？</p><p> (1 = ""和我一点都不像"" to 5 = ""非常像我"".)</strong></p>","0",""
"","","","","","survey-likert","139","253436","0.0-12.0","265","1","2022-11-20 15:05:24","49aca292d257f58668169b9fbab864ae","39.144.25.78","Mozilla/5.0 (Linux; Android 10; V2002A Build/QP1A.190711.020; wv) AppleWebKit/537.36 (KHTML, like Gecko) Version/4.0 Chrome/86.0.4240.99 XWEB/4343 MMWEBSDK/20220903 Mobile Safari/537.36 MMWEBID/7187 MicroMessenger/8.0.28.2240(0x28001C57) WeChat/arm64 Weixin NetType/4G Language/zh_CN ABI/arm64","WebKit","Chrome","86.0.4240.99","AndroidOS","10","17780","","{""Aggression1"":1,""Aggression2"":4,""Aggression3"":4,""Aggression4"":3,""Aggression5"":4,""Aggression6"":4,""Aggression7"":3,""Aggression8"":1,""Aggression9"":1}","[0,1,2,3,4,5,6,7,8]"
"","","","","","html-button-response","140","256070","0.0-13.0","265","1","2022-11-20 15:05:24","49aca292d257f58668169b9fbab864ae","39.144.25.78","Mozilla/5.0 (Linux; Android 10; V2002A Build/QP1A.190711.020; wv) AppleWebKit/537.36 (KHTML, like Gecko) Version/4.0 Chrome/86.0.4240.99 XWEB/4343 MMWEBSDK/20220903 Mobile Safari/537.36 MMWEBID/7187 MicroMessenger/8.0.28.2240(0x28001C57) WeChat/arm64 Weixin NetType/4G Language/zh_CN ABI/arm64","WebKit","Chrome","86.0.4240.99","AndroidOS","10","2614","<p><strong>请判断你在多大程度上同意下列陈述。</strong></p>","0",""
"","","","","","survey-likert","141","284674","0.0-14.0","265","1","2022-11-20 15:05:24","49aca292d257f58668169b9fbab864ae","39.144.25.78","Mozilla/5.0 (Linux; Android 10; V2002A Build/QP1A.190711.020; wv) AppleWebKit/537.36 (KHTML, like Gecko) Version/4.0 Chrome/86.0.4240.99 XWEB/4343 MMWEBSDK/20220903 Mobile Safari/537.36 MMWEBID/7187 MicroMessenger/8.0.28.2240(0x28001C57) WeChat/arm64 Weixin NetType/4G Language/zh_CN ABI/arm64","WebKit","Chrome","86.0.4240.99","AndroidOS","10","28561","","{""scale27"":3,""scale9"":4,""scale3"":3,""scale13"":3,""scale28"":2,""scale2"":3,""scale19"":2,""scale11"":3,""scale15"":4,""scale8"":3,""scale6"":4,""scale4"":3,""scale25"":4,""scale5"":3,""scale14"":4,""scale20"":3,""scale17"":4,""scale26"":3,""scale1"":4,""scale10"":3,""scale22"":3,""scale7"":3,""scale16"":3,""scale12"":4,""scale18"":2,""scale21"":2,""scale24"":3,""scale23"":3}","[26,8,2,12,27,1,18,10,14,7,5,3,24,4,13,19,16,25,0,9,21,6,15,11,17,20,23,22]"
"","","","","","html-button-response","142","285655","0.0-15.0","265","1","2022-11-20 15:05:24","49aca292d257f58668169b9fbab864ae","39.144.25.78","Mozilla/5.0 (Linux; Android 10; V2002A Build/QP1A.190711.020; wv) AppleWebKit/537.36 (KHTML, like Gecko) Version/4.0 Chrome/86.0.4240.99 XWEB/4343 MMWEBSDK/20220903 Mobile Safari/537.36 MMWEBID/7187 MicroMessenger/8.0.28.2240(0x28001C57) WeChat/arm64 Weixin NetType/4G Language/zh_CN ABI/arm64","WebKit","Chrome","86.0.4240.99","AndroidOS","10","965","<p><strong>请判断你在多大程度上同意下列陈述。</strong></p>","0",""
"","","","","","survey-likert","143","305484","0.0-16.0","265","1","2022-11-20 15:05:24","49aca292d257f58668169b9fbab864ae","39.144.25.78","Mozilla/5.0 (Linux; Android 10; V2002A Build/QP1A.190711.020; wv) AppleWebKit/537.36 (KHTML, like Gecko) Version/4.0 Chrome/86.0.4240.99 XWEB/4343 MMWEBSDK/20220903 Mobile Safari/537.36 MMWEBID/7187 MicroMessenger/8.0.28.2240(0x28001C57) WeChat/arm64 Weixin NetType/4G Language/zh_CN ABI/arm64","WebKit","Chrome","86.0.4240.99","AndroidOS","10","19790","","{""sdo6"":6,""sdo8"":5,""sdo1"":5,""sdo9"":5,""sdo2"":5,""sdo15"":6,""sdo4"":4,""sdo14"":5,""sdo7"":4,""sdo11"":5,""sdo10"":5,""sdo12"":6,""sdo16"":4,""sdo3"":6,""sdo13"":6,""sdo5"":4}","[5,7,0,8,1,14,3,13,6,10,9,11,15,2,12,4]"
"","","","","","html-button-response","144","306541","0.0-17.0","265","1","2022-11-20 15:05:24","49aca292d257f58668169b9fbab864ae","39.144.25.78","Mozilla/5.0 (Linux; Android 10; V2002A Build/QP1A.190711.020; wv) AppleWebKit/537.36 (KHTML, like Gecko) Version/4.0 Chrome/86.0.4240.99 XWEB/4343 MMWEBSDK/20220903 Mobile Safari/537.36 MMWEBID/7187 MicroMessenger/8.0.28.2240(0x28001C57) WeChat/arm64 Weixin NetType/4G Language/zh_CN ABI/arm64","WebKit","Chrome","86.0.4240.99","AndroidOS","10","1026","<p><strong>请判断你在多大程度上同意下列陈述。</strong></p>","0",""
"","","","","","survey-likert","145","329450","0.0-18.0","265","1","2022-11-20 15:05:24","49aca292d257f58668169b9fbab864ae","39.144.25.78","Mozilla/5.0 (Linux; Android 10; V2002A Build/QP1A.190711.020; wv) AppleWebKit/537.36 (KHTML, like Gecko) Version/4.0 Chrome/86.0.4240.99 XWEB/4343 MMWEBSDK/20220903 Mobile Safari/537.36 MMWEBID/7187 MicroMessenger/8.0.28.2240(0x28001C57) WeChat/arm64 Weixin NetType/4G Language/zh_CN ABI/arm64","WebKit","Chrome","86.0.4240.99","AndroidOS","10","22882","","{""caring1"":4,""liking1"":3,""caring2"":4,""protection1"":1,""liking2"":0,""caring3"":4,""protection2"":1,""liking3"":1,""protection3"":3,""caring4"":4,""liking4"":1,""protection4"":4,""caring5"":4,""liking5"":3,""protection5"":4}","[0,1,2,3,4,5,6,7,8,9,10,11,12,13,14]"
"","","","","","html-button-response","146","330253","0.0-19.0","265","1","2022-11-20 15:05:24","49aca292d257f58668169b9fbab864ae","39.144.25.78","Mozilla/5.0 (Linux; Android 10; V2002A Build/QP1A.190711.020; wv) AppleWebKit/537.36 (KHTML, like Gecko) Version/4.0 Chrome/86.0.4240.99 XWEB/4343 MMWEBSDK/20220903 Mobile Safari/537.36 MMWEBID/7187 MicroMessenger/8.0.28.2240(0x28001C57) WeChat/arm64 Weixin NetType/4G Language/zh_CN ABI/arm64","WebKit","Chrome","86.0.4240.99","AndroidOS","10","785","<p><strong>请判断下列场景中你的内心感受有多柔软。</strong></p>","0",""
"","","","","","survey-likert","147","341214","0.0-20.0","265","1","2022-11-20 15:05:24","49aca292d257f58668169b9fbab864ae","39.144.25.78","Mozilla/5.0 (Linux; Android 10; V2002A Build/QP1A.190711.020; wv) AppleWebKit/537.36 (KHTML, like Gecko) Version/4.0 Chrome/86.0.4240.99 XWEB/4343 MMWEBSDK/20220903 Mobile Safari/537.36 MMWEBID/7187 MicroMessenger/8.0.28.2240(0x28001C57) WeChat/arm64 Weixin NetType/4G Language/zh_CN ABI/arm64","WebKit","Chrome","86.0.4240.99","AndroidOS","10","10940","","{""tenderness-positive1"":4,""tenderness-negative1"":3,""tenderness-negative2"":4,""tenderness-positive2"":3,""tenderness-positive3"":4,""tenderness-negative3"":1,""tenderness-positive4"":3,""tenderness-negative4"":4,""tenderness-negative5"":3,""tenderness-positive5"":4}","[0,1,2,3,4,5,6,7,8,9]"
"","","","","","survey-multi-choice","148","346106","0.0-21.0","265","1","2022-11-20 15:05:24","49aca292d257f58668169b9fbab864ae","39.144.25.78","Mozilla/5.0 (Linux; Android 10; V2002A Build/QP1A.190711.020; wv) AppleWebKit/537.36 (KHTML, like Gecko) Version/4.0 Chrome/86.0.4240.99 XWEB/4343 MMWEBSDK/20220903 Mobile Safari/537.36 MMWEBID/7187 MicroMessenger/8.0.28.2240(0x28001C57) WeChat/arm64 Weixin NetType/4G Language/zh_CN ABI/arm64","WebKit","Chrome","86.0.4240.99","AndroidOS","10","4871","","{""Attention2"":""其他""}","[0]"
"","","","","","html-button-response","149","346929","0.0-22.0","265","1","2022-11-20 15:05:24","49aca292d257f58668169b9fbab864ae","39.144.25.78","Mozilla/5.0 (Linux; Android 10; V2002A Build/QP1A.190711.020; wv) AppleWebKit/537.36 (KHTML, like Gecko) Version/4.0 Chrome/86.0.4240.99 XWEB/4343 MMWEBSDK/20220903 Mobile Safari/537.36 MMWEBID/7187 MicroMessenger/8.0.28.2240(0x28001C57) WeChat/arm64 Weixin NetType/4G Language/zh_CN ABI/arm64","WebKit","Chrome","86.0.4240.99","AndroidOS","10","800","<p><strong>请判断你在多大程度上同意下列陈述。</strong></p>","0",""
"","","","","","survey-likert","150","409495","0.0-23.0","265","1","2022-11-20 15:05:24","49aca292d257f58668169b9fbab864ae","39.144.25.78","Mozilla/5.0 (Linux; Android 10; V2002A Build/QP1A.190711.020; wv) AppleWebKit/537.36 (KHTML, like Gecko) Version/4.0 Chrome/86.0.4240.99 XWEB/4343 MMWEBSDK/20220903 Mobile Safari/537.36 MMWEBID/7187 MicroMessenger/8.0.28.2240(0x28001C57) WeChat/arm64 Weixin NetType/4G Language/zh_CN ABI/arm64","WebKit","Chrome","86.0.4240.99","AndroidOS","10","62528","","{""Patri2"":4,""Patri5"":4,""Patri11"":0,""Patri10"":0,""Nation7"":4,""Nation8"":0,""Nation4"":4,""Patri6"":0,""Patri7"":4,""Nation1"":4,""Patri4"":4,""Patri1"":4,""Nation2"":4,""Patri9"":0,""Nation5"":4,""Patri3"":4,""Nation3"":3,""Patri8"":4,""Patri12"":0,""Nation6"":4}","[1,4,10,9,18,19,15,5,6,12,3,0,13,8,16,2,14,7,11,17]"
"","","","","","html-button-response","151","410372","0.0-24.0","265","1","2022-11-20 15:05:24","49aca292d257f58668169b9fbab864ae","39.144.25.78","Mozilla/5.0 (Linux; Android 10; V2002A Build/QP1A.190711.020; wv) AppleWebKit/537.36 (KHTML, like Gecko) Version/4.0 Chrome/86.0.4240.99 XWEB/4343 MMWEBSDK/20220903 Mobile Safari/537.36 MMWEBID/7187 MicroMessenger/8.0.28.2240(0x28001C57) WeChat/arm64 Weixin NetType/4G Language/zh_CN ABI/arm64","WebKit","Chrome","86.0.4240.99","AndroidOS","10","859","<p><strong>请判断你在多大程度上同意下列陈述。</strong></p>","0",""
"","","","","","survey-likert","152","428088","0.0-25.0","265","1","2022-11-20 15:05:24","49aca292d257f58668169b9fbab864ae","39.144.25.78","Mozilla/5.0 (Linux; Android 10; V2002A Build/QP1A.190711.020; wv) AppleWebKit/537.36 (KHTML, like Gecko) Version/4.0 Chrome/86.0.4240.99 XWEB/4343 MMWEBSDK/20220903 Mobile Safari/537.36 MMWEBID/7187 MicroMessenger/8.0.28.2240(0x28001C57) WeChat/arm64 Weixin NetType/4G Language/zh_CN ABI/arm64","WebKit","Chrome","86.0.4240.99","AndroidOS","10","17684","","{""vi3"":8,""hi4"":8,""hc4"":7,""hc3"":8,""vc1"":7,""vi1"":8,""vc2"":8,""vi4"":8,""hi3"":7,""vc3"":7,""Robot"":6,""vi2"":7,""hi2"":8,""hi1"":6,""vc4"":8,""hc1"":7,""hc2"":7}","[6,3,12,11,13,4,14,8,2,15,7,5,1,0,16,9,10]"
"","","","","","survey-text","153","435378","0.0-26.0","265","1","2022-11-20 15:05:24","49aca292d257f58668169b9fbab864ae","39.144.25.78","Mozilla/5.0 (Linux; Android 10; V2002A Build/QP1A.190711.020; wv) AppleWebKit/537.36 (KHTML, like Gecko) Version/4.0 Chrome/86.0.4240.99 XWEB/4343 MMWEBSDK/20220903 Mobile Safari/537.36 MMWEBID/7187 MicroMessenger/8.0.28.2240(0x28001C57) WeChat/arm64 Weixin NetType/4G Language/zh_CN ABI/arm64","WebKit","Chrome","86.0.4240.99","AndroidOS","10","7258","","{""Comments"":""很顺利""}",""
