"success","timeout","failed_images","failed_audio","failed_video","trial_type","trial_index","time_elapsed","internal_node_id","run_id","condition","recorded_at","source_code_version","ip","user_agent","device","browser","browser_version","platform","platform_version","rt","stimulus","response","question_order"
"true","false","[]","[]","[]","preload","0","3060","0.0-0.0","276","1","2022-11-23 05:11:56","49aca292d257f58668169b9fbab864ae","219.131.118.235","Mozilla/5.0 (Windows NT 10.0; Win64; x64) AppleWebKit/537.36 (KHTML, like Gecko) Chrome/107.0.0.0 Safari/537.36 Edg/107.0.1418.52","WebKit","Edge","107.0.1418.52","Windows","10.0","","","",""
"true","","","","","fullscreen","1","6507","0.0-1.0","276","1","2022-11-23 05:11:56","49aca292d257f58668169b9fbab864ae","219.131.118.235","Mozilla/5.0 (Windows NT 10.0; Win64; x64) AppleWebKit/537.36 (KHTML, like Gecko) Chrome/107.0.0.0 Safari/537.36 Edg/107.0.1418.52","WebKit","Edge","107.0.1418.52","Windows","10.0","","","",""
"","","","","","html-button-response","2","36250","0.0-2.0","276","1","2022-11-23 05:11:56","49aca292d257f58668169b9fbab864ae","219.131.118.235","Mozilla/5.0 (Windows NT 10.0; Win64; x64) AppleWebKit/537.36 (KHTML, like Gecko) Chrome/107.0.0.0 Safari/537.36 Edg/107.0.1418.52","WebKit","Edge","107.0.1418.52","Windows","10.0","29741","<p style=""font-size:20px;font-weight:bold;"">实验知情同意书</p><p style=""text-align:left;""><strong>实验名称：</strong>社会冲突研究</p><p style=""text-align:left;""><strong>主要研究者：</strong>韩晓春副教授（北京师范大学心理学部）</p><p style=""text-align:left;""><strong>联系方式：</strong>发送邮件至xiaochun.han@bnu.edu.cn</p><p style=""text-align:left;""><strong>研究目的：</strong>研究旨在了解人类面对群体冲突时的决策方式，以及相关的心理学特质。实验调查大约需要20分钟。</p><p style=""text-align:left;""><strong>实验流程：</strong>实验包含两部分。第一部分呈现一系列群体冲突场景，请你决定如何对这些冲突进行反应，大约需要10分钟完成。第二部分包含一系列人口统计学信息收集和心理学问卷，大约需要10分钟完成。</p><p style=""text-align:left;""><strong>参加及退出规则：</strong>参加本实验完全取决于您的个人意愿。在参与过程中，您可以随时退出，并且不用承担任何后果。</p><p style=""text-align:left;""><strong>隐私：</strong>本实验完全匿名进行，不会收集您的姓名或其他能够识别您身份的信息。实验中收集的作答仅用作科学研究使用，可能会在学术期刊/书籍上发表，或者用于教学，您的数据未来可能会和其他研究者或实验室分享，但您的个人身份不会被识别。</p><p style=""text-align:left;""><strong>实验报酬：</strong>实验完成后，您将获得15元人民币报酬，以感谢您的时间和努力。调查问卷中包含几道题目用以测验您作答时的认真度。只有完成全部实验，并且正确回答认真度测验的被试才能获得实验报酬。实验报酬将通过支付宝转账发放。</p><p style=""text-align:left;font-size:20px;""><strong>如果您同意以上实验知情同意书的内容，请点击'同意并且开始实验'按钮；否则请关闭浏览器界面，退出实验。</strong></p>","0",""
"","","","","","html-button-response","3","44010","0.0-3.0","276","1","2022-11-23 05:11:56","49aca292d257f58668169b9fbab864ae","219.131.118.235","Mozilla/5.0 (Windows NT 10.0; Win64; x64) AppleWebKit/537.36 (KHTML, like Gecko) Chrome/107.0.0.0 Safari/537.36 Edg/107.0.1418.52","WebKit","Edge","107.0.1418.52","Windows","10.0","7758","<p ><strong>实验任务一：</strong></p><p>请想象你的国家与另一个国家发生了军事冲突。</p><p>你是国家军队的指挥官，你将如何在冲突中进行决策。</p><p>具体来说，作为军队指挥官，请你决定是否发射导弹进行打击。</p><p>接下来，你会面对一系列场景，请仔细阅读每个场景，然后进行决策。</p><p>这部分实验任务大约需要10分钟。</p><p><strong>实验过程中，请集中注意力。</strong></p>","0",""
"","","","","","html-keyboard-response","4","45024","0.0-4.0-0.0","276","1","2022-11-23 05:11:56","49aca292d257f58668169b9fbab864ae","219.131.118.235","Mozilla/5.0 (Windows NT 10.0; Win64; x64) AppleWebKit/537.36 (KHTML, like Gecko) Chrome/107.0.0.0 Safari/537.36 Edg/107.0.1418.52","WebKit","Edge","107.0.1418.52","Windows","10.0","null","<div style=""font-size:60px;"">+</div>","null",""
"","","","","","html-button-response","5","70531","0.0-4.0-1.0","276","1","2022-11-23 05:11:56","49aca292d257f58668169b9fbab864ae","219.131.118.235","Mozilla/5.0 (Windows NT 10.0; Win64; x64) AppleWebKit/537.36 (KHTML, like Gecko) Chrome/107.0.0.0 Safari/537.36 Edg/107.0.1418.52","WebKit","Edge","107.0.1418.52","Windows","10.0","25504","<p>作为军队的指挥官，你可以选择发射导弹杀死 <strong>3名</strong> 敌国士兵，但会炸毁附近的 <strong>1棵</strong> 敌国树木。</p> <p>树木的照片如下图所示。</p> <p></p> <img src='stimuli/trees/9.png', style='max-width: 30%;'> </img> <p><strong>你是否选择发射武器？</strong></p>","1",""
"","","","","","html-keyboard-response","6","71537","0.0-4.0-0.1","276","1","2022-11-23 05:11:56","49aca292d257f58668169b9fbab864ae","219.131.118.235","Mozilla/5.0 (Windows NT 10.0; Win64; x64) AppleWebKit/537.36 (KHTML, like Gecko) Chrome/107.0.0.0 Safari/537.36 Edg/107.0.1418.52","WebKit","Edge","107.0.1418.52","Windows","10.0","null","<div style=""font-size:60px;"">+</div>","null",""
"","","","","","html-button-response","7","74242","0.0-4.0-1.1","276","1","2022-11-23 05:11:56","49aca292d257f58668169b9fbab864ae","219.131.118.235","Mozilla/5.0 (Windows NT 10.0; Win64; x64) AppleWebKit/537.36 (KHTML, like Gecko) Chrome/107.0.0.0 Safari/537.36 Edg/107.0.1418.52","WebKit","Edge","107.0.1418.52","Windows","10.0","2704","<p>作为军队的指挥官，你可以选择发射导弹杀死 <strong>6名</strong> 敌国士兵，但会误杀附近的 <strong>1名</strong> 敌国平民。</p> <p>平民照片如下图所示。</p> <p></p> <img src='stimuli/faces/PFM1.jpg', style='max-width: 30%;'> </img> <p><strong>你是否选择发射武器？</strong></p>","0",""
"","","","","","html-keyboard-response","8","75260","0.0-4.0-0.2","276","1","2022-11-23 05:11:56","49aca292d257f58668169b9fbab864ae","219.131.118.235","Mozilla/5.0 (Windows NT 10.0; Win64; x64) AppleWebKit/537.36 (KHTML, like Gecko) Chrome/107.0.0.0 Safari/537.36 Edg/107.0.1418.52","WebKit","Edge","107.0.1418.52","Windows","10.0","null","<div style=""font-size:60px;"">+</div>","null",""
"","","","","","html-button-response","9","83306","0.0-4.0-1.2","276","1","2022-11-23 05:11:56","49aca292d257f58668169b9fbab864ae","219.131.118.235","Mozilla/5.0 (Windows NT 10.0; Win64; x64) AppleWebKit/537.36 (KHTML, like Gecko) Chrome/107.0.0.0 Safari/537.36 Edg/107.0.1418.52","WebKit","Edge","107.0.1418.52","Windows","10.0","8044","<p>作为军队的指挥官，你可以选择发射导弹杀死 <strong>6名</strong> 敌国士兵，但会误杀附近的 <strong>1名</strong> 敌国平民。</p> <p>平民照片如下图所示。</p> <p></p> <img src='stimuli/faces/PFF5.jpg', style='max-width: 30%;'> </img> <p><strong>你是否选择发射武器？</strong></p>","0",""
"","","","","","html-keyboard-response","10","84321","0.0-4.0-0.3","276","1","2022-11-23 05:11:56","49aca292d257f58668169b9fbab864ae","219.131.118.235","Mozilla/5.0 (Windows NT 10.0; Win64; x64) AppleWebKit/537.36 (KHTML, like Gecko) Chrome/107.0.0.0 Safari/537.36 Edg/107.0.1418.52","WebKit","Edge","107.0.1418.52","Windows","10.0","null","<div style=""font-size:60px;"">+</div>","null",""
"","","","","","html-button-response","11","87114","0.0-4.0-1.3","276","1","2022-11-23 05:11:56","49aca292d257f58668169b9fbab864ae","219.131.118.235","Mozilla/5.0 (Windows NT 10.0; Win64; x64) AppleWebKit/537.36 (KHTML, like Gecko) Chrome/107.0.0.0 Safari/537.36 Edg/107.0.1418.52","WebKit","Edge","107.0.1418.52","Windows","10.0","2791","<p>作为军队的指挥官，你可以选择发射导弹杀死 <strong>8名</strong> 敌国士兵，但会炸毁附近的 <strong>1棵</strong> 敌国树木。</p> <p>树木的照片如下图所示。</p> <p></p> <img src='stimuli/trees/13.png', style='max-width: 30%;'> </img> <p><strong>你是否选择发射武器？</strong></p>","0",""
"","","","","","html-keyboard-response","12","88128","0.0-4.0-0.4","276","1","2022-11-23 05:11:56","49aca292d257f58668169b9fbab864ae","219.131.118.235","Mozilla/5.0 (Windows NT 10.0; Win64; x64) AppleWebKit/537.36 (KHTML, like Gecko) Chrome/107.0.0.0 Safari/537.36 Edg/107.0.1418.52","WebKit","Edge","107.0.1418.52","Windows","10.0","null","<div style=""font-size:60px;"">+</div>","null",""
"","","","","","html-button-response","13","90306","0.0-4.0-1.4","276","1","2022-11-23 05:11:56","49aca292d257f58668169b9fbab864ae","219.131.118.235","Mozilla/5.0 (Windows NT 10.0; Win64; x64) AppleWebKit/537.36 (KHTML, like Gecko) Chrome/107.0.0.0 Safari/537.36 Edg/107.0.1418.52","WebKit","Edge","107.0.1418.52","Windows","10.0","2176","<p>作为军队的指挥官，你可以选择发射导弹杀死 <strong>1名</strong> 敌国士兵，但会炸毁附近的 <strong>1棵</strong> 敌国树木。</p> <p>树木的照片如下图所示。</p> <p></p> <img src='stimuli/trees/16.png', style='max-width: 30%;'> </img> <p><strong>你是否选择发射武器？</strong></p>","0",""
"","","","","","html-keyboard-response","14","91327","0.0-4.0-0.5","276","1","2022-11-23 05:11:56","49aca292d257f58668169b9fbab864ae","219.131.118.235","Mozilla/5.0 (Windows NT 10.0; Win64; x64) AppleWebKit/537.36 (KHTML, like Gecko) Chrome/107.0.0.0 Safari/537.36 Edg/107.0.1418.52","WebKit","Edge","107.0.1418.52","Windows","10.0","null","<div style=""font-size:60px;"">+</div>","null",""
"","","","","","html-button-response","15","92594","0.0-4.0-1.5","276","1","2022-11-23 05:11:56","49aca292d257f58668169b9fbab864ae","219.131.118.235","Mozilla/5.0 (Windows NT 10.0; Win64; x64) AppleWebKit/537.36 (KHTML, like Gecko) Chrome/107.0.0.0 Safari/537.36 Edg/107.0.1418.52","WebKit","Edge","107.0.1418.52","Windows","10.0","1265","<p>作为军队的指挥官，你可以选择发射导弹杀死 <strong>6名</strong> 敌国士兵，但会误杀附近的 <strong>1名</strong> 敌国平民。</p> <p>平民照片如下图所示。</p> <p></p> <img src='stimuli/faces/PFF6.jpg', style='max-width: 30%;'> </img> <p><strong>你是否选择发射武器？</strong></p>","0",""
"","","","","","html-keyboard-response","16","93610","0.0-4.0-0.6","276","1","2022-11-23 05:11:56","49aca292d257f58668169b9fbab864ae","219.131.118.235","Mozilla/5.0 (Windows NT 10.0; Win64; x64) AppleWebKit/537.36 (KHTML, like Gecko) Chrome/107.0.0.0 Safari/537.36 Edg/107.0.1418.52","WebKit","Edge","107.0.1418.52","Windows","10.0","null","<div style=""font-size:60px;"">+</div>","null",""
"","","","","","html-button-response","17","94642","0.0-4.0-1.6","276","1","2022-11-23 05:11:56","49aca292d257f58668169b9fbab864ae","219.131.118.235","Mozilla/5.0 (Windows NT 10.0; Win64; x64) AppleWebKit/537.36 (KHTML, like Gecko) Chrome/107.0.0.0 Safari/537.36 Edg/107.0.1418.52","WebKit","Edge","107.0.1418.52","Windows","10.0","1030","<p>作为军队的指挥官，你可以选择发射导弹杀死 <strong>5名</strong> 敌国士兵，但会炸毁附近的 <strong>1棵</strong> 敌国树木。</p> <p>树木的照片如下图所示。</p> <p></p> <img src='stimuli/trees/13.png', style='max-width: 30%;'> </img> <p><strong>你是否选择发射武器？</strong></p>","0",""
"","","","","","html-keyboard-response","18","95661","0.0-4.0-0.7","276","1","2022-11-23 05:11:56","49aca292d257f58668169b9fbab864ae","219.131.118.235","Mozilla/5.0 (Windows NT 10.0; Win64; x64) AppleWebKit/537.36 (KHTML, like Gecko) Chrome/107.0.0.0 Safari/537.36 Edg/107.0.1418.52","WebKit","Edge","107.0.1418.52","Windows","10.0","null","<div style=""font-size:60px;"">+</div>","null",""
"","","","","","html-button-response","19","97570","0.0-4.0-1.7","276","1","2022-11-23 05:11:56","49aca292d257f58668169b9fbab864ae","219.131.118.235","Mozilla/5.0 (Windows NT 10.0; Win64; x64) AppleWebKit/537.36 (KHTML, like Gecko) Chrome/107.0.0.0 Safari/537.36 Edg/107.0.1418.52","WebKit","Edge","107.0.1418.52","Windows","10.0","1908","<p>作为军队的指挥官，你可以选择发射导弹杀死 <strong>9名</strong> 敌国士兵，但会炸毁附近的 <strong>1棵</strong> 敌国树木。</p> <p>树木的照片如下图所示。</p> <p></p> <img src='stimuli/trees/6.png', style='max-width: 30%;'> </img> <p><strong>你是否选择发射武器？</strong></p>","0",""
"","","","","","html-keyboard-response","20","98584","0.0-4.0-0.8","276","1","2022-11-23 05:11:56","49aca292d257f58668169b9fbab864ae","219.131.118.235","Mozilla/5.0 (Windows NT 10.0; Win64; x64) AppleWebKit/537.36 (KHTML, like Gecko) Chrome/107.0.0.0 Safari/537.36 Edg/107.0.1418.52","WebKit","Edge","107.0.1418.52","Windows","10.0","null","<div style=""font-size:60px;"">+</div>","null",""
"","","","","","html-button-response","21","100290","0.0-4.0-1.8","276","1","2022-11-23 05:11:56","49aca292d257f58668169b9fbab864ae","219.131.118.235","Mozilla/5.0 (Windows NT 10.0; Win64; x64) AppleWebKit/537.36 (KHTML, like Gecko) Chrome/107.0.0.0 Safari/537.36 Edg/107.0.1418.52","WebKit","Edge","107.0.1418.52","Windows","10.0","1705","<p>作为军队的指挥官，你可以选择发射导弹杀死 <strong>8名</strong> 敌国士兵，但会炸毁附近的 <strong>1棵</strong> 敌国树木。</p> <p>树木的照片如下图所示。</p> <p></p> <img src='stimuli/trees/16.png', style='max-width: 30%;'> </img> <p><strong>你是否选择发射武器？</strong></p>","1",""
"","","","","","html-keyboard-response","22","101298","0.0-4.0-0.9","276","1","2022-11-23 05:11:56","49aca292d257f58668169b9fbab864ae","219.131.118.235","Mozilla/5.0 (Windows NT 10.0; Win64; x64) AppleWebKit/537.36 (KHTML, like Gecko) Chrome/107.0.0.0 Safari/537.36 Edg/107.0.1418.52","WebKit","Edge","107.0.1418.52","Windows","10.0","null","<div style=""font-size:60px;"">+</div>","null",""
"","","","","","html-button-response","23","102795","0.0-4.0-1.9","276","1","2022-11-23 05:11:56","49aca292d257f58668169b9fbab864ae","219.131.118.235","Mozilla/5.0 (Windows NT 10.0; Win64; x64) AppleWebKit/537.36 (KHTML, like Gecko) Chrome/107.0.0.0 Safari/537.36 Edg/107.0.1418.52","WebKit","Edge","107.0.1418.52","Windows","10.0","1494","<p>作为军队的指挥官，你可以选择发射导弹杀死 <strong>8名</strong> 敌国士兵，但会误杀附近的 <strong>1名</strong> 敌国平民。</p> <p>平民照片如下图所示。</p> <p></p> <img src='stimuli/faces/PFF3.jpg', style='max-width: 30%;'> </img> <p><strong>你是否选择发射武器？</strong></p>","0",""
"","","","","","html-keyboard-response","24","103809","0.0-4.0-0.10","276","1","2022-11-23 05:11:56","49aca292d257f58668169b9fbab864ae","219.131.118.235","Mozilla/5.0 (Windows NT 10.0; Win64; x64) AppleWebKit/537.36 (KHTML, like Gecko) Chrome/107.0.0.0 Safari/537.36 Edg/107.0.1418.52","WebKit","Edge","107.0.1418.52","Windows","10.0","null","<div style=""font-size:60px;"">+</div>","null",""
"","","","","","html-button-response","25","107394","0.0-4.0-1.10","276","1","2022-11-23 05:11:56","49aca292d257f58668169b9fbab864ae","219.131.118.235","Mozilla/5.0 (Windows NT 10.0; Win64; x64) AppleWebKit/537.36 (KHTML, like Gecko) Chrome/107.0.0.0 Safari/537.36 Edg/107.0.1418.52","WebKit","Edge","107.0.1418.52","Windows","10.0","3583","<p>作为军队的指挥官，你可以选择发射导弹杀死 <strong>1名</strong> 敌国士兵，但会误杀附近的 <strong>1名</strong> 敌国平民。</p> <p>平民照片如下图所示。</p> <p></p> <img src='stimuli/faces/PFF3.jpg', style='max-width: 30%;'> </img> <p><strong>你是否选择发射武器？</strong></p>","0",""
"","","","","","html-keyboard-response","26","108414","0.0-4.0-0.11","276","1","2022-11-23 05:11:56","49aca292d257f58668169b9fbab864ae","219.131.118.235","Mozilla/5.0 (Windows NT 10.0; Win64; x64) AppleWebKit/537.36 (KHTML, like Gecko) Chrome/107.0.0.0 Safari/537.36 Edg/107.0.1418.52","WebKit","Edge","107.0.1418.52","Windows","10.0","null","<div style=""font-size:60px;"">+</div>","null",""
"","","","","","html-button-response","27","110170","0.0-4.0-1.11","276","1","2022-11-23 05:11:56","49aca292d257f58668169b9fbab864ae","219.131.118.235","Mozilla/5.0 (Windows NT 10.0; Win64; x64) AppleWebKit/537.36 (KHTML, like Gecko) Chrome/107.0.0.0 Safari/537.36 Edg/107.0.1418.52","WebKit","Edge","107.0.1418.52","Windows","10.0","1754","<p>作为军队的指挥官，你可以选择发射导弹杀死 <strong>3名</strong> 敌国士兵，但会炸毁附近的 <strong>1棵</strong> 敌国树木。</p> <p>树木的照片如下图所示。</p> <p></p> <img src='stimuli/trees/14.png', style='max-width: 30%;'> </img> <p><strong>你是否选择发射武器？</strong></p>","0",""
"","","","","","html-keyboard-response","28","111181","0.0-4.0-0.12","276","1","2022-11-23 05:11:56","49aca292d257f58668169b9fbab864ae","219.131.118.235","Mozilla/5.0 (Windows NT 10.0; Win64; x64) AppleWebKit/537.36 (KHTML, like Gecko) Chrome/107.0.0.0 Safari/537.36 Edg/107.0.1418.52","WebKit","Edge","107.0.1418.52","Windows","10.0","null","<div style=""font-size:60px;"">+</div>","null",""
"","","","","","html-button-response","29","112507","0.0-4.0-1.12","276","1","2022-11-23 05:11:56","49aca292d257f58668169b9fbab864ae","219.131.118.235","Mozilla/5.0 (Windows NT 10.0; Win64; x64) AppleWebKit/537.36 (KHTML, like Gecko) Chrome/107.0.0.0 Safari/537.36 Edg/107.0.1418.52","WebKit","Edge","107.0.1418.52","Windows","10.0","1323","<p>作为军队的指挥官，你可以选择发射导弹杀死 <strong>5名</strong> 敌国士兵，但会误杀附近的 <strong>1名</strong> 敌国平民。</p> <p>平民照片如下图所示。</p> <p></p> <img src='stimuli/faces/PFF1.jpg', style='max-width: 30%;'> </img> <p><strong>你是否选择发射武器？</strong></p>","0",""
"","","","","","html-keyboard-response","30","113519","0.0-4.0-0.13","276","1","2022-11-23 05:11:56","49aca292d257f58668169b9fbab864ae","219.131.118.235","Mozilla/5.0 (Windows NT 10.0; Win64; x64) AppleWebKit/537.36 (KHTML, like Gecko) Chrome/107.0.0.0 Safari/537.36 Edg/107.0.1418.52","WebKit","Edge","107.0.1418.52","Windows","10.0","null","<div style=""font-size:60px;"">+</div>","null",""
"","","","","","html-button-response","31","114930","0.0-4.0-1.13","276","1","2022-11-23 05:11:56","49aca292d257f58668169b9fbab864ae","219.131.118.235","Mozilla/5.0 (Windows NT 10.0; Win64; x64) AppleWebKit/537.36 (KHTML, like Gecko) Chrome/107.0.0.0 Safari/537.36 Edg/107.0.1418.52","WebKit","Edge","107.0.1418.52","Windows","10.0","1409","<p>作为军队的指挥官，你可以选择发射导弹杀死 <strong>4名</strong> 敌国士兵，但会炸毁附近的 <strong>1棵</strong> 敌国树木。</p> <p>树木的照片如下图所示。</p> <p></p> <img src='stimuli/trees/2.png', style='max-width: 30%;'> </img> <p><strong>你是否选择发射武器？</strong></p>","1",""
"","","","","","html-keyboard-response","32","115947","0.0-4.0-0.14","276","1","2022-11-23 05:11:56","49aca292d257f58668169b9fbab864ae","219.131.118.235","Mozilla/5.0 (Windows NT 10.0; Win64; x64) AppleWebKit/537.36 (KHTML, like Gecko) Chrome/107.0.0.0 Safari/537.36 Edg/107.0.1418.52","WebKit","Edge","107.0.1418.52","Windows","10.0","null","<div style=""font-size:60px;"">+</div>","null",""
"","","","","","html-button-response","33","117346","0.0-4.0-1.14","276","1","2022-11-23 05:11:56","49aca292d257f58668169b9fbab864ae","219.131.118.235","Mozilla/5.0 (Windows NT 10.0; Win64; x64) AppleWebKit/537.36 (KHTML, like Gecko) Chrome/107.0.0.0 Safari/537.36 Edg/107.0.1418.52","WebKit","Edge","107.0.1418.52","Windows","10.0","1397","<p>作为军队的指挥官，你可以选择发射导弹杀死 <strong>8名</strong> 敌国士兵，但会误杀附近的 <strong>1名</strong> 敌国平民。</p> <p>平民照片如下图所示。</p> <p></p> <img src='stimuli/faces/PFM8.jpg', style='max-width: 30%;'> </img> <p><strong>你是否选择发射武器？</strong></p>","0",""
"","","","","","html-keyboard-response","34","118364","0.0-4.0-0.15","276","1","2022-11-23 05:11:56","49aca292d257f58668169b9fbab864ae","219.131.118.235","Mozilla/5.0 (Windows NT 10.0; Win64; x64) AppleWebKit/537.36 (KHTML, like Gecko) Chrome/107.0.0.0 Safari/537.36 Edg/107.0.1418.52","WebKit","Edge","107.0.1418.52","Windows","10.0","null","<div style=""font-size:60px;"">+</div>","null",""
"","","","","","html-button-response","35","118810","0.0-4.0-1.15","276","1","2022-11-23 05:11:56","49aca292d257f58668169b9fbab864ae","219.131.118.235","Mozilla/5.0 (Windows NT 10.0; Win64; x64) AppleWebKit/537.36 (KHTML, like Gecko) Chrome/107.0.0.0 Safari/537.36 Edg/107.0.1418.52","WebKit","Edge","107.0.1418.52","Windows","10.0","444","<p>作为军队的指挥官，你可以选择发射导弹杀死 <strong>2名</strong> 敌国士兵，但会误杀附近的 <strong>1名</strong> 敌国平民。</p> <p>平民照片如下图所示。</p> <p></p> <img src='stimuli/faces/PFF6.jpg', style='max-width: 30%;'> </img> <p><strong>你是否选择发射武器？</strong></p>","0",""
"","","","","","html-keyboard-response","36","119821","0.0-4.0-0.16","276","1","2022-11-23 05:11:56","49aca292d257f58668169b9fbab864ae","219.131.118.235","Mozilla/5.0 (Windows NT 10.0; Win64; x64) AppleWebKit/537.36 (KHTML, like Gecko) Chrome/107.0.0.0 Safari/537.36 Edg/107.0.1418.52","WebKit","Edge","107.0.1418.52","Windows","10.0","null","<div style=""font-size:60px;"">+</div>","null",""
"","","","","","html-button-response","37","121618","0.0-4.0-1.16","276","1","2022-11-23 05:11:56","49aca292d257f58668169b9fbab864ae","219.131.118.235","Mozilla/5.0 (Windows NT 10.0; Win64; x64) AppleWebKit/537.36 (KHTML, like Gecko) Chrome/107.0.0.0 Safari/537.36 Edg/107.0.1418.52","WebKit","Edge","107.0.1418.52","Windows","10.0","1795","<p>作为军队的指挥官，你可以选择发射导弹杀死 <strong>2名</strong> 敌国士兵，但会误杀附近的 <strong>1名</strong> 敌国平民。</p> <p>平民照片如下图所示。</p> <p></p> <img src='stimuli/faces/PFF8.jpg', style='max-width: 30%;'> </img> <p><strong>你是否选择发射武器？</strong></p>","0",""
"","","","","","html-keyboard-response","38","122638","0.0-4.0-0.17","276","1","2022-11-23 05:11:56","49aca292d257f58668169b9fbab864ae","219.131.118.235","Mozilla/5.0 (Windows NT 10.0; Win64; x64) AppleWebKit/537.36 (KHTML, like Gecko) Chrome/107.0.0.0 Safari/537.36 Edg/107.0.1418.52","WebKit","Edge","107.0.1418.52","Windows","10.0","null","<div style=""font-size:60px;"">+</div>","null",""
"","","","","","html-button-response","39","123419","0.0-4.0-1.17","276","1","2022-11-23 05:11:56","49aca292d257f58668169b9fbab864ae","219.131.118.235","Mozilla/5.0 (Windows NT 10.0; Win64; x64) AppleWebKit/537.36 (KHTML, like Gecko) Chrome/107.0.0.0 Safari/537.36 Edg/107.0.1418.52","WebKit","Edge","107.0.1418.52","Windows","10.0","778","<p>作为军队的指挥官，你可以选择发射导弹杀死 <strong>2名</strong> 敌国士兵，但会误杀附近的 <strong>1名</strong> 敌国平民。</p> <p>平民照片如下图所示。</p> <p></p> <img src='stimuli/faces/PFM1.jpg', style='max-width: 30%;'> </img> <p><strong>你是否选择发射武器？</strong></p>","0",""
"","","","","","html-keyboard-response","40","124429","0.0-4.0-0.18","276","1","2022-11-23 05:11:56","49aca292d257f58668169b9fbab864ae","219.131.118.235","Mozilla/5.0 (Windows NT 10.0; Win64; x64) AppleWebKit/537.36 (KHTML, like Gecko) Chrome/107.0.0.0 Safari/537.36 Edg/107.0.1418.52","WebKit","Edge","107.0.1418.52","Windows","10.0","null","<div style=""font-size:60px;"">+</div>","null",""
"","","","","","html-button-response","41","126674","0.0-4.0-1.18","276","1","2022-11-23 05:11:56","49aca292d257f58668169b9fbab864ae","219.131.118.235","Mozilla/5.0 (Windows NT 10.0; Win64; x64) AppleWebKit/537.36 (KHTML, like Gecko) Chrome/107.0.0.0 Safari/537.36 Edg/107.0.1418.52","WebKit","Edge","107.0.1418.52","Windows","10.0","2242","<p>作为军队的指挥官，你可以选择发射导弹杀死 <strong>6名</strong> 敌国士兵，但会误杀附近的 <strong>1名</strong> 敌国平民。</p> <p>平民照片如下图所示。</p> <p></p> <img src='stimuli/faces/PFF7.jpg', style='max-width: 30%;'> </img> <p><strong>你是否选择发射武器？</strong></p>","0",""
"","","","","","html-keyboard-response","42","127680","0.0-4.0-0.19","276","1","2022-11-23 05:11:56","49aca292d257f58668169b9fbab864ae","219.131.118.235","Mozilla/5.0 (Windows NT 10.0; Win64; x64) AppleWebKit/537.36 (KHTML, like Gecko) Chrome/107.0.0.0 Safari/537.36 Edg/107.0.1418.52","WebKit","Edge","107.0.1418.52","Windows","10.0","null","<div style=""font-size:60px;"">+</div>","null",""
"","","","","","html-button-response","43","128882","0.0-4.0-1.19","276","1","2022-11-23 05:11:56","49aca292d257f58668169b9fbab864ae","219.131.118.235","Mozilla/5.0 (Windows NT 10.0; Win64; x64) AppleWebKit/537.36 (KHTML, like Gecko) Chrome/107.0.0.0 Safari/537.36 Edg/107.0.1418.52","WebKit","Edge","107.0.1418.52","Windows","10.0","1200","<p>作为军队的指挥官，你可以选择发射导弹杀死 <strong>6名</strong> 敌国士兵，但会误杀附近的 <strong>1名</strong> 敌国平民。</p> <p>平民照片如下图所示。</p> <p></p> <img src='stimuli/faces/PFM2.jpg', style='max-width: 30%;'> </img> <p><strong>你是否选择发射武器？</strong></p>","0",""
"","","","","","html-keyboard-response","44","129892","0.0-4.0-0.20","276","1","2022-11-23 05:11:56","49aca292d257f58668169b9fbab864ae","219.131.118.235","Mozilla/5.0 (Windows NT 10.0; Win64; x64) AppleWebKit/537.36 (KHTML, like Gecko) Chrome/107.0.0.0 Safari/537.36 Edg/107.0.1418.52","WebKit","Edge","107.0.1418.52","Windows","10.0","null","<div style=""font-size:60px;"">+</div>","null",""
"","","","","","html-button-response","45","130915","0.0-4.0-1.20","276","1","2022-11-23 05:11:56","49aca292d257f58668169b9fbab864ae","219.131.118.235","Mozilla/5.0 (Windows NT 10.0; Win64; x64) AppleWebKit/537.36 (KHTML, like Gecko) Chrome/107.0.0.0 Safari/537.36 Edg/107.0.1418.52","WebKit","Edge","107.0.1418.52","Windows","10.0","1019","<p>作为军队的指挥官，你可以选择发射导弹杀死 <strong>5名</strong> 敌国士兵，但会误杀附近的 <strong>1名</strong> 敌国平民。</p> <p>平民照片如下图所示。</p> <p></p> <img src='stimuli/faces/PFM7.jpg', style='max-width: 30%;'> </img> <p><strong>你是否选择发射武器？</strong></p>","0",""
"","","","","","html-keyboard-response","46","131930","0.0-4.0-0.21","276","1","2022-11-23 05:11:56","49aca292d257f58668169b9fbab864ae","219.131.118.235","Mozilla/5.0 (Windows NT 10.0; Win64; x64) AppleWebKit/537.36 (KHTML, like Gecko) Chrome/107.0.0.0 Safari/537.36 Edg/107.0.1418.52","WebKit","Edge","107.0.1418.52","Windows","10.0","null","<div style=""font-size:60px;"">+</div>","null",""
"","","","","","html-button-response","47","133074","0.0-4.0-1.21","276","1","2022-11-23 05:11:56","49aca292d257f58668169b9fbab864ae","219.131.118.235","Mozilla/5.0 (Windows NT 10.0; Win64; x64) AppleWebKit/537.36 (KHTML, like Gecko) Chrome/107.0.0.0 Safari/537.36 Edg/107.0.1418.52","WebKit","Edge","107.0.1418.52","Windows","10.0","1142","<p>作为军队的指挥官，你可以选择发射导弹杀死 <strong>10名</strong> 敌国士兵，但会炸毁附近的 <strong>1棵</strong> 敌国树木。</p> <p>树木的照片如下图所示。</p> <p></p> <img src='stimuli/trees/9.png', style='max-width: 30%;'> </img> <p><strong>你是否选择发射武器？</strong></p>","1",""
"","","","","","html-keyboard-response","48","134091","0.0-4.0-0.22","276","1","2022-11-23 05:11:56","49aca292d257f58668169b9fbab864ae","219.131.118.235","Mozilla/5.0 (Windows NT 10.0; Win64; x64) AppleWebKit/537.36 (KHTML, like Gecko) Chrome/107.0.0.0 Safari/537.36 Edg/107.0.1418.52","WebKit","Edge","107.0.1418.52","Windows","10.0","null","<div style=""font-size:60px;"">+</div>","null",""
"","","","","","html-button-response","49","134930","0.0-4.0-1.22","276","1","2022-11-23 05:11:56","49aca292d257f58668169b9fbab864ae","219.131.118.235","Mozilla/5.0 (Windows NT 10.0; Win64; x64) AppleWebKit/537.36 (KHTML, like Gecko) Chrome/107.0.0.0 Safari/537.36 Edg/107.0.1418.52","WebKit","Edge","107.0.1418.52","Windows","10.0","838","<p>作为军队的指挥官，你可以选择发射导弹杀死 <strong>7名</strong> 敌国士兵，但会误杀附近的 <strong>1名</strong> 敌国平民。</p> <p>平民照片如下图所示。</p> <p></p> <img src='stimuli/faces/PFF4.jpg', style='max-width: 30%;'> </img> <p><strong>你是否选择发射武器？</strong></p>","1",""
"","","","","","html-keyboard-response","50","135940","0.0-4.0-0.23","276","1","2022-11-23 05:11:56","49aca292d257f58668169b9fbab864ae","219.131.118.235","Mozilla/5.0 (Windows NT 10.0; Win64; x64) AppleWebKit/537.36 (KHTML, like Gecko) Chrome/107.0.0.0 Safari/537.36 Edg/107.0.1418.52","WebKit","Edge","107.0.1418.52","Windows","10.0","null","<div style=""font-size:60px;"">+</div>","null",""
"","","","","","html-button-response","51","136842","0.0-4.0-1.23","276","1","2022-11-23 05:11:56","49aca292d257f58668169b9fbab864ae","219.131.118.235","Mozilla/5.0 (Windows NT 10.0; Win64; x64) AppleWebKit/537.36 (KHTML, like Gecko) Chrome/107.0.0.0 Safari/537.36 Edg/107.0.1418.52","WebKit","Edge","107.0.1418.52","Windows","10.0","900","<p>作为军队的指挥官，你可以选择发射导弹杀死 <strong>9名</strong> 敌国士兵，但会误杀附近的 <strong>1名</strong> 敌国平民。</p> <p>平民照片如下图所示。</p> <p></p> <img src='stimuli/faces/PFF1.jpg', style='max-width: 30%;'> </img> <p><strong>你是否选择发射武器？</strong></p>","0",""
"","","","","","html-keyboard-response","52","137859","0.0-4.0-0.24","276","1","2022-11-23 05:11:56","49aca292d257f58668169b9fbab864ae","219.131.118.235","Mozilla/5.0 (Windows NT 10.0; Win64; x64) AppleWebKit/537.36 (KHTML, like Gecko) Chrome/107.0.0.0 Safari/537.36 Edg/107.0.1418.52","WebKit","Edge","107.0.1418.52","Windows","10.0","null","<div style=""font-size:60px;"">+</div>","null",""
"","","","","","html-button-response","53","138914","0.0-4.0-1.24","276","1","2022-11-23 05:11:56","49aca292d257f58668169b9fbab864ae","219.131.118.235","Mozilla/5.0 (Windows NT 10.0; Win64; x64) AppleWebKit/537.36 (KHTML, like Gecko) Chrome/107.0.0.0 Safari/537.36 Edg/107.0.1418.52","WebKit","Edge","107.0.1418.52","Windows","10.0","1054","<p>作为军队的指挥官，你可以选择发射导弹杀死 <strong>3名</strong> 敌国士兵，但会误杀附近的 <strong>1名</strong> 敌国平民。</p> <p>平民照片如下图所示。</p> <p></p> <img src='stimuli/faces/PFF5.jpg', style='max-width: 30%;'> </img> <p><strong>你是否选择发射武器？</strong></p>","0",""
"","","","","","html-keyboard-response","54","139923","0.0-4.0-0.25","276","1","2022-11-23 05:11:56","49aca292d257f58668169b9fbab864ae","219.131.118.235","Mozilla/5.0 (Windows NT 10.0; Win64; x64) AppleWebKit/537.36 (KHTML, like Gecko) Chrome/107.0.0.0 Safari/537.36 Edg/107.0.1418.52","WebKit","Edge","107.0.1418.52","Windows","10.0","null","<div style=""font-size:60px;"">+</div>","null",""
"","","","","","html-button-response","55","140562","0.0-4.0-1.25","276","1","2022-11-23 05:11:56","49aca292d257f58668169b9fbab864ae","219.131.118.235","Mozilla/5.0 (Windows NT 10.0; Win64; x64) AppleWebKit/537.36 (KHTML, like Gecko) Chrome/107.0.0.0 Safari/537.36 Edg/107.0.1418.52","WebKit","Edge","107.0.1418.52","Windows","10.0","637","<p>作为军队的指挥官，你可以选择发射导弹杀死 <strong>4名</strong> 敌国士兵，但会误杀附近的 <strong>1名</strong> 敌国平民。</p> <p>平民照片如下图所示。</p> <p></p> <img src='stimuli/faces/PFF4.jpg', style='max-width: 30%;'> </img> <p><strong>你是否选择发射武器？</strong></p>","0",""
"","","","","","html-keyboard-response","56","141583","0.0-4.0-0.26","276","1","2022-11-23 05:11:56","49aca292d257f58668169b9fbab864ae","219.131.118.235","Mozilla/5.0 (Windows NT 10.0; Win64; x64) AppleWebKit/537.36 (KHTML, like Gecko) Chrome/107.0.0.0 Safari/537.36 Edg/107.0.1418.52","WebKit","Edge","107.0.1418.52","Windows","10.0","null","<div style=""font-size:60px;"">+</div>","null",""
"","","","","","html-button-response","57","142706","0.0-4.0-1.26","276","1","2022-11-23 05:11:56","49aca292d257f58668169b9fbab864ae","219.131.118.235","Mozilla/5.0 (Windows NT 10.0; Win64; x64) AppleWebKit/537.36 (KHTML, like Gecko) Chrome/107.0.0.0 Safari/537.36 Edg/107.0.1418.52","WebKit","Edge","107.0.1418.52","Windows","10.0","1121","<p>作为军队的指挥官，你可以选择发射导弹杀死 <strong>8名</strong> 敌国士兵，但会误杀附近的 <strong>1名</strong> 敌国平民。</p> <p>平民照片如下图所示。</p> <p></p> <img src='stimuli/faces/PFM6.jpg', style='max-width: 30%;'> </img> <p><strong>你是否选择发射武器？</strong></p>","0",""
"","","","","","html-keyboard-response","58","143722","0.0-4.0-0.27","276","1","2022-11-23 05:11:56","49aca292d257f58668169b9fbab864ae","219.131.118.235","Mozilla/5.0 (Windows NT 10.0; Win64; x64) AppleWebKit/537.36 (KHTML, like Gecko) Chrome/107.0.0.0 Safari/537.36 Edg/107.0.1418.52","WebKit","Edge","107.0.1418.52","Windows","10.0","null","<div style=""font-size:60px;"">+</div>","null",""
"","","","","","html-button-response","59","144762","0.0-4.0-1.27","276","1","2022-11-23 05:11:56","49aca292d257f58668169b9fbab864ae","219.131.118.235","Mozilla/5.0 (Windows NT 10.0; Win64; x64) AppleWebKit/537.36 (KHTML, like Gecko) Chrome/107.0.0.0 Safari/537.36 Edg/107.0.1418.52","WebKit","Edge","107.0.1418.52","Windows","10.0","1037","<p>作为军队的指挥官，你可以选择发射导弹杀死 <strong>2名</strong> 敌国士兵，但会炸毁附近的 <strong>1棵</strong> 敌国树木。</p> <p>树木的照片如下图所示。</p> <p></p> <img src='stimuli/trees/5.png', style='max-width: 30%;'> </img> <p><strong>你是否选择发射武器？</strong></p>","1",""
"","","","","","html-keyboard-response","60","145770","0.0-4.0-0.28","276","1","2022-11-23 05:11:56","49aca292d257f58668169b9fbab864ae","219.131.118.235","Mozilla/5.0 (Windows NT 10.0; Win64; x64) AppleWebKit/537.36 (KHTML, like Gecko) Chrome/107.0.0.0 Safari/537.36 Edg/107.0.1418.52","WebKit","Edge","107.0.1418.52","Windows","10.0","null","<div style=""font-size:60px;"">+</div>","null",""
"","","","","","html-button-response","61","149018","0.0-4.0-1.28","276","1","2022-11-23 05:11:56","49aca292d257f58668169b9fbab864ae","219.131.118.235","Mozilla/5.0 (Windows NT 10.0; Win64; x64) AppleWebKit/537.36 (KHTML, like Gecko) Chrome/107.0.0.0 Safari/537.36 Edg/107.0.1418.52","WebKit","Edge","107.0.1418.52","Windows","10.0","3245","<p>作为军队的指挥官，你可以选择发射导弹杀死 <strong>8名</strong> 敌国士兵，但会炸毁附近的 <strong>1棵</strong> 敌国树木。</p> <p>树木的照片如下图所示。</p> <p></p> <img src='stimuli/trees/2.png', style='max-width: 30%;'> </img> <p><strong>你是否选择发射武器？</strong></p>","1",""
"","","","","","html-keyboard-response","62","150036","0.0-4.0-0.29","276","1","2022-11-23 05:11:56","49aca292d257f58668169b9fbab864ae","219.131.118.235","Mozilla/5.0 (Windows NT 10.0; Win64; x64) AppleWebKit/537.36 (KHTML, like Gecko) Chrome/107.0.0.0 Safari/537.36 Edg/107.0.1418.52","WebKit","Edge","107.0.1418.52","Windows","10.0","null","<div style=""font-size:60px;"">+</div>","null",""
"","","","","","html-button-response","63","153642","0.0-4.0-1.29","276","1","2022-11-23 05:11:56","49aca292d257f58668169b9fbab864ae","219.131.118.235","Mozilla/5.0 (Windows NT 10.0; Win64; x64) AppleWebKit/537.36 (KHTML, like Gecko) Chrome/107.0.0.0 Safari/537.36 Edg/107.0.1418.52","WebKit","Edge","107.0.1418.52","Windows","10.0","3604","<p>作为军队的指挥官，你可以选择发射导弹杀死 <strong>3名</strong> 敌国士兵，但会误杀附近的 <strong>1名</strong> 敌国平民。</p> <p>平民照片如下图所示。</p> <p></p> <img src='stimuli/faces/PFM3.jpg', style='max-width: 30%;'> </img> <p><strong>你是否选择发射武器？</strong></p>","0",""
"","","","","","html-keyboard-response","64","154655","0.0-4.0-0.30","276","1","2022-11-23 05:11:56","49aca292d257f58668169b9fbab864ae","219.131.118.235","Mozilla/5.0 (Windows NT 10.0; Win64; x64) AppleWebKit/537.36 (KHTML, like Gecko) Chrome/107.0.0.0 Safari/537.36 Edg/107.0.1418.52","WebKit","Edge","107.0.1418.52","Windows","10.0","null","<div style=""font-size:60px;"">+</div>","null",""
"","","","","","html-button-response","65","158938","0.0-4.0-1.30","276","1","2022-11-23 05:11:56","49aca292d257f58668169b9fbab864ae","219.131.118.235","Mozilla/5.0 (Windows NT 10.0; Win64; x64) AppleWebKit/537.36 (KHTML, like Gecko) Chrome/107.0.0.0 Safari/537.36 Edg/107.0.1418.52","WebKit","Edge","107.0.1418.52","Windows","10.0","4280","<p>作为军队的指挥官，你可以选择发射导弹杀死 <strong>8名</strong> 敌国士兵，但会炸毁附近的 <strong>1棵</strong> 敌国树木。</p> <p>树木的照片如下图所示。</p> <p></p> <img src='stimuli/trees/15.png', style='max-width: 30%;'> </img> <p><strong>你是否选择发射武器？</strong></p>","0",""
"","","","","","html-keyboard-response","66","159955","0.0-4.0-0.31","276","1","2022-11-23 05:11:56","49aca292d257f58668169b9fbab864ae","219.131.118.235","Mozilla/5.0 (Windows NT 10.0; Win64; x64) AppleWebKit/537.36 (KHTML, like Gecko) Chrome/107.0.0.0 Safari/537.36 Edg/107.0.1418.52","WebKit","Edge","107.0.1418.52","Windows","10.0","null","<div style=""font-size:60px;"">+</div>","null",""
"","","","","","html-button-response","67","161394","0.0-4.0-1.31","276","1","2022-11-23 05:11:56","49aca292d257f58668169b9fbab864ae","219.131.118.235","Mozilla/5.0 (Windows NT 10.0; Win64; x64) AppleWebKit/537.36 (KHTML, like Gecko) Chrome/107.0.0.0 Safari/537.36 Edg/107.0.1418.52","WebKit","Edge","107.0.1418.52","Windows","10.0","1436","<p>作为军队的指挥官，你可以选择发射导弹杀死 <strong>10名</strong> 敌国士兵，但会炸毁附近的 <strong>1棵</strong> 敌国树木。</p> <p>树木的照片如下图所示。</p> <p></p> <img src='stimuli/trees/1.png', style='max-width: 30%;'> </img> <p><strong>你是否选择发射武器？</strong></p>","1",""
"","","","","","html-keyboard-response","68","162410","0.0-4.0-0.32","276","1","2022-11-23 05:11:56","49aca292d257f58668169b9fbab864ae","219.131.118.235","Mozilla/5.0 (Windows NT 10.0; Win64; x64) AppleWebKit/537.36 (KHTML, like Gecko) Chrome/107.0.0.0 Safari/537.36 Edg/107.0.1418.52","WebKit","Edge","107.0.1418.52","Windows","10.0","null","<div style=""font-size:60px;"">+</div>","null",""
"","","","","","html-button-response","69","165826","0.0-4.0-1.32","276","1","2022-11-23 05:11:56","49aca292d257f58668169b9fbab864ae","219.131.118.235","Mozilla/5.0 (Windows NT 10.0; Win64; x64) AppleWebKit/537.36 (KHTML, like Gecko) Chrome/107.0.0.0 Safari/537.36 Edg/107.0.1418.52","WebKit","Edge","107.0.1418.52","Windows","10.0","3414","<p>作为军队的指挥官，你可以选择发射导弹杀死 <strong>10名</strong> 敌国士兵，但会炸毁附近的 <strong>1棵</strong> 敌国树木。</p> <p>树木的照片如下图所示。</p> <p></p> <img src='stimuli/trees/5.png', style='max-width: 30%;'> </img> <p><strong>你是否选择发射武器？</strong></p>","1",""
"","","","","","html-keyboard-response","70","166836","0.0-4.0-0.33","276","1","2022-11-23 05:11:56","49aca292d257f58668169b9fbab864ae","219.131.118.235","Mozilla/5.0 (Windows NT 10.0; Win64; x64) AppleWebKit/537.36 (KHTML, like Gecko) Chrome/107.0.0.0 Safari/537.36 Edg/107.0.1418.52","WebKit","Edge","107.0.1418.52","Windows","10.0","null","<div style=""font-size:60px;"">+</div>","null",""
"","","","","","html-button-response","71","168250","0.0-4.0-1.33","276","1","2022-11-23 05:11:56","49aca292d257f58668169b9fbab864ae","219.131.118.235","Mozilla/5.0 (Windows NT 10.0; Win64; x64) AppleWebKit/537.36 (KHTML, like Gecko) Chrome/107.0.0.0 Safari/537.36 Edg/107.0.1418.52","WebKit","Edge","107.0.1418.52","Windows","10.0","1411","<p>作为军队的指挥官，你可以选择发射导弹杀死 <strong>3名</strong> 敌国士兵，但会炸毁附近的 <strong>1棵</strong> 敌国树木。</p> <p>树木的照片如下图所示。</p> <p></p> <img src='stimuli/trees/12.png', style='max-width: 30%;'> </img> <p><strong>你是否选择发射武器？</strong></p>","1",""
"","","","","","html-keyboard-response","72","169264","0.0-4.0-0.34","276","1","2022-11-23 05:11:56","49aca292d257f58668169b9fbab864ae","219.131.118.235","Mozilla/5.0 (Windows NT 10.0; Win64; x64) AppleWebKit/537.36 (KHTML, like Gecko) Chrome/107.0.0.0 Safari/537.36 Edg/107.0.1418.52","WebKit","Edge","107.0.1418.52","Windows","10.0","null","<div style=""font-size:60px;"">+</div>","null",""
"","","","","","html-button-response","73","170170","0.0-4.0-1.34","276","1","2022-11-23 05:11:56","49aca292d257f58668169b9fbab864ae","219.131.118.235","Mozilla/5.0 (Windows NT 10.0; Win64; x64) AppleWebKit/537.36 (KHTML, like Gecko) Chrome/107.0.0.0 Safari/537.36 Edg/107.0.1418.52","WebKit","Edge","107.0.1418.52","Windows","10.0","904","<p>作为军队的指挥官，你可以选择发射导弹杀死 <strong>3名</strong> 敌国士兵，但会炸毁附近的 <strong>1棵</strong> 敌国树木。</p> <p>树木的照片如下图所示。</p> <p></p> <img src='stimuli/trees/1.png', style='max-width: 30%;'> </img> <p><strong>你是否选择发射武器？</strong></p>","1",""
"","","","","","html-keyboard-response","74","171189","0.0-4.0-0.35","276","1","2022-11-23 05:11:56","49aca292d257f58668169b9fbab864ae","219.131.118.235","Mozilla/5.0 (Windows NT 10.0; Win64; x64) AppleWebKit/537.36 (KHTML, like Gecko) Chrome/107.0.0.0 Safari/537.36 Edg/107.0.1418.52","WebKit","Edge","107.0.1418.52","Windows","10.0","null","<div style=""font-size:60px;"">+</div>","null",""
"","","","","","html-button-response","75","172354","0.0-4.0-1.35","276","1","2022-11-23 05:11:56","49aca292d257f58668169b9fbab864ae","219.131.118.235","Mozilla/5.0 (Windows NT 10.0; Win64; x64) AppleWebKit/537.36 (KHTML, like Gecko) Chrome/107.0.0.0 Safari/537.36 Edg/107.0.1418.52","WebKit","Edge","107.0.1418.52","Windows","10.0","1162","<p>作为军队的指挥官，你可以选择发射导弹杀死 <strong>3名</strong> 敌国士兵，但会误杀附近的 <strong>1名</strong> 敌国平民。</p> <p>平民照片如下图所示。</p> <p></p> <img src='stimuli/faces/PFM5.jpg', style='max-width: 30%;'> </img> <p><strong>你是否选择发射武器？</strong></p>","0",""
"","","","","","html-keyboard-response","76","173372","0.0-4.0-0.36","276","1","2022-11-23 05:11:56","49aca292d257f58668169b9fbab864ae","219.131.118.235","Mozilla/5.0 (Windows NT 10.0; Win64; x64) AppleWebKit/537.36 (KHTML, like Gecko) Chrome/107.0.0.0 Safari/537.36 Edg/107.0.1418.52","WebKit","Edge","107.0.1418.52","Windows","10.0","null","<div style=""font-size:60px;"">+</div>","null",""
"","","","","","html-button-response","77","174259","0.0-4.0-1.36","276","1","2022-11-23 05:11:56","49aca292d257f58668169b9fbab864ae","219.131.118.235","Mozilla/5.0 (Windows NT 10.0; Win64; x64) AppleWebKit/537.36 (KHTML, like Gecko) Chrome/107.0.0.0 Safari/537.36 Edg/107.0.1418.52","WebKit","Edge","107.0.1418.52","Windows","10.0","885","<p>作为军队的指挥官，你可以选择发射导弹杀死 <strong>3名</strong> 敌国士兵，但会炸毁附近的 <strong>1棵</strong> 敌国树木。</p> <p>树木的照片如下图所示。</p> <p></p> <img src='stimuli/trees/15.png', style='max-width: 30%;'> </img> <p><strong>你是否选择发射武器？</strong></p>","0",""
"","","","","","html-keyboard-response","78","175273","0.0-4.0-0.37","276","1","2022-11-23 05:11:56","49aca292d257f58668169b9fbab864ae","219.131.118.235","Mozilla/5.0 (Windows NT 10.0; Win64; x64) AppleWebKit/537.36 (KHTML, like Gecko) Chrome/107.0.0.0 Safari/537.36 Edg/107.0.1418.52","WebKit","Edge","107.0.1418.52","Windows","10.0","null","<div style=""font-size:60px;"">+</div>","null",""
"","","","","","html-button-response","79","176355","0.0-4.0-1.37","276","1","2022-11-23 05:11:56","49aca292d257f58668169b9fbab864ae","219.131.118.235","Mozilla/5.0 (Windows NT 10.0; Win64; x64) AppleWebKit/537.36 (KHTML, like Gecko) Chrome/107.0.0.0 Safari/537.36 Edg/107.0.1418.52","WebKit","Edge","107.0.1418.52","Windows","10.0","1079","<p>作为军队的指挥官，你可以选择发射导弹杀死 <strong>5名</strong> 敌国士兵，但会炸毁附近的 <strong>1棵</strong> 敌国树木。</p> <p>树木的照片如下图所示。</p> <p></p> <img src='stimuli/trees/6.png', style='max-width: 30%;'> </img> <p><strong>你是否选择发射武器？</strong></p>","1",""
"","","","","","html-keyboard-response","80","177364","0.0-4.0-0.38","276","1","2022-11-23 05:11:56","49aca292d257f58668169b9fbab864ae","219.131.118.235","Mozilla/5.0 (Windows NT 10.0; Win64; x64) AppleWebKit/537.36 (KHTML, like Gecko) Chrome/107.0.0.0 Safari/537.36 Edg/107.0.1418.52","WebKit","Edge","107.0.1418.52","Windows","10.0","null","<div style=""font-size:60px;"">+</div>","null",""
"","","","","","html-button-response","81","178466","0.0-4.0-1.38","276","1","2022-11-23 05:11:56","49aca292d257f58668169b9fbab864ae","219.131.118.235","Mozilla/5.0 (Windows NT 10.0; Win64; x64) AppleWebKit/537.36 (KHTML, like Gecko) Chrome/107.0.0.0 Safari/537.36 Edg/107.0.1418.52","WebKit","Edge","107.0.1418.52","Windows","10.0","1099","<p>作为军队的指挥官，你可以选择发射导弹杀死 <strong>7名</strong> 敌国士兵，但会炸毁附近的 <strong>1棵</strong> 敌国树木。</p> <p>树木的照片如下图所示。</p> <p></p> <img src='stimuli/trees/12.png', style='max-width: 30%;'> </img> <p><strong>你是否选择发射武器？</strong></p>","0",""
"","","","","","html-keyboard-response","82","179475","0.0-4.0-0.39","276","1","2022-11-23 05:11:56","49aca292d257f58668169b9fbab864ae","219.131.118.235","Mozilla/5.0 (Windows NT 10.0; Win64; x64) AppleWebKit/537.36 (KHTML, like Gecko) Chrome/107.0.0.0 Safari/537.36 Edg/107.0.1418.52","WebKit","Edge","107.0.1418.52","Windows","10.0","null","<div style=""font-size:60px;"">+</div>","null",""
"","","","","","html-button-response","83","181162","0.0-4.0-1.39","276","1","2022-11-23 05:11:56","49aca292d257f58668169b9fbab864ae","219.131.118.235","Mozilla/5.0 (Windows NT 10.0; Win64; x64) AppleWebKit/537.36 (KHTML, like Gecko) Chrome/107.0.0.0 Safari/537.36 Edg/107.0.1418.52","WebKit","Edge","107.0.1418.52","Windows","10.0","1684","<p>作为军队的指挥官，你可以选择发射导弹杀死 <strong>5名</strong> 敌国士兵，但会误杀附近的 <strong>1名</strong> 敌国平民。</p> <p>平民照片如下图所示。</p> <p></p> <img src='stimuli/faces/PFM2.jpg', style='max-width: 30%;'> </img> <p><strong>你是否选择发射武器？</strong></p>","0",""
"","","","","","html-keyboard-response","84","182170","0.0-4.0-0.40","276","1","2022-11-23 05:11:56","49aca292d257f58668169b9fbab864ae","219.131.118.235","Mozilla/5.0 (Windows NT 10.0; Win64; x64) AppleWebKit/537.36 (KHTML, like Gecko) Chrome/107.0.0.0 Safari/537.36 Edg/107.0.1418.52","WebKit","Edge","107.0.1418.52","Windows","10.0","null","<div style=""font-size:60px;"">+</div>","null",""
"","","","","","html-button-response","85","182946","0.0-4.0-1.40","276","1","2022-11-23 05:11:56","49aca292d257f58668169b9fbab864ae","219.131.118.235","Mozilla/5.0 (Windows NT 10.0; Win64; x64) AppleWebKit/537.36 (KHTML, like Gecko) Chrome/107.0.0.0 Safari/537.36 Edg/107.0.1418.52","WebKit","Edge","107.0.1418.52","Windows","10.0","774","<p>作为军队的指挥官，你可以选择发射导弹杀死 <strong>1名</strong> 敌国士兵，但会误杀附近的 <strong>1名</strong> 敌国平民。</p> <p>平民照片如下图所示。</p> <p></p> <img src='stimuli/faces/PFM6.jpg', style='max-width: 30%;'> </img> <p><strong>你是否选择发射武器？</strong></p>","0",""
"","","","","","html-keyboard-response","86","183955","0.0-4.0-0.41","276","1","2022-11-23 05:11:56","49aca292d257f58668169b9fbab864ae","219.131.118.235","Mozilla/5.0 (Windows NT 10.0; Win64; x64) AppleWebKit/537.36 (KHTML, like Gecko) Chrome/107.0.0.0 Safari/537.36 Edg/107.0.1418.52","WebKit","Edge","107.0.1418.52","Windows","10.0","null","<div style=""font-size:60px;"">+</div>","null",""
"","","","","","html-button-response","87","185234","0.0-4.0-1.41","276","1","2022-11-23 05:11:56","49aca292d257f58668169b9fbab864ae","219.131.118.235","Mozilla/5.0 (Windows NT 10.0; Win64; x64) AppleWebKit/537.36 (KHTML, like Gecko) Chrome/107.0.0.0 Safari/537.36 Edg/107.0.1418.52","WebKit","Edge","107.0.1418.52","Windows","10.0","1276","<p>作为军队的指挥官，你可以选择发射导弹杀死 <strong>7名</strong> 敌国士兵，但会炸毁附近的 <strong>1棵</strong> 敌国树木。</p> <p>树木的照片如下图所示。</p> <p></p> <img src='stimuli/trees/14.png', style='max-width: 30%;'> </img> <p><strong>你是否选择发射武器？</strong></p>","1",""
"","","","","","html-keyboard-response","88","186243","0.0-4.0-0.42","276","1","2022-11-23 05:11:56","49aca292d257f58668169b9fbab864ae","219.131.118.235","Mozilla/5.0 (Windows NT 10.0; Win64; x64) AppleWebKit/537.36 (KHTML, like Gecko) Chrome/107.0.0.0 Safari/537.36 Edg/107.0.1418.52","WebKit","Edge","107.0.1418.52","Windows","10.0","null","<div style=""font-size:60px;"">+</div>","null",""
"","","","","","html-button-response","89","187426","0.0-4.0-1.42","276","1","2022-11-23 05:11:56","49aca292d257f58668169b9fbab864ae","219.131.118.235","Mozilla/5.0 (Windows NT 10.0; Win64; x64) AppleWebKit/537.36 (KHTML, like Gecko) Chrome/107.0.0.0 Safari/537.36 Edg/107.0.1418.52","WebKit","Edge","107.0.1418.52","Windows","10.0","1180","<p>作为军队的指挥官，你可以选择发射导弹杀死 <strong>3名</strong> 敌国士兵，但会误杀附近的 <strong>1名</strong> 敌国平民。</p> <p>平民照片如下图所示。</p> <p></p> <img src='stimuli/faces/PFM8.jpg', style='max-width: 30%;'> </img> <p><strong>你是否选择发射武器？</strong></p>","0",""
"","","","","","html-keyboard-response","90","188436","0.0-4.0-0.43","276","1","2022-11-23 05:11:56","49aca292d257f58668169b9fbab864ae","219.131.118.235","Mozilla/5.0 (Windows NT 10.0; Win64; x64) AppleWebKit/537.36 (KHTML, like Gecko) Chrome/107.0.0.0 Safari/537.36 Edg/107.0.1418.52","WebKit","Edge","107.0.1418.52","Windows","10.0","null","<div style=""font-size:60px;"">+</div>","null",""
"","","","","","html-button-response","91","188874","0.0-4.0-1.43","276","1","2022-11-23 05:11:56","49aca292d257f58668169b9fbab864ae","219.131.118.235","Mozilla/5.0 (Windows NT 10.0; Win64; x64) AppleWebKit/537.36 (KHTML, like Gecko) Chrome/107.0.0.0 Safari/537.36 Edg/107.0.1418.52","WebKit","Edge","107.0.1418.52","Windows","10.0","435","<p>作为军队的指挥官，你可以选择发射导弹杀死 <strong>4名</strong> 敌国士兵，但会炸毁附近的 <strong>1棵</strong> 敌国树木。</p> <p>树木的照片如下图所示。</p> <p></p> <img src='stimuli/trees/11.png', style='max-width: 30%;'> </img> <p><strong>你是否选择发射武器？</strong></p>","0",""
"","","","","","html-keyboard-response","92","189891","0.0-4.0-0.44","276","1","2022-11-23 05:11:56","49aca292d257f58668169b9fbab864ae","219.131.118.235","Mozilla/5.0 (Windows NT 10.0; Win64; x64) AppleWebKit/537.36 (KHTML, like Gecko) Chrome/107.0.0.0 Safari/537.36 Edg/107.0.1418.52","WebKit","Edge","107.0.1418.52","Windows","10.0","null","<div style=""font-size:60px;"">+</div>","null",""
"","","","","","html-button-response","93","190514","0.0-4.0-1.44","276","1","2022-11-23 05:11:56","49aca292d257f58668169b9fbab864ae","219.131.118.235","Mozilla/5.0 (Windows NT 10.0; Win64; x64) AppleWebKit/537.36 (KHTML, like Gecko) Chrome/107.0.0.0 Safari/537.36 Edg/107.0.1418.52","WebKit","Edge","107.0.1418.52","Windows","10.0","620","<p>作为军队的指挥官，你可以选择发射导弹杀死 <strong>10名</strong> 敌国士兵，但会误杀附近的 <strong>1名</strong> 敌国平民。</p> <p>平民照片如下图所示。</p> <p></p> <img src='stimuli/faces/PFM3.jpg', style='max-width: 30%;'> </img> <p><strong>你是否选择发射武器？</strong></p>","0",""
"","","","","","html-keyboard-response","94","191521","0.0-4.0-0.45","276","1","2022-11-23 05:11:56","49aca292d257f58668169b9fbab864ae","219.131.118.235","Mozilla/5.0 (Windows NT 10.0; Win64; x64) AppleWebKit/537.36 (KHTML, like Gecko) Chrome/107.0.0.0 Safari/537.36 Edg/107.0.1418.52","WebKit","Edge","107.0.1418.52","Windows","10.0","null","<div style=""font-size:60px;"">+</div>","null",""
"","","","","","html-button-response","95","192051","0.0-4.0-1.45","276","1","2022-11-23 05:11:56","49aca292d257f58668169b9fbab864ae","219.131.118.235","Mozilla/5.0 (Windows NT 10.0; Win64; x64) AppleWebKit/537.36 (KHTML, like Gecko) Chrome/107.0.0.0 Safari/537.36 Edg/107.0.1418.52","WebKit","Edge","107.0.1418.52","Windows","10.0","526","<p>作为军队的指挥官，你可以选择发射导弹杀死 <strong>2名</strong> 敌国士兵，但会误杀附近的 <strong>1名</strong> 敌国平民。</p> <p>平民照片如下图所示。</p> <p></p> <img src='stimuli/faces/PFF7.jpg', style='max-width: 30%;'> </img> <p><strong>你是否选择发射武器？</strong></p>","1",""
"","","","","","html-keyboard-response","96","193056","0.0-4.0-0.46","276","1","2022-11-23 05:11:56","49aca292d257f58668169b9fbab864ae","219.131.118.235","Mozilla/5.0 (Windows NT 10.0; Win64; x64) AppleWebKit/537.36 (KHTML, like Gecko) Chrome/107.0.0.0 Safari/537.36 Edg/107.0.1418.52","WebKit","Edge","107.0.1418.52","Windows","10.0","null","<div style=""font-size:60px;"">+</div>","null",""
"","","","","","html-button-response","97","193434","0.0-4.0-1.46","276","1","2022-11-23 05:11:56","49aca292d257f58668169b9fbab864ae","219.131.118.235","Mozilla/5.0 (Windows NT 10.0; Win64; x64) AppleWebKit/537.36 (KHTML, like Gecko) Chrome/107.0.0.0 Safari/537.36 Edg/107.0.1418.52","WebKit","Edge","107.0.1418.52","Windows","10.0","375","<p>作为军队的指挥官，你可以选择发射导弹杀死 <strong>7名</strong> 敌国士兵，但会误杀附近的 <strong>1名</strong> 敌国平民。</p> <p>平民照片如下图所示。</p> <p></p> <img src='stimuli/faces/PFM4.jpg', style='max-width: 30%;'> </img> <p><strong>你是否选择发射武器？</strong></p>","0",""
"","","","","","html-keyboard-response","98","194442","0.0-4.0-0.47","276","1","2022-11-23 05:11:56","49aca292d257f58668169b9fbab864ae","219.131.118.235","Mozilla/5.0 (Windows NT 10.0; Win64; x64) AppleWebKit/537.36 (KHTML, like Gecko) Chrome/107.0.0.0 Safari/537.36 Edg/107.0.1418.52","WebKit","Edge","107.0.1418.52","Windows","10.0","null","<div style=""font-size:60px;"">+</div>","null",""
"","","","","","html-button-response","99","196242","0.0-4.0-1.47","276","1","2022-11-23 05:11:56","49aca292d257f58668169b9fbab864ae","219.131.118.235","Mozilla/5.0 (Windows NT 10.0; Win64; x64) AppleWebKit/537.36 (KHTML, like Gecko) Chrome/107.0.0.0 Safari/537.36 Edg/107.0.1418.52","WebKit","Edge","107.0.1418.52","Windows","10.0","1797","<p>作为军队的指挥官，你可以选择发射导弹杀死 <strong>2名</strong> 敌国士兵，但会炸毁附近的 <strong>1棵</strong> 敌国树木。</p> <p>树木的照片如下图所示。</p> <p></p> <img src='stimuli/trees/8.png', style='max-width: 30%;'> </img> <p><strong>你是否选择发射武器？</strong></p>","1",""
"","","","","","html-keyboard-response","100","197257","0.0-4.0-0.48","276","1","2022-11-23 05:11:56","49aca292d257f58668169b9fbab864ae","219.131.118.235","Mozilla/5.0 (Windows NT 10.0; Win64; x64) AppleWebKit/537.36 (KHTML, like Gecko) Chrome/107.0.0.0 Safari/537.36 Edg/107.0.1418.52","WebKit","Edge","107.0.1418.52","Windows","10.0","null","<div style=""font-size:60px;"">+</div>","null",""
"","","","","","html-button-response","101","202146","0.0-4.0-1.48","276","1","2022-11-23 05:11:56","49aca292d257f58668169b9fbab864ae","219.131.118.235","Mozilla/5.0 (Windows NT 10.0; Win64; x64) AppleWebKit/537.36 (KHTML, like Gecko) Chrome/107.0.0.0 Safari/537.36 Edg/107.0.1418.52","WebKit","Edge","107.0.1418.52","Windows","10.0","4886","<p>作为军队的指挥官，你可以选择发射导弹杀死 <strong>9名</strong> 敌国士兵，但会炸毁附近的 <strong>1棵</strong> 敌国树木。</p> <p>树木的照片如下图所示。</p> <p></p> <img src='stimuli/trees/8.png', style='max-width: 30%;'> </img> <p><strong>你是否选择发射武器？</strong></p>","1",""
"","","","","","html-keyboard-response","102","203168","0.0-4.0-0.49","276","1","2022-11-23 05:11:56","49aca292d257f58668169b9fbab864ae","219.131.118.235","Mozilla/5.0 (Windows NT 10.0; Win64; x64) AppleWebKit/537.36 (KHTML, like Gecko) Chrome/107.0.0.0 Safari/537.36 Edg/107.0.1418.52","WebKit","Edge","107.0.1418.52","Windows","10.0","null","<div style=""font-size:60px;"">+</div>","null",""
"","","","","","html-button-response","103","203794","0.0-4.0-1.49","276","1","2022-11-23 05:11:56","49aca292d257f58668169b9fbab864ae","219.131.118.235","Mozilla/5.0 (Windows NT 10.0; Win64; x64) AppleWebKit/537.36 (KHTML, like Gecko) Chrome/107.0.0.0 Safari/537.36 Edg/107.0.1418.52","WebKit","Edge","107.0.1418.52","Windows","10.0","623","<p>作为军队的指挥官，你可以选择发射导弹杀死 <strong>5名</strong> 敌国士兵，但会误杀附近的 <strong>1名</strong> 敌国平民。</p> <p>平民照片如下图所示。</p> <p></p> <img src='stimuli/faces/PFF2.jpg', style='max-width: 30%;'> </img> <p><strong>你是否选择发射武器？</strong></p>","1",""
"","","","","","html-keyboard-response","104","204800","0.0-4.0-0.50","276","1","2022-11-23 05:11:56","49aca292d257f58668169b9fbab864ae","219.131.118.235","Mozilla/5.0 (Windows NT 10.0; Win64; x64) AppleWebKit/537.36 (KHTML, like Gecko) Chrome/107.0.0.0 Safari/537.36 Edg/107.0.1418.52","WebKit","Edge","107.0.1418.52","Windows","10.0","null","<div style=""font-size:60px;"">+</div>","null",""
"","","","","","html-button-response","105","205674","0.0-4.0-1.50","276","1","2022-11-23 05:11:56","49aca292d257f58668169b9fbab864ae","219.131.118.235","Mozilla/5.0 (Windows NT 10.0; Win64; x64) AppleWebKit/537.36 (KHTML, like Gecko) Chrome/107.0.0.0 Safari/537.36 Edg/107.0.1418.52","WebKit","Edge","107.0.1418.52","Windows","10.0","871","<p>作为军队的指挥官，你可以选择发射导弹杀死 <strong>3名</strong> 敌国士兵，但会炸毁附近的 <strong>1棵</strong> 敌国树木。</p> <p>树木的照片如下图所示。</p> <p></p> <img src='stimuli/trees/4.png', style='max-width: 30%;'> </img> <p><strong>你是否选择发射武器？</strong></p>","1",""
"","","","","","html-keyboard-response","106","206690","0.0-4.0-0.51","276","1","2022-11-23 05:11:56","49aca292d257f58668169b9fbab864ae","219.131.118.235","Mozilla/5.0 (Windows NT 10.0; Win64; x64) AppleWebKit/537.36 (KHTML, like Gecko) Chrome/107.0.0.0 Safari/537.36 Edg/107.0.1418.52","WebKit","Edge","107.0.1418.52","Windows","10.0","null","<div style=""font-size:60px;"">+</div>","null",""
"","","","","","html-button-response","107","207978","0.0-4.0-1.51","276","1","2022-11-23 05:11:56","49aca292d257f58668169b9fbab864ae","219.131.118.235","Mozilla/5.0 (Windows NT 10.0; Win64; x64) AppleWebKit/537.36 (KHTML, like Gecko) Chrome/107.0.0.0 Safari/537.36 Edg/107.0.1418.52","WebKit","Edge","107.0.1418.52","Windows","10.0","1285","<p>作为军队的指挥官，你可以选择发射导弹杀死 <strong>1名</strong> 敌国士兵，但会炸毁附近的 <strong>1棵</strong> 敌国树木。</p> <p>树木的照片如下图所示。</p> <p></p> <img src='stimuli/trees/3.png', style='max-width: 30%;'> </img> <p><strong>你是否选择发射武器？</strong></p>","1",""
"","","","","","html-keyboard-response","108","208988","0.0-4.0-0.52","276","1","2022-11-23 05:11:56","49aca292d257f58668169b9fbab864ae","219.131.118.235","Mozilla/5.0 (Windows NT 10.0; Win64; x64) AppleWebKit/537.36 (KHTML, like Gecko) Chrome/107.0.0.0 Safari/537.36 Edg/107.0.1418.52","WebKit","Edge","107.0.1418.52","Windows","10.0","null","<div style=""font-size:60px;"">+</div>","null",""
"","","","","","html-button-response","109","210482","0.0-4.0-1.52","276","1","2022-11-23 05:11:56","49aca292d257f58668169b9fbab864ae","219.131.118.235","Mozilla/5.0 (Windows NT 10.0; Win64; x64) AppleWebKit/537.36 (KHTML, like Gecko) Chrome/107.0.0.0 Safari/537.36 Edg/107.0.1418.52","WebKit","Edge","107.0.1418.52","Windows","10.0","1491","<p>作为军队的指挥官，你可以选择发射导弹杀死 <strong>8名</strong> 敌国士兵，但会炸毁附近的 <strong>1棵</strong> 敌国树木。</p> <p>树木的照片如下图所示。</p> <p></p> <img src='stimuli/trees/4.png', style='max-width: 30%;'> </img> <p><strong>你是否选择发射武器？</strong></p>","0",""
"","","","","","html-keyboard-response","110","211495","0.0-4.0-0.53","276","1","2022-11-23 05:11:56","49aca292d257f58668169b9fbab864ae","219.131.118.235","Mozilla/5.0 (Windows NT 10.0; Win64; x64) AppleWebKit/537.36 (KHTML, like Gecko) Chrome/107.0.0.0 Safari/537.36 Edg/107.0.1418.52","WebKit","Edge","107.0.1418.52","Windows","10.0","null","<div style=""font-size:60px;"">+</div>","null",""
"","","","","","html-button-response","111","213338","0.0-4.0-1.53","276","1","2022-11-23 05:11:56","49aca292d257f58668169b9fbab864ae","219.131.118.235","Mozilla/5.0 (Windows NT 10.0; Win64; x64) AppleWebKit/537.36 (KHTML, like Gecko) Chrome/107.0.0.0 Safari/537.36 Edg/107.0.1418.52","WebKit","Edge","107.0.1418.52","Windows","10.0","1838","<p>作为军队的指挥官，你可以选择发射导弹杀死 <strong>3名</strong> 敌国士兵，但会炸毁附近的 <strong>1棵</strong> 敌国树木。</p> <p>树木的照片如下图所示。</p> <p></p> <img src='stimuli/trees/10.png', style='max-width: 30%;'> </img> <p><strong>你是否选择发射武器？</strong></p>","1",""
"","","","","","html-keyboard-response","112","214348","0.0-4.0-0.54","276","1","2022-11-23 05:11:56","49aca292d257f58668169b9fbab864ae","219.131.118.235","Mozilla/5.0 (Windows NT 10.0; Win64; x64) AppleWebKit/537.36 (KHTML, like Gecko) Chrome/107.0.0.0 Safari/537.36 Edg/107.0.1418.52","WebKit","Edge","107.0.1418.52","Windows","10.0","null","<div style=""font-size:60px;"">+</div>","null",""
"","","","","","html-button-response","113","215258","0.0-4.0-1.54","276","1","2022-11-23 05:11:56","49aca292d257f58668169b9fbab864ae","219.131.118.235","Mozilla/5.0 (Windows NT 10.0; Win64; x64) AppleWebKit/537.36 (KHTML, like Gecko) Chrome/107.0.0.0 Safari/537.36 Edg/107.0.1418.52","WebKit","Edge","107.0.1418.52","Windows","10.0","906","<p>作为军队的指挥官，你可以选择发射导弹杀死 <strong>5名</strong> 敌国士兵，但会误杀附近的 <strong>1名</strong> 敌国平民。</p> <p>平民照片如下图所示。</p> <p></p> <img src='stimuli/faces/PFM4.jpg', style='max-width: 30%;'> </img> <p><strong>你是否选择发射武器？</strong></p>","1",""
"","","","","","html-keyboard-response","114","216279","0.0-4.0-0.55","276","1","2022-11-23 05:11:56","49aca292d257f58668169b9fbab864ae","219.131.118.235","Mozilla/5.0 (Windows NT 10.0; Win64; x64) AppleWebKit/537.36 (KHTML, like Gecko) Chrome/107.0.0.0 Safari/537.36 Edg/107.0.1418.52","WebKit","Edge","107.0.1418.52","Windows","10.0","null","<div style=""font-size:60px;"">+</div>","null",""
"","","","","","html-button-response","115","217842","0.0-4.0-1.55","276","1","2022-11-23 05:11:56","49aca292d257f58668169b9fbab864ae","219.131.118.235","Mozilla/5.0 (Windows NT 10.0; Win64; x64) AppleWebKit/537.36 (KHTML, like Gecko) Chrome/107.0.0.0 Safari/537.36 Edg/107.0.1418.52","WebKit","Edge","107.0.1418.52","Windows","10.0","1559","<p>作为军队的指挥官，你可以选择发射导弹杀死 <strong>9名</strong> 敌国士兵，但会炸毁附近的 <strong>1棵</strong> 敌国树木。</p> <p>树木的照片如下图所示。</p> <p></p> <img src='stimuli/trees/10.png', style='max-width: 30%;'> </img> <p><strong>你是否选择发射武器？</strong></p>","0",""
"","","","","","html-keyboard-response","116","218862","0.0-4.0-0.56","276","1","2022-11-23 05:11:56","49aca292d257f58668169b9fbab864ae","219.131.118.235","Mozilla/5.0 (Windows NT 10.0; Win64; x64) AppleWebKit/537.36 (KHTML, like Gecko) Chrome/107.0.0.0 Safari/537.36 Edg/107.0.1418.52","WebKit","Edge","107.0.1418.52","Windows","10.0","null","<div style=""font-size:60px;"">+</div>","null",""
"","","","","","html-button-response","117","219874","0.0-4.0-1.56","276","1","2022-11-23 05:11:56","49aca292d257f58668169b9fbab864ae","219.131.118.235","Mozilla/5.0 (Windows NT 10.0; Win64; x64) AppleWebKit/537.36 (KHTML, like Gecko) Chrome/107.0.0.0 Safari/537.36 Edg/107.0.1418.52","WebKit","Edge","107.0.1418.52","Windows","10.0","1009","<p>作为军队的指挥官，你可以选择发射导弹杀死 <strong>10名</strong> 敌国士兵，但会炸毁附近的 <strong>1棵</strong> 敌国树木。</p> <p>树木的照片如下图所示。</p> <p></p> <img src='stimuli/trees/3.png', style='max-width: 30%;'> </img> <p><strong>你是否选择发射武器？</strong></p>","0",""
"","","","","","html-keyboard-response","118","220880","0.0-4.0-0.57","276","1","2022-11-23 05:11:56","49aca292d257f58668169b9fbab864ae","219.131.118.235","Mozilla/5.0 (Windows NT 10.0; Win64; x64) AppleWebKit/537.36 (KHTML, like Gecko) Chrome/107.0.0.0 Safari/537.36 Edg/107.0.1418.52","WebKit","Edge","107.0.1418.52","Windows","10.0","null","<div style=""font-size:60px;"">+</div>","null",""
"","","","","","html-button-response","119","221706","0.0-4.0-1.57","276","1","2022-11-23 05:11:56","49aca292d257f58668169b9fbab864ae","219.131.118.235","Mozilla/5.0 (Windows NT 10.0; Win64; x64) AppleWebKit/537.36 (KHTML, like Gecko) Chrome/107.0.0.0 Safari/537.36 Edg/107.0.1418.52","WebKit","Edge","107.0.1418.52","Windows","10.0","822","<p>作为军队的指挥官，你可以选择发射导弹杀死 <strong>7名</strong> 敌国士兵，但会误杀附近的 <strong>1名</strong> 敌国平民。</p> <p>平民照片如下图所示。</p> <p></p> <img src='stimuli/faces/PFM7.jpg', style='max-width: 30%;'> </img> <p><strong>你是否选择发射武器？</strong></p>","0",""
"","","","","","html-keyboard-response","120","222713","0.0-4.0-0.58","276","1","2022-11-23 05:11:56","49aca292d257f58668169b9fbab864ae","219.131.118.235","Mozilla/5.0 (Windows NT 10.0; Win64; x64) AppleWebKit/537.36 (KHTML, like Gecko) Chrome/107.0.0.0 Safari/537.36 Edg/107.0.1418.52","WebKit","Edge","107.0.1418.52","Windows","10.0","null","<div style=""font-size:60px;"">+</div>","null",""
"","","","","","html-button-response","121","223594","0.0-4.0-1.58","276","1","2022-11-23 05:11:56","49aca292d257f58668169b9fbab864ae","219.131.118.235","Mozilla/5.0 (Windows NT 10.0; Win64; x64) AppleWebKit/537.36 (KHTML, like Gecko) Chrome/107.0.0.0 Safari/537.36 Edg/107.0.1418.52","WebKit","Edge","107.0.1418.52","Windows","10.0","878","<p>作为军队的指挥官，你可以选择发射导弹杀死 <strong>10名</strong> 敌国士兵，但会误杀附近的 <strong>1名</strong> 敌国平民。</p> <p>平民照片如下图所示。</p> <p></p> <img src='stimuli/faces/PFM5.jpg', style='max-width: 30%;'> </img> <p><strong>你是否选择发射武器？</strong></p>","0",""
"","","","","","html-keyboard-response","122","224609","0.0-4.0-0.59","276","1","2022-11-23 05:11:56","49aca292d257f58668169b9fbab864ae","219.131.118.235","Mozilla/5.0 (Windows NT 10.0; Win64; x64) AppleWebKit/537.36 (KHTML, like Gecko) Chrome/107.0.0.0 Safari/537.36 Edg/107.0.1418.52","WebKit","Edge","107.0.1418.52","Windows","10.0","null","<div style=""font-size:60px;"">+</div>","null",""
"","","","","","html-button-response","123","225834","0.0-4.0-1.59","276","1","2022-11-23 05:11:56","49aca292d257f58668169b9fbab864ae","219.131.118.235","Mozilla/5.0 (Windows NT 10.0; Win64; x64) AppleWebKit/537.36 (KHTML, like Gecko) Chrome/107.0.0.0 Safari/537.36 Edg/107.0.1418.52","WebKit","Edge","107.0.1418.52","Windows","10.0","1222","<p>作为军队的指挥官，你可以选择发射导弹杀死 <strong>9名</strong> 敌国士兵，但会误杀附近的 <strong>1名</strong> 敌国平民。</p> <p>平民照片如下图所示。</p> <p></p> <img src='stimuli/faces/PFF2.jpg', style='max-width: 30%;'> </img> <p><strong>你是否选择发射武器？</strong></p>","0",""
"","","","","","html-keyboard-response","124","226845","0.0-4.0-0.60","276","1","2022-11-23 05:11:56","49aca292d257f58668169b9fbab864ae","219.131.118.235","Mozilla/5.0 (Windows NT 10.0; Win64; x64) AppleWebKit/537.36 (KHTML, like Gecko) Chrome/107.0.0.0 Safari/537.36 Edg/107.0.1418.52","WebKit","Edge","107.0.1418.52","Windows","10.0","null","<div style=""font-size:60px;"">+</div>","null",""
"","","","","","html-button-response","125","227595","0.0-4.0-1.60","276","1","2022-11-23 05:11:56","49aca292d257f58668169b9fbab864ae","219.131.118.235","Mozilla/5.0 (Windows NT 10.0; Win64; x64) AppleWebKit/537.36 (KHTML, like Gecko) Chrome/107.0.0.0 Safari/537.36 Edg/107.0.1418.52","WebKit","Edge","107.0.1418.52","Windows","10.0","746","<p>作为军队的指挥官，你可以选择发射导弹杀死 <strong>8名</strong> 敌国士兵，但会误杀附近的 <strong>1名</strong> 敌国平民。</p> <p>平民照片如下图所示。</p> <p></p> <img src='stimuli/faces/PFF8.jpg', style='max-width: 30%;'> </img> <p><strong>你是否选择发射武器？</strong></p>","0",""
"","","","","","html-keyboard-response","126","228611","0.0-4.0-0.61","276","1","2022-11-23 05:11:56","49aca292d257f58668169b9fbab864ae","219.131.118.235","Mozilla/5.0 (Windows NT 10.0; Win64; x64) AppleWebKit/537.36 (KHTML, like Gecko) Chrome/107.0.0.0 Safari/537.36 Edg/107.0.1418.52","WebKit","Edge","107.0.1418.52","Windows","10.0","null","<div style=""font-size:60px;"">+</div>","null",""
"","","","","","html-button-response","127","229994","0.0-4.0-1.61","276","1","2022-11-23 05:11:56","49aca292d257f58668169b9fbab864ae","219.131.118.235","Mozilla/5.0 (Windows NT 10.0; Win64; x64) AppleWebKit/537.36 (KHTML, like Gecko) Chrome/107.0.0.0 Safari/537.36 Edg/107.0.1418.52","WebKit","Edge","107.0.1418.52","Windows","10.0","1380","<p>作为军队的指挥官，你可以选择发射导弹杀死 <strong>6名</strong> 敌国士兵，但会炸毁附近的 <strong>1棵</strong> 敌国树木。</p> <p>树木的照片如下图所示。</p> <p></p> <img src='stimuli/trees/11.png', style='max-width: 30%;'> </img> <p><strong>你是否选择发射武器？</strong></p>","1",""
"","","","","","html-keyboard-response","128","231002","0.0-4.0-0.62","276","1","2022-11-23 05:11:56","49aca292d257f58668169b9fbab864ae","219.131.118.235","Mozilla/5.0 (Windows NT 10.0; Win64; x64) AppleWebKit/537.36 (KHTML, like Gecko) Chrome/107.0.0.0 Safari/537.36 Edg/107.0.1418.52","WebKit","Edge","107.0.1418.52","Windows","10.0","null","<div style=""font-size:60px;"">+</div>","null",""
"","","","","","html-button-response","129","232195","0.0-4.0-1.62","276","1","2022-11-23 05:11:56","49aca292d257f58668169b9fbab864ae","219.131.118.235","Mozilla/5.0 (Windows NT 10.0; Win64; x64) AppleWebKit/537.36 (KHTML, like Gecko) Chrome/107.0.0.0 Safari/537.36 Edg/107.0.1418.52","WebKit","Edge","107.0.1418.52","Windows","10.0","1190","<p>作为军队的指挥官，你可以选择发射导弹杀死 <strong>8名</strong> 敌国士兵，但会炸毁附近的 <strong>1棵</strong> 敌国树木。</p> <p>树木的照片如下图所示。</p> <p></p> <img src='stimuli/trees/7.png', style='max-width: 30%;'> </img> <p><strong>你是否选择发射武器？</strong></p>","0",""
"","","","","","html-keyboard-response","130","233200","0.0-4.0-0.63","276","1","2022-11-23 05:11:56","49aca292d257f58668169b9fbab864ae","219.131.118.235","Mozilla/5.0 (Windows NT 10.0; Win64; x64) AppleWebKit/537.36 (KHTML, like Gecko) Chrome/107.0.0.0 Safari/537.36 Edg/107.0.1418.52","WebKit","Edge","107.0.1418.52","Windows","10.0","null","<div style=""font-size:60px;"">+</div>","null",""
"","","","","","html-button-response","131","234162","0.0-4.0-1.63","276","1","2022-11-23 05:11:56","49aca292d257f58668169b9fbab864ae","219.131.118.235","Mozilla/5.0 (Windows NT 10.0; Win64; x64) AppleWebKit/537.36 (KHTML, like Gecko) Chrome/107.0.0.0 Safari/537.36 Edg/107.0.1418.52","WebKit","Edge","107.0.1418.52","Windows","10.0","959","<p>作为军队的指挥官，你可以选择发射导弹杀死 <strong>4名</strong> 敌国士兵，但会炸毁附近的 <strong>1棵</strong> 敌国树木。</p> <p>树木的照片如下图所示。</p> <p></p> <img src='stimuli/trees/7.png', style='max-width: 30%;'> </img> <p><strong>你是否选择发射武器？</strong></p>","0",""
"","","","","","survey-multi-choice","132","249707","0.0-5.0","276","1","2022-11-23 05:11:56","49aca292d257f58668169b9fbab864ae","219.131.118.235","Mozilla/5.0 (Windows NT 10.0; Win64; x64) AppleWebKit/537.36 (KHTML, like Gecko) Chrome/107.0.0.0 Safari/537.36 Edg/107.0.1418.52","WebKit","Edge","107.0.1418.52","Windows","10.0","15540","","{""Attention1"":""""}","[0]"
"","","","","","html-button-response","133","292890","0.0-6.0","276","1","2022-11-23 05:11:56","49aca292d257f58668169b9fbab864ae","219.131.118.235","Mozilla/5.0 (Windows NT 10.0; Win64; x64) AppleWebKit/537.36 (KHTML, like Gecko) Chrome/107.0.0.0 Safari/537.36 Edg/107.0.1418.52","WebKit","Edge","107.0.1418.52","Windows","10.0","43179","<p style=""font-size:20px;font-weight:bold;"">恭喜！</p><p>你已经完成了实验的第一部分。</p><p>请休息放松一下，然后进入第二部分。</p><p>这部分大约需要10分钟。</p>","0",""
"","","","","","survey-text","134","318203","0.0-7.0","276","1","2022-11-23 05:11:56","49aca292d257f58668169b9fbab864ae","219.131.118.235","Mozilla/5.0 (Windows NT 10.0; Win64; x64) AppleWebKit/537.36 (KHTML, like Gecko) Chrome/107.0.0.0 Safari/537.36 Edg/107.0.1418.52","WebKit","Edge","107.0.1418.52","Windows","10.0","24288","","{""Age"":""21"",""Nation"":""中国"",""Born"":""广东省"",""Live"":""肇庆市"",""Ethnic"":""汉"",""Alipay"":""13229783192""}",""
"","","","","","survey-multi-choice","135","330467","0.0-8.0","276","1","2022-11-23 05:11:56","49aca292d257f58668169b9fbab864ae","219.131.118.235","Mozilla/5.0 (Windows NT 10.0; Win64; x64) AppleWebKit/537.36 (KHTML, like Gecko) Chrome/107.0.0.0 Safari/537.36 Edg/107.0.1418.52","WebKit","Edge","107.0.1418.52","Windows","10.0","12260","","{""Gender"":""男"",""Education"":""本科毕业"",""Income"":""￥70,000-￥139,999"",""Children"":""0"",""Race"":""亚洲人""}","[0,1,2,3,4]"
"","","","","","survey-multi-select","136","335763","0.0-9.0","276","1","2022-11-23 05:11:56","49aca292d257f58668169b9fbab864ae","219.131.118.235","Mozilla/5.0 (Windows NT 10.0; Win64; x64) AppleWebKit/537.36 (KHTML, like Gecko) Chrome/107.0.0.0 Safari/537.36 Edg/107.0.1418.52","WebKit","Edge","107.0.1418.52","Windows","10.0","5285","","{""Marriage"":[""未婚""],""Religion"":[""无宗教信仰""]}","[0,1]"
"","","","","","survey-multi-choice","137","350395","0.0-10.0","276","1","2022-11-23 05:11:56","49aca292d257f58668169b9fbab864ae","219.131.118.235","Mozilla/5.0 (Windows NT 10.0; Win64; x64) AppleWebKit/537.36 (KHTML, like Gecko) Chrome/107.0.0.0 Safari/537.36 Edg/107.0.1418.52","WebKit","Edge","107.0.1418.52","Windows","10.0","14627","","{""SES"":""5""}","[0]"
"","","","","","html-button-response","138","353106","0.0-11.0","276","1","2022-11-23 05:11:56","49aca292d257f58668169b9fbab864ae","219.131.118.235","Mozilla/5.0 (Windows NT 10.0; Win64; x64) AppleWebKit/537.36 (KHTML, like Gecko) Chrome/107.0.0.0 Safari/537.36 Edg/107.0.1418.52","WebKit","Edge","107.0.1418.52","Windows","10.0","2707","<p><strong>请判断下列陈述在多大程度上可以形容你？</p><p> (1 = ""和我一点都不像"" to 5 = ""非常像我"".)</strong></p>","0",""
"","","","","","survey-likert","139","383915","0.0-12.0","276","1","2022-11-23 05:11:56","49aca292d257f58668169b9fbab864ae","219.131.118.235","Mozilla/5.0 (Windows NT 10.0; Win64; x64) AppleWebKit/537.36 (KHTML, like Gecko) Chrome/107.0.0.0 Safari/537.36 Edg/107.0.1418.52","WebKit","Edge","107.0.1418.52","Windows","10.0","30805","","{""Aggression1"":2,""Aggression2"":0,""Aggression3"":4,""Aggression4"":1,""Aggression5"":2,""Aggression6"":3,""Aggression7"":3,""Aggression8"":2,""Aggression9"":0}","[0,1,2,3,4,5,6,7,8]"
"","","","","","html-button-response","140","403562","0.0-13.0","276","1","2022-11-23 05:11:56","49aca292d257f58668169b9fbab864ae","219.131.118.235","Mozilla/5.0 (Windows NT 10.0; Win64; x64) AppleWebKit/537.36 (KHTML, like Gecko) Chrome/107.0.0.0 Safari/537.36 Edg/107.0.1418.52","WebKit","Edge","107.0.1418.52","Windows","10.0","19642","<p><strong>请判断你在多大程度上同意下列陈述。</strong></p>","0",""
"","","","","","survey-likert","141","485508","0.0-14.0","276","1","2022-11-23 05:11:56","49aca292d257f58668169b9fbab864ae","219.131.118.235","Mozilla/5.0 (Windows NT 10.0; Win64; x64) AppleWebKit/537.36 (KHTML, like Gecko) Chrome/107.0.0.0 Safari/537.36 Edg/107.0.1418.52","WebKit","Edge","107.0.1418.52","Windows","10.0","81940","","{""scale17"":2,""scale16"":3,""scale15"":4,""scale22"":4,""scale6"":0,""scale18"":3,""scale4"":1,""scale14"":3,""scale1"":2,""scale26"":0,""scale2"":1,""scale10"":2,""scale12"":3,""scale20"":2,""scale5"":2,""scale28"":1,""scale9"":2,""scale8"":3,""scale7"":3,""scale3"":2,""scale25"":3,""scale19"":2,""scale21"":3,""scale11"":4,""scale27"":3,""scale23"":4,""scale13"":3,""scale24"":2}","[16,15,14,21,5,17,3,13,0,25,1,9,11,19,4,27,8,7,6,2,24,18,20,10,26,22,12,23]"
"","","","","","html-button-response","142","486722","0.0-15.0","276","1","2022-11-23 05:11:56","49aca292d257f58668169b9fbab864ae","219.131.118.235","Mozilla/5.0 (Windows NT 10.0; Win64; x64) AppleWebKit/537.36 (KHTML, like Gecko) Chrome/107.0.0.0 Safari/537.36 Edg/107.0.1418.52","WebKit","Edge","107.0.1418.52","Windows","10.0","1209","<p><strong>请判断你在多大程度上同意下列陈述。</strong></p>","0",""
"","","","","","survey-likert","143","525428","0.0-16.0","276","1","2022-11-23 05:11:56","49aca292d257f58668169b9fbab864ae","219.131.118.235","Mozilla/5.0 (Windows NT 10.0; Win64; x64) AppleWebKit/537.36 (KHTML, like Gecko) Chrome/107.0.0.0 Safari/537.36 Edg/107.0.1418.52","WebKit","Edge","107.0.1418.52","Windows","10.0","38701","","{""sdo13"":6,""sdo2"":4,""sdo10"":2,""sdo12"":4,""sdo6"":5,""sdo7"":0,""sdo16"":1,""sdo5"":2,""sdo1"":2,""sdo9"":5,""sdo15"":5,""sdo3"":6,""sdo14"":4,""sdo4"":4,""sdo11"":2,""sdo8"":4}","[12,1,9,11,5,6,15,4,0,8,14,2,13,3,10,7]"
"","","","","","html-button-response","144","526753","0.0-17.0","276","1","2022-11-23 05:11:56","49aca292d257f58668169b9fbab864ae","219.131.118.235","Mozilla/5.0 (Windows NT 10.0; Win64; x64) AppleWebKit/537.36 (KHTML, like Gecko) Chrome/107.0.0.0 Safari/537.36 Edg/107.0.1418.52","WebKit","Edge","107.0.1418.52","Windows","10.0","1320","<p><strong>请判断你在多大程度上同意下列陈述。</strong></p>","0",""
"","","","","","survey-likert","145","564626","0.0-18.0","276","1","2022-11-23 05:11:56","49aca292d257f58668169b9fbab864ae","219.131.118.235","Mozilla/5.0 (Windows NT 10.0; Win64; x64) AppleWebKit/537.36 (KHTML, like Gecko) Chrome/107.0.0.0 Safari/537.36 Edg/107.0.1418.52","WebKit","Edge","107.0.1418.52","Windows","10.0","37870","","{""caring1"":4,""liking1"":0,""caring2"":4,""protection1"":3,""liking2"":1,""caring3"":3,""protection2"":0,""liking3"":3,""protection3"":3,""caring4"":4,""liking4"":0,""protection4"":3,""caring5"":2,""liking5"":0,""protection5"":1}","[0,1,2,3,4,5,6,7,8,9,10,11,12,13,14]"
"","","","","","html-button-response","146","565898","0.0-19.0","276","1","2022-11-23 05:11:56","49aca292d257f58668169b9fbab864ae","219.131.118.235","Mozilla/5.0 (Windows NT 10.0; Win64; x64) AppleWebKit/537.36 (KHTML, like Gecko) Chrome/107.0.0.0 Safari/537.36 Edg/107.0.1418.52","WebKit","Edge","107.0.1418.52","Windows","10.0","1267","<p><strong>请判断下列场景中你的内心感受有多柔软。</strong></p>","0",""
"","","","","","survey-likert","147","598250","0.0-20.0","276","1","2022-11-23 05:11:56","49aca292d257f58668169b9fbab864ae","219.131.118.235","Mozilla/5.0 (Windows NT 10.0; Win64; x64) AppleWebKit/537.36 (KHTML, like Gecko) Chrome/107.0.0.0 Safari/537.36 Edg/107.0.1418.52","WebKit","Edge","107.0.1418.52","Windows","10.0","32348","","{""tenderness-positive1"":3,""tenderness-negative1"":1,""tenderness-negative2"":4,""tenderness-positive2"":2,""tenderness-positive3"":3,""tenderness-negative3"":3,""tenderness-positive4"":3,""tenderness-negative4"":1,""tenderness-negative5"":0,""tenderness-positive5"":3}","[0,1,2,3,4,5,6,7,8,9]"
"","","","","","survey-multi-choice","148","607171","0.0-21.0","276","1","2022-11-23 05:11:56","49aca292d257f58668169b9fbab864ae","219.131.118.235","Mozilla/5.0 (Windows NT 10.0; Win64; x64) AppleWebKit/537.36 (KHTML, like Gecko) Chrome/107.0.0.0 Safari/537.36 Edg/107.0.1418.52","WebKit","Edge","107.0.1418.52","Windows","10.0","8915","","{""Attention2"":""其他""}","[0]"
"","","","","","html-button-response","149","608018","0.0-22.0","276","1","2022-11-23 05:11:56","49aca292d257f58668169b9fbab864ae","219.131.118.235","Mozilla/5.0 (Windows NT 10.0; Win64; x64) AppleWebKit/537.36 (KHTML, like Gecko) Chrome/107.0.0.0 Safari/537.36 Edg/107.0.1418.52","WebKit","Edge","107.0.1418.52","Windows","10.0","842","<p><strong>请判断你在多大程度上同意下列陈述。</strong></p>","0",""
"","","","","","survey-likert","150","671012","0.0-23.0","276","1","2022-11-23 05:11:56","49aca292d257f58668169b9fbab864ae","219.131.118.235","Mozilla/5.0 (Windows NT 10.0; Win64; x64) AppleWebKit/537.36 (KHTML, like Gecko) Chrome/107.0.0.0 Safari/537.36 Edg/107.0.1418.52","WebKit","Edge","107.0.1418.52","Windows","10.0","62990","","{""Patri4"":4,""Nation3"":2,""Patri7"":3,""Patri5"":4,""Patri3"":4,""Patri12"":0,""Nation7"":4,""Patri6"":0,""Nation5"":4,""Nation6"":3,""Patri1"":4,""Patri10"":0,""Patri8"":3,""Nation8"":1,""Patri9"":1,""Patri2"":4,""Patri11"":3,""Nation1"":4,""Nation2"":4,""Nation4"":4}","[3,14,6,4,2,11,18,5,16,17,0,9,7,19,8,1,10,12,13,15]"
"","","","","","html-button-response","151","672194","0.0-24.0","276","1","2022-11-23 05:11:56","49aca292d257f58668169b9fbab864ae","219.131.118.235","Mozilla/5.0 (Windows NT 10.0; Win64; x64) AppleWebKit/537.36 (KHTML, like Gecko) Chrome/107.0.0.0 Safari/537.36 Edg/107.0.1418.52","WebKit","Edge","107.0.1418.52","Windows","10.0","1175","<p><strong>请判断你在多大程度上同意下列陈述。</strong></p>","0",""
"","","","","","survey-likert","152","705867","0.0-25.0","276","1","2022-11-23 05:11:56","49aca292d257f58668169b9fbab864ae","219.131.118.235","Mozilla/5.0 (Windows NT 10.0; Win64; x64) AppleWebKit/537.36 (KHTML, like Gecko) Chrome/107.0.0.0 Safari/537.36 Edg/107.0.1418.52","WebKit","Edge","107.0.1418.52","Windows","10.0","33668","","{""hc1"":7,""hi3"":6,""Robot"":6,""vi4"":7,""vc4"":7,""vc1"":8,""hc2"":8,""vi2"":8,""vi1"":8,""vi3"":7,""vc2"":8,""hi4"":7,""hc4"":8,""hi1"":2,""hi2"":6,""hc3"":7,""vc3"":6}","[9,2,7,8,16,13,10,5,4,6,14,3,12,0,1,11,15]"
"","","","","","survey-text","153","711890","0.0-26.0","276","1","2022-11-23 05:11:56","49aca292d257f58668169b9fbab864ae","219.131.118.235","Mozilla/5.0 (Windows NT 10.0; Win64; x64) AppleWebKit/537.36 (KHTML, like Gecko) Chrome/107.0.0.0 Safari/537.36 Edg/107.0.1418.52","WebKit","Edge","107.0.1418.52","Windows","10.0","5995","","{""Comments"":""没有""}",""
"","","","","","html-button-response","154","712913","0.0-27.0","276","1","2022-11-23 05:11:56","49aca292d257f58668169b9fbab864ae","219.131.118.235","Mozilla/5.0 (Windows NT 10.0; Win64; x64) AppleWebKit/537.36 (KHTML, like Gecko) Chrome/107.0.0.0 Safari/537.36 Edg/107.0.1418.52","WebKit","Edge","107.0.1418.52","Windows","10.0","1020","<strong><p>恭喜你完成了实验！</p><p>感谢您的参与。</p></strong>","0",""
