"success","timeout","failed_images","failed_audio","failed_video","trial_type","trial_index","time_elapsed","internal_node_id","run_id","condition","recorded_at","source_code_version","ip","user_agent","device","browser","browser_version","platform","platform_version","rt","stimulus","response","question_order"
"true","false","[]","[]","[]","preload","0","1269","0.0-0.0","11","1","2022-11-27 09:40:32","49aca292d257f58668169b9fbab864ae","120.245.92.252","Mozilla/5.0 (Linux; Android 12; 22041216C) AppleWebKit/537.36 (KHTML, like Gecko) Chrome/107.0.0.0 Mobile Safari/537.36","WebKit","Chrome","107.0.0.0","AndroidOS","12","","","",""
"true","","","","","fullscreen","1","3489","0.0-1.0","11","1","2022-11-27 09:40:32","49aca292d257f58668169b9fbab864ae","120.245.92.252","Mozilla/5.0 (Linux; Android 12; 22041216C) AppleWebKit/537.36 (KHTML, like Gecko) Chrome/107.0.0.0 Mobile Safari/537.36","WebKit","Chrome","107.0.0.0","AndroidOS","12","","","",""
"","","","","","html-button-response","2","25191","0.0-2.0","11","1","2022-11-27 09:40:32","49aca292d257f58668169b9fbab864ae","120.245.92.252","Mozilla/5.0 (Linux; Android 12; 22041216C) AppleWebKit/537.36 (KHTML, like Gecko) Chrome/107.0.0.0 Mobile Safari/537.36","WebKit","Chrome","107.0.0.0","AndroidOS","12","21697","<p style=""font-size:20px;font-weight:bold;"">实验知情同意书</p><p style=""text-align:left;""><strong>实验名称：</strong>社会冲突研究</p><p style=""text-align:left;""><strong>主要研究者：</strong>韩晓春副教授（北京师范大学心理学部）</p><p style=""text-align:left;""><strong>联系方式：</strong>发送邮件至xiaochun.han@bnu.edu.cn</p><p style=""text-align:left;""><strong>研究目的：</strong>研究旨在了解人类面对群体冲突时的决策方式，以及相关的心理学特质。实验调查大约需要20分钟。</p><p style=""text-align:left;""><strong>实验流程：</strong>实验包含两部分。第一部分呈现一系列群体冲突场景，请你决定如何对这些冲突进行反应，大约需要10分钟完成。第二部分包含一系列人口统计学信息收集和心理学问卷，大约需要10分钟完成。</p><p style=""text-align:left;""><strong>参加及退出规则：</strong>参加本实验完全取决于您的个人意愿。在参与过程中，您可以随时退出，并且不用承担任何后果。</p><p style=""text-align:left;""><strong>隐私：</strong>本实验完全匿名进行，不会收集您的姓名或其他能够识别您身份的信息。实验中收集的作答仅用作科学研究使用，可能会在学术期刊/书籍上发表，或者用于教学，您的数据未来可能会和其他研究者或实验室分享，但您的个人身份不会被识别。</p><p style=""text-align:left;""><strong>实验报酬：</strong>实验完成后，您将获得15元人民币报酬，以感谢您的时间和努力。调查问卷中包含几道题目用以测验您作答时的认真度。只有完成全部实验，并且正确回答认真度测验的被试才能获得实验报酬。实验报酬将通过支付宝转账发放。</p><p style=""text-align:left;font-size:20px;""><strong>如果您同意以上实验知情同意书的内容，请点击'同意并且开始实验'按钮；否则请关闭浏览器界面，退出实验。</strong></p>","0",""
"","","","","","html-button-response","3","49357","0.0-3.0","11","1","2022-11-27 09:40:32","49aca292d257f58668169b9fbab864ae","120.245.92.252","Mozilla/5.0 (Linux; Android 12; 22041216C) AppleWebKit/537.36 (KHTML, like Gecko) Chrome/107.0.0.0 Mobile Safari/537.36","WebKit","Chrome","107.0.0.0","AndroidOS","12","24163","<p ><strong>实验任务一：</strong></p><p>请想象你的国家与另一个国家发生了军事冲突。</p><p>你是国家军队的指挥官，你将如何在冲突中进行决策。</p><p>具体来说，作为军队指挥官，请你决定是否发射导弹进行打击。</p><p>接下来，你会面对一系列场景，请仔细阅读每个场景，然后进行决策。</p><p>这部分实验任务大约需要10分钟。</p><p><strong>实验过程中，请集中注意力。</strong></p>","0",""
"","","","","","html-keyboard-response","4","50363","0.0-4.0-0.0","11","1","2022-11-27 09:40:32","49aca292d257f58668169b9fbab864ae","120.245.92.252","Mozilla/5.0 (Linux; Android 12; 22041216C) AppleWebKit/537.36 (KHTML, like Gecko) Chrome/107.0.0.0 Mobile Safari/537.36","WebKit","Chrome","107.0.0.0","AndroidOS","12","null","<div style=""font-size:60px;"">+</div>","null",""
"","","","","","html-button-response","5","61096","0.0-4.0-1.0","11","1","2022-11-27 09:40:32","49aca292d257f58668169b9fbab864ae","120.245.92.252","Mozilla/5.0 (Linux; Android 12; 22041216C) AppleWebKit/537.36 (KHTML, like Gecko) Chrome/107.0.0.0 Mobile Safari/537.36","WebKit","Chrome","107.0.0.0","AndroidOS","12","10696","<p>作为军队的指挥官，你可以选择发射导弹杀死 <strong>9名</strong> 敌国士兵，但会炸毁附近的 <strong>1棵</strong> 敌国树木。</p> <p>树木的照片如下图所示。</p> <p></p> <img src='stimuli/trees/16.png', style='max-width: 30%;'> </img> <p><strong>你是否选择发射武器？</strong></p>","0",""
"","","","","","html-keyboard-response","6","62105","0.0-4.0-0.1","11","1","2022-11-27 09:40:32","49aca292d257f58668169b9fbab864ae","120.245.92.252","Mozilla/5.0 (Linux; Android 12; 22041216C) AppleWebKit/537.36 (KHTML, like Gecko) Chrome/107.0.0.0 Mobile Safari/537.36","WebKit","Chrome","107.0.0.0","AndroidOS","12","null","<div style=""font-size:60px;"">+</div>","null",""
"","","","","","html-button-response","7","68169","0.0-4.0-1.1","11","1","2022-11-27 09:40:32","49aca292d257f58668169b9fbab864ae","120.245.92.252","Mozilla/5.0 (Linux; Android 12; 22041216C) AppleWebKit/537.36 (KHTML, like Gecko) Chrome/107.0.0.0 Mobile Safari/537.36","WebKit","Chrome","107.0.0.0","AndroidOS","12","6055","<p>作为军队的指挥官，你可以选择发射导弹杀死 <strong>4名</strong> 敌国士兵，但会炸毁附近的 <strong>1棵</strong> 敌国树木。</p> <p>树木的照片如下图所示。</p> <p></p> <img src='stimuli/trees/16.png', style='max-width: 30%;'> </img> <p><strong>你是否选择发射武器？</strong></p>","0",""
"","","","","","html-keyboard-response","8","69172","0.0-4.0-0.2","11","1","2022-11-27 09:40:32","49aca292d257f58668169b9fbab864ae","120.245.92.252","Mozilla/5.0 (Linux; Android 12; 22041216C) AppleWebKit/537.36 (KHTML, like Gecko) Chrome/107.0.0.0 Mobile Safari/537.36","WebKit","Chrome","107.0.0.0","AndroidOS","12","null","<div style=""font-size:60px;"">+</div>","null",""
"","","","","","html-button-response","9","73272","0.0-4.0-1.2","11","1","2022-11-27 09:40:32","49aca292d257f58668169b9fbab864ae","120.245.92.252","Mozilla/5.0 (Linux; Android 12; 22041216C) AppleWebKit/537.36 (KHTML, like Gecko) Chrome/107.0.0.0 Mobile Safari/537.36","WebKit","Chrome","107.0.0.0","AndroidOS","12","4090","<p>作为军队的指挥官，你可以选择发射导弹杀死 <strong>10名</strong> 敌国士兵，但会炸毁附近的 <strong>1棵</strong> 敌国树木。</p> <p>树木的照片如下图所示。</p> <p></p> <img src='stimuli/trees/12.png', style='max-width: 30%;'> </img> <p><strong>你是否选择发射武器？</strong></p>","0",""
"","","","","","html-keyboard-response","10","74281","0.0-4.0-0.3","11","1","2022-11-27 09:40:32","49aca292d257f58668169b9fbab864ae","120.245.92.252","Mozilla/5.0 (Linux; Android 12; 22041216C) AppleWebKit/537.36 (KHTML, like Gecko) Chrome/107.0.0.0 Mobile Safari/537.36","WebKit","Chrome","107.0.0.0","AndroidOS","12","null","<div style=""font-size:60px;"">+</div>","null",""
"","","","","","html-button-response","11","80845","0.0-4.0-1.3","11","1","2022-11-27 09:40:32","49aca292d257f58668169b9fbab864ae","120.245.92.252","Mozilla/5.0 (Linux; Android 12; 22041216C) AppleWebKit/537.36 (KHTML, like Gecko) Chrome/107.0.0.0 Mobile Safari/537.36","WebKit","Chrome","107.0.0.0","AndroidOS","12","6548","<p>作为军队的指挥官，你可以选择发射导弹杀死 <strong>3名</strong> 敌国士兵，但会炸毁附近的 <strong>1棵</strong> 敌国树木。</p> <p>树木的照片如下图所示。</p> <p></p> <img src='stimuli/trees/15.png', style='max-width: 30%;'> </img> <p><strong>你是否选择发射武器？</strong></p>","0",""
"","","","","","html-keyboard-response","12","81849","0.0-4.0-0.4","11","1","2022-11-27 09:40:32","49aca292d257f58668169b9fbab864ae","120.245.92.252","Mozilla/5.0 (Linux; Android 12; 22041216C) AppleWebKit/537.36 (KHTML, like Gecko) Chrome/107.0.0.0 Mobile Safari/537.36","WebKit","Chrome","107.0.0.0","AndroidOS","12","null","<div style=""font-size:60px;"">+</div>","null",""
"","","","","","html-button-response","13","84979","0.0-4.0-1.4","11","1","2022-11-27 09:40:32","49aca292d257f58668169b9fbab864ae","120.245.92.252","Mozilla/5.0 (Linux; Android 12; 22041216C) AppleWebKit/537.36 (KHTML, like Gecko) Chrome/107.0.0.0 Mobile Safari/537.36","WebKit","Chrome","107.0.0.0","AndroidOS","12","3118","<p>作为军队的指挥官，你可以选择发射导弹杀死 <strong>1名</strong> 敌国士兵，但会炸毁附近的 <strong>1棵</strong> 敌国树木。</p> <p>树木的照片如下图所示。</p> <p></p> <img src='stimuli/trees/12.png', style='max-width: 30%;'> </img> <p><strong>你是否选择发射武器？</strong></p>","1",""
"","","","","","html-keyboard-response","14","85986","0.0-4.0-0.5","11","1","2022-11-27 09:40:32","49aca292d257f58668169b9fbab864ae","120.245.92.252","Mozilla/5.0 (Linux; Android 12; 22041216C) AppleWebKit/537.36 (KHTML, like Gecko) Chrome/107.0.0.0 Mobile Safari/537.36","WebKit","Chrome","107.0.0.0","AndroidOS","12","null","<div style=""font-size:60px;"">+</div>","null",""
"","","","","","html-button-response","15","88448","0.0-4.0-1.5","11","1","2022-11-27 09:40:32","49aca292d257f58668169b9fbab864ae","120.245.92.252","Mozilla/5.0 (Linux; Android 12; 22041216C) AppleWebKit/537.36 (KHTML, like Gecko) Chrome/107.0.0.0 Mobile Safari/537.36","WebKit","Chrome","107.0.0.0","AndroidOS","12","2453","<p>作为军队的指挥官，你可以选择发射导弹杀死 <strong>4名</strong> 敌国士兵，但会炸毁附近的 <strong>1棵</strong> 敌国树木。</p> <p>树木的照片如下图所示。</p> <p></p> <img src='stimuli/trees/7.png', style='max-width: 30%;'> </img> <p><strong>你是否选择发射武器？</strong></p>","0",""
"","","","","","html-keyboard-response","16","89457","0.0-4.0-0.6","11","1","2022-11-27 09:40:32","49aca292d257f58668169b9fbab864ae","120.245.92.252","Mozilla/5.0 (Linux; Android 12; 22041216C) AppleWebKit/537.36 (KHTML, like Gecko) Chrome/107.0.0.0 Mobile Safari/537.36","WebKit","Chrome","107.0.0.0","AndroidOS","12","null","<div style=""font-size:60px;"">+</div>","null",""
"","","","","","html-button-response","17","92687","0.0-4.0-1.6","11","1","2022-11-27 09:40:32","49aca292d257f58668169b9fbab864ae","120.245.92.252","Mozilla/5.0 (Linux; Android 12; 22041216C) AppleWebKit/537.36 (KHTML, like Gecko) Chrome/107.0.0.0 Mobile Safari/537.36","WebKit","Chrome","107.0.0.0","AndroidOS","12","3217","<p>作为军队的指挥官，你可以选择发射导弹杀死 <strong>5名</strong> 敌国士兵，但会炸毁附近的 <strong>1棵</strong> 敌国树木。</p> <p>树木的照片如下图所示。</p> <p></p> <img src='stimuli/trees/9.png', style='max-width: 30%;'> </img> <p><strong>你是否选择发射武器？</strong></p>","0",""
"","","","","","html-keyboard-response","18","93690","0.0-4.0-0.7","11","1","2022-11-27 09:40:32","49aca292d257f58668169b9fbab864ae","120.245.92.252","Mozilla/5.0 (Linux; Android 12; 22041216C) AppleWebKit/537.36 (KHTML, like Gecko) Chrome/107.0.0.0 Mobile Safari/537.36","WebKit","Chrome","107.0.0.0","AndroidOS","12","null","<div style=""font-size:60px;"">+</div>","null",""
"","","","","","html-button-response","19","99162","0.0-4.0-1.7","11","1","2022-11-27 09:40:32","49aca292d257f58668169b9fbab864ae","120.245.92.252","Mozilla/5.0 (Linux; Android 12; 22041216C) AppleWebKit/537.36 (KHTML, like Gecko) Chrome/107.0.0.0 Mobile Safari/537.36","WebKit","Chrome","107.0.0.0","AndroidOS","12","5461","<p>作为军队的指挥官，你可以选择发射导弹杀死 <strong>4名</strong> 敌国士兵，但会炸毁附近的 <strong>1棵</strong> 敌国树木。</p> <p>树木的照片如下图所示。</p> <p></p> <img src='stimuli/trees/10.png', style='max-width: 30%;'> </img> <p><strong>你是否选择发射武器？</strong></p>","0",""
"","","","","","html-keyboard-response","20","100170","0.0-4.0-0.8","11","1","2022-11-27 09:40:32","49aca292d257f58668169b9fbab864ae","120.245.92.252","Mozilla/5.0 (Linux; Android 12; 22041216C) AppleWebKit/537.36 (KHTML, like Gecko) Chrome/107.0.0.0 Mobile Safari/537.36","WebKit","Chrome","107.0.0.0","AndroidOS","12","null","<div style=""font-size:60px;"">+</div>","null",""
"","","","","","html-button-response","21","104392","0.0-4.0-1.8","11","1","2022-11-27 09:40:32","49aca292d257f58668169b9fbab864ae","120.245.92.252","Mozilla/5.0 (Linux; Android 12; 22041216C) AppleWebKit/537.36 (KHTML, like Gecko) Chrome/107.0.0.0 Mobile Safari/537.36","WebKit","Chrome","107.0.0.0","AndroidOS","12","4205","<p>作为军队的指挥官，你可以选择发射导弹杀死 <strong>2名</strong> 敌国士兵，但会误杀附近的 <strong>1名</strong> 敌国平民。</p> <p>平民照片如下图所示。</p> <p></p> <img src='stimuli/faces/PFM4.jpg', style='max-width: 30%;'> </img> <p><strong>你是否选择发射武器？</strong></p>","1",""
"","","","","","html-keyboard-response","22","105401","0.0-4.0-0.9","11","1","2022-11-27 09:40:32","49aca292d257f58668169b9fbab864ae","120.245.92.252","Mozilla/5.0 (Linux; Android 12; 22041216C) AppleWebKit/537.36 (KHTML, like Gecko) Chrome/107.0.0.0 Mobile Safari/537.36","WebKit","Chrome","107.0.0.0","AndroidOS","12","null","<div style=""font-size:60px;"">+</div>","null",""
"","","","","","html-button-response","23","108350","0.0-4.0-1.9","11","1","2022-11-27 09:40:32","49aca292d257f58668169b9fbab864ae","120.245.92.252","Mozilla/5.0 (Linux; Android 12; 22041216C) AppleWebKit/537.36 (KHTML, like Gecko) Chrome/107.0.0.0 Mobile Safari/537.36","WebKit","Chrome","107.0.0.0","AndroidOS","12","2939","<p>作为军队的指挥官，你可以选择发射导弹杀死 <strong>6名</strong> 敌国士兵，但会误杀附近的 <strong>1名</strong> 敌国平民。</p> <p>平民照片如下图所示。</p> <p></p> <img src='stimuli/faces/PFF4.jpg', style='max-width: 30%;'> </img> <p><strong>你是否选择发射武器？</strong></p>","1",""
"","","","","","html-keyboard-response","24","109354","0.0-4.0-0.10","11","1","2022-11-27 09:40:32","49aca292d257f58668169b9fbab864ae","120.245.92.252","Mozilla/5.0 (Linux; Android 12; 22041216C) AppleWebKit/537.36 (KHTML, like Gecko) Chrome/107.0.0.0 Mobile Safari/537.36","WebKit","Chrome","107.0.0.0","AndroidOS","12","null","<div style=""font-size:60px;"">+</div>","null",""
"","","","","","html-button-response","25","111608","0.0-4.0-1.10","11","1","2022-11-27 09:40:32","49aca292d257f58668169b9fbab864ae","120.245.92.252","Mozilla/5.0 (Linux; Android 12; 22041216C) AppleWebKit/537.36 (KHTML, like Gecko) Chrome/107.0.0.0 Mobile Safari/537.36","WebKit","Chrome","107.0.0.0","AndroidOS","12","2239","<p>作为军队的指挥官，你可以选择发射导弹杀死 <strong>5名</strong> 敌国士兵，但会误杀附近的 <strong>1名</strong> 敌国平民。</p> <p>平民照片如下图所示。</p> <p></p> <img src='stimuli/faces/PFM5.jpg', style='max-width: 30%;'> </img> <p><strong>你是否选择发射武器？</strong></p>","1",""
"","","","","","html-keyboard-response","26","112616","0.0-4.0-0.11","11","1","2022-11-27 09:40:32","49aca292d257f58668169b9fbab864ae","120.245.92.252","Mozilla/5.0 (Linux; Android 12; 22041216C) AppleWebKit/537.36 (KHTML, like Gecko) Chrome/107.0.0.0 Mobile Safari/537.36","WebKit","Chrome","107.0.0.0","AndroidOS","12","null","<div style=""font-size:60px;"">+</div>","null",""
"","","","","","html-button-response","27","115042","0.0-4.0-1.11","11","1","2022-11-27 09:40:32","49aca292d257f58668169b9fbab864ae","120.245.92.252","Mozilla/5.0 (Linux; Android 12; 22041216C) AppleWebKit/537.36 (KHTML, like Gecko) Chrome/107.0.0.0 Mobile Safari/537.36","WebKit","Chrome","107.0.0.0","AndroidOS","12","2409","<p>作为军队的指挥官，你可以选择发射导弹杀死 <strong>8名</strong> 敌国士兵，但会误杀附近的 <strong>1名</strong> 敌国平民。</p> <p>平民照片如下图所示。</p> <p></p> <img src='stimuli/faces/PFF6.jpg', style='max-width: 30%;'> </img> <p><strong>你是否选择发射武器？</strong></p>","1",""
"","","","","","html-keyboard-response","28","116049","0.0-4.0-0.12","11","1","2022-11-27 09:40:32","49aca292d257f58668169b9fbab864ae","120.245.92.252","Mozilla/5.0 (Linux; Android 12; 22041216C) AppleWebKit/537.36 (KHTML, like Gecko) Chrome/107.0.0.0 Mobile Safari/537.36","WebKit","Chrome","107.0.0.0","AndroidOS","12","null","<div style=""font-size:60px;"">+</div>","null",""
"","","","","","html-button-response","29","119130","0.0-4.0-1.12","11","1","2022-11-27 09:40:32","49aca292d257f58668169b9fbab864ae","120.245.92.252","Mozilla/5.0 (Linux; Android 12; 22041216C) AppleWebKit/537.36 (KHTML, like Gecko) Chrome/107.0.0.0 Mobile Safari/537.36","WebKit","Chrome","107.0.0.0","AndroidOS","12","3069","<p>作为军队的指挥官，你可以选择发射导弹杀死 <strong>9名</strong> 敌国士兵，但会误杀附近的 <strong>1名</strong> 敌国平民。</p> <p>平民照片如下图所示。</p> <p></p> <img src='stimuli/faces/PFM8.jpg', style='max-width: 30%;'> </img> <p><strong>你是否选择发射武器？</strong></p>","1",""
"","","","","","html-keyboard-response","30","120137","0.0-4.0-0.13","11","1","2022-11-27 09:40:32","49aca292d257f58668169b9fbab864ae","120.245.92.252","Mozilla/5.0 (Linux; Android 12; 22041216C) AppleWebKit/537.36 (KHTML, like Gecko) Chrome/107.0.0.0 Mobile Safari/537.36","WebKit","Chrome","107.0.0.0","AndroidOS","12","null","<div style=""font-size:60px;"">+</div>","null",""
"","","","","","html-button-response","31","122673","0.0-4.0-1.13","11","1","2022-11-27 09:40:32","49aca292d257f58668169b9fbab864ae","120.245.92.252","Mozilla/5.0 (Linux; Android 12; 22041216C) AppleWebKit/537.36 (KHTML, like Gecko) Chrome/107.0.0.0 Mobile Safari/537.36","WebKit","Chrome","107.0.0.0","AndroidOS","12","2525","<p>作为军队的指挥官，你可以选择发射导弹杀死 <strong>3名</strong> 敌国士兵，但会炸毁附近的 <strong>1棵</strong> 敌国树木。</p> <p>树木的照片如下图所示。</p> <p></p> <img src='stimuli/trees/8.png', style='max-width: 30%;'> </img> <p><strong>你是否选择发射武器？</strong></p>","0",""
"","","","","","html-keyboard-response","32","123682","0.0-4.0-0.14","11","1","2022-11-27 09:40:32","49aca292d257f58668169b9fbab864ae","120.245.92.252","Mozilla/5.0 (Linux; Android 12; 22041216C) AppleWebKit/537.36 (KHTML, like Gecko) Chrome/107.0.0.0 Mobile Safari/537.36","WebKit","Chrome","107.0.0.0","AndroidOS","12","null","<div style=""font-size:60px;"">+</div>","null",""
"","","","","","html-button-response","33","125512","0.0-4.0-1.14","11","1","2022-11-27 09:40:32","49aca292d257f58668169b9fbab864ae","120.245.92.252","Mozilla/5.0 (Linux; Android 12; 22041216C) AppleWebKit/537.36 (KHTML, like Gecko) Chrome/107.0.0.0 Mobile Safari/537.36","WebKit","Chrome","107.0.0.0","AndroidOS","12","1815","<p>作为军队的指挥官，你可以选择发射导弹杀死 <strong>10名</strong> 敌国士兵，但会炸毁附近的 <strong>1棵</strong> 敌国树木。</p> <p>树木的照片如下图所示。</p> <p></p> <img src='stimuli/trees/13.png', style='max-width: 30%;'> </img> <p><strong>你是否选择发射武器？</strong></p>","0",""
"","","","","","html-keyboard-response","34","126521","0.0-4.0-0.15","11","1","2022-11-27 09:40:32","49aca292d257f58668169b9fbab864ae","120.245.92.252","Mozilla/5.0 (Linux; Android 12; 22041216C) AppleWebKit/537.36 (KHTML, like Gecko) Chrome/107.0.0.0 Mobile Safari/537.36","WebKit","Chrome","107.0.0.0","AndroidOS","12","null","<div style=""font-size:60px;"">+</div>","null",""
"","","","","","html-button-response","35","128582","0.0-4.0-1.15","11","1","2022-11-27 09:40:32","49aca292d257f58668169b9fbab864ae","120.245.92.252","Mozilla/5.0 (Linux; Android 12; 22041216C) AppleWebKit/537.36 (KHTML, like Gecko) Chrome/107.0.0.0 Mobile Safari/537.36","WebKit","Chrome","107.0.0.0","AndroidOS","12","2043","<p>作为军队的指挥官，你可以选择发射导弹杀死 <strong>4名</strong> 敌国士兵，但会误杀附近的 <strong>1名</strong> 敌国平民。</p> <p>平民照片如下图所示。</p> <p></p> <img src='stimuli/faces/PFM8.jpg', style='max-width: 30%;'> </img> <p><strong>你是否选择发射武器？</strong></p>","1",""
"","","","","","html-keyboard-response","36","129585","0.0-4.0-0.16","11","1","2022-11-27 09:40:32","49aca292d257f58668169b9fbab864ae","120.245.92.252","Mozilla/5.0 (Linux; Android 12; 22041216C) AppleWebKit/537.36 (KHTML, like Gecko) Chrome/107.0.0.0 Mobile Safari/537.36","WebKit","Chrome","107.0.0.0","AndroidOS","12","null","<div style=""font-size:60px;"">+</div>","null",""
"","","","","","html-button-response","37","130908","0.0-4.0-1.16","11","1","2022-11-27 09:40:32","49aca292d257f58668169b9fbab864ae","120.245.92.252","Mozilla/5.0 (Linux; Android 12; 22041216C) AppleWebKit/537.36 (KHTML, like Gecko) Chrome/107.0.0.0 Mobile Safari/537.36","WebKit","Chrome","107.0.0.0","AndroidOS","12","1312","<p>作为军队的指挥官，你可以选择发射导弹杀死 <strong>1名</strong> 敌国士兵，但会误杀附近的 <strong>1名</strong> 敌国平民。</p> <p>平民照片如下图所示。</p> <p></p> <img src='stimuli/faces/PFM6.jpg', style='max-width: 30%;'> </img> <p><strong>你是否选择发射武器？</strong></p>","1",""
"","","","","","html-keyboard-response","38","131914","0.0-4.0-0.17","11","1","2022-11-27 09:40:32","49aca292d257f58668169b9fbab864ae","120.245.92.252","Mozilla/5.0 (Linux; Android 12; 22041216C) AppleWebKit/537.36 (KHTML, like Gecko) Chrome/107.0.0.0 Mobile Safari/537.36","WebKit","Chrome","107.0.0.0","AndroidOS","12","null","<div style=""font-size:60px;"">+</div>","null",""
"","","","","","html-button-response","39","133055","0.0-4.0-1.17","11","1","2022-11-27 09:40:32","49aca292d257f58668169b9fbab864ae","120.245.92.252","Mozilla/5.0 (Linux; Android 12; 22041216C) AppleWebKit/537.36 (KHTML, like Gecko) Chrome/107.0.0.0 Mobile Safari/537.36","WebKit","Chrome","107.0.0.0","AndroidOS","12","1121","<p>作为军队的指挥官，你可以选择发射导弹杀死 <strong>3名</strong> 敌国士兵，但会误杀附近的 <strong>1名</strong> 敌国平民。</p> <p>平民照片如下图所示。</p> <p></p> <img src='stimuli/faces/PFF6.jpg', style='max-width: 30%;'> </img> <p><strong>你是否选择发射武器？</strong></p>","1",""
"","","","","","html-keyboard-response","40","134065","0.0-4.0-0.18","11","1","2022-11-27 09:40:32","49aca292d257f58668169b9fbab864ae","120.245.92.252","Mozilla/5.0 (Linux; Android 12; 22041216C) AppleWebKit/537.36 (KHTML, like Gecko) Chrome/107.0.0.0 Mobile Safari/537.36","WebKit","Chrome","107.0.0.0","AndroidOS","12","null","<div style=""font-size:60px;"">+</div>","null",""
"","","","","","html-button-response","41","136931","0.0-4.0-1.18","11","1","2022-11-27 09:40:32","49aca292d257f58668169b9fbab864ae","120.245.92.252","Mozilla/5.0 (Linux; Android 12; 22041216C) AppleWebKit/537.36 (KHTML, like Gecko) Chrome/107.0.0.0 Mobile Safari/537.36","WebKit","Chrome","107.0.0.0","AndroidOS","12","2853","<p>作为军队的指挥官，你可以选择发射导弹杀死 <strong>9名</strong> 敌国士兵，但会误杀附近的 <strong>1名</strong> 敌国平民。</p> <p>平民照片如下图所示。</p> <p></p> <img src='stimuli/faces/PFM7.jpg', style='max-width: 30%;'> </img> <p><strong>你是否选择发射武器？</strong></p>","1",""
"","","","","","html-keyboard-response","42","137939","0.0-4.0-0.19","11","1","2022-11-27 09:40:32","49aca292d257f58668169b9fbab864ae","120.245.92.252","Mozilla/5.0 (Linux; Android 12; 22041216C) AppleWebKit/537.36 (KHTML, like Gecko) Chrome/107.0.0.0 Mobile Safari/537.36","WebKit","Chrome","107.0.0.0","AndroidOS","12","null","<div style=""font-size:60px;"">+</div>","null",""
"","","","","","html-button-response","43","140781","0.0-4.0-1.19","11","1","2022-11-27 09:40:32","49aca292d257f58668169b9fbab864ae","120.245.92.252","Mozilla/5.0 (Linux; Android 12; 22041216C) AppleWebKit/537.36 (KHTML, like Gecko) Chrome/107.0.0.0 Mobile Safari/537.36","WebKit","Chrome","107.0.0.0","AndroidOS","12","2830","<p>作为军队的指挥官，你可以选择发射导弹杀死 <strong>4名</strong> 敌国士兵，但会炸毁附近的 <strong>1棵</strong> 敌国树木。</p> <p>树木的照片如下图所示。</p> <p></p> <img src='stimuli/trees/6.png', style='max-width: 30%;'> </img> <p><strong>你是否选择发射武器？</strong></p>","0",""
"","","","","","html-keyboard-response","44","141786","0.0-4.0-0.20","11","1","2022-11-27 09:40:32","49aca292d257f58668169b9fbab864ae","120.245.92.252","Mozilla/5.0 (Linux; Android 12; 22041216C) AppleWebKit/537.36 (KHTML, like Gecko) Chrome/107.0.0.0 Mobile Safari/537.36","WebKit","Chrome","107.0.0.0","AndroidOS","12","null","<div style=""font-size:60px;"">+</div>","null",""
"","","","","","html-button-response","45","143549","0.0-4.0-1.20","11","1","2022-11-27 09:40:32","49aca292d257f58668169b9fbab864ae","120.245.92.252","Mozilla/5.0 (Linux; Android 12; 22041216C) AppleWebKit/537.36 (KHTML, like Gecko) Chrome/107.0.0.0 Mobile Safari/537.36","WebKit","Chrome","107.0.0.0","AndroidOS","12","1747","<p>作为军队的指挥官，你可以选择发射导弹杀死 <strong>10名</strong> 敌国士兵，但会误杀附近的 <strong>1名</strong> 敌国平民。</p> <p>平民照片如下图所示。</p> <p></p> <img src='stimuli/faces/PFF5.jpg', style='max-width: 30%;'> </img> <p><strong>你是否选择发射武器？</strong></p>","1",""
"","","","","","html-keyboard-response","46","144554","0.0-4.0-0.21","11","1","2022-11-27 09:40:32","49aca292d257f58668169b9fbab864ae","120.245.92.252","Mozilla/5.0 (Linux; Android 12; 22041216C) AppleWebKit/537.36 (KHTML, like Gecko) Chrome/107.0.0.0 Mobile Safari/537.36","WebKit","Chrome","107.0.0.0","AndroidOS","12","null","<div style=""font-size:60px;"">+</div>","null",""
"","","","","","html-button-response","47","148819","0.0-4.0-1.21","11","1","2022-11-27 09:40:32","49aca292d257f58668169b9fbab864ae","120.245.92.252","Mozilla/5.0 (Linux; Android 12; 22041216C) AppleWebKit/537.36 (KHTML, like Gecko) Chrome/107.0.0.0 Mobile Safari/537.36","WebKit","Chrome","107.0.0.0","AndroidOS","12","4251","<p>作为军队的指挥官，你可以选择发射导弹杀死 <strong>7名</strong> 敌国士兵，但会炸毁附近的 <strong>1棵</strong> 敌国树木。</p> <p>树木的照片如下图所示。</p> <p></p> <img src='stimuli/trees/5.png', style='max-width: 30%;'> </img> <p><strong>你是否选择发射武器？</strong></p>","1",""
"","","","","","html-keyboard-response","48","149825","0.0-4.0-0.22","11","1","2022-11-27 09:40:32","49aca292d257f58668169b9fbab864ae","120.245.92.252","Mozilla/5.0 (Linux; Android 12; 22041216C) AppleWebKit/537.36 (KHTML, like Gecko) Chrome/107.0.0.0 Mobile Safari/537.36","WebKit","Chrome","107.0.0.0","AndroidOS","12","null","<div style=""font-size:60px;"">+</div>","null",""
"","","","","","html-button-response","49","162265","0.0-4.0-1.22","11","1","2022-11-27 09:40:32","49aca292d257f58668169b9fbab864ae","120.245.92.252","Mozilla/5.0 (Linux; Android 12; 22041216C) AppleWebKit/537.36 (KHTML, like Gecko) Chrome/107.0.0.0 Mobile Safari/537.36","WebKit","Chrome","107.0.0.0","AndroidOS","12","12419","<p>作为军队的指挥官，你可以选择发射导弹杀死 <strong>2名</strong> 敌国士兵，但会炸毁附近的 <strong>1棵</strong> 敌国树木。</p> <p>树木的照片如下图所示。</p> <p></p> <img src='stimuli/trees/14.png', style='max-width: 30%;'> </img> <p><strong>你是否选择发射武器？</strong></p>","1",""
"","","","","","html-keyboard-response","50","163276","0.0-4.0-0.23","11","1","2022-11-27 09:40:32","49aca292d257f58668169b9fbab864ae","120.245.92.252","Mozilla/5.0 (Linux; Android 12; 22041216C) AppleWebKit/537.36 (KHTML, like Gecko) Chrome/107.0.0.0 Mobile Safari/537.36","WebKit","Chrome","107.0.0.0","AndroidOS","12","null","<div style=""font-size:60px;"">+</div>","null",""
"","","","","","html-button-response","51","165164","0.0-4.0-1.23","11","1","2022-11-27 09:40:32","49aca292d257f58668169b9fbab864ae","120.245.92.252","Mozilla/5.0 (Linux; Android 12; 22041216C) AppleWebKit/537.36 (KHTML, like Gecko) Chrome/107.0.0.0 Mobile Safari/537.36","WebKit","Chrome","107.0.0.0","AndroidOS","12","1864","<p>作为军队的指挥官，你可以选择发射导弹杀死 <strong>8名</strong> 敌国士兵，但会误杀附近的 <strong>1名</strong> 敌国平民。</p> <p>平民照片如下图所示。</p> <p></p> <img src='stimuli/faces/PFM2.jpg', style='max-width: 30%;'> </img> <p><strong>你是否选择发射武器？</strong></p>","1",""
"","","","","","html-keyboard-response","52","166169","0.0-4.0-0.24","11","1","2022-11-27 09:40:32","49aca292d257f58668169b9fbab864ae","120.245.92.252","Mozilla/5.0 (Linux; Android 12; 22041216C) AppleWebKit/537.36 (KHTML, like Gecko) Chrome/107.0.0.0 Mobile Safari/537.36","WebKit","Chrome","107.0.0.0","AndroidOS","12","null","<div style=""font-size:60px;"">+</div>","null",""
"","","","","","html-button-response","53","167717","0.0-4.0-1.24","11","1","2022-11-27 09:40:32","49aca292d257f58668169b9fbab864ae","120.245.92.252","Mozilla/5.0 (Linux; Android 12; 22041216C) AppleWebKit/537.36 (KHTML, like Gecko) Chrome/107.0.0.0 Mobile Safari/537.36","WebKit","Chrome","107.0.0.0","AndroidOS","12","1536","<p>作为军队的指挥官，你可以选择发射导弹杀死 <strong>3名</strong> 敌国士兵，但会误杀附近的 <strong>1名</strong> 敌国平民。</p> <p>平民照片如下图所示。</p> <p></p> <img src='stimuli/faces/PFF7.jpg', style='max-width: 30%;'> </img> <p><strong>你是否选择发射武器？</strong></p>","1",""
"","","","","","html-keyboard-response","54","168722","0.0-4.0-0.25","11","1","2022-11-27 09:40:32","49aca292d257f58668169b9fbab864ae","120.245.92.252","Mozilla/5.0 (Linux; Android 12; 22041216C) AppleWebKit/537.36 (KHTML, like Gecko) Chrome/107.0.0.0 Mobile Safari/537.36","WebKit","Chrome","107.0.0.0","AndroidOS","12","null","<div style=""font-size:60px;"">+</div>","null",""
"","","","","","html-button-response","55","170713","0.0-4.0-1.25","11","1","2022-11-27 09:40:32","49aca292d257f58668169b9fbab864ae","120.245.92.252","Mozilla/5.0 (Linux; Android 12; 22041216C) AppleWebKit/537.36 (KHTML, like Gecko) Chrome/107.0.0.0 Mobile Safari/537.36","WebKit","Chrome","107.0.0.0","AndroidOS","12","1973","<p>作为军队的指挥官，你可以选择发射导弹杀死 <strong>7名</strong> 敌国士兵，但会炸毁附近的 <strong>1棵</strong> 敌国树木。</p> <p>树木的照片如下图所示。</p> <p></p> <img src='stimuli/trees/14.png', style='max-width: 30%;'> </img> <p><strong>你是否选择发射武器？</strong></p>","0",""
"","","","","","html-keyboard-response","56","171720","0.0-4.0-0.26","11","1","2022-11-27 09:40:32","49aca292d257f58668169b9fbab864ae","120.245.92.252","Mozilla/5.0 (Linux; Android 12; 22041216C) AppleWebKit/537.36 (KHTML, like Gecko) Chrome/107.0.0.0 Mobile Safari/537.36","WebKit","Chrome","107.0.0.0","AndroidOS","12","null","<div style=""font-size:60px;"">+</div>","null",""
"","","","","","html-button-response","57","175865","0.0-4.0-1.26","11","1","2022-11-27 09:40:32","49aca292d257f58668169b9fbab864ae","120.245.92.252","Mozilla/5.0 (Linux; Android 12; 22041216C) AppleWebKit/537.36 (KHTML, like Gecko) Chrome/107.0.0.0 Mobile Safari/537.36","WebKit","Chrome","107.0.0.0","AndroidOS","12","4139","<p>作为军队的指挥官，你可以选择发射导弹杀死 <strong>6名</strong> 敌国士兵，但会误杀附近的 <strong>1名</strong> 敌国平民。</p> <p>平民照片如下图所示。</p> <p></p> <img src='stimuli/faces/PFM4.jpg', style='max-width: 30%;'> </img> <p><strong>你是否选择发射武器？</strong></p>","1",""
"","","","","","html-keyboard-response","58","176874","0.0-4.0-0.27","11","1","2022-11-27 09:40:32","49aca292d257f58668169b9fbab864ae","120.245.92.252","Mozilla/5.0 (Linux; Android 12; 22041216C) AppleWebKit/537.36 (KHTML, like Gecko) Chrome/107.0.0.0 Mobile Safari/537.36","WebKit","Chrome","107.0.0.0","AndroidOS","12","null","<div style=""font-size:60px;"">+</div>","null",""
"","","","","","html-button-response","59","178019","0.0-4.0-1.27","11","1","2022-11-27 09:40:32","49aca292d257f58668169b9fbab864ae","120.245.92.252","Mozilla/5.0 (Linux; Android 12; 22041216C) AppleWebKit/537.36 (KHTML, like Gecko) Chrome/107.0.0.0 Mobile Safari/537.36","WebKit","Chrome","107.0.0.0","AndroidOS","12","1124","<p>作为军队的指挥官，你可以选择发射导弹杀死 <strong>10名</strong> 敌国士兵，但会误杀附近的 <strong>1名</strong> 敌国平民。</p> <p>平民照片如下图所示。</p> <p></p> <img src='stimuli/faces/PFM1.jpg', style='max-width: 30%;'> </img> <p><strong>你是否选择发射武器？</strong></p>","1",""
"","","","","","html-keyboard-response","60","179026","0.0-4.0-0.28","11","1","2022-11-27 09:40:32","49aca292d257f58668169b9fbab864ae","120.245.92.252","Mozilla/5.0 (Linux; Android 12; 22041216C) AppleWebKit/537.36 (KHTML, like Gecko) Chrome/107.0.0.0 Mobile Safari/537.36","WebKit","Chrome","107.0.0.0","AndroidOS","12","null","<div style=""font-size:60px;"">+</div>","null",""
"","","","","","html-button-response","61","180545","0.0-4.0-1.28","11","1","2022-11-27 09:40:32","49aca292d257f58668169b9fbab864ae","120.245.92.252","Mozilla/5.0 (Linux; Android 12; 22041216C) AppleWebKit/537.36 (KHTML, like Gecko) Chrome/107.0.0.0 Mobile Safari/537.36","WebKit","Chrome","107.0.0.0","AndroidOS","12","1497","<p>作为军队的指挥官，你可以选择发射导弹杀死 <strong>10名</strong> 敌国士兵，但会炸毁附近的 <strong>1棵</strong> 敌国树木。</p> <p>树木的照片如下图所示。</p> <p></p> <img src='stimuli/trees/8.png', style='max-width: 30%;'> </img> <p><strong>你是否选择发射武器？</strong></p>","0",""
"","","","","","html-keyboard-response","62","181553","0.0-4.0-0.29","11","1","2022-11-27 09:40:32","49aca292d257f58668169b9fbab864ae","120.245.92.252","Mozilla/5.0 (Linux; Android 12; 22041216C) AppleWebKit/537.36 (KHTML, like Gecko) Chrome/107.0.0.0 Mobile Safari/537.36","WebKit","Chrome","107.0.0.0","AndroidOS","12","null","<div style=""font-size:60px;"">+</div>","null",""
"","","","","","html-button-response","63","182443","0.0-4.0-1.29","11","1","2022-11-27 09:40:32","49aca292d257f58668169b9fbab864ae","120.245.92.252","Mozilla/5.0 (Linux; Android 12; 22041216C) AppleWebKit/537.36 (KHTML, like Gecko) Chrome/107.0.0.0 Mobile Safari/537.36","WebKit","Chrome","107.0.0.0","AndroidOS","12","865","<p>作为军队的指挥官，你可以选择发射导弹杀死 <strong>4名</strong> 敌国士兵，但会误杀附近的 <strong>1名</strong> 敌国平民。</p> <p>平民照片如下图所示。</p> <p></p> <img src='stimuli/faces/PFF5.jpg', style='max-width: 30%;'> </img> <p><strong>你是否选择发射武器？</strong></p>","1",""
"","","","","","html-keyboard-response","64","183449","0.0-4.0-0.30","11","1","2022-11-27 09:40:32","49aca292d257f58668169b9fbab864ae","120.245.92.252","Mozilla/5.0 (Linux; Android 12; 22041216C) AppleWebKit/537.36 (KHTML, like Gecko) Chrome/107.0.0.0 Mobile Safari/537.36","WebKit","Chrome","107.0.0.0","AndroidOS","12","null","<div style=""font-size:60px;"">+</div>","null",""
"","","","","","html-button-response","65","185410","0.0-4.0-1.30","11","1","2022-11-27 09:40:32","49aca292d257f58668169b9fbab864ae","120.245.92.252","Mozilla/5.0 (Linux; Android 12; 22041216C) AppleWebKit/537.36 (KHTML, like Gecko) Chrome/107.0.0.0 Mobile Safari/537.36","WebKit","Chrome","107.0.0.0","AndroidOS","12","1942","<p>作为军队的指挥官，你可以选择发射导弹杀死 <strong>1名</strong> 敌国士兵，但会误杀附近的 <strong>1名</strong> 敌国平民。</p> <p>平民照片如下图所示。</p> <p></p> <img src='stimuli/faces/PFM3.jpg', style='max-width: 30%;'> </img> <p><strong>你是否选择发射武器？</strong></p>","1",""
"","","","","","html-keyboard-response","66","186417","0.0-4.0-0.31","11","1","2022-11-27 09:40:32","49aca292d257f58668169b9fbab864ae","120.245.92.252","Mozilla/5.0 (Linux; Android 12; 22041216C) AppleWebKit/537.36 (KHTML, like Gecko) Chrome/107.0.0.0 Mobile Safari/537.36","WebKit","Chrome","107.0.0.0","AndroidOS","12","null","<div style=""font-size:60px;"">+</div>","null",""
"","","","","","html-button-response","67","187542","0.0-4.0-1.31","11","1","2022-11-27 09:40:32","49aca292d257f58668169b9fbab864ae","120.245.92.252","Mozilla/5.0 (Linux; Android 12; 22041216C) AppleWebKit/537.36 (KHTML, like Gecko) Chrome/107.0.0.0 Mobile Safari/537.36","WebKit","Chrome","107.0.0.0","AndroidOS","12","1100","<p>作为军队的指挥官，你可以选择发射导弹杀死 <strong>5名</strong> 敌国士兵，但会误杀附近的 <strong>1名</strong> 敌国平民。</p> <p>平民照片如下图所示。</p> <p></p> <img src='stimuli/faces/PFM1.jpg', style='max-width: 30%;'> </img> <p><strong>你是否选择发射武器？</strong></p>","1",""
"","","","","","html-keyboard-response","68","188553","0.0-4.0-0.32","11","1","2022-11-27 09:40:32","49aca292d257f58668169b9fbab864ae","120.245.92.252","Mozilla/5.0 (Linux; Android 12; 22041216C) AppleWebKit/537.36 (KHTML, like Gecko) Chrome/107.0.0.0 Mobile Safari/537.36","WebKit","Chrome","107.0.0.0","AndroidOS","12","null","<div style=""font-size:60px;"">+</div>","null",""
"","","","","","html-button-response","69","190543","0.0-4.0-1.32","11","1","2022-11-27 09:40:32","49aca292d257f58668169b9fbab864ae","120.245.92.252","Mozilla/5.0 (Linux; Android 12; 22041216C) AppleWebKit/537.36 (KHTML, like Gecko) Chrome/107.0.0.0 Mobile Safari/537.36","WebKit","Chrome","107.0.0.0","AndroidOS","12","1973","<p>作为军队的指挥官，你可以选择发射导弹杀死 <strong>2名</strong> 敌国士兵，但会炸毁附近的 <strong>1棵</strong> 敌国树木。</p> <p>树木的照片如下图所示。</p> <p></p> <img src='stimuli/trees/13.png', style='max-width: 30%;'> </img> <p><strong>你是否选择发射武器？</strong></p>","0",""
"","","","","","html-keyboard-response","70","191553","0.0-4.0-0.33","11","1","2022-11-27 09:40:32","49aca292d257f58668169b9fbab864ae","120.245.92.252","Mozilla/5.0 (Linux; Android 12; 22041216C) AppleWebKit/537.36 (KHTML, like Gecko) Chrome/107.0.0.0 Mobile Safari/537.36","WebKit","Chrome","107.0.0.0","AndroidOS","12","null","<div style=""font-size:60px;"">+</div>","null",""
"","","","","","html-button-response","71","193157","0.0-4.0-1.33","11","1","2022-11-27 09:40:32","49aca292d257f58668169b9fbab864ae","120.245.92.252","Mozilla/5.0 (Linux; Android 12; 22041216C) AppleWebKit/537.36 (KHTML, like Gecko) Chrome/107.0.0.0 Mobile Safari/537.36","WebKit","Chrome","107.0.0.0","AndroidOS","12","1585","<p>作为军队的指挥官，你可以选择发射导弹杀死 <strong>7名</strong> 敌国士兵，但会误杀附近的 <strong>1名</strong> 敌国平民。</p> <p>平民照片如下图所示。</p> <p></p> <img src='stimuli/faces/PFF1.jpg', style='max-width: 30%;'> </img> <p><strong>你是否选择发射武器？</strong></p>","1",""
"","","","","","html-keyboard-response","72","194163","0.0-4.0-0.34","11","1","2022-11-27 09:40:32","49aca292d257f58668169b9fbab864ae","120.245.92.252","Mozilla/5.0 (Linux; Android 12; 22041216C) AppleWebKit/537.36 (KHTML, like Gecko) Chrome/107.0.0.0 Mobile Safari/537.36","WebKit","Chrome","107.0.0.0","AndroidOS","12","null","<div style=""font-size:60px;"">+</div>","null",""
"","","","","","html-button-response","73","196052","0.0-4.0-1.34","11","1","2022-11-27 09:40:32","49aca292d257f58668169b9fbab864ae","120.245.92.252","Mozilla/5.0 (Linux; Android 12; 22041216C) AppleWebKit/537.36 (KHTML, like Gecko) Chrome/107.0.0.0 Mobile Safari/537.36","WebKit","Chrome","107.0.0.0","AndroidOS","12","1859","<p>作为军队的指挥官，你可以选择发射导弹杀死 <strong>6名</strong> 敌国士兵，但会炸毁附近的 <strong>1棵</strong> 敌国树木。</p> <p>树木的照片如下图所示。</p> <p></p> <img src='stimuli/trees/4.png', style='max-width: 30%;'> </img> <p><strong>你是否选择发射武器？</strong></p>","1",""
"","","","","","html-keyboard-response","74","197059","0.0-4.0-0.35","11","1","2022-11-27 09:40:32","49aca292d257f58668169b9fbab864ae","120.245.92.252","Mozilla/5.0 (Linux; Android 12; 22041216C) AppleWebKit/537.36 (KHTML, like Gecko) Chrome/107.0.0.0 Mobile Safari/537.36","WebKit","Chrome","107.0.0.0","AndroidOS","12","null","<div style=""font-size:60px;"">+</div>","null",""
"","","","","","html-button-response","75","198828","0.0-4.0-1.35","11","1","2022-11-27 09:40:32","49aca292d257f58668169b9fbab864ae","120.245.92.252","Mozilla/5.0 (Linux; Android 12; 22041216C) AppleWebKit/537.36 (KHTML, like Gecko) Chrome/107.0.0.0 Mobile Safari/537.36","WebKit","Chrome","107.0.0.0","AndroidOS","12","1753","<p>作为军队的指挥官，你可以选择发射导弹杀死 <strong>7名</strong> 敌国士兵，但会炸毁附近的 <strong>1棵</strong> 敌国树木。</p> <p>树木的照片如下图所示。</p> <p></p> <img src='stimuli/trees/10.png', style='max-width: 30%;'> </img> <p><strong>你是否选择发射武器？</strong></p>","1",""
"","","","","","html-keyboard-response","76","199833","0.0-4.0-0.36","11","1","2022-11-27 09:40:32","49aca292d257f58668169b9fbab864ae","120.245.92.252","Mozilla/5.0 (Linux; Android 12; 22041216C) AppleWebKit/537.36 (KHTML, like Gecko) Chrome/107.0.0.0 Mobile Safari/537.36","WebKit","Chrome","107.0.0.0","AndroidOS","12","null","<div style=""font-size:60px;"">+</div>","null",""
"","","","","","html-button-response","77","201896","0.0-4.0-1.36","11","1","2022-11-27 09:40:32","49aca292d257f58668169b9fbab864ae","120.245.92.252","Mozilla/5.0 (Linux; Android 12; 22041216C) AppleWebKit/537.36 (KHTML, like Gecko) Chrome/107.0.0.0 Mobile Safari/537.36","WebKit","Chrome","107.0.0.0","AndroidOS","12","2034","<p>作为军队的指挥官，你可以选择发射导弹杀死 <strong>6名</strong> 敌国士兵，但会误杀附近的 <strong>1名</strong> 敌国平民。</p> <p>平民照片如下图所示。</p> <p></p> <img src='stimuli/faces/PFM5.jpg', style='max-width: 30%;'> </img> <p><strong>你是否选择发射武器？</strong></p>","1",""
"","","","","","html-keyboard-response","78","202904","0.0-4.0-0.37","11","1","2022-11-27 09:40:32","49aca292d257f58668169b9fbab864ae","120.245.92.252","Mozilla/5.0 (Linux; Android 12; 22041216C) AppleWebKit/537.36 (KHTML, like Gecko) Chrome/107.0.0.0 Mobile Safari/537.36","WebKit","Chrome","107.0.0.0","AndroidOS","12","null","<div style=""font-size:60px;"">+</div>","null",""
"","","","","","html-button-response","79","204065","0.0-4.0-1.37","11","1","2022-11-27 09:40:32","49aca292d257f58668169b9fbab864ae","120.245.92.252","Mozilla/5.0 (Linux; Android 12; 22041216C) AppleWebKit/537.36 (KHTML, like Gecko) Chrome/107.0.0.0 Mobile Safari/537.36","WebKit","Chrome","107.0.0.0","AndroidOS","12","1143","<p>作为军队的指挥官，你可以选择发射导弹杀死 <strong>1名</strong> 敌国士兵，但会炸毁附近的 <strong>1棵</strong> 敌国树木。</p> <p>树木的照片如下图所示。</p> <p></p> <img src='stimuli/trees/3.png', style='max-width: 30%;'> </img> <p><strong>你是否选择发射武器？</strong></p>","1",""
"","","","","","html-keyboard-response","80","205073","0.0-4.0-0.38","11","1","2022-11-27 09:40:32","49aca292d257f58668169b9fbab864ae","120.245.92.252","Mozilla/5.0 (Linux; Android 12; 22041216C) AppleWebKit/537.36 (KHTML, like Gecko) Chrome/107.0.0.0 Mobile Safari/537.36","WebKit","Chrome","107.0.0.0","AndroidOS","12","null","<div style=""font-size:60px;"">+</div>","null",""
"","","","","","html-button-response","81","205917","0.0-4.0-1.38","11","1","2022-11-27 09:40:32","49aca292d257f58668169b9fbab864ae","120.245.92.252","Mozilla/5.0 (Linux; Android 12; 22041216C) AppleWebKit/537.36 (KHTML, like Gecko) Chrome/107.0.0.0 Mobile Safari/537.36","WebKit","Chrome","107.0.0.0","AndroidOS","12","816","<p>作为军队的指挥官，你可以选择发射导弹杀死 <strong>5名</strong> 敌国士兵，但会炸毁附近的 <strong>1棵</strong> 敌国树木。</p> <p>树木的照片如下图所示。</p> <p></p> <img src='stimuli/trees/5.png', style='max-width: 30%;'> </img> <p><strong>你是否选择发射武器？</strong></p>","0",""
"","","","","","html-keyboard-response","82","206930","0.0-4.0-0.39","11","1","2022-11-27 09:40:32","49aca292d257f58668169b9fbab864ae","120.245.92.252","Mozilla/5.0 (Linux; Android 12; 22041216C) AppleWebKit/537.36 (KHTML, like Gecko) Chrome/107.0.0.0 Mobile Safari/537.36","WebKit","Chrome","107.0.0.0","AndroidOS","12","null","<div style=""font-size:60px;"">+</div>","null",""
"","","","","","html-button-response","83","208032","0.0-4.0-1.39","11","1","2022-11-27 09:40:32","49aca292d257f58668169b9fbab864ae","120.245.92.252","Mozilla/5.0 (Linux; Android 12; 22041216C) AppleWebKit/537.36 (KHTML, like Gecko) Chrome/107.0.0.0 Mobile Safari/537.36","WebKit","Chrome","107.0.0.0","AndroidOS","12","1088","<p>作为军队的指挥官，你可以选择发射导弹杀死 <strong>9名</strong> 敌国士兵，但会炸毁附近的 <strong>1棵</strong> 敌国树木。</p> <p>树木的照片如下图所示。</p> <p></p> <img src='stimuli/trees/15.png', style='max-width: 30%;'> </img> <p><strong>你是否选择发射武器？</strong></p>","0",""
"","","","","","html-keyboard-response","84","209041","0.0-4.0-0.40","11","1","2022-11-27 09:40:32","49aca292d257f58668169b9fbab864ae","120.245.92.252","Mozilla/5.0 (Linux; Android 12; 22041216C) AppleWebKit/537.36 (KHTML, like Gecko) Chrome/107.0.0.0 Mobile Safari/537.36","WebKit","Chrome","107.0.0.0","AndroidOS","12","null","<div style=""font-size:60px;"">+</div>","null",""
"","","","","","html-button-response","85","214436","0.0-4.0-1.40","11","1","2022-11-27 09:40:32","49aca292d257f58668169b9fbab864ae","120.245.92.252","Mozilla/5.0 (Linux; Android 12; 22041216C) AppleWebKit/537.36 (KHTML, like Gecko) Chrome/107.0.0.0 Mobile Safari/537.36","WebKit","Chrome","107.0.0.0","AndroidOS","12","5369","<p>作为军队的指挥官，你可以选择发射导弹杀死 <strong>5名</strong> 敌国士兵，但会炸毁附近的 <strong>1棵</strong> 敌国树木。</p> <p>树木的照片如下图所示。</p> <p></p> <img src='stimuli/trees/4.png', style='max-width: 30%;'> </img> <p><strong>你是否选择发射武器？</strong></p>","0",""
"","","","","","html-keyboard-response","86","215441","0.0-4.0-0.41","11","1","2022-11-27 09:40:32","49aca292d257f58668169b9fbab864ae","120.245.92.252","Mozilla/5.0 (Linux; Android 12; 22041216C) AppleWebKit/537.36 (KHTML, like Gecko) Chrome/107.0.0.0 Mobile Safari/537.36","WebKit","Chrome","107.0.0.0","AndroidOS","12","null","<div style=""font-size:60px;"">+</div>","null",""
"","","","","","html-button-response","87","216668","0.0-4.0-1.41","11","1","2022-11-27 09:40:32","49aca292d257f58668169b9fbab864ae","120.245.92.252","Mozilla/5.0 (Linux; Android 12; 22041216C) AppleWebKit/537.36 (KHTML, like Gecko) Chrome/107.0.0.0 Mobile Safari/537.36","WebKit","Chrome","107.0.0.0","AndroidOS","12","1204","<p>作为军队的指挥官，你可以选择发射导弹杀死 <strong>6名</strong> 敌国士兵，但会误杀附近的 <strong>1名</strong> 敌国平民。</p> <p>平民照片如下图所示。</p> <p></p> <img src='stimuli/faces/PFM3.jpg', style='max-width: 30%;'> </img> <p><strong>你是否选择发射武器？</strong></p>","1",""
"","","","","","html-keyboard-response","88","217674","0.0-4.0-0.42","11","1","2022-11-27 09:40:32","49aca292d257f58668169b9fbab864ae","120.245.92.252","Mozilla/5.0 (Linux; Android 12; 22041216C) AppleWebKit/537.36 (KHTML, like Gecko) Chrome/107.0.0.0 Mobile Safari/537.36","WebKit","Chrome","107.0.0.0","AndroidOS","12","null","<div style=""font-size:60px;"">+</div>","null",""
"","","","","","html-button-response","89","219991","0.0-4.0-1.42","11","1","2022-11-27 09:40:32","49aca292d257f58668169b9fbab864ae","120.245.92.252","Mozilla/5.0 (Linux; Android 12; 22041216C) AppleWebKit/537.36 (KHTML, like Gecko) Chrome/107.0.0.0 Mobile Safari/537.36","WebKit","Chrome","107.0.0.0","AndroidOS","12","2292","<p>作为军队的指挥官，你可以选择发射导弹杀死 <strong>3名</strong> 敌国士兵，但会误杀附近的 <strong>1名</strong> 敌国平民。</p> <p>平民照片如下图所示。</p> <p></p> <img src='stimuli/faces/PFF3.jpg', style='max-width: 30%;'> </img> <p><strong>你是否选择发射武器？</strong></p>","1",""
"","","","","","html-keyboard-response","90","221001","0.0-4.0-0.43","11","1","2022-11-27 09:40:32","49aca292d257f58668169b9fbab864ae","120.245.92.252","Mozilla/5.0 (Linux; Android 12; 22041216C) AppleWebKit/537.36 (KHTML, like Gecko) Chrome/107.0.0.0 Mobile Safari/537.36","WebKit","Chrome","107.0.0.0","AndroidOS","12","null","<div style=""font-size:60px;"">+</div>","null",""
"","","","","","html-button-response","91","222082","0.0-4.0-1.43","11","1","2022-11-27 09:40:32","49aca292d257f58668169b9fbab864ae","120.245.92.252","Mozilla/5.0 (Linux; Android 12; 22041216C) AppleWebKit/537.36 (KHTML, like Gecko) Chrome/107.0.0.0 Mobile Safari/537.36","WebKit","Chrome","107.0.0.0","AndroidOS","12","1061","<p>作为军队的指挥官，你可以选择发射导弹杀死 <strong>6名</strong> 敌国士兵，但会炸毁附近的 <strong>1棵</strong> 敌国树木。</p> <p>树木的照片如下图所示。</p> <p></p> <img src='stimuli/trees/6.png', style='max-width: 30%;'> </img> <p><strong>你是否选择发射武器？</strong></p>","0",""
"","","","","","html-keyboard-response","92","223090","0.0-4.0-0.44","11","1","2022-11-27 09:40:32","49aca292d257f58668169b9fbab864ae","120.245.92.252","Mozilla/5.0 (Linux; Android 12; 22041216C) AppleWebKit/537.36 (KHTML, like Gecko) Chrome/107.0.0.0 Mobile Safari/537.36","WebKit","Chrome","107.0.0.0","AndroidOS","12","null","<div style=""font-size:60px;"">+</div>","null",""
"","","","","","html-button-response","93","223879","0.0-4.0-1.44","11","1","2022-11-27 09:40:32","49aca292d257f58668169b9fbab864ae","120.245.92.252","Mozilla/5.0 (Linux; Android 12; 22041216C) AppleWebKit/537.36 (KHTML, like Gecko) Chrome/107.0.0.0 Mobile Safari/537.36","WebKit","Chrome","107.0.0.0","AndroidOS","12","767","<p>作为军队的指挥官，你可以选择发射导弹杀死 <strong>3名</strong> 敌国士兵，但会误杀附近的 <strong>1名</strong> 敌国平民。</p> <p>平民照片如下图所示。</p> <p></p> <img src='stimuli/faces/PFM2.jpg', style='max-width: 30%;'> </img> <p><strong>你是否选择发射武器？</strong></p>","1",""
"","","","","","html-keyboard-response","94","224891","0.0-4.0-0.45","11","1","2022-11-27 09:40:32","49aca292d257f58668169b9fbab864ae","120.245.92.252","Mozilla/5.0 (Linux; Android 12; 22041216C) AppleWebKit/537.36 (KHTML, like Gecko) Chrome/107.0.0.0 Mobile Safari/537.36","WebKit","Chrome","107.0.0.0","AndroidOS","12","null","<div style=""font-size:60px;"">+</div>","null",""
"","","","","","html-button-response","95","225678","0.0-4.0-1.45","11","1","2022-11-27 09:40:32","49aca292d257f58668169b9fbab864ae","120.245.92.252","Mozilla/5.0 (Linux; Android 12; 22041216C) AppleWebKit/537.36 (KHTML, like Gecko) Chrome/107.0.0.0 Mobile Safari/537.36","WebKit","Chrome","107.0.0.0","AndroidOS","12","765","<p>作为军队的指挥官，你可以选择发射导弹杀死 <strong>4名</strong> 敌国士兵，但会误杀附近的 <strong>1名</strong> 敌国平民。</p> <p>平民照片如下图所示。</p> <p></p> <img src='stimuli/faces/PFM7.jpg', style='max-width: 30%;'> </img> <p><strong>你是否选择发射武器？</strong></p>","1",""
"","","","","","html-keyboard-response","96","226688","0.0-4.0-0.46","11","1","2022-11-27 09:40:32","49aca292d257f58668169b9fbab864ae","120.245.92.252","Mozilla/5.0 (Linux; Android 12; 22041216C) AppleWebKit/537.36 (KHTML, like Gecko) Chrome/107.0.0.0 Mobile Safari/537.36","WebKit","Chrome","107.0.0.0","AndroidOS","12","null","<div style=""font-size:60px;"">+</div>","null",""
"","","","","","html-button-response","97","227413","0.0-4.0-1.46","11","1","2022-11-27 09:40:32","49aca292d257f58668169b9fbab864ae","120.245.92.252","Mozilla/5.0 (Linux; Android 12; 22041216C) AppleWebKit/537.36 (KHTML, like Gecko) Chrome/107.0.0.0 Mobile Safari/537.36","WebKit","Chrome","107.0.0.0","AndroidOS","12","718","<p>作为军队的指挥官，你可以选择发射导弹杀死 <strong>10名</strong> 敌国士兵，但会误杀附近的 <strong>1名</strong> 敌国平民。</p> <p>平民照片如下图所示。</p> <p></p> <img src='stimuli/faces/PFF2.jpg', style='max-width: 30%;'> </img> <p><strong>你是否选择发射武器？</strong></p>","1",""
"","","","","","html-keyboard-response","98","228425","0.0-4.0-0.47","11","1","2022-11-27 09:40:32","49aca292d257f58668169b9fbab864ae","120.245.92.252","Mozilla/5.0 (Linux; Android 12; 22041216C) AppleWebKit/537.36 (KHTML, like Gecko) Chrome/107.0.0.0 Mobile Safari/537.36","WebKit","Chrome","107.0.0.0","AndroidOS","12","null","<div style=""font-size:60px;"">+</div>","null",""
"","","","","","html-button-response","99","230048","0.0-4.0-1.47","11","1","2022-11-27 09:40:32","49aca292d257f58668169b9fbab864ae","120.245.92.252","Mozilla/5.0 (Linux; Android 12; 22041216C) AppleWebKit/537.36 (KHTML, like Gecko) Chrome/107.0.0.0 Mobile Safari/537.36","WebKit","Chrome","107.0.0.0","AndroidOS","12","1615","<p>作为军队的指挥官，你可以选择发射导弹杀死 <strong>10名</strong> 敌国士兵，但会炸毁附近的 <strong>1棵</strong> 敌国树木。</p> <p>树木的照片如下图所示。</p> <p></p> <img src='stimuli/trees/2.png', style='max-width: 30%;'> </img> <p><strong>你是否选择发射武器？</strong></p>","0",""
"","","","","","html-keyboard-response","100","231057","0.0-4.0-0.48","11","1","2022-11-27 09:40:32","49aca292d257f58668169b9fbab864ae","120.245.92.252","Mozilla/5.0 (Linux; Android 12; 22041216C) AppleWebKit/537.36 (KHTML, like Gecko) Chrome/107.0.0.0 Mobile Safari/537.36","WebKit","Chrome","107.0.0.0","AndroidOS","12","null","<div style=""font-size:60px;"">+</div>","null",""
"","","","","","html-button-response","101","231718","0.0-4.0-1.48","11","1","2022-11-27 09:40:32","49aca292d257f58668169b9fbab864ae","120.245.92.252","Mozilla/5.0 (Linux; Android 12; 22041216C) AppleWebKit/537.36 (KHTML, like Gecko) Chrome/107.0.0.0 Mobile Safari/537.36","WebKit","Chrome","107.0.0.0","AndroidOS","12","638","<p>作为军队的指挥官，你可以选择发射导弹杀死 <strong>6名</strong> 敌国士兵，但会炸毁附近的 <strong>1棵</strong> 敌国树木。</p> <p>树木的照片如下图所示。</p> <p></p> <img src='stimuli/trees/9.png', style='max-width: 30%;'> </img> <p><strong>你是否选择发射武器？</strong></p>","0",""
"","","","","","html-keyboard-response","102","232729","0.0-4.0-0.49","11","1","2022-11-27 09:40:32","49aca292d257f58668169b9fbab864ae","120.245.92.252","Mozilla/5.0 (Linux; Android 12; 22041216C) AppleWebKit/537.36 (KHTML, like Gecko) Chrome/107.0.0.0 Mobile Safari/537.36","WebKit","Chrome","107.0.0.0","AndroidOS","12","null","<div style=""font-size:60px;"">+</div>","null",""
"","","","","","html-button-response","103","233735","0.0-4.0-1.49","11","1","2022-11-27 09:40:32","49aca292d257f58668169b9fbab864ae","120.245.92.252","Mozilla/5.0 (Linux; Android 12; 22041216C) AppleWebKit/537.36 (KHTML, like Gecko) Chrome/107.0.0.0 Mobile Safari/537.36","WebKit","Chrome","107.0.0.0","AndroidOS","12","976","<p>作为军队的指挥官，你可以选择发射导弹杀死 <strong>8名</strong> 敌国士兵，但会误杀附近的 <strong>1名</strong> 敌国平民。</p> <p>平民照片如下图所示。</p> <p></p> <img src='stimuli/faces/PFM6.jpg', style='max-width: 30%;'> </img> <p><strong>你是否选择发射武器？</strong></p>","1",""
"","","","","","html-keyboard-response","104","234746","0.0-4.0-0.50","11","1","2022-11-27 09:40:32","49aca292d257f58668169b9fbab864ae","120.245.92.252","Mozilla/5.0 (Linux; Android 12; 22041216C) AppleWebKit/537.36 (KHTML, like Gecko) Chrome/107.0.0.0 Mobile Safari/537.36","WebKit","Chrome","107.0.0.0","AndroidOS","12","null","<div style=""font-size:60px;"">+</div>","null",""
"","","","","","html-button-response","105","235835","0.0-4.0-1.50","11","1","2022-11-27 09:40:32","49aca292d257f58668169b9fbab864ae","120.245.92.252","Mozilla/5.0 (Linux; Android 12; 22041216C) AppleWebKit/537.36 (KHTML, like Gecko) Chrome/107.0.0.0 Mobile Safari/537.36","WebKit","Chrome","107.0.0.0","AndroidOS","12","1070","<p>作为军队的指挥官，你可以选择发射导弹杀死 <strong>9名</strong> 敌国士兵，但会误杀附近的 <strong>1名</strong> 敌国平民。</p> <p>平民照片如下图所示。</p> <p></p> <img src='stimuli/faces/PFF7.jpg', style='max-width: 30%;'> </img> <p><strong>你是否选择发射武器？</strong></p>","1",""
"","","","","","html-keyboard-response","106","236841","0.0-4.0-0.51","11","1","2022-11-27 09:40:32","49aca292d257f58668169b9fbab864ae","120.245.92.252","Mozilla/5.0 (Linux; Android 12; 22041216C) AppleWebKit/537.36 (KHTML, like Gecko) Chrome/107.0.0.0 Mobile Safari/537.36","WebKit","Chrome","107.0.0.0","AndroidOS","12","null","<div style=""font-size:60px;"">+</div>","null",""
"","","","","","html-button-response","107","241297","0.0-4.0-1.51","11","1","2022-11-27 09:40:32","49aca292d257f58668169b9fbab864ae","120.245.92.252","Mozilla/5.0 (Linux; Android 12; 22041216C) AppleWebKit/537.36 (KHTML, like Gecko) Chrome/107.0.0.0 Mobile Safari/537.36","WebKit","Chrome","107.0.0.0","AndroidOS","12","4432","<p>作为军队的指挥官，你可以选择发射导弹杀死 <strong>5名</strong> 敌国士兵，但会炸毁附近的 <strong>1棵</strong> 敌国树木。</p> <p>树木的照片如下图所示。</p> <p></p> <img src='stimuli/trees/11.png', style='max-width: 30%;'> </img> <p><strong>你是否选择发射武器？</strong></p>","1",""
"","","","","","html-keyboard-response","108","242305","0.0-4.0-0.52","11","1","2022-11-27 09:40:32","49aca292d257f58668169b9fbab864ae","120.245.92.252","Mozilla/5.0 (Linux; Android 12; 22041216C) AppleWebKit/537.36 (KHTML, like Gecko) Chrome/107.0.0.0 Mobile Safari/537.36","WebKit","Chrome","107.0.0.0","AndroidOS","12","null","<div style=""font-size:60px;"">+</div>","null",""
"","","","","","html-button-response","109","243373","0.0-4.0-1.52","11","1","2022-11-27 09:40:32","49aca292d257f58668169b9fbab864ae","120.245.92.252","Mozilla/5.0 (Linux; Android 12; 22041216C) AppleWebKit/537.36 (KHTML, like Gecko) Chrome/107.0.0.0 Mobile Safari/537.36","WebKit","Chrome","107.0.0.0","AndroidOS","12","1037","<p>作为军队的指挥官，你可以选择发射导弹杀死 <strong>9名</strong> 敌国士兵，但会误杀附近的 <strong>1名</strong> 敌国平民。</p> <p>平民照片如下图所示。</p> <p></p> <img src='stimuli/faces/PFF3.jpg', style='max-width: 30%;'> </img> <p><strong>你是否选择发射武器？</strong></p>","1",""
"","","","","","html-keyboard-response","110","244379","0.0-4.0-0.53","11","1","2022-11-27 09:40:32","49aca292d257f58668169b9fbab864ae","120.245.92.252","Mozilla/5.0 (Linux; Android 12; 22041216C) AppleWebKit/537.36 (KHTML, like Gecko) Chrome/107.0.0.0 Mobile Safari/537.36","WebKit","Chrome","107.0.0.0","AndroidOS","12","null","<div style=""font-size:60px;"">+</div>","null",""
"","","","","","html-button-response","111","247230","0.0-4.0-1.53","11","1","2022-11-27 09:40:32","49aca292d257f58668169b9fbab864ae","120.245.92.252","Mozilla/5.0 (Linux; Android 12; 22041216C) AppleWebKit/537.36 (KHTML, like Gecko) Chrome/107.0.0.0 Mobile Safari/537.36","WebKit","Chrome","107.0.0.0","AndroidOS","12","2825","<p>作为军队的指挥官，你可以选择发射导弹杀死 <strong>1名</strong> 敌国士兵，但会炸毁附近的 <strong>1棵</strong> 敌国树木。</p> <p>树木的照片如下图所示。</p> <p></p> <img src='stimuli/trees/1.png', style='max-width: 30%;'> </img> <p><strong>你是否选择发射武器？</strong></p>","1",""
"","","","","","html-keyboard-response","112","248242","0.0-4.0-0.54","11","1","2022-11-27 09:40:32","49aca292d257f58668169b9fbab864ae","120.245.92.252","Mozilla/5.0 (Linux; Android 12; 22041216C) AppleWebKit/537.36 (KHTML, like Gecko) Chrome/107.0.0.0 Mobile Safari/537.36","WebKit","Chrome","107.0.0.0","AndroidOS","12","null","<div style=""font-size:60px;"">+</div>","null",""
"","","","","","html-button-response","113","249568","0.0-4.0-1.54","11","1","2022-11-27 09:40:32","49aca292d257f58668169b9fbab864ae","120.245.92.252","Mozilla/5.0 (Linux; Android 12; 22041216C) AppleWebKit/537.36 (KHTML, like Gecko) Chrome/107.0.0.0 Mobile Safari/537.36","WebKit","Chrome","107.0.0.0","AndroidOS","12","1297","<p>作为军队的指挥官，你可以选择发射导弹杀死 <strong>6名</strong> 敌国士兵，但会炸毁附近的 <strong>1棵</strong> 敌国树木。</p> <p>树木的照片如下图所示。</p> <p></p> <img src='stimuli/trees/3.png', style='max-width: 30%;'> </img> <p><strong>你是否选择发射武器？</strong></p>","0",""
"","","","","","html-keyboard-response","114","250577","0.0-4.0-0.55","11","1","2022-11-27 09:40:32","49aca292d257f58668169b9fbab864ae","120.245.92.252","Mozilla/5.0 (Linux; Android 12; 22041216C) AppleWebKit/537.36 (KHTML, like Gecko) Chrome/107.0.0.0 Mobile Safari/537.36","WebKit","Chrome","107.0.0.0","AndroidOS","12","null","<div style=""font-size:60px;"">+</div>","null",""
"","","","","","html-button-response","115","251441","0.0-4.0-1.55","11","1","2022-11-27 09:40:32","49aca292d257f58668169b9fbab864ae","120.245.92.252","Mozilla/5.0 (Linux; Android 12; 22041216C) AppleWebKit/537.36 (KHTML, like Gecko) Chrome/107.0.0.0 Mobile Safari/537.36","WebKit","Chrome","107.0.0.0","AndroidOS","12","840","<p>作为军队的指挥官，你可以选择发射导弹杀死 <strong>10名</strong> 敌国士兵，但会炸毁附近的 <strong>1棵</strong> 敌国树木。</p> <p>树木的照片如下图所示。</p> <p></p> <img src='stimuli/trees/1.png', style='max-width: 30%;'> </img> <p><strong>你是否选择发射武器？</strong></p>","1",""
"","","","","","html-keyboard-response","116","252449","0.0-4.0-0.56","11","1","2022-11-27 09:40:32","49aca292d257f58668169b9fbab864ae","120.245.92.252","Mozilla/5.0 (Linux; Android 12; 22041216C) AppleWebKit/537.36 (KHTML, like Gecko) Chrome/107.0.0.0 Mobile Safari/537.36","WebKit","Chrome","107.0.0.0","AndroidOS","12","null","<div style=""font-size:60px;"">+</div>","null",""
"","","","","","html-button-response","117","253584","0.0-4.0-1.56","11","1","2022-11-27 09:40:32","49aca292d257f58668169b9fbab864ae","120.245.92.252","Mozilla/5.0 (Linux; Android 12; 22041216C) AppleWebKit/537.36 (KHTML, like Gecko) Chrome/107.0.0.0 Mobile Safari/537.36","WebKit","Chrome","107.0.0.0","AndroidOS","12","1107","<p>作为军队的指挥官，你可以选择发射导弹杀死 <strong>4名</strong> 敌国士兵，但会误杀附近的 <strong>1名</strong> 敌国平民。</p> <p>平民照片如下图所示。</p> <p></p> <img src='stimuli/faces/PFF8.jpg', style='max-width: 30%;'> </img> <p><strong>你是否选择发射武器？</strong></p>","1",""
"","","","","","html-keyboard-response","118","254593","0.0-4.0-0.57","11","1","2022-11-27 09:40:32","49aca292d257f58668169b9fbab864ae","120.245.92.252","Mozilla/5.0 (Linux; Android 12; 22041216C) AppleWebKit/537.36 (KHTML, like Gecko) Chrome/107.0.0.0 Mobile Safari/537.36","WebKit","Chrome","107.0.0.0","AndroidOS","12","null","<div style=""font-size:60px;"">+</div>","null",""
"","","","","","html-button-response","119","257645","0.0-4.0-1.57","11","1","2022-11-27 09:40:32","49aca292d257f58668169b9fbab864ae","120.245.92.252","Mozilla/5.0 (Linux; Android 12; 22041216C) AppleWebKit/537.36 (KHTML, like Gecko) Chrome/107.0.0.0 Mobile Safari/537.36","WebKit","Chrome","107.0.0.0","AndroidOS","12","3024","<p>作为军队的指挥官，你可以选择发射导弹杀死 <strong>3名</strong> 敌国士兵，但会炸毁附近的 <strong>1棵</strong> 敌国树木。</p> <p>树木的照片如下图所示。</p> <p></p> <img src='stimuli/trees/2.png', style='max-width: 30%;'> </img> <p><strong>你是否选择发射武器？</strong></p>","0",""
"","","","","","html-keyboard-response","120","258650","0.0-4.0-0.58","11","1","2022-11-27 09:40:32","49aca292d257f58668169b9fbab864ae","120.245.92.252","Mozilla/5.0 (Linux; Android 12; 22041216C) AppleWebKit/537.36 (KHTML, like Gecko) Chrome/107.0.0.0 Mobile Safari/537.36","WebKit","Chrome","107.0.0.0","AndroidOS","12","null","<div style=""font-size:60px;"">+</div>","null",""
"","","","","","html-button-response","121","260305","0.0-4.0-1.58","11","1","2022-11-27 09:40:32","49aca292d257f58668169b9fbab864ae","120.245.92.252","Mozilla/5.0 (Linux; Android 12; 22041216C) AppleWebKit/537.36 (KHTML, like Gecko) Chrome/107.0.0.0 Mobile Safari/537.36","WebKit","Chrome","107.0.0.0","AndroidOS","12","1631","<p>作为军队的指挥官，你可以选择发射导弹杀死 <strong>5名</strong> 敌国士兵，但会误杀附近的 <strong>1名</strong> 敌国平民。</p> <p>平民照片如下图所示。</p> <p></p> <img src='stimuli/faces/PFF4.jpg', style='max-width: 30%;'> </img> <p><strong>你是否选择发射武器？</strong></p>","1",""
"","","","","","html-keyboard-response","122","261321","0.0-4.0-0.59","11","1","2022-11-27 09:40:32","49aca292d257f58668169b9fbab864ae","120.245.92.252","Mozilla/5.0 (Linux; Android 12; 22041216C) AppleWebKit/537.36 (KHTML, like Gecko) Chrome/107.0.0.0 Mobile Safari/537.36","WebKit","Chrome","107.0.0.0","AndroidOS","12","null","<div style=""font-size:60px;"">+</div>","null",""
"","","","","","html-button-response","123","262472","0.0-4.0-1.59","11","1","2022-11-27 09:40:32","49aca292d257f58668169b9fbab864ae","120.245.92.252","Mozilla/5.0 (Linux; Android 12; 22041216C) AppleWebKit/537.36 (KHTML, like Gecko) Chrome/107.0.0.0 Mobile Safari/537.36","WebKit","Chrome","107.0.0.0","AndroidOS","12","1133","<p>作为军队的指挥官，你可以选择发射导弹杀死 <strong>7名</strong> 敌国士兵，但会炸毁附近的 <strong>1棵</strong> 敌国树木。</p> <p>树木的照片如下图所示。</p> <p></p> <img src='stimuli/trees/7.png', style='max-width: 30%;'> </img> <p><strong>你是否选择发射武器？</strong></p>","0",""
"","","","","","html-keyboard-response","124","263481","0.0-4.0-0.60","11","1","2022-11-27 09:40:32","49aca292d257f58668169b9fbab864ae","120.245.92.252","Mozilla/5.0 (Linux; Android 12; 22041216C) AppleWebKit/537.36 (KHTML, like Gecko) Chrome/107.0.0.0 Mobile Safari/537.36","WebKit","Chrome","107.0.0.0","AndroidOS","12","null","<div style=""font-size:60px;"">+</div>","null",""
"","","","","","html-button-response","125","264470","0.0-4.0-1.60","11","1","2022-11-27 09:40:32","49aca292d257f58668169b9fbab864ae","120.245.92.252","Mozilla/5.0 (Linux; Android 12; 22041216C) AppleWebKit/537.36 (KHTML, like Gecko) Chrome/107.0.0.0 Mobile Safari/537.36","WebKit","Chrome","107.0.0.0","AndroidOS","12","963","<p>作为军队的指挥官，你可以选择发射导弹杀死 <strong>9名</strong> 敌国士兵，但会炸毁附近的 <strong>1棵</strong> 敌国树木。</p> <p>树木的照片如下图所示。</p> <p></p> <img src='stimuli/trees/11.png', style='max-width: 30%;'> </img> <p><strong>你是否选择发射武器？</strong></p>","1",""
"","","","","","html-keyboard-response","126","265482","0.0-4.0-0.61","11","1","2022-11-27 09:40:32","49aca292d257f58668169b9fbab864ae","120.245.92.252","Mozilla/5.0 (Linux; Android 12; 22041216C) AppleWebKit/537.36 (KHTML, like Gecko) Chrome/107.0.0.0 Mobile Safari/537.36","WebKit","Chrome","107.0.0.0","AndroidOS","12","null","<div style=""font-size:60px;"">+</div>","null",""
"","","","","","html-button-response","127","267034","0.0-4.0-1.61","11","1","2022-11-27 09:40:32","49aca292d257f58668169b9fbab864ae","120.245.92.252","Mozilla/5.0 (Linux; Android 12; 22041216C) AppleWebKit/537.36 (KHTML, like Gecko) Chrome/107.0.0.0 Mobile Safari/537.36","WebKit","Chrome","107.0.0.0","AndroidOS","12","1528","<p>作为军队的指挥官，你可以选择发射导弹杀死 <strong>3名</strong> 敌国士兵，但会误杀附近的 <strong>1名</strong> 敌国平民。</p> <p>平民照片如下图所示。</p> <p></p> <img src='stimuli/faces/PFF1.jpg', style='max-width: 30%;'> </img> <p><strong>你是否选择发射武器？</strong></p>","1",""
"","","","","","html-keyboard-response","128","268041","0.0-4.0-0.62","11","1","2022-11-27 09:40:32","49aca292d257f58668169b9fbab864ae","120.245.92.252","Mozilla/5.0 (Linux; Android 12; 22041216C) AppleWebKit/537.36 (KHTML, like Gecko) Chrome/107.0.0.0 Mobile Safari/537.36","WebKit","Chrome","107.0.0.0","AndroidOS","12","null","<div style=""font-size:60px;"">+</div>","null",""
"","","","","","html-button-response","129","268656","0.0-4.0-1.62","11","1","2022-11-27 09:40:32","49aca292d257f58668169b9fbab864ae","120.245.92.252","Mozilla/5.0 (Linux; Android 12; 22041216C) AppleWebKit/537.36 (KHTML, like Gecko) Chrome/107.0.0.0 Mobile Safari/537.36","WebKit","Chrome","107.0.0.0","AndroidOS","12","585","<p>作为军队的指挥官，你可以选择发射导弹杀死 <strong>7名</strong> 敌国士兵，但会误杀附近的 <strong>1名</strong> 敌国平民。</p> <p>平民照片如下图所示。</p> <p></p> <img src='stimuli/faces/PFF8.jpg', style='max-width: 30%;'> </img> <p><strong>你是否选择发射武器？</strong></p>","1",""
"","","","","","html-keyboard-response","130","269665","0.0-4.0-0.63","11","1","2022-11-27 09:40:32","49aca292d257f58668169b9fbab864ae","120.245.92.252","Mozilla/5.0 (Linux; Android 12; 22041216C) AppleWebKit/537.36 (KHTML, like Gecko) Chrome/107.0.0.0 Mobile Safari/537.36","WebKit","Chrome","107.0.0.0","AndroidOS","12","null","<div style=""font-size:60px;"">+</div>","null",""
"","","","","","html-button-response","131","270571","0.0-4.0-1.63","11","1","2022-11-27 09:40:32","49aca292d257f58668169b9fbab864ae","120.245.92.252","Mozilla/5.0 (Linux; Android 12; 22041216C) AppleWebKit/537.36 (KHTML, like Gecko) Chrome/107.0.0.0 Mobile Safari/537.36","WebKit","Chrome","107.0.0.0","AndroidOS","12","876","<p>作为军队的指挥官，你可以选择发射导弹杀死 <strong>5名</strong> 敌国士兵，但会误杀附近的 <strong>1名</strong> 敌国平民。</p> <p>平民照片如下图所示。</p> <p></p> <img src='stimuli/faces/PFF2.jpg', style='max-width: 30%;'> </img> <p><strong>你是否选择发射武器？</strong></p>","1",""
"","","","","","survey-multi-choice","132","296658","0.0-5.0","11","1","2022-11-27 09:40:32","49aca292d257f58668169b9fbab864ae","120.245.92.252","Mozilla/5.0 (Linux; Android 12; 22041216C) AppleWebKit/537.36 (KHTML, like Gecko) Chrome/107.0.0.0 Mobile Safari/537.36","WebKit","Chrome","107.0.0.0","AndroidOS","12","26076","","{""Attention1"":""""}","[0]"
"","","","","","html-button-response","133","299996","0.0-6.0","11","1","2022-11-27 09:40:32","49aca292d257f58668169b9fbab864ae","120.245.92.252","Mozilla/5.0 (Linux; Android 12; 22041216C) AppleWebKit/537.36 (KHTML, like Gecko) Chrome/107.0.0.0 Mobile Safari/537.36","WebKit","Chrome","107.0.0.0","AndroidOS","12","3330","<p style=""font-size:20px;font-weight:bold;"">恭喜！</p><p>你已经完成了实验的第一部分。</p><p>请休息放松一下，然后进入第二部分。</p><p>这部分大约需要10分钟。</p>","0",""
"","","","","","survey-text","134","324606","0.0-7.0","11","1","2022-11-27 09:40:32","49aca292d257f58668169b9fbab864ae","120.245.92.252","Mozilla/5.0 (Linux; Android 12; 22041216C) AppleWebKit/537.36 (KHTML, like Gecko) Chrome/107.0.0.0 Mobile Safari/537.36","WebKit","Chrome","107.0.0.0","AndroidOS","12","23559","","{""Age"":""23"",""Nation"":""中国"",""Born"":""黑龙江省"",""Live"":""北京市"",""Ethnic"":""汉族"",""Alipay"":""13664585564""}",""
"","","","","","survey-multi-choice","135","343529","0.0-8.0","11","1","2022-11-27 09:40:32","49aca292d257f58668169b9fbab864ae","120.245.92.252","Mozilla/5.0 (Linux; Android 12; 22041216C) AppleWebKit/537.36 (KHTML, like Gecko) Chrome/107.0.0.0 Mobile Safari/537.36","WebKit","Chrome","107.0.0.0","AndroidOS","12","18916","","{""Gender"":""女"",""Education"":""硕士研究生毕业"",""Income"":""￥0-￥34,999"",""Children"":""0"",""Race"":""亚洲人""}","[0,1,2,3,4]"
"","","","","","survey-multi-select","136","363826","0.0-9.0","11","1","2022-11-27 09:40:32","49aca292d257f58668169b9fbab864ae","120.245.92.252","Mozilla/5.0 (Linux; Android 12; 22041216C) AppleWebKit/537.36 (KHTML, like Gecko) Chrome/107.0.0.0 Mobile Safari/537.36","WebKit","Chrome","107.0.0.0","AndroidOS","12","20274","","{""Marriage"":[""未婚""],""Religion"":[""无神论者""]}","[0,1]"
"","","","","","survey-multi-choice","137","377504","0.0-10.0","11","1","2022-11-27 09:40:32","49aca292d257f58668169b9fbab864ae","120.245.92.252","Mozilla/5.0 (Linux; Android 12; 22041216C) AppleWebKit/537.36 (KHTML, like Gecko) Chrome/107.0.0.0 Mobile Safari/537.36","WebKit","Chrome","107.0.0.0","AndroidOS","12","13671","","{""SES"":""2""}","[0]"
"","","","","","html-button-response","138","382597","0.0-11.0","11","1","2022-11-27 09:40:32","49aca292d257f58668169b9fbab864ae","120.245.92.252","Mozilla/5.0 (Linux; Android 12; 22041216C) AppleWebKit/537.36 (KHTML, like Gecko) Chrome/107.0.0.0 Mobile Safari/537.36","WebKit","Chrome","107.0.0.0","AndroidOS","12","5085","<p><strong>请判断下列陈述在多大程度上可以形容你？</p><p> (1 = ""和我一点都不像"" to 5 = ""非常像我"".)</strong></p>","0",""
"","","","","","survey-likert","139","408880","0.0-12.0","11","1","2022-11-27 09:40:32","49aca292d257f58668169b9fbab864ae","120.245.92.252","Mozilla/5.0 (Linux; Android 12; 22041216C) AppleWebKit/537.36 (KHTML, like Gecko) Chrome/107.0.0.0 Mobile Safari/537.36","WebKit","Chrome","107.0.0.0","AndroidOS","12","26274","","{""Aggression1"":4,""Aggression2"":0,""Aggression3"":3,""Aggression4"":2,""Aggression5"":3,""Aggression6"":4,""Aggression7"":0,""Aggression8"":0,""Aggression9"":4}","[0,1,2,3,4,5,6,7,8]"
"","","","","","html-button-response","140","410681","0.0-13.0","11","1","2022-11-27 09:40:32","49aca292d257f58668169b9fbab864ae","120.245.92.252","Mozilla/5.0 (Linux; Android 12; 22041216C) AppleWebKit/537.36 (KHTML, like Gecko) Chrome/107.0.0.0 Mobile Safari/537.36","WebKit","Chrome","107.0.0.0","AndroidOS","12","1794","<p><strong>请判断你在多大程度上同意下列陈述。</strong></p>","0",""
"","","","","","survey-likert","141","523465","0.0-14.0","11","1","2022-11-27 09:40:32","49aca292d257f58668169b9fbab864ae","120.245.92.252","Mozilla/5.0 (Linux; Android 12; 22041216C) AppleWebKit/537.36 (KHTML, like Gecko) Chrome/107.0.0.0 Mobile Safari/537.36","WebKit","Chrome","107.0.0.0","AndroidOS","12","112774","","{""scale24"":3,""scale6"":4,""scale20"":4,""scale19"":1,""scale13"":2,""scale7"":0,""scale2"":4,""scale14"":1,""scale5"":4,""scale18"":1,""scale23"":4,""scale8"":1,""scale17"":4,""scale25"":0,""scale9"":4,""scale4"":1,""scale11"":3,""scale10"":4,""scale21"":1,""scale16"":4,""scale1"":4,""scale27"":4,""scale28"":3,""scale15"":4,""scale26"":4,""scale22"":3,""scale12"":0,""scale3"":4}","[23,5,19,18,12,6,1,13,4,17,22,7,16,24,8,3,10,9,20,15,0,26,27,14,25,21,11,2]"
"","","","","","html-button-response","142","525155","0.0-15.0","11","1","2022-11-27 09:40:32","49aca292d257f58668169b9fbab864ae","120.245.92.252","Mozilla/5.0 (Linux; Android 12; 22041216C) AppleWebKit/537.36 (KHTML, like Gecko) Chrome/107.0.0.0 Mobile Safari/537.36","WebKit","Chrome","107.0.0.0","AndroidOS","12","1682","<p><strong>请判断你在多大程度上同意下列陈述。</strong></p>","0",""
"","","","","","survey-likert","143","590562","0.0-16.0","11","1","2022-11-27 09:40:32","49aca292d257f58668169b9fbab864ae","120.245.92.252","Mozilla/5.0 (Linux; Android 12; 22041216C) AppleWebKit/537.36 (KHTML, like Gecko) Chrome/107.0.0.0 Mobile Safari/537.36","WebKit","Chrome","107.0.0.0","AndroidOS","12","65398","","{""sdo5"":0,""sdo10"":6,""sdo16"":6,""sdo12"":6,""sdo7"":0,""sdo1"":0,""sdo11"":6,""sdo15"":5,""sdo6"":0,""sdo9"":6,""sdo14"":6,""sdo13"":6,""sdo3"":4,""sdo4"":4,""sdo2"":0,""sdo8"":0}","[4,9,15,11,6,0,10,14,5,8,13,12,2,3,1,7]"
"","","","","","html-button-response","144","591801","0.0-17.0","11","1","2022-11-27 09:40:32","49aca292d257f58668169b9fbab864ae","120.245.92.252","Mozilla/5.0 (Linux; Android 12; 22041216C) AppleWebKit/537.36 (KHTML, like Gecko) Chrome/107.0.0.0 Mobile Safari/537.36","WebKit","Chrome","107.0.0.0","AndroidOS","12","1230","<p><strong>请判断你在多大程度上同意下列陈述。</strong></p>","0",""
"","","","","","survey-likert","145","631713","0.0-18.0","11","1","2022-11-27 09:40:32","49aca292d257f58668169b9fbab864ae","120.245.92.252","Mozilla/5.0 (Linux; Android 12; 22041216C) AppleWebKit/537.36 (KHTML, like Gecko) Chrome/107.0.0.0 Mobile Safari/537.36","WebKit","Chrome","107.0.0.0","AndroidOS","12","39905","","{""caring1"":0,""liking1"":4,""caring2"":0,""protection1"":3,""liking2"":4,""caring3"":0,""protection2"":2,""liking3"":4,""protection3"":0,""caring4"":0,""liking4"":4,""protection4"":2,""caring5"":0,""liking5"":0,""protection5"":2}","[0,1,2,3,4,5,6,7,8,9,10,11,12,13,14]"
"","","","","","html-button-response","146","632986","0.0-19.0","11","1","2022-11-27 09:40:32","49aca292d257f58668169b9fbab864ae","120.245.92.252","Mozilla/5.0 (Linux; Android 12; 22041216C) AppleWebKit/537.36 (KHTML, like Gecko) Chrome/107.0.0.0 Mobile Safari/537.36","WebKit","Chrome","107.0.0.0","AndroidOS","12","1265","<p><strong>请判断下列场景中你的内心感受有多柔软。</strong></p>","0",""
"","","","","","survey-likert","147","669682","0.0-20.0","11","1","2022-11-27 09:40:32","49aca292d257f58668169b9fbab864ae","120.245.92.252","Mozilla/5.0 (Linux; Android 12; 22041216C) AppleWebKit/537.36 (KHTML, like Gecko) Chrome/107.0.0.0 Mobile Safari/537.36","WebKit","Chrome","107.0.0.0","AndroidOS","12","36690","","{""tenderness-positive1"":0,""tenderness-negative1"":1,""tenderness-negative2"":0,""tenderness-positive2"":0,""tenderness-positive3"":0,""tenderness-negative3"":0,""tenderness-positive4"":4,""tenderness-negative4"":3,""tenderness-negative5"":1,""tenderness-positive5"":4}","[0,1,2,3,4,5,6,7,8,9]"
"","","","","","survey-multi-choice","148","676449","0.0-21.0","11","1","2022-11-27 09:40:32","49aca292d257f58668169b9fbab864ae","120.245.92.252","Mozilla/5.0 (Linux; Android 12; 22041216C) AppleWebKit/537.36 (KHTML, like Gecko) Chrome/107.0.0.0 Mobile Safari/537.36","WebKit","Chrome","107.0.0.0","AndroidOS","12","6759","","{""Attention2"":""其他""}","[0]"
"","","","","","html-button-response","149","677760","0.0-22.0","11","1","2022-11-27 09:40:32","49aca292d257f58668169b9fbab864ae","120.245.92.252","Mozilla/5.0 (Linux; Android 12; 22041216C) AppleWebKit/537.36 (KHTML, like Gecko) Chrome/107.0.0.0 Mobile Safari/537.36","WebKit","Chrome","107.0.0.0","AndroidOS","12","1302","<p><strong>请判断你在多大程度上同意下列陈述。</strong></p>","0",""
"","","","","","survey-likert","150","749490","0.0-23.0","11","1","2022-11-27 09:40:32","49aca292d257f58668169b9fbab864ae","120.245.92.252","Mozilla/5.0 (Linux; Android 12; 22041216C) AppleWebKit/537.36 (KHTML, like Gecko) Chrome/107.0.0.0 Mobile Safari/537.36","WebKit","Chrome","107.0.0.0","AndroidOS","12","71722","","{""Patri7"":0,""Patri8"":0,""Nation3"":0,""Patri9"":4,""Nation6"":0,""Nation5"":0,""Patri2"":0,""Patri1"":0,""Patri12"":4,""Patri6"":4,""Patri5"":0,""Patri11"":4,""Nation1"":0,""Patri10"":4,""Patri3"":0,""Nation2"":0,""Nation8"":4,""Patri4"":0,""Nation7"":0,""Nation4"":0}","[6,7,14,8,17,16,1,0,11,5,4,10,12,9,2,13,19,3,18,15]"
"","","","","","html-button-response","151","750803","0.0-24.0","11","1","2022-11-27 09:40:32","49aca292d257f58668169b9fbab864ae","120.245.92.252","Mozilla/5.0 (Linux; Android 12; 22041216C) AppleWebKit/537.36 (KHTML, like Gecko) Chrome/107.0.0.0 Mobile Safari/537.36","WebKit","Chrome","107.0.0.0","AndroidOS","12","1304","<p><strong>请判断你在多大程度上同意下列陈述。</strong></p>","0",""
"","","","","","survey-likert","152","832620","0.0-25.0","11","1","2022-11-27 09:40:32","49aca292d257f58668169b9fbab864ae","120.245.92.252","Mozilla/5.0 (Linux; Android 12; 22041216C) AppleWebKit/537.36 (KHTML, like Gecko) Chrome/107.0.0.0 Mobile Safari/537.36","WebKit","Chrome","107.0.0.0","AndroidOS","12","81807","","{""hi3"":5,""vc3"":2,""vc1"":5,""hc4"":5,""hc1"":5,""hc3"":2,""vi1"":6,""hc2"":6,""vi4"":8,""vc4"":0,""hi4"":8,""hi1"":6,""vc2"":2,""vi3"":5,""Robot"":6,""hi2"":7,""vi2"":0}","[2,15,13,12,9,11,4,10,8,16,3,0,14,6,7,1,5]"
"","","","","","survey-text","153","836564","0.0-26.0","11","1","2022-11-27 09:40:32","49aca292d257f58668169b9fbab864ae","120.245.92.252","Mozilla/5.0 (Linux; Android 12; 22041216C) AppleWebKit/537.36 (KHTML, like Gecko) Chrome/107.0.0.0 Mobile Safari/537.36","WebKit","Chrome","107.0.0.0","AndroidOS","12","3926","","{""Comments"":""""}",""
"","","","","","html-button-response","154","837616","0.0-27.0","11","1","2022-11-27 09:40:32","49aca292d257f58668169b9fbab864ae","120.245.92.252","Mozilla/5.0 (Linux; Android 12; 22041216C) AppleWebKit/537.36 (KHTML, like Gecko) Chrome/107.0.0.0 Mobile Safari/537.36","WebKit","Chrome","107.0.0.0","AndroidOS","12","1049","<strong><p>恭喜你完成了实验！</p><p>感谢您的参与。</p></strong>","0",""
