"success","timeout","failed_images","failed_audio","failed_video","trial_type","trial_index","time_elapsed","internal_node_id","run_id","condition","recorded_at","source_code_version","ip","user_agent","device","browser","browser_version","platform","platform_version","rt","stimulus","response","question_order"
"true","false","[]","[]","[]","preload","0","2239","0.0-0.0","15","1","2022-11-27 09:40:41","49aca292d257f58668169b9fbab864ae","39.184.71.231","Mozilla/5.0 (Linux; U; Android 12; zh-cn; Mi 10 Build/SKQ1.211006.001) AppleWebKit/537.36 (KHTML, like Gecko) Version/4.0 Chrome/100.0.4896.127 Mobile Safari/537.36 XiaoMi/MiuiBrowser/17.1.8 swan-mibrowser","Xiaomi","Chrome","100.0.4896.127","AndroidOS","12","","","",""
"true","","","","","fullscreen","1","16688","0.0-1.0","15","1","2022-11-27 09:40:41","49aca292d257f58668169b9fbab864ae","39.184.71.231","Mozilla/5.0 (Linux; U; Android 12; zh-cn; Mi 10 Build/SKQ1.211006.001) AppleWebKit/537.36 (KHTML, like Gecko) Version/4.0 Chrome/100.0.4896.127 Mobile Safari/537.36 XiaoMi/MiuiBrowser/17.1.8 swan-mibrowser","Xiaomi","Chrome","100.0.4896.127","AndroidOS","12","","","",""
"","","","","","html-button-response","2","401551","0.0-2.0","15","1","2022-11-27 09:40:41","49aca292d257f58668169b9fbab864ae","39.184.71.231","Mozilla/5.0 (Linux; U; Android 12; zh-cn; Mi 10 Build/SKQ1.211006.001) AppleWebKit/537.36 (KHTML, like Gecko) Version/4.0 Chrome/100.0.4896.127 Mobile Safari/537.36 XiaoMi/MiuiBrowser/17.1.8 swan-mibrowser","Xiaomi","Chrome","100.0.4896.127","AndroidOS","12","384788","<p style=""font-size:20px;font-weight:bold;"">实验知情同意书</p><p style=""text-align:left;""><strong>实验名称：</strong>社会冲突研究</p><p style=""text-align:left;""><strong>主要研究者：</strong>韩晓春副教授（北京师范大学心理学部）</p><p style=""text-align:left;""><strong>联系方式：</strong>发送邮件至xiaochun.han@bnu.edu.cn</p><p style=""text-align:left;""><strong>研究目的：</strong>研究旨在了解人类面对群体冲突时的决策方式，以及相关的心理学特质。实验调查大约需要20分钟。</p><p style=""text-align:left;""><strong>实验流程：</strong>实验包含两部分。第一部分呈现一系列群体冲突场景，请你决定如何对这些冲突进行反应，大约需要10分钟完成。第二部分包含一系列人口统计学信息收集和心理学问卷，大约需要10分钟完成。</p><p style=""text-align:left;""><strong>参加及退出规则：</strong>参加本实验完全取决于您的个人意愿。在参与过程中，您可以随时退出，并且不用承担任何后果。</p><p style=""text-align:left;""><strong>隐私：</strong>本实验完全匿名进行，不会收集您的姓名或其他能够识别您身份的信息。实验中收集的作答仅用作科学研究使用，可能会在学术期刊/书籍上发表，或者用于教学，您的数据未来可能会和其他研究者或实验室分享，但您的个人身份不会被识别。</p><p style=""text-align:left;""><strong>实验报酬：</strong>实验完成后，您将获得15元人民币报酬，以感谢您的时间和努力。调查问卷中包含几道题目用以测验您作答时的认真度。只有完成全部实验，并且正确回答认真度测验的被试才能获得实验报酬。实验报酬将通过支付宝转账发放。</p><p style=""text-align:left;font-size:20px;""><strong>如果您同意以上实验知情同意书的内容，请点击'同意并且开始实验'按钮；否则请关闭浏览器界面，退出实验。</strong></p>","0",""
"","","","","","html-button-response","3","403901","0.0-3.0","15","1","2022-11-27 09:40:41","49aca292d257f58668169b9fbab864ae","39.184.71.231","Mozilla/5.0 (Linux; U; Android 12; zh-cn; Mi 10 Build/SKQ1.211006.001) AppleWebKit/537.36 (KHTML, like Gecko) Version/4.0 Chrome/100.0.4896.127 Mobile Safari/537.36 XiaoMi/MiuiBrowser/17.1.8 swan-mibrowser","Xiaomi","Chrome","100.0.4896.127","AndroidOS","12","2338","<p ><strong>实验任务一：</strong></p><p>请想象你的国家与另一个国家发生了军事冲突。</p><p>你是国家军队的指挥官，你将如何在冲突中进行决策。</p><p>具体来说，作为军队指挥官，请你决定是否发射导弹进行打击。</p><p>接下来，你会面对一系列场景，请仔细阅读每个场景，然后进行决策。</p><p>这部分实验任务大约需要10分钟。</p><p><strong>实验过程中，请集中注意力。</strong></p>","0",""
"","","","","","html-keyboard-response","4","404909","0.0-4.0-0.0","15","1","2022-11-27 09:40:41","49aca292d257f58668169b9fbab864ae","39.184.71.231","Mozilla/5.0 (Linux; U; Android 12; zh-cn; Mi 10 Build/SKQ1.211006.001) AppleWebKit/537.36 (KHTML, like Gecko) Version/4.0 Chrome/100.0.4896.127 Mobile Safari/537.36 XiaoMi/MiuiBrowser/17.1.8 swan-mibrowser","Xiaomi","Chrome","100.0.4896.127","AndroidOS","12","null","<div style=""font-size:60px;"">+</div>","null",""
"","","","","","html-button-response","5","416624","0.0-4.0-1.0","15","1","2022-11-27 09:40:41","49aca292d257f58668169b9fbab864ae","39.184.71.231","Mozilla/5.0 (Linux; U; Android 12; zh-cn; Mi 10 Build/SKQ1.211006.001) AppleWebKit/537.36 (KHTML, like Gecko) Version/4.0 Chrome/100.0.4896.127 Mobile Safari/537.36 XiaoMi/MiuiBrowser/17.1.8 swan-mibrowser","Xiaomi","Chrome","100.0.4896.127","AndroidOS","12","11704","<p>作为军队的指挥官，你可以选择发射导弹杀死 <strong>5名</strong> 敌国士兵，但会炸毁附近的 <strong>1棵</strong> 敌国树木。</p> <p>树木的照片如下图所示。</p> <p></p> <img src='stimuli/trees/15.png', style='max-width: 30%;'> </img> <p><strong>你是否选择发射武器？</strong></p>","0",""
"","","","","","html-keyboard-response","6","417635","0.0-4.0-0.1","15","1","2022-11-27 09:40:41","49aca292d257f58668169b9fbab864ae","39.184.71.231","Mozilla/5.0 (Linux; U; Android 12; zh-cn; Mi 10 Build/SKQ1.211006.001) AppleWebKit/537.36 (KHTML, like Gecko) Version/4.0 Chrome/100.0.4896.127 Mobile Safari/537.36 XiaoMi/MiuiBrowser/17.1.8 swan-mibrowser","Xiaomi","Chrome","100.0.4896.127","AndroidOS","12","null","<div style=""font-size:60px;"">+</div>","null",""
"","","","","","html-button-response","7","423765","0.0-4.0-1.1","15","1","2022-11-27 09:40:41","49aca292d257f58668169b9fbab864ae","39.184.71.231","Mozilla/5.0 (Linux; U; Android 12; zh-cn; Mi 10 Build/SKQ1.211006.001) AppleWebKit/537.36 (KHTML, like Gecko) Version/4.0 Chrome/100.0.4896.127 Mobile Safari/537.36 XiaoMi/MiuiBrowser/17.1.8 swan-mibrowser","Xiaomi","Chrome","100.0.4896.127","AndroidOS","12","6117","<p>作为军队的指挥官，你可以选择发射导弹杀死 <strong>6名</strong> 敌国士兵，但会误杀附近的 <strong>1名</strong> 敌国平民。</p> <p>平民照片如下图所示。</p> <p></p> <img src='stimuli/faces/PFM8.jpg', style='max-width: 30%;'> </img> <p><strong>你是否选择发射武器？</strong></p>","0",""
"","","","","","html-keyboard-response","8","424770","0.0-4.0-0.2","15","1","2022-11-27 09:40:41","49aca292d257f58668169b9fbab864ae","39.184.71.231","Mozilla/5.0 (Linux; U; Android 12; zh-cn; Mi 10 Build/SKQ1.211006.001) AppleWebKit/537.36 (KHTML, like Gecko) Version/4.0 Chrome/100.0.4896.127 Mobile Safari/537.36 XiaoMi/MiuiBrowser/17.1.8 swan-mibrowser","Xiaomi","Chrome","100.0.4896.127","AndroidOS","12","null","<div style=""font-size:60px;"">+</div>","null",""
"","","","","","html-button-response","9","427745","0.0-4.0-1.2","15","1","2022-11-27 09:40:41","49aca292d257f58668169b9fbab864ae","39.184.71.231","Mozilla/5.0 (Linux; U; Android 12; zh-cn; Mi 10 Build/SKQ1.211006.001) AppleWebKit/537.36 (KHTML, like Gecko) Version/4.0 Chrome/100.0.4896.127 Mobile Safari/537.36 XiaoMi/MiuiBrowser/17.1.8 swan-mibrowser","Xiaomi","Chrome","100.0.4896.127","AndroidOS","12","2965","<p>作为军队的指挥官，你可以选择发射导弹杀死 <strong>8名</strong> 敌国士兵，但会炸毁附近的 <strong>1棵</strong> 敌国树木。</p> <p>树木的照片如下图所示。</p> <p></p> <img src='stimuli/trees/14.png', style='max-width: 30%;'> </img> <p><strong>你是否选择发射武器？</strong></p>","0",""
"","","","","","html-keyboard-response","10","428754","0.0-4.0-0.3","15","1","2022-11-27 09:40:41","49aca292d257f58668169b9fbab864ae","39.184.71.231","Mozilla/5.0 (Linux; U; Android 12; zh-cn; Mi 10 Build/SKQ1.211006.001) AppleWebKit/537.36 (KHTML, like Gecko) Version/4.0 Chrome/100.0.4896.127 Mobile Safari/537.36 XiaoMi/MiuiBrowser/17.1.8 swan-mibrowser","Xiaomi","Chrome","100.0.4896.127","AndroidOS","12","null","<div style=""font-size:60px;"">+</div>","null",""
"","","","","","html-button-response","11","434624","0.0-4.0-1.3","15","1","2022-11-27 09:40:41","49aca292d257f58668169b9fbab864ae","39.184.71.231","Mozilla/5.0 (Linux; U; Android 12; zh-cn; Mi 10 Build/SKQ1.211006.001) AppleWebKit/537.36 (KHTML, like Gecko) Version/4.0 Chrome/100.0.4896.127 Mobile Safari/537.36 XiaoMi/MiuiBrowser/17.1.8 swan-mibrowser","Xiaomi","Chrome","100.0.4896.127","AndroidOS","12","5850","<p>作为军队的指挥官，你可以选择发射导弹杀死 <strong>5名</strong> 敌国士兵，但会炸毁附近的 <strong>1棵</strong> 敌国树木。</p> <p>树木的照片如下图所示。</p> <p></p> <img src='stimuli/trees/16.png', style='max-width: 30%;'> </img> <p><strong>你是否选择发射武器？</strong></p>","0",""
"","","","","","html-keyboard-response","12","435636","0.0-4.0-0.4","15","1","2022-11-27 09:40:41","49aca292d257f58668169b9fbab864ae","39.184.71.231","Mozilla/5.0 (Linux; U; Android 12; zh-cn; Mi 10 Build/SKQ1.211006.001) AppleWebKit/537.36 (KHTML, like Gecko) Version/4.0 Chrome/100.0.4896.127 Mobile Safari/537.36 XiaoMi/MiuiBrowser/17.1.8 swan-mibrowser","Xiaomi","Chrome","100.0.4896.127","AndroidOS","12","null","<div style=""font-size:60px;"">+</div>","null",""
"","","","","","html-button-response","13","443931","0.0-4.0-1.4","15","1","2022-11-27 09:40:41","49aca292d257f58668169b9fbab864ae","39.184.71.231","Mozilla/5.0 (Linux; U; Android 12; zh-cn; Mi 10 Build/SKQ1.211006.001) AppleWebKit/537.36 (KHTML, like Gecko) Version/4.0 Chrome/100.0.4896.127 Mobile Safari/537.36 XiaoMi/MiuiBrowser/17.1.8 swan-mibrowser","Xiaomi","Chrome","100.0.4896.127","AndroidOS","12","8275","<p>作为军队的指挥官，你可以选择发射导弹杀死 <strong>6名</strong> 敌国士兵，但会误杀附近的 <strong>1名</strong> 敌国平民。</p> <p>平民照片如下图所示。</p> <p></p> <img src='stimuli/faces/PFM7.jpg', style='max-width: 30%;'> </img> <p><strong>你是否选择发射武器？</strong></p>","0",""
"","","","","","html-keyboard-response","14","444944","0.0-4.0-0.5","15","1","2022-11-27 09:40:41","49aca292d257f58668169b9fbab864ae","39.184.71.231","Mozilla/5.0 (Linux; U; Android 12; zh-cn; Mi 10 Build/SKQ1.211006.001) AppleWebKit/537.36 (KHTML, like Gecko) Version/4.0 Chrome/100.0.4896.127 Mobile Safari/537.36 XiaoMi/MiuiBrowser/17.1.8 swan-mibrowser","Xiaomi","Chrome","100.0.4896.127","AndroidOS","12","null","<div style=""font-size:60px;"">+</div>","null",""
"","","","","","html-button-response","15","447010","0.0-4.0-1.5","15","1","2022-11-27 09:40:41","49aca292d257f58668169b9fbab864ae","39.184.71.231","Mozilla/5.0 (Linux; U; Android 12; zh-cn; Mi 10 Build/SKQ1.211006.001) AppleWebKit/537.36 (KHTML, like Gecko) Version/4.0 Chrome/100.0.4896.127 Mobile Safari/537.36 XiaoMi/MiuiBrowser/17.1.8 swan-mibrowser","Xiaomi","Chrome","100.0.4896.127","AndroidOS","12","2042","<p>作为军队的指挥官，你可以选择发射导弹杀死 <strong>9名</strong> 敌国士兵，但会误杀附近的 <strong>1名</strong> 敌国平民。</p> <p>平民照片如下图所示。</p> <p></p> <img src='stimuli/faces/PFM2.jpg', style='max-width: 30%;'> </img> <p><strong>你是否选择发射武器？</strong></p>","0",""
"","","","","","html-keyboard-response","16","448021","0.0-4.0-0.6","15","1","2022-11-27 09:40:41","49aca292d257f58668169b9fbab864ae","39.184.71.231","Mozilla/5.0 (Linux; U; Android 12; zh-cn; Mi 10 Build/SKQ1.211006.001) AppleWebKit/537.36 (KHTML, like Gecko) Version/4.0 Chrome/100.0.4896.127 Mobile Safari/537.36 XiaoMi/MiuiBrowser/17.1.8 swan-mibrowser","Xiaomi","Chrome","100.0.4896.127","AndroidOS","12","null","<div style=""font-size:60px;"">+</div>","null",""
"","","","","","html-button-response","17","451070","0.0-4.0-1.6","15","1","2022-11-27 09:40:41","49aca292d257f58668169b9fbab864ae","39.184.71.231","Mozilla/5.0 (Linux; U; Android 12; zh-cn; Mi 10 Build/SKQ1.211006.001) AppleWebKit/537.36 (KHTML, like Gecko) Version/4.0 Chrome/100.0.4896.127 Mobile Safari/537.36 XiaoMi/MiuiBrowser/17.1.8 swan-mibrowser","Xiaomi","Chrome","100.0.4896.127","AndroidOS","12","3033","<p>作为军队的指挥官，你可以选择发射导弹杀死 <strong>6名</strong> 敌国士兵，但会误杀附近的 <strong>1名</strong> 敌国平民。</p> <p>平民照片如下图所示。</p> <p></p> <img src='stimuli/faces/PFF1.jpg', style='max-width: 30%;'> </img> <p><strong>你是否选择发射武器？</strong></p>","0",""
"","","","","","html-keyboard-response","18","452078","0.0-4.0-0.7","15","1","2022-11-27 09:40:41","49aca292d257f58668169b9fbab864ae","39.184.71.231","Mozilla/5.0 (Linux; U; Android 12; zh-cn; Mi 10 Build/SKQ1.211006.001) AppleWebKit/537.36 (KHTML, like Gecko) Version/4.0 Chrome/100.0.4896.127 Mobile Safari/537.36 XiaoMi/MiuiBrowser/17.1.8 swan-mibrowser","Xiaomi","Chrome","100.0.4896.127","AndroidOS","12","null","<div style=""font-size:60px;"">+</div>","null",""
"","","","","","html-button-response","19","454719","0.0-4.0-1.7","15","1","2022-11-27 09:40:41","49aca292d257f58668169b9fbab864ae","39.184.71.231","Mozilla/5.0 (Linux; U; Android 12; zh-cn; Mi 10 Build/SKQ1.211006.001) AppleWebKit/537.36 (KHTML, like Gecko) Version/4.0 Chrome/100.0.4896.127 Mobile Safari/537.36 XiaoMi/MiuiBrowser/17.1.8 swan-mibrowser","Xiaomi","Chrome","100.0.4896.127","AndroidOS","12","2618","<p>作为军队的指挥官，你可以选择发射导弹杀死 <strong>10名</strong> 敌国士兵，但会误杀附近的 <strong>1名</strong> 敌国平民。</p> <p>平民照片如下图所示。</p> <p></p> <img src='stimuli/faces/PFF6.jpg', style='max-width: 30%;'> </img> <p><strong>你是否选择发射武器？</strong></p>","0",""
"","","","","","html-keyboard-response","20","455728","0.0-4.0-0.8","15","1","2022-11-27 09:40:41","49aca292d257f58668169b9fbab864ae","39.184.71.231","Mozilla/5.0 (Linux; U; Android 12; zh-cn; Mi 10 Build/SKQ1.211006.001) AppleWebKit/537.36 (KHTML, like Gecko) Version/4.0 Chrome/100.0.4896.127 Mobile Safari/537.36 XiaoMi/MiuiBrowser/17.1.8 swan-mibrowser","Xiaomi","Chrome","100.0.4896.127","AndroidOS","12","null","<div style=""font-size:60px;"">+</div>","null",""
"","","","","","html-button-response","21","457269","0.0-4.0-1.8","15","1","2022-11-27 09:40:41","49aca292d257f58668169b9fbab864ae","39.184.71.231","Mozilla/5.0 (Linux; U; Android 12; zh-cn; Mi 10 Build/SKQ1.211006.001) AppleWebKit/537.36 (KHTML, like Gecko) Version/4.0 Chrome/100.0.4896.127 Mobile Safari/537.36 XiaoMi/MiuiBrowser/17.1.8 swan-mibrowser","Xiaomi","Chrome","100.0.4896.127","AndroidOS","12","1521","<p>作为军队的指挥官，你可以选择发射导弹杀死 <strong>9名</strong> 敌国士兵，但会误杀附近的 <strong>1名</strong> 敌国平民。</p> <p>平民照片如下图所示。</p> <p></p> <img src='stimuli/faces/PFM1.jpg', style='max-width: 30%;'> </img> <p><strong>你是否选择发射武器？</strong></p>","0",""
"","","","","","html-keyboard-response","22","458281","0.0-4.0-0.9","15","1","2022-11-27 09:40:41","49aca292d257f58668169b9fbab864ae","39.184.71.231","Mozilla/5.0 (Linux; U; Android 12; zh-cn; Mi 10 Build/SKQ1.211006.001) AppleWebKit/537.36 (KHTML, like Gecko) Version/4.0 Chrome/100.0.4896.127 Mobile Safari/537.36 XiaoMi/MiuiBrowser/17.1.8 swan-mibrowser","Xiaomi","Chrome","100.0.4896.127","AndroidOS","12","null","<div style=""font-size:60px;"">+</div>","null",""
"","","","","","html-button-response","23","464688","0.0-4.0-1.9","15","1","2022-11-27 09:40:41","49aca292d257f58668169b9fbab864ae","39.184.71.231","Mozilla/5.0 (Linux; U; Android 12; zh-cn; Mi 10 Build/SKQ1.211006.001) AppleWebKit/537.36 (KHTML, like Gecko) Version/4.0 Chrome/100.0.4896.127 Mobile Safari/537.36 XiaoMi/MiuiBrowser/17.1.8 swan-mibrowser","Xiaomi","Chrome","100.0.4896.127","AndroidOS","12","6389","<p>作为军队的指挥官，你可以选择发射导弹杀死 <strong>1名</strong> 敌国士兵，但会炸毁附近的 <strong>1棵</strong> 敌国树木。</p> <p>树木的照片如下图所示。</p> <p></p> <img src='stimuli/trees/13.png', style='max-width: 30%;'> </img> <p><strong>你是否选择发射武器？</strong></p>","0",""
"","","","","","html-keyboard-response","24","465696","0.0-4.0-0.10","15","1","2022-11-27 09:40:41","49aca292d257f58668169b9fbab864ae","39.184.71.231","Mozilla/5.0 (Linux; U; Android 12; zh-cn; Mi 10 Build/SKQ1.211006.001) AppleWebKit/537.36 (KHTML, like Gecko) Version/4.0 Chrome/100.0.4896.127 Mobile Safari/537.36 XiaoMi/MiuiBrowser/17.1.8 swan-mibrowser","Xiaomi","Chrome","100.0.4896.127","AndroidOS","12","null","<div style=""font-size:60px;"">+</div>","null",""
"","","","","","html-button-response","25","475191","0.0-4.0-1.10","15","1","2022-11-27 09:40:41","49aca292d257f58668169b9fbab864ae","39.184.71.231","Mozilla/5.0 (Linux; U; Android 12; zh-cn; Mi 10 Build/SKQ1.211006.001) AppleWebKit/537.36 (KHTML, like Gecko) Version/4.0 Chrome/100.0.4896.127 Mobile Safari/537.36 XiaoMi/MiuiBrowser/17.1.8 swan-mibrowser","Xiaomi","Chrome","100.0.4896.127","AndroidOS","12","9470","<p>作为军队的指挥官，你可以选择发射导弹杀死 <strong>1名</strong> 敌国士兵，但会误杀附近的 <strong>1名</strong> 敌国平民。</p> <p>平民照片如下图所示。</p> <p></p> <img src='stimuli/faces/PFF2.jpg', style='max-width: 30%;'> </img> <p><strong>你是否选择发射武器？</strong></p>","0",""
"","","","","","html-keyboard-response","26","476203","0.0-4.0-0.11","15","1","2022-11-27 09:40:41","49aca292d257f58668169b9fbab864ae","39.184.71.231","Mozilla/5.0 (Linux; U; Android 12; zh-cn; Mi 10 Build/SKQ1.211006.001) AppleWebKit/537.36 (KHTML, like Gecko) Version/4.0 Chrome/100.0.4896.127 Mobile Safari/537.36 XiaoMi/MiuiBrowser/17.1.8 swan-mibrowser","Xiaomi","Chrome","100.0.4896.127","AndroidOS","12","null","<div style=""font-size:60px;"">+</div>","null",""
"","","","","","html-button-response","27","478949","0.0-4.0-1.11","15","1","2022-11-27 09:40:41","49aca292d257f58668169b9fbab864ae","39.184.71.231","Mozilla/5.0 (Linux; U; Android 12; zh-cn; Mi 10 Build/SKQ1.211006.001) AppleWebKit/537.36 (KHTML, like Gecko) Version/4.0 Chrome/100.0.4896.127 Mobile Safari/537.36 XiaoMi/MiuiBrowser/17.1.8 swan-mibrowser","Xiaomi","Chrome","100.0.4896.127","AndroidOS","12","2724","<p>作为军队的指挥官，你可以选择发射导弹杀死 <strong>8名</strong> 敌国士兵，但会炸毁附近的 <strong>1棵</strong> 敌国树木。</p> <p>树木的照片如下图所示。</p> <p></p> <img src='stimuli/trees/8.png', style='max-width: 30%;'> </img> <p><strong>你是否选择发射武器？</strong></p>","0",""
"","","","","","html-keyboard-response","28","479963","0.0-4.0-0.12","15","1","2022-11-27 09:40:41","49aca292d257f58668169b9fbab864ae","39.184.71.231","Mozilla/5.0 (Linux; U; Android 12; zh-cn; Mi 10 Build/SKQ1.211006.001) AppleWebKit/537.36 (KHTML, like Gecko) Version/4.0 Chrome/100.0.4896.127 Mobile Safari/537.36 XiaoMi/MiuiBrowser/17.1.8 swan-mibrowser","Xiaomi","Chrome","100.0.4896.127","AndroidOS","12","null","<div style=""font-size:60px;"">+</div>","null",""
"","","","","","html-button-response","29","482146","0.0-4.0-1.12","15","1","2022-11-27 09:40:41","49aca292d257f58668169b9fbab864ae","39.184.71.231","Mozilla/5.0 (Linux; U; Android 12; zh-cn; Mi 10 Build/SKQ1.211006.001) AppleWebKit/537.36 (KHTML, like Gecko) Version/4.0 Chrome/100.0.4896.127 Mobile Safari/537.36 XiaoMi/MiuiBrowser/17.1.8 swan-mibrowser","Xiaomi","Chrome","100.0.4896.127","AndroidOS","12","2164","<p>作为军队的指挥官，你可以选择发射导弹杀死 <strong>6名</strong> 敌国士兵，但会炸毁附近的 <strong>1棵</strong> 敌国树木。</p> <p>树木的照片如下图所示。</p> <p></p> <img src='stimuli/trees/1.png', style='max-width: 30%;'> </img> <p><strong>你是否选择发射武器？</strong></p>","0",""
"","","","","","html-keyboard-response","30","483159","0.0-4.0-0.13","15","1","2022-11-27 09:40:41","49aca292d257f58668169b9fbab864ae","39.184.71.231","Mozilla/5.0 (Linux; U; Android 12; zh-cn; Mi 10 Build/SKQ1.211006.001) AppleWebKit/537.36 (KHTML, like Gecko) Version/4.0 Chrome/100.0.4896.127 Mobile Safari/537.36 XiaoMi/MiuiBrowser/17.1.8 swan-mibrowser","Xiaomi","Chrome","100.0.4896.127","AndroidOS","12","null","<div style=""font-size:60px;"">+</div>","null",""
"","","","","","html-button-response","31","485202","0.0-4.0-1.13","15","1","2022-11-27 09:40:41","49aca292d257f58668169b9fbab864ae","39.184.71.231","Mozilla/5.0 (Linux; U; Android 12; zh-cn; Mi 10 Build/SKQ1.211006.001) AppleWebKit/537.36 (KHTML, like Gecko) Version/4.0 Chrome/100.0.4896.127 Mobile Safari/537.36 XiaoMi/MiuiBrowser/17.1.8 swan-mibrowser","Xiaomi","Chrome","100.0.4896.127","AndroidOS","12","2022","<p>作为军队的指挥官，你可以选择发射导弹杀死 <strong>5名</strong> 敌国士兵，但会误杀附近的 <strong>1名</strong> 敌国平民。</p> <p>平民照片如下图所示。</p> <p></p> <img src='stimuli/faces/PFM5.jpg', style='max-width: 30%;'> </img> <p><strong>你是否选择发射武器？</strong></p>","0",""
"","","","","","html-keyboard-response","32","486210","0.0-4.0-0.14","15","1","2022-11-27 09:40:41","49aca292d257f58668169b9fbab864ae","39.184.71.231","Mozilla/5.0 (Linux; U; Android 12; zh-cn; Mi 10 Build/SKQ1.211006.001) AppleWebKit/537.36 (KHTML, like Gecko) Version/4.0 Chrome/100.0.4896.127 Mobile Safari/537.36 XiaoMi/MiuiBrowser/17.1.8 swan-mibrowser","Xiaomi","Chrome","100.0.4896.127","AndroidOS","12","null","<div style=""font-size:60px;"">+</div>","null",""
"","","","","","html-button-response","33","487951","0.0-4.0-1.14","15","1","2022-11-27 09:40:41","49aca292d257f58668169b9fbab864ae","39.184.71.231","Mozilla/5.0 (Linux; U; Android 12; zh-cn; Mi 10 Build/SKQ1.211006.001) AppleWebKit/537.36 (KHTML, like Gecko) Version/4.0 Chrome/100.0.4896.127 Mobile Safari/537.36 XiaoMi/MiuiBrowser/17.1.8 swan-mibrowser","Xiaomi","Chrome","100.0.4896.127","AndroidOS","12","1716","<p>作为军队的指挥官，你可以选择发射导弹杀死 <strong>2名</strong> 敌国士兵，但会误杀附近的 <strong>1名</strong> 敌国平民。</p> <p>平民照片如下图所示。</p> <p></p> <img src='stimuli/faces/PFF4.jpg', style='max-width: 30%;'> </img> <p><strong>你是否选择发射武器？</strong></p>","0",""
"","","","","","html-keyboard-response","34","488966","0.0-4.0-0.15","15","1","2022-11-27 09:40:41","49aca292d257f58668169b9fbab864ae","39.184.71.231","Mozilla/5.0 (Linux; U; Android 12; zh-cn; Mi 10 Build/SKQ1.211006.001) AppleWebKit/537.36 (KHTML, like Gecko) Version/4.0 Chrome/100.0.4896.127 Mobile Safari/537.36 XiaoMi/MiuiBrowser/17.1.8 swan-mibrowser","Xiaomi","Chrome","100.0.4896.127","AndroidOS","12","null","<div style=""font-size:60px;"">+</div>","null",""
"","","","","","html-button-response","35","490742","0.0-4.0-1.15","15","1","2022-11-27 09:40:41","49aca292d257f58668169b9fbab864ae","39.184.71.231","Mozilla/5.0 (Linux; U; Android 12; zh-cn; Mi 10 Build/SKQ1.211006.001) AppleWebKit/537.36 (KHTML, like Gecko) Version/4.0 Chrome/100.0.4896.127 Mobile Safari/537.36 XiaoMi/MiuiBrowser/17.1.8 swan-mibrowser","Xiaomi","Chrome","100.0.4896.127","AndroidOS","12","1755","<p>作为军队的指挥官，你可以选择发射导弹杀死 <strong>10名</strong> 敌国士兵，但会炸毁附近的 <strong>1棵</strong> 敌国树木。</p> <p>树木的照片如下图所示。</p> <p></p> <img src='stimuli/trees/4.png', style='max-width: 30%;'> </img> <p><strong>你是否选择发射武器？</strong></p>","0",""
"","","","","","html-keyboard-response","36","491751","0.0-4.0-0.16","15","1","2022-11-27 09:40:41","49aca292d257f58668169b9fbab864ae","39.184.71.231","Mozilla/5.0 (Linux; U; Android 12; zh-cn; Mi 10 Build/SKQ1.211006.001) AppleWebKit/537.36 (KHTML, like Gecko) Version/4.0 Chrome/100.0.4896.127 Mobile Safari/537.36 XiaoMi/MiuiBrowser/17.1.8 swan-mibrowser","Xiaomi","Chrome","100.0.4896.127","AndroidOS","12","null","<div style=""font-size:60px;"">+</div>","null",""
"","","","","","html-button-response","37","492661","0.0-4.0-1.16","15","1","2022-11-27 09:40:41","49aca292d257f58668169b9fbab864ae","39.184.71.231","Mozilla/5.0 (Linux; U; Android 12; zh-cn; Mi 10 Build/SKQ1.211006.001) AppleWebKit/537.36 (KHTML, like Gecko) Version/4.0 Chrome/100.0.4896.127 Mobile Safari/537.36 XiaoMi/MiuiBrowser/17.1.8 swan-mibrowser","Xiaomi","Chrome","100.0.4896.127","AndroidOS","12","888","<p>作为军队的指挥官，你可以选择发射导弹杀死 <strong>8名</strong> 敌国士兵，但会炸毁附近的 <strong>1棵</strong> 敌国树木。</p> <p>树木的照片如下图所示。</p> <p></p> <img src='stimuli/trees/3.png', style='max-width: 30%;'> </img> <p><strong>你是否选择发射武器？</strong></p>","0",""
"","","","","","html-keyboard-response","38","493677","0.0-4.0-0.17","15","1","2022-11-27 09:40:41","49aca292d257f58668169b9fbab864ae","39.184.71.231","Mozilla/5.0 (Linux; U; Android 12; zh-cn; Mi 10 Build/SKQ1.211006.001) AppleWebKit/537.36 (KHTML, like Gecko) Version/4.0 Chrome/100.0.4896.127 Mobile Safari/537.36 XiaoMi/MiuiBrowser/17.1.8 swan-mibrowser","Xiaomi","Chrome","100.0.4896.127","AndroidOS","12","null","<div style=""font-size:60px;"">+</div>","null",""
"","","","","","html-button-response","39","494771","0.0-4.0-1.17","15","1","2022-11-27 09:40:41","49aca292d257f58668169b9fbab864ae","39.184.71.231","Mozilla/5.0 (Linux; U; Android 12; zh-cn; Mi 10 Build/SKQ1.211006.001) AppleWebKit/537.36 (KHTML, like Gecko) Version/4.0 Chrome/100.0.4896.127 Mobile Safari/537.36 XiaoMi/MiuiBrowser/17.1.8 swan-mibrowser","Xiaomi","Chrome","100.0.4896.127","AndroidOS","12","1072","<p>作为军队的指挥官，你可以选择发射导弹杀死 <strong>3名</strong> 敌国士兵，但会炸毁附近的 <strong>1棵</strong> 敌国树木。</p> <p>树木的照片如下图所示。</p> <p></p> <img src='stimuli/trees/5.png', style='max-width: 30%;'> </img> <p><strong>你是否选择发射武器？</strong></p>","0",""
"","","","","","html-keyboard-response","40","495787","0.0-4.0-0.18","15","1","2022-11-27 09:40:41","49aca292d257f58668169b9fbab864ae","39.184.71.231","Mozilla/5.0 (Linux; U; Android 12; zh-cn; Mi 10 Build/SKQ1.211006.001) AppleWebKit/537.36 (KHTML, like Gecko) Version/4.0 Chrome/100.0.4896.127 Mobile Safari/537.36 XiaoMi/MiuiBrowser/17.1.8 swan-mibrowser","Xiaomi","Chrome","100.0.4896.127","AndroidOS","12","null","<div style=""font-size:60px;"">+</div>","null",""
"","","","","","html-button-response","41","500583","0.0-4.0-1.18","15","1","2022-11-27 09:40:41","49aca292d257f58668169b9fbab864ae","39.184.71.231","Mozilla/5.0 (Linux; U; Android 12; zh-cn; Mi 10 Build/SKQ1.211006.001) AppleWebKit/537.36 (KHTML, like Gecko) Version/4.0 Chrome/100.0.4896.127 Mobile Safari/537.36 XiaoMi/MiuiBrowser/17.1.8 swan-mibrowser","Xiaomi","Chrome","100.0.4896.127","AndroidOS","12","4775","<p>作为军队的指挥官，你可以选择发射导弹杀死 <strong>1名</strong> 敌国士兵，但会误杀附近的 <strong>1名</strong> 敌国平民。</p> <p>平民照片如下图所示。</p> <p></p> <img src='stimuli/faces/PFM7.jpg', style='max-width: 30%;'> </img> <p><strong>你是否选择发射武器？</strong></p>","0",""
"","","","","","html-keyboard-response","42","501595","0.0-4.0-0.19","15","1","2022-11-27 09:40:41","49aca292d257f58668169b9fbab864ae","39.184.71.231","Mozilla/5.0 (Linux; U; Android 12; zh-cn; Mi 10 Build/SKQ1.211006.001) AppleWebKit/537.36 (KHTML, like Gecko) Version/4.0 Chrome/100.0.4896.127 Mobile Safari/537.36 XiaoMi/MiuiBrowser/17.1.8 swan-mibrowser","Xiaomi","Chrome","100.0.4896.127","AndroidOS","12","null","<div style=""font-size:60px;"">+</div>","null",""
"","","","","","html-button-response","43","502976","0.0-4.0-1.19","15","1","2022-11-27 09:40:41","49aca292d257f58668169b9fbab864ae","39.184.71.231","Mozilla/5.0 (Linux; U; Android 12; zh-cn; Mi 10 Build/SKQ1.211006.001) AppleWebKit/537.36 (KHTML, like Gecko) Version/4.0 Chrome/100.0.4896.127 Mobile Safari/537.36 XiaoMi/MiuiBrowser/17.1.8 swan-mibrowser","Xiaomi","Chrome","100.0.4896.127","AndroidOS","12","1357","<p>作为军队的指挥官，你可以选择发射导弹杀死 <strong>4名</strong> 敌国士兵，但会误杀附近的 <strong>1名</strong> 敌国平民。</p> <p>平民照片如下图所示。</p> <p></p> <img src='stimuli/faces/PFM8.jpg', style='max-width: 30%;'> </img> <p><strong>你是否选择发射武器？</strong></p>","0",""
"","","","","","html-keyboard-response","44","503989","0.0-4.0-0.20","15","1","2022-11-27 09:40:41","49aca292d257f58668169b9fbab864ae","39.184.71.231","Mozilla/5.0 (Linux; U; Android 12; zh-cn; Mi 10 Build/SKQ1.211006.001) AppleWebKit/537.36 (KHTML, like Gecko) Version/4.0 Chrome/100.0.4896.127 Mobile Safari/537.36 XiaoMi/MiuiBrowser/17.1.8 swan-mibrowser","Xiaomi","Chrome","100.0.4896.127","AndroidOS","12","null","<div style=""font-size:60px;"">+</div>","null",""
"","","","","","html-button-response","45","505260","0.0-4.0-1.20","15","1","2022-11-27 09:40:41","49aca292d257f58668169b9fbab864ae","39.184.71.231","Mozilla/5.0 (Linux; U; Android 12; zh-cn; Mi 10 Build/SKQ1.211006.001) AppleWebKit/537.36 (KHTML, like Gecko) Version/4.0 Chrome/100.0.4896.127 Mobile Safari/537.36 XiaoMi/MiuiBrowser/17.1.8 swan-mibrowser","Xiaomi","Chrome","100.0.4896.127","AndroidOS","12","1247","<p>作为军队的指挥官，你可以选择发射导弹杀死 <strong>4名</strong> 敌国士兵，但会炸毁附近的 <strong>1棵</strong> 敌国树木。</p> <p>树木的照片如下图所示。</p> <p></p> <img src='stimuli/trees/1.png', style='max-width: 30%;'> </img> <p><strong>你是否选择发射武器？</strong></p>","0",""
"","","","","","html-keyboard-response","46","506276","0.0-4.0-0.21","15","1","2022-11-27 09:40:41","49aca292d257f58668169b9fbab864ae","39.184.71.231","Mozilla/5.0 (Linux; U; Android 12; zh-cn; Mi 10 Build/SKQ1.211006.001) AppleWebKit/537.36 (KHTML, like Gecko) Version/4.0 Chrome/100.0.4896.127 Mobile Safari/537.36 XiaoMi/MiuiBrowser/17.1.8 swan-mibrowser","Xiaomi","Chrome","100.0.4896.127","AndroidOS","12","null","<div style=""font-size:60px;"">+</div>","null",""
"","","","","","html-button-response","47","507002","0.0-4.0-1.21","15","1","2022-11-27 09:40:41","49aca292d257f58668169b9fbab864ae","39.184.71.231","Mozilla/5.0 (Linux; U; Android 12; zh-cn; Mi 10 Build/SKQ1.211006.001) AppleWebKit/537.36 (KHTML, like Gecko) Version/4.0 Chrome/100.0.4896.127 Mobile Safari/537.36 XiaoMi/MiuiBrowser/17.1.8 swan-mibrowser","Xiaomi","Chrome","100.0.4896.127","AndroidOS","12","700","<p>作为军队的指挥官，你可以选择发射导弹杀死 <strong>7名</strong> 敌国士兵，但会炸毁附近的 <strong>1棵</strong> 敌国树木。</p> <p>树木的照片如下图所示。</p> <p></p> <img src='stimuli/trees/10.png', style='max-width: 30%;'> </img> <p><strong>你是否选择发射武器？</strong></p>","0",""
"","","","","","html-keyboard-response","48","508013","0.0-4.0-0.22","15","1","2022-11-27 09:40:41","49aca292d257f58668169b9fbab864ae","39.184.71.231","Mozilla/5.0 (Linux; U; Android 12; zh-cn; Mi 10 Build/SKQ1.211006.001) AppleWebKit/537.36 (KHTML, like Gecko) Version/4.0 Chrome/100.0.4896.127 Mobile Safari/537.36 XiaoMi/MiuiBrowser/17.1.8 swan-mibrowser","Xiaomi","Chrome","100.0.4896.127","AndroidOS","12","null","<div style=""font-size:60px;"">+</div>","null",""
"","","","","","html-button-response","49","509365","0.0-4.0-1.22","15","1","2022-11-27 09:40:41","49aca292d257f58668169b9fbab864ae","39.184.71.231","Mozilla/5.0 (Linux; U; Android 12; zh-cn; Mi 10 Build/SKQ1.211006.001) AppleWebKit/537.36 (KHTML, like Gecko) Version/4.0 Chrome/100.0.4896.127 Mobile Safari/537.36 XiaoMi/MiuiBrowser/17.1.8 swan-mibrowser","Xiaomi","Chrome","100.0.4896.127","AndroidOS","12","1337","<p>作为军队的指挥官，你可以选择发射导弹杀死 <strong>10名</strong> 敌国士兵，但会炸毁附近的 <strong>1棵</strong> 敌国树木。</p> <p>树木的照片如下图所示。</p> <p></p> <img src='stimuli/trees/16.png', style='max-width: 30%;'> </img> <p><strong>你是否选择发射武器？</strong></p>","0",""
"","","","","","html-keyboard-response","50","510385","0.0-4.0-0.23","15","1","2022-11-27 09:40:41","49aca292d257f58668169b9fbab864ae","39.184.71.231","Mozilla/5.0 (Linux; U; Android 12; zh-cn; Mi 10 Build/SKQ1.211006.001) AppleWebKit/537.36 (KHTML, like Gecko) Version/4.0 Chrome/100.0.4896.127 Mobile Safari/537.36 XiaoMi/MiuiBrowser/17.1.8 swan-mibrowser","Xiaomi","Chrome","100.0.4896.127","AndroidOS","12","null","<div style=""font-size:60px;"">+</div>","null",""
"","","","","","html-button-response","51","512411","0.0-4.0-1.23","15","1","2022-11-27 09:40:41","49aca292d257f58668169b9fbab864ae","39.184.71.231","Mozilla/5.0 (Linux; U; Android 12; zh-cn; Mi 10 Build/SKQ1.211006.001) AppleWebKit/537.36 (KHTML, like Gecko) Version/4.0 Chrome/100.0.4896.127 Mobile Safari/537.36 XiaoMi/MiuiBrowser/17.1.8 swan-mibrowser","Xiaomi","Chrome","100.0.4896.127","AndroidOS","12","2002","<p>作为军队的指挥官，你可以选择发射导弹杀死 <strong>7名</strong> 敌国士兵，但会误杀附近的 <strong>1名</strong> 敌国平民。</p> <p>平民照片如下图所示。</p> <p></p> <img src='stimuli/faces/PFF4.jpg', style='max-width: 30%;'> </img> <p><strong>你是否选择发射武器？</strong></p>","0",""
"","","","","","html-keyboard-response","52","513426","0.0-4.0-0.24","15","1","2022-11-27 09:40:41","49aca292d257f58668169b9fbab864ae","39.184.71.231","Mozilla/5.0 (Linux; U; Android 12; zh-cn; Mi 10 Build/SKQ1.211006.001) AppleWebKit/537.36 (KHTML, like Gecko) Version/4.0 Chrome/100.0.4896.127 Mobile Safari/537.36 XiaoMi/MiuiBrowser/17.1.8 swan-mibrowser","Xiaomi","Chrome","100.0.4896.127","AndroidOS","12","null","<div style=""font-size:60px;"">+</div>","null",""
"","","","","","html-button-response","53","515838","0.0-4.0-1.24","15","1","2022-11-27 09:40:41","49aca292d257f58668169b9fbab864ae","39.184.71.231","Mozilla/5.0 (Linux; U; Android 12; zh-cn; Mi 10 Build/SKQ1.211006.001) AppleWebKit/537.36 (KHTML, like Gecko) Version/4.0 Chrome/100.0.4896.127 Mobile Safari/537.36 XiaoMi/MiuiBrowser/17.1.8 swan-mibrowser","Xiaomi","Chrome","100.0.4896.127","AndroidOS","12","2387","<p>作为军队的指挥官，你可以选择发射导弹杀死 <strong>2名</strong> 敌国士兵，但会误杀附近的 <strong>1名</strong> 敌国平民。</p> <p>平民照片如下图所示。</p> <p></p> <img src='stimuli/faces/PFF6.jpg', style='max-width: 30%;'> </img> <p><strong>你是否选择发射武器？</strong></p>","0",""
"","","","","","html-keyboard-response","54","516850","0.0-4.0-0.25","15","1","2022-11-27 09:40:41","49aca292d257f58668169b9fbab864ae","39.184.71.231","Mozilla/5.0 (Linux; U; Android 12; zh-cn; Mi 10 Build/SKQ1.211006.001) AppleWebKit/537.36 (KHTML, like Gecko) Version/4.0 Chrome/100.0.4896.127 Mobile Safari/537.36 XiaoMi/MiuiBrowser/17.1.8 swan-mibrowser","Xiaomi","Chrome","100.0.4896.127","AndroidOS","12","null","<div style=""font-size:60px;"">+</div>","null",""
"","","","","","html-button-response","55","518079","0.0-4.0-1.25","15","1","2022-11-27 09:40:41","49aca292d257f58668169b9fbab864ae","39.184.71.231","Mozilla/5.0 (Linux; U; Android 12; zh-cn; Mi 10 Build/SKQ1.211006.001) AppleWebKit/537.36 (KHTML, like Gecko) Version/4.0 Chrome/100.0.4896.127 Mobile Safari/537.36 XiaoMi/MiuiBrowser/17.1.8 swan-mibrowser","Xiaomi","Chrome","100.0.4896.127","AndroidOS","12","1216","<p>作为军队的指挥官，你可以选择发射导弹杀死 <strong>5名</strong> 敌国士兵，但会误杀附近的 <strong>1名</strong> 敌国平民。</p> <p>平民照片如下图所示。</p> <p></p> <img src='stimuli/faces/PFM1.jpg', style='max-width: 30%;'> </img> <p><strong>你是否选择发射武器？</strong></p>","0",""
"","","","","","html-keyboard-response","56","519090","0.0-4.0-0.26","15","1","2022-11-27 09:40:41","49aca292d257f58668169b9fbab864ae","39.184.71.231","Mozilla/5.0 (Linux; U; Android 12; zh-cn; Mi 10 Build/SKQ1.211006.001) AppleWebKit/537.36 (KHTML, like Gecko) Version/4.0 Chrome/100.0.4896.127 Mobile Safari/537.36 XiaoMi/MiuiBrowser/17.1.8 swan-mibrowser","Xiaomi","Chrome","100.0.4896.127","AndroidOS","12","null","<div style=""font-size:60px;"">+</div>","null",""
"","","","","","html-button-response","57","520095","0.0-4.0-1.26","15","1","2022-11-27 09:40:41","49aca292d257f58668169b9fbab864ae","39.184.71.231","Mozilla/5.0 (Linux; U; Android 12; zh-cn; Mi 10 Build/SKQ1.211006.001) AppleWebKit/537.36 (KHTML, like Gecko) Version/4.0 Chrome/100.0.4896.127 Mobile Safari/537.36 XiaoMi/MiuiBrowser/17.1.8 swan-mibrowser","Xiaomi","Chrome","100.0.4896.127","AndroidOS","12","978","<p>作为军队的指挥官，你可以选择发射导弹杀死 <strong>1名</strong> 敌国士兵，但会炸毁附近的 <strong>1棵</strong> 敌国树木。</p> <p>树木的照片如下图所示。</p> <p></p> <img src='stimuli/trees/10.png', style='max-width: 30%;'> </img> <p><strong>你是否选择发射武器？</strong></p>","0",""
"","","","","","html-keyboard-response","58","521108","0.0-4.0-0.27","15","1","2022-11-27 09:40:41","49aca292d257f58668169b9fbab864ae","39.184.71.231","Mozilla/5.0 (Linux; U; Android 12; zh-cn; Mi 10 Build/SKQ1.211006.001) AppleWebKit/537.36 (KHTML, like Gecko) Version/4.0 Chrome/100.0.4896.127 Mobile Safari/537.36 XiaoMi/MiuiBrowser/17.1.8 swan-mibrowser","Xiaomi","Chrome","100.0.4896.127","AndroidOS","12","null","<div style=""font-size:60px;"">+</div>","null",""
"","","","","","html-button-response","59","522497","0.0-4.0-1.27","15","1","2022-11-27 09:40:41","49aca292d257f58668169b9fbab864ae","39.184.71.231","Mozilla/5.0 (Linux; U; Android 12; zh-cn; Mi 10 Build/SKQ1.211006.001) AppleWebKit/537.36 (KHTML, like Gecko) Version/4.0 Chrome/100.0.4896.127 Mobile Safari/537.36 XiaoMi/MiuiBrowser/17.1.8 swan-mibrowser","Xiaomi","Chrome","100.0.4896.127","AndroidOS","12","1364","<p>作为军队的指挥官，你可以选择发射导弹杀死 <strong>3名</strong> 敌国士兵，但会误杀附近的 <strong>1名</strong> 敌国平民。</p> <p>平民照片如下图所示。</p> <p></p> <img src='stimuli/faces/PFF8.jpg', style='max-width: 30%;'> </img> <p><strong>你是否选择发射武器？</strong></p>","0",""
"","","","","","html-keyboard-response","60","523506","0.0-4.0-0.28","15","1","2022-11-27 09:40:41","49aca292d257f58668169b9fbab864ae","39.184.71.231","Mozilla/5.0 (Linux; U; Android 12; zh-cn; Mi 10 Build/SKQ1.211006.001) AppleWebKit/537.36 (KHTML, like Gecko) Version/4.0 Chrome/100.0.4896.127 Mobile Safari/537.36 XiaoMi/MiuiBrowser/17.1.8 swan-mibrowser","Xiaomi","Chrome","100.0.4896.127","AndroidOS","12","null","<div style=""font-size:60px;"">+</div>","null",""
"","","","","","html-button-response","61","524276","0.0-4.0-1.28","15","1","2022-11-27 09:40:41","49aca292d257f58668169b9fbab864ae","39.184.71.231","Mozilla/5.0 (Linux; U; Android 12; zh-cn; Mi 10 Build/SKQ1.211006.001) AppleWebKit/537.36 (KHTML, like Gecko) Version/4.0 Chrome/100.0.4896.127 Mobile Safari/537.36 XiaoMi/MiuiBrowser/17.1.8 swan-mibrowser","Xiaomi","Chrome","100.0.4896.127","AndroidOS","12","744","<p>作为军队的指挥官，你可以选择发射导弹杀死 <strong>9名</strong> 敌国士兵，但会炸毁附近的 <strong>1棵</strong> 敌国树木。</p> <p>树木的照片如下图所示。</p> <p></p> <img src='stimuli/trees/9.png', style='max-width: 30%;'> </img> <p><strong>你是否选择发射武器？</strong></p>","0",""
"","","","","","html-keyboard-response","62","525291","0.0-4.0-0.29","15","1","2022-11-27 09:40:41","49aca292d257f58668169b9fbab864ae","39.184.71.231","Mozilla/5.0 (Linux; U; Android 12; zh-cn; Mi 10 Build/SKQ1.211006.001) AppleWebKit/537.36 (KHTML, like Gecko) Version/4.0 Chrome/100.0.4896.127 Mobile Safari/537.36 XiaoMi/MiuiBrowser/17.1.8 swan-mibrowser","Xiaomi","Chrome","100.0.4896.127","AndroidOS","12","null","<div style=""font-size:60px;"">+</div>","null",""
"","","","","","html-button-response","63","526360","0.0-4.0-1.29","15","1","2022-11-27 09:40:41","49aca292d257f58668169b9fbab864ae","39.184.71.231","Mozilla/5.0 (Linux; U; Android 12; zh-cn; Mi 10 Build/SKQ1.211006.001) AppleWebKit/537.36 (KHTML, like Gecko) Version/4.0 Chrome/100.0.4896.127 Mobile Safari/537.36 XiaoMi/MiuiBrowser/17.1.8 swan-mibrowser","Xiaomi","Chrome","100.0.4896.127","AndroidOS","12","1042","<p>作为军队的指挥官，你可以选择发射导弹杀死 <strong>4名</strong> 敌国士兵，但会炸毁附近的 <strong>1棵</strong> 敌国树木。</p> <p>树木的照片如下图所示。</p> <p></p> <img src='stimuli/trees/9.png', style='max-width: 30%;'> </img> <p><strong>你是否选择发射武器？</strong></p>","0",""
"","","","","","html-keyboard-response","64","527378","0.0-4.0-0.30","15","1","2022-11-27 09:40:41","49aca292d257f58668169b9fbab864ae","39.184.71.231","Mozilla/5.0 (Linux; U; Android 12; zh-cn; Mi 10 Build/SKQ1.211006.001) AppleWebKit/537.36 (KHTML, like Gecko) Version/4.0 Chrome/100.0.4896.127 Mobile Safari/537.36 XiaoMi/MiuiBrowser/17.1.8 swan-mibrowser","Xiaomi","Chrome","100.0.4896.127","AndroidOS","12","null","<div style=""font-size:60px;"">+</div>","null",""
"","","","","","html-button-response","65","531994","0.0-4.0-1.30","15","1","2022-11-27 09:40:41","49aca292d257f58668169b9fbab864ae","39.184.71.231","Mozilla/5.0 (Linux; U; Android 12; zh-cn; Mi 10 Build/SKQ1.211006.001) AppleWebKit/537.36 (KHTML, like Gecko) Version/4.0 Chrome/100.0.4896.127 Mobile Safari/537.36 XiaoMi/MiuiBrowser/17.1.8 swan-mibrowser","Xiaomi","Chrome","100.0.4896.127","AndroidOS","12","4588","<p>作为军队的指挥官，你可以选择发射导弹杀死 <strong>2名</strong> 敌国士兵，但会误杀附近的 <strong>1名</strong> 敌国平民。</p> <p>平民照片如下图所示。</p> <p></p> <img src='stimuli/faces/PFF3.jpg', style='max-width: 30%;'> </img> <p><strong>你是否选择发射武器？</strong></p>","0",""
"","","","","","html-keyboard-response","66","533006","0.0-4.0-0.31","15","1","2022-11-27 09:40:41","49aca292d257f58668169b9fbab864ae","39.184.71.231","Mozilla/5.0 (Linux; U; Android 12; zh-cn; Mi 10 Build/SKQ1.211006.001) AppleWebKit/537.36 (KHTML, like Gecko) Version/4.0 Chrome/100.0.4896.127 Mobile Safari/537.36 XiaoMi/MiuiBrowser/17.1.8 swan-mibrowser","Xiaomi","Chrome","100.0.4896.127","AndroidOS","12","null","<div style=""font-size:60px;"">+</div>","null",""
"","","","","","html-button-response","67","534415","0.0-4.0-1.31","15","1","2022-11-27 09:40:41","49aca292d257f58668169b9fbab864ae","39.184.71.231","Mozilla/5.0 (Linux; U; Android 12; zh-cn; Mi 10 Build/SKQ1.211006.001) AppleWebKit/537.36 (KHTML, like Gecko) Version/4.0 Chrome/100.0.4896.127 Mobile Safari/537.36 XiaoMi/MiuiBrowser/17.1.8 swan-mibrowser","Xiaomi","Chrome","100.0.4896.127","AndroidOS","12","1391","<p>作为军队的指挥官，你可以选择发射导弹杀死 <strong>5名</strong> 敌国士兵，但会炸毁附近的 <strong>1棵</strong> 敌国树木。</p> <p>树木的照片如下图所示。</p> <p></p> <img src='stimuli/trees/12.png', style='max-width: 30%;'> </img> <p><strong>你是否选择发射武器？</strong></p>","0",""
"","","","","","html-keyboard-response","68","535431","0.0-4.0-0.32","15","1","2022-11-27 09:40:41","49aca292d257f58668169b9fbab864ae","39.184.71.231","Mozilla/5.0 (Linux; U; Android 12; zh-cn; Mi 10 Build/SKQ1.211006.001) AppleWebKit/537.36 (KHTML, like Gecko) Version/4.0 Chrome/100.0.4896.127 Mobile Safari/537.36 XiaoMi/MiuiBrowser/17.1.8 swan-mibrowser","Xiaomi","Chrome","100.0.4896.127","AndroidOS","12","null","<div style=""font-size:60px;"">+</div>","null",""
"","","","","","html-button-response","69","536621","0.0-4.0-1.32","15","1","2022-11-27 09:40:41","49aca292d257f58668169b9fbab864ae","39.184.71.231","Mozilla/5.0 (Linux; U; Android 12; zh-cn; Mi 10 Build/SKQ1.211006.001) AppleWebKit/537.36 (KHTML, like Gecko) Version/4.0 Chrome/100.0.4896.127 Mobile Safari/537.36 XiaoMi/MiuiBrowser/17.1.8 swan-mibrowser","Xiaomi","Chrome","100.0.4896.127","AndroidOS","12","1164","<p>作为军队的指挥官，你可以选择发射导弹杀死 <strong>6名</strong> 敌国士兵，但会误杀附近的 <strong>1名</strong> 敌国平民。</p> <p>平民照片如下图所示。</p> <p></p> <img src='stimuli/faces/PFF5.jpg', style='max-width: 30%;'> </img> <p><strong>你是否选择发射武器？</strong></p>","0",""
"","","","","","html-keyboard-response","70","537635","0.0-4.0-0.33","15","1","2022-11-27 09:40:41","49aca292d257f58668169b9fbab864ae","39.184.71.231","Mozilla/5.0 (Linux; U; Android 12; zh-cn; Mi 10 Build/SKQ1.211006.001) AppleWebKit/537.36 (KHTML, like Gecko) Version/4.0 Chrome/100.0.4896.127 Mobile Safari/537.36 XiaoMi/MiuiBrowser/17.1.8 swan-mibrowser","Xiaomi","Chrome","100.0.4896.127","AndroidOS","12","null","<div style=""font-size:60px;"">+</div>","null",""
"","","","","","html-button-response","71","539896","0.0-4.0-1.33","15","1","2022-11-27 09:40:41","49aca292d257f58668169b9fbab864ae","39.184.71.231","Mozilla/5.0 (Linux; U; Android 12; zh-cn; Mi 10 Build/SKQ1.211006.001) AppleWebKit/537.36 (KHTML, like Gecko) Version/4.0 Chrome/100.0.4896.127 Mobile Safari/537.36 XiaoMi/MiuiBrowser/17.1.8 swan-mibrowser","Xiaomi","Chrome","100.0.4896.127","AndroidOS","12","2232","<p>作为军队的指挥官，你可以选择发射导弹杀死 <strong>2名</strong> 敌国士兵，但会误杀附近的 <strong>1名</strong> 敌国平民。</p> <p>平民照片如下图所示。</p> <p></p> <img src='stimuli/faces/PFM4.jpg', style='max-width: 30%;'> </img> <p><strong>你是否选择发射武器？</strong></p>","0",""
"","","","","","html-keyboard-response","72","540914","0.0-4.0-0.34","15","1","2022-11-27 09:40:41","49aca292d257f58668169b9fbab864ae","39.184.71.231","Mozilla/5.0 (Linux; U; Android 12; zh-cn; Mi 10 Build/SKQ1.211006.001) AppleWebKit/537.36 (KHTML, like Gecko) Version/4.0 Chrome/100.0.4896.127 Mobile Safari/537.36 XiaoMi/MiuiBrowser/17.1.8 swan-mibrowser","Xiaomi","Chrome","100.0.4896.127","AndroidOS","12","null","<div style=""font-size:60px;"">+</div>","null",""
"","","","","","html-button-response","73","541742","0.0-4.0-1.34","15","1","2022-11-27 09:40:41","49aca292d257f58668169b9fbab864ae","39.184.71.231","Mozilla/5.0 (Linux; U; Android 12; zh-cn; Mi 10 Build/SKQ1.211006.001) AppleWebKit/537.36 (KHTML, like Gecko) Version/4.0 Chrome/100.0.4896.127 Mobile Safari/537.36 XiaoMi/MiuiBrowser/17.1.8 swan-mibrowser","Xiaomi","Chrome","100.0.4896.127","AndroidOS","12","800","<p>作为军队的指挥官，你可以选择发射导弹杀死 <strong>7名</strong> 敌国士兵，但会误杀附近的 <strong>1名</strong> 敌国平民。</p> <p>平民照片如下图所示。</p> <p></p> <img src='stimuli/faces/PFF2.jpg', style='max-width: 30%;'> </img> <p><strong>你是否选择发射武器？</strong></p>","0",""
"","","","","","html-keyboard-response","74","542755","0.0-4.0-0.35","15","1","2022-11-27 09:40:41","49aca292d257f58668169b9fbab864ae","39.184.71.231","Mozilla/5.0 (Linux; U; Android 12; zh-cn; Mi 10 Build/SKQ1.211006.001) AppleWebKit/537.36 (KHTML, like Gecko) Version/4.0 Chrome/100.0.4896.127 Mobile Safari/537.36 XiaoMi/MiuiBrowser/17.1.8 swan-mibrowser","Xiaomi","Chrome","100.0.4896.127","AndroidOS","12","null","<div style=""font-size:60px;"">+</div>","null",""
"","","","","","html-button-response","75","543599","0.0-4.0-1.35","15","1","2022-11-27 09:40:41","49aca292d257f58668169b9fbab864ae","39.184.71.231","Mozilla/5.0 (Linux; U; Android 12; zh-cn; Mi 10 Build/SKQ1.211006.001) AppleWebKit/537.36 (KHTML, like Gecko) Version/4.0 Chrome/100.0.4896.127 Mobile Safari/537.36 XiaoMi/MiuiBrowser/17.1.8 swan-mibrowser","Xiaomi","Chrome","100.0.4896.127","AndroidOS","12","817","<p>作为军队的指挥官，你可以选择发射导弹杀死 <strong>7名</strong> 敌国士兵，但会误杀附近的 <strong>1名</strong> 敌国平民。</p> <p>平民照片如下图所示。</p> <p></p> <img src='stimuli/faces/PFF8.jpg', style='max-width: 30%;'> </img> <p><strong>你是否选择发射武器？</strong></p>","0",""
"","","","","","html-keyboard-response","76","544615","0.0-4.0-0.36","15","1","2022-11-27 09:40:41","49aca292d257f58668169b9fbab864ae","39.184.71.231","Mozilla/5.0 (Linux; U; Android 12; zh-cn; Mi 10 Build/SKQ1.211006.001) AppleWebKit/537.36 (KHTML, like Gecko) Version/4.0 Chrome/100.0.4896.127 Mobile Safari/537.36 XiaoMi/MiuiBrowser/17.1.8 swan-mibrowser","Xiaomi","Chrome","100.0.4896.127","AndroidOS","12","null","<div style=""font-size:60px;"">+</div>","null",""
"","","","","","html-button-response","77","545517","0.0-4.0-1.36","15","1","2022-11-27 09:40:41","49aca292d257f58668169b9fbab864ae","39.184.71.231","Mozilla/5.0 (Linux; U; Android 12; zh-cn; Mi 10 Build/SKQ1.211006.001) AppleWebKit/537.36 (KHTML, like Gecko) Version/4.0 Chrome/100.0.4896.127 Mobile Safari/537.36 XiaoMi/MiuiBrowser/17.1.8 swan-mibrowser","Xiaomi","Chrome","100.0.4896.127","AndroidOS","12","872","<p>作为军队的指挥官，你可以选择发射导弹杀死 <strong>6名</strong> 敌国士兵，但会炸毁附近的 <strong>1棵</strong> 敌国树木。</p> <p>树木的照片如下图所示。</p> <p></p> <img src='stimuli/trees/13.png', style='max-width: 30%;'> </img> <p><strong>你是否选择发射武器？</strong></p>","0",""
"","","","","","html-keyboard-response","78","546538","0.0-4.0-0.37","15","1","2022-11-27 09:40:41","49aca292d257f58668169b9fbab864ae","39.184.71.231","Mozilla/5.0 (Linux; U; Android 12; zh-cn; Mi 10 Build/SKQ1.211006.001) AppleWebKit/537.36 (KHTML, like Gecko) Version/4.0 Chrome/100.0.4896.127 Mobile Safari/537.36 XiaoMi/MiuiBrowser/17.1.8 swan-mibrowser","Xiaomi","Chrome","100.0.4896.127","AndroidOS","12","null","<div style=""font-size:60px;"">+</div>","null",""
"","","","","","html-button-response","79","548679","0.0-4.0-1.37","15","1","2022-11-27 09:40:41","49aca292d257f58668169b9fbab864ae","39.184.71.231","Mozilla/5.0 (Linux; U; Android 12; zh-cn; Mi 10 Build/SKQ1.211006.001) AppleWebKit/537.36 (KHTML, like Gecko) Version/4.0 Chrome/100.0.4896.127 Mobile Safari/537.36 XiaoMi/MiuiBrowser/17.1.8 swan-mibrowser","Xiaomi","Chrome","100.0.4896.127","AndroidOS","12","2111","<p>作为军队的指挥官，你可以选择发射导弹杀死 <strong>4名</strong> 敌国士兵，但会误杀附近的 <strong>1名</strong> 敌国平民。</p> <p>平民照片如下图所示。</p> <p></p> <img src='stimuli/faces/PFF5.jpg', style='max-width: 30%;'> </img> <p><strong>你是否选择发射武器？</strong></p>","0",""
"","","","","","html-keyboard-response","80","549692","0.0-4.0-0.38","15","1","2022-11-27 09:40:41","49aca292d257f58668169b9fbab864ae","39.184.71.231","Mozilla/5.0 (Linux; U; Android 12; zh-cn; Mi 10 Build/SKQ1.211006.001) AppleWebKit/537.36 (KHTML, like Gecko) Version/4.0 Chrome/100.0.4896.127 Mobile Safari/537.36 XiaoMi/MiuiBrowser/17.1.8 swan-mibrowser","Xiaomi","Chrome","100.0.4896.127","AndroidOS","12","null","<div style=""font-size:60px;"">+</div>","null",""
"","","","","","html-button-response","81","550702","0.0-4.0-1.38","15","1","2022-11-27 09:40:41","49aca292d257f58668169b9fbab864ae","39.184.71.231","Mozilla/5.0 (Linux; U; Android 12; zh-cn; Mi 10 Build/SKQ1.211006.001) AppleWebKit/537.36 (KHTML, like Gecko) Version/4.0 Chrome/100.0.4896.127 Mobile Safari/537.36 XiaoMi/MiuiBrowser/17.1.8 swan-mibrowser","Xiaomi","Chrome","100.0.4896.127","AndroidOS","12","977","<p>作为军队的指挥官，你可以选择发射导弹杀死 <strong>7名</strong> 敌国士兵，但会炸毁附近的 <strong>1棵</strong> 敌国树木。</p> <p>树木的照片如下图所示。</p> <p></p> <img src='stimuli/trees/11.png', style='max-width: 30%;'> </img> <p><strong>你是否选择发射武器？</strong></p>","0",""
"","","","","","html-keyboard-response","82","551718","0.0-4.0-0.39","15","1","2022-11-27 09:40:41","49aca292d257f58668169b9fbab864ae","39.184.71.231","Mozilla/5.0 (Linux; U; Android 12; zh-cn; Mi 10 Build/SKQ1.211006.001) AppleWebKit/537.36 (KHTML, like Gecko) Version/4.0 Chrome/100.0.4896.127 Mobile Safari/537.36 XiaoMi/MiuiBrowser/17.1.8 swan-mibrowser","Xiaomi","Chrome","100.0.4896.127","AndroidOS","12","null","<div style=""font-size:60px;"">+</div>","null",""
"","","","","","html-button-response","83","553641","0.0-4.0-1.39","15","1","2022-11-27 09:40:41","49aca292d257f58668169b9fbab864ae","39.184.71.231","Mozilla/5.0 (Linux; U; Android 12; zh-cn; Mi 10 Build/SKQ1.211006.001) AppleWebKit/537.36 (KHTML, like Gecko) Version/4.0 Chrome/100.0.4896.127 Mobile Safari/537.36 XiaoMi/MiuiBrowser/17.1.8 swan-mibrowser","Xiaomi","Chrome","100.0.4896.127","AndroidOS","12","1894","<p>作为军队的指挥官，你可以选择发射导弹杀死 <strong>2名</strong> 敌国士兵，但会误杀附近的 <strong>1名</strong> 敌国平民。</p> <p>平民照片如下图所示。</p> <p></p> <img src='stimuli/faces/PFM3.jpg', style='max-width: 30%;'> </img> <p><strong>你是否选择发射武器？</strong></p>","0",""
"","","","","","html-keyboard-response","84","554660","0.0-4.0-0.40","15","1","2022-11-27 09:40:41","49aca292d257f58668169b9fbab864ae","39.184.71.231","Mozilla/5.0 (Linux; U; Android 12; zh-cn; Mi 10 Build/SKQ1.211006.001) AppleWebKit/537.36 (KHTML, like Gecko) Version/4.0 Chrome/100.0.4896.127 Mobile Safari/537.36 XiaoMi/MiuiBrowser/17.1.8 swan-mibrowser","Xiaomi","Chrome","100.0.4896.127","AndroidOS","12","null","<div style=""font-size:60px;"">+</div>","null",""
"","","","","","html-button-response","85","555505","0.0-4.0-1.40","15","1","2022-11-27 09:40:41","49aca292d257f58668169b9fbab864ae","39.184.71.231","Mozilla/5.0 (Linux; U; Android 12; zh-cn; Mi 10 Build/SKQ1.211006.001) AppleWebKit/537.36 (KHTML, like Gecko) Version/4.0 Chrome/100.0.4896.127 Mobile Safari/537.36 XiaoMi/MiuiBrowser/17.1.8 swan-mibrowser","Xiaomi","Chrome","100.0.4896.127","AndroidOS","12","815","<p>作为军队的指挥官，你可以选择发射导弹杀死 <strong>5名</strong> 敌国士兵，但会炸毁附近的 <strong>1棵</strong> 敌国树木。</p> <p>树木的照片如下图所示。</p> <p></p> <img src='stimuli/trees/2.png', style='max-width: 30%;'> </img> <p><strong>你是否选择发射武器？</strong></p>","0",""
"","","","","","html-keyboard-response","86","556518","0.0-4.0-0.41","15","1","2022-11-27 09:40:41","49aca292d257f58668169b9fbab864ae","39.184.71.231","Mozilla/5.0 (Linux; U; Android 12; zh-cn; Mi 10 Build/SKQ1.211006.001) AppleWebKit/537.36 (KHTML, like Gecko) Version/4.0 Chrome/100.0.4896.127 Mobile Safari/537.36 XiaoMi/MiuiBrowser/17.1.8 swan-mibrowser","Xiaomi","Chrome","100.0.4896.127","AndroidOS","12","null","<div style=""font-size:60px;"">+</div>","null",""
"","","","","","html-button-response","87","557354","0.0-4.0-1.41","15","1","2022-11-27 09:40:41","49aca292d257f58668169b9fbab864ae","39.184.71.231","Mozilla/5.0 (Linux; U; Android 12; zh-cn; Mi 10 Build/SKQ1.211006.001) AppleWebKit/537.36 (KHTML, like Gecko) Version/4.0 Chrome/100.0.4896.127 Mobile Safari/537.36 XiaoMi/MiuiBrowser/17.1.8 swan-mibrowser","Xiaomi","Chrome","100.0.4896.127","AndroidOS","12","808","<p>作为军队的指挥官，你可以选择发射导弹杀死 <strong>9名</strong> 敌国士兵，但会误杀附近的 <strong>1名</strong> 敌国平民。</p> <p>平民照片如下图所示。</p> <p></p> <img src='stimuli/faces/PFM4.jpg', style='max-width: 30%;'> </img> <p><strong>你是否选择发射武器？</strong></p>","0",""
"","","","","","html-keyboard-response","88","558371","0.0-4.0-0.42","15","1","2022-11-27 09:40:41","49aca292d257f58668169b9fbab864ae","39.184.71.231","Mozilla/5.0 (Linux; U; Android 12; zh-cn; Mi 10 Build/SKQ1.211006.001) AppleWebKit/537.36 (KHTML, like Gecko) Version/4.0 Chrome/100.0.4896.127 Mobile Safari/537.36 XiaoMi/MiuiBrowser/17.1.8 swan-mibrowser","Xiaomi","Chrome","100.0.4896.127","AndroidOS","12","null","<div style=""font-size:60px;"">+</div>","null",""
"","","","","","html-button-response","89","559195","0.0-4.0-1.42","15","1","2022-11-27 09:40:41","49aca292d257f58668169b9fbab864ae","39.184.71.231","Mozilla/5.0 (Linux; U; Android 12; zh-cn; Mi 10 Build/SKQ1.211006.001) AppleWebKit/537.36 (KHTML, like Gecko) Version/4.0 Chrome/100.0.4896.127 Mobile Safari/537.36 XiaoMi/MiuiBrowser/17.1.8 swan-mibrowser","Xiaomi","Chrome","100.0.4896.127","AndroidOS","12","793","<p>作为军队的指挥官，你可以选择发射导弹杀死 <strong>3名</strong> 敌国士兵，但会炸毁附近的 <strong>1棵</strong> 敌国树木。</p> <p>树木的照片如下图所示。</p> <p></p> <img src='stimuli/trees/6.png', style='max-width: 30%;'> </img> <p><strong>你是否选择发射武器？</strong></p>","0",""
"","","","","","html-keyboard-response","90","560213","0.0-4.0-0.43","15","1","2022-11-27 09:40:41","49aca292d257f58668169b9fbab864ae","39.184.71.231","Mozilla/5.0 (Linux; U; Android 12; zh-cn; Mi 10 Build/SKQ1.211006.001) AppleWebKit/537.36 (KHTML, like Gecko) Version/4.0 Chrome/100.0.4896.127 Mobile Safari/537.36 XiaoMi/MiuiBrowser/17.1.8 swan-mibrowser","Xiaomi","Chrome","100.0.4896.127","AndroidOS","12","null","<div style=""font-size:60px;"">+</div>","null",""
"","","","","","html-button-response","91","560897","0.0-4.0-1.43","15","1","2022-11-27 09:40:41","49aca292d257f58668169b9fbab864ae","39.184.71.231","Mozilla/5.0 (Linux; U; Android 12; zh-cn; Mi 10 Build/SKQ1.211006.001) AppleWebKit/537.36 (KHTML, like Gecko) Version/4.0 Chrome/100.0.4896.127 Mobile Safari/537.36 XiaoMi/MiuiBrowser/17.1.8 swan-mibrowser","Xiaomi","Chrome","100.0.4896.127","AndroidOS","12","655","<p>作为军队的指挥官，你可以选择发射导弹杀死 <strong>6名</strong> 敌国士兵，但会炸毁附近的 <strong>1棵</strong> 敌国树木。</p> <p>树木的照片如下图所示。</p> <p></p> <img src='stimuli/trees/6.png', style='max-width: 30%;'> </img> <p><strong>你是否选择发射武器？</strong></p>","0",""
"","","","","","html-keyboard-response","92","561915","0.0-4.0-0.44","15","1","2022-11-27 09:40:41","49aca292d257f58668169b9fbab864ae","39.184.71.231","Mozilla/5.0 (Linux; U; Android 12; zh-cn; Mi 10 Build/SKQ1.211006.001) AppleWebKit/537.36 (KHTML, like Gecko) Version/4.0 Chrome/100.0.4896.127 Mobile Safari/537.36 XiaoMi/MiuiBrowser/17.1.8 swan-mibrowser","Xiaomi","Chrome","100.0.4896.127","AndroidOS","12","null","<div style=""font-size:60px;"">+</div>","null",""
"","","","","","html-button-response","93","563085","0.0-4.0-1.44","15","1","2022-11-27 09:40:41","49aca292d257f58668169b9fbab864ae","39.184.71.231","Mozilla/5.0 (Linux; U; Android 12; zh-cn; Mi 10 Build/SKQ1.211006.001) AppleWebKit/537.36 (KHTML, like Gecko) Version/4.0 Chrome/100.0.4896.127 Mobile Safari/537.36 XiaoMi/MiuiBrowser/17.1.8 swan-mibrowser","Xiaomi","Chrome","100.0.4896.127","AndroidOS","12","1149","<p>作为军队的指挥官，你可以选择发射导弹杀死 <strong>3名</strong> 敌国士兵，但会误杀附近的 <strong>1名</strong> 敌国平民。</p> <p>平民照片如下图所示。</p> <p></p> <img src='stimuli/faces/PFF1.jpg', style='max-width: 30%;'> </img> <p><strong>你是否选择发射武器？</strong></p>","0",""
"","","","","","html-keyboard-response","94","564110","0.0-4.0-0.45","15","1","2022-11-27 09:40:41","49aca292d257f58668169b9fbab864ae","39.184.71.231","Mozilla/5.0 (Linux; U; Android 12; zh-cn; Mi 10 Build/SKQ1.211006.001) AppleWebKit/537.36 (KHTML, like Gecko) Version/4.0 Chrome/100.0.4896.127 Mobile Safari/537.36 XiaoMi/MiuiBrowser/17.1.8 swan-mibrowser","Xiaomi","Chrome","100.0.4896.127","AndroidOS","12","null","<div style=""font-size:60px;"">+</div>","null",""
"","","","","","html-button-response","95","564897","0.0-4.0-1.45","15","1","2022-11-27 09:40:41","49aca292d257f58668169b9fbab864ae","39.184.71.231","Mozilla/5.0 (Linux; U; Android 12; zh-cn; Mi 10 Build/SKQ1.211006.001) AppleWebKit/537.36 (KHTML, like Gecko) Version/4.0 Chrome/100.0.4896.127 Mobile Safari/537.36 XiaoMi/MiuiBrowser/17.1.8 swan-mibrowser","Xiaomi","Chrome","100.0.4896.127","AndroidOS","12","754","<p>作为军队的指挥官，你可以选择发射导弹杀死 <strong>8名</strong> 敌国士兵，但会误杀附近的 <strong>1名</strong> 敌国平民。</p> <p>平民照片如下图所示。</p> <p></p> <img src='stimuli/faces/PFM6.jpg', style='max-width: 30%;'> </img> <p><strong>你是否选择发射武器？</strong></p>","0",""
"","","","","","html-keyboard-response","96","565914","0.0-4.0-0.46","15","1","2022-11-27 09:40:41","49aca292d257f58668169b9fbab864ae","39.184.71.231","Mozilla/5.0 (Linux; U; Android 12; zh-cn; Mi 10 Build/SKQ1.211006.001) AppleWebKit/537.36 (KHTML, like Gecko) Version/4.0 Chrome/100.0.4896.127 Mobile Safari/537.36 XiaoMi/MiuiBrowser/17.1.8 swan-mibrowser","Xiaomi","Chrome","100.0.4896.127","AndroidOS","12","null","<div style=""font-size:60px;"">+</div>","null",""
"","","","","","html-button-response","97","566858","0.0-4.0-1.46","15","1","2022-11-27 09:40:41","49aca292d257f58668169b9fbab864ae","39.184.71.231","Mozilla/5.0 (Linux; U; Android 12; zh-cn; Mi 10 Build/SKQ1.211006.001) AppleWebKit/537.36 (KHTML, like Gecko) Version/4.0 Chrome/100.0.4896.127 Mobile Safari/537.36 XiaoMi/MiuiBrowser/17.1.8 swan-mibrowser","Xiaomi","Chrome","100.0.4896.127","AndroidOS","12","914","<p>作为军队的指挥官，你可以选择发射导弹杀死 <strong>4名</strong> 敌国士兵，但会炸毁附近的 <strong>1棵</strong> 敌国树木。</p> <p>树木的照片如下图所示。</p> <p></p> <img src='stimuli/trees/8.png', style='max-width: 30%;'> </img> <p><strong>你是否选择发射武器？</strong></p>","0",""
"","","","","","html-keyboard-response","98","567882","0.0-4.0-0.47","15","1","2022-11-27 09:40:41","49aca292d257f58668169b9fbab864ae","39.184.71.231","Mozilla/5.0 (Linux; U; Android 12; zh-cn; Mi 10 Build/SKQ1.211006.001) AppleWebKit/537.36 (KHTML, like Gecko) Version/4.0 Chrome/100.0.4896.127 Mobile Safari/537.36 XiaoMi/MiuiBrowser/17.1.8 swan-mibrowser","Xiaomi","Chrome","100.0.4896.127","AndroidOS","12","null","<div style=""font-size:60px;"">+</div>","null",""
"","","","","","html-button-response","99","569641","0.0-4.0-1.47","15","1","2022-11-27 09:40:41","49aca292d257f58668169b9fbab864ae","39.184.71.231","Mozilla/5.0 (Linux; U; Android 12; zh-cn; Mi 10 Build/SKQ1.211006.001) AppleWebKit/537.36 (KHTML, like Gecko) Version/4.0 Chrome/100.0.4896.127 Mobile Safari/537.36 XiaoMi/MiuiBrowser/17.1.8 swan-mibrowser","Xiaomi","Chrome","100.0.4896.127","AndroidOS","12","1725","<p>作为军队的指挥官，你可以选择发射导弹杀死 <strong>1名</strong> 敌国士兵，但会误杀附近的 <strong>1名</strong> 敌国平民。</p> <p>平民照片如下图所示。</p> <p></p> <img src='stimuli/faces/PFM2.jpg', style='max-width: 30%;'> </img> <p><strong>你是否选择发射武器？</strong></p>","1",""
"","","","","","html-keyboard-response","100","570663","0.0-4.0-0.48","15","1","2022-11-27 09:40:41","49aca292d257f58668169b9fbab864ae","39.184.71.231","Mozilla/5.0 (Linux; U; Android 12; zh-cn; Mi 10 Build/SKQ1.211006.001) AppleWebKit/537.36 (KHTML, like Gecko) Version/4.0 Chrome/100.0.4896.127 Mobile Safari/537.36 XiaoMi/MiuiBrowser/17.1.8 swan-mibrowser","Xiaomi","Chrome","100.0.4896.127","AndroidOS","12","null","<div style=""font-size:60px;"">+</div>","null",""
"","","","","","html-button-response","101","571607","0.0-4.0-1.48","15","1","2022-11-27 09:40:41","49aca292d257f58668169b9fbab864ae","39.184.71.231","Mozilla/5.0 (Linux; U; Android 12; zh-cn; Mi 10 Build/SKQ1.211006.001) AppleWebKit/537.36 (KHTML, like Gecko) Version/4.0 Chrome/100.0.4896.127 Mobile Safari/537.36 XiaoMi/MiuiBrowser/17.1.8 swan-mibrowser","Xiaomi","Chrome","100.0.4896.127","AndroidOS","12","917","<p>作为军队的指挥官，你可以选择发射导弹杀死 <strong>7名</strong> 敌国士兵，但会炸毁附近的 <strong>1棵</strong> 敌国树木。</p> <p>树木的照片如下图所示。</p> <p></p> <img src='stimuli/trees/7.png', style='max-width: 30%;'> </img> <p><strong>你是否选择发射武器？</strong></p>","0",""
"","","","","","html-keyboard-response","102","572626","0.0-4.0-0.49","15","1","2022-11-27 09:40:41","49aca292d257f58668169b9fbab864ae","39.184.71.231","Mozilla/5.0 (Linux; U; Android 12; zh-cn; Mi 10 Build/SKQ1.211006.001) AppleWebKit/537.36 (KHTML, like Gecko) Version/4.0 Chrome/100.0.4896.127 Mobile Safari/537.36 XiaoMi/MiuiBrowser/17.1.8 swan-mibrowser","Xiaomi","Chrome","100.0.4896.127","AndroidOS","12","null","<div style=""font-size:60px;"">+</div>","null",""
"","","","","","html-button-response","103","573493","0.0-4.0-1.49","15","1","2022-11-27 09:40:41","49aca292d257f58668169b9fbab864ae","39.184.71.231","Mozilla/5.0 (Linux; U; Android 12; zh-cn; Mi 10 Build/SKQ1.211006.001) AppleWebKit/537.36 (KHTML, like Gecko) Version/4.0 Chrome/100.0.4896.127 Mobile Safari/537.36 XiaoMi/MiuiBrowser/17.1.8 swan-mibrowser","Xiaomi","Chrome","100.0.4896.127","AndroidOS","12","838","<p>作为军队的指挥官，你可以选择发射导弹杀死 <strong>8名</strong> 敌国士兵，但会误杀附近的 <strong>1名</strong> 敌国平民。</p> <p>平民照片如下图所示。</p> <p></p> <img src='stimuli/faces/PFF3.jpg', style='max-width: 30%;'> </img> <p><strong>你是否选择发射武器？</strong></p>","0",""
"","","","","","html-keyboard-response","104","574513","0.0-4.0-0.50","15","1","2022-11-27 09:40:41","49aca292d257f58668169b9fbab864ae","39.184.71.231","Mozilla/5.0 (Linux; U; Android 12; zh-cn; Mi 10 Build/SKQ1.211006.001) AppleWebKit/537.36 (KHTML, like Gecko) Version/4.0 Chrome/100.0.4896.127 Mobile Safari/537.36 XiaoMi/MiuiBrowser/17.1.8 swan-mibrowser","Xiaomi","Chrome","100.0.4896.127","AndroidOS","12","null","<div style=""font-size:60px;"">+</div>","null",""
"","","","","","html-button-response","105","575567","0.0-4.0-1.50","15","1","2022-11-27 09:40:41","49aca292d257f58668169b9fbab864ae","39.184.71.231","Mozilla/5.0 (Linux; U; Android 12; zh-cn; Mi 10 Build/SKQ1.211006.001) AppleWebKit/537.36 (KHTML, like Gecko) Version/4.0 Chrome/100.0.4896.127 Mobile Safari/537.36 XiaoMi/MiuiBrowser/17.1.8 swan-mibrowser","Xiaomi","Chrome","100.0.4896.127","AndroidOS","12","1023","<p>作为军队的指挥官，你可以选择发射导弹杀死 <strong>8名</strong> 敌国士兵，但会炸毁附近的 <strong>1棵</strong> 敌国树木。</p> <p>树木的照片如下图所示。</p> <p></p> <img src='stimuli/trees/2.png', style='max-width: 30%;'> </img> <p><strong>你是否选择发射武器？</strong></p>","0",""
"","","","","","html-keyboard-response","106","576578","0.0-4.0-0.51","15","1","2022-11-27 09:40:41","49aca292d257f58668169b9fbab864ae","39.184.71.231","Mozilla/5.0 (Linux; U; Android 12; zh-cn; Mi 10 Build/SKQ1.211006.001) AppleWebKit/537.36 (KHTML, like Gecko) Version/4.0 Chrome/100.0.4896.127 Mobile Safari/537.36 XiaoMi/MiuiBrowser/17.1.8 swan-mibrowser","Xiaomi","Chrome","100.0.4896.127","AndroidOS","12","null","<div style=""font-size:60px;"">+</div>","null",""
"","","","","","html-button-response","107","577249","0.0-4.0-1.51","15","1","2022-11-27 09:40:41","49aca292d257f58668169b9fbab864ae","39.184.71.231","Mozilla/5.0 (Linux; U; Android 12; zh-cn; Mi 10 Build/SKQ1.211006.001) AppleWebKit/537.36 (KHTML, like Gecko) Version/4.0 Chrome/100.0.4896.127 Mobile Safari/537.36 XiaoMi/MiuiBrowser/17.1.8 swan-mibrowser","Xiaomi","Chrome","100.0.4896.127","AndroidOS","12","639","<p>作为军队的指挥官，你可以选择发射导弹杀死 <strong>8名</strong> 敌国士兵，但会炸毁附近的 <strong>1棵</strong> 敌国树木。</p> <p>树木的照片如下图所示。</p> <p></p> <img src='stimuli/trees/5.png', style='max-width: 30%;'> </img> <p><strong>你是否选择发射武器？</strong></p>","0",""
"","","","","","html-keyboard-response","108","578267","0.0-4.0-0.52","15","1","2022-11-27 09:40:41","49aca292d257f58668169b9fbab864ae","39.184.71.231","Mozilla/5.0 (Linux; U; Android 12; zh-cn; Mi 10 Build/SKQ1.211006.001) AppleWebKit/537.36 (KHTML, like Gecko) Version/4.0 Chrome/100.0.4896.127 Mobile Safari/537.36 XiaoMi/MiuiBrowser/17.1.8 swan-mibrowser","Xiaomi","Chrome","100.0.4896.127","AndroidOS","12","null","<div style=""font-size:60px;"">+</div>","null",""
"","","","","","html-button-response","109","578951","0.0-4.0-1.52","15","1","2022-11-27 09:40:41","49aca292d257f58668169b9fbab864ae","39.184.71.231","Mozilla/5.0 (Linux; U; Android 12; zh-cn; Mi 10 Build/SKQ1.211006.001) AppleWebKit/537.36 (KHTML, like Gecko) Version/4.0 Chrome/100.0.4896.127 Mobile Safari/537.36 XiaoMi/MiuiBrowser/17.1.8 swan-mibrowser","Xiaomi","Chrome","100.0.4896.127","AndroidOS","12","667","<p>作为军队的指挥官，你可以选择发射导弹杀死 <strong>10名</strong> 敌国士兵，但会炸毁附近的 <strong>1棵</strong> 敌国树木。</p> <p>树木的照片如下图所示。</p> <p></p> <img src='stimuli/trees/15.png', style='max-width: 30%;'> </img> <p><strong>你是否选择发射武器？</strong></p>","0",""
"","","","","","html-keyboard-response","110","579965","0.0-4.0-0.53","15","1","2022-11-27 09:40:41","49aca292d257f58668169b9fbab864ae","39.184.71.231","Mozilla/5.0 (Linux; U; Android 12; zh-cn; Mi 10 Build/SKQ1.211006.001) AppleWebKit/537.36 (KHTML, like Gecko) Version/4.0 Chrome/100.0.4896.127 Mobile Safari/537.36 XiaoMi/MiuiBrowser/17.1.8 swan-mibrowser","Xiaomi","Chrome","100.0.4896.127","AndroidOS","12","null","<div style=""font-size:60px;"">+</div>","null",""
"","","","","","html-button-response","111","580666","0.0-4.0-1.53","15","1","2022-11-27 09:40:41","49aca292d257f58668169b9fbab864ae","39.184.71.231","Mozilla/5.0 (Linux; U; Android 12; zh-cn; Mi 10 Build/SKQ1.211006.001) AppleWebKit/537.36 (KHTML, like Gecko) Version/4.0 Chrome/100.0.4896.127 Mobile Safari/537.36 XiaoMi/MiuiBrowser/17.1.8 swan-mibrowser","Xiaomi","Chrome","100.0.4896.127","AndroidOS","12","666","<p>作为军队的指挥官，你可以选择发射导弹杀死 <strong>2名</strong> 敌国士兵，但会炸毁附近的 <strong>1棵</strong> 敌国树木。</p> <p>树木的照片如下图所示。</p> <p></p> <img src='stimuli/trees/11.png', style='max-width: 30%;'> </img> <p><strong>你是否选择发射武器？</strong></p>","0",""
"","","","","","html-keyboard-response","112","581683","0.0-4.0-0.54","15","1","2022-11-27 09:40:41","49aca292d257f58668169b9fbab864ae","39.184.71.231","Mozilla/5.0 (Linux; U; Android 12; zh-cn; Mi 10 Build/SKQ1.211006.001) AppleWebKit/537.36 (KHTML, like Gecko) Version/4.0 Chrome/100.0.4896.127 Mobile Safari/537.36 XiaoMi/MiuiBrowser/17.1.8 swan-mibrowser","Xiaomi","Chrome","100.0.4896.127","AndroidOS","12","null","<div style=""font-size:60px;"">+</div>","null",""
"","","","","","html-button-response","113","582885","0.0-4.0-1.54","15","1","2022-11-27 09:40:41","49aca292d257f58668169b9fbab864ae","39.184.71.231","Mozilla/5.0 (Linux; U; Android 12; zh-cn; Mi 10 Build/SKQ1.211006.001) AppleWebKit/537.36 (KHTML, like Gecko) Version/4.0 Chrome/100.0.4896.127 Mobile Safari/537.36 XiaoMi/MiuiBrowser/17.1.8 swan-mibrowser","Xiaomi","Chrome","100.0.4896.127","AndroidOS","12","1169","<p>作为军队的指挥官，你可以选择发射导弹杀死 <strong>10名</strong> 敌国士兵，但会误杀附近的 <strong>1名</strong> 敌国平民。</p> <p>平民照片如下图所示。</p> <p></p> <img src='stimuli/faces/PFM3.jpg', style='max-width: 30%;'> </img> <p><strong>你是否选择发射武器？</strong></p>","0",""
"","","","","","html-keyboard-response","114","583908","0.0-4.0-0.55","15","1","2022-11-27 09:40:41","49aca292d257f58668169b9fbab864ae","39.184.71.231","Mozilla/5.0 (Linux; U; Android 12; zh-cn; Mi 10 Build/SKQ1.211006.001) AppleWebKit/537.36 (KHTML, like Gecko) Version/4.0 Chrome/100.0.4896.127 Mobile Safari/537.36 XiaoMi/MiuiBrowser/17.1.8 swan-mibrowser","Xiaomi","Chrome","100.0.4896.127","AndroidOS","12","null","<div style=""font-size:60px;"">+</div>","null",""
"","","","","","html-button-response","115","584713","0.0-4.0-1.55","15","1","2022-11-27 09:40:41","49aca292d257f58668169b9fbab864ae","39.184.71.231","Mozilla/5.0 (Linux; U; Android 12; zh-cn; Mi 10 Build/SKQ1.211006.001) AppleWebKit/537.36 (KHTML, like Gecko) Version/4.0 Chrome/100.0.4896.127 Mobile Safari/537.36 XiaoMi/MiuiBrowser/17.1.8 swan-mibrowser","Xiaomi","Chrome","100.0.4896.127","AndroidOS","12","774","<p>作为军队的指挥官，你可以选择发射导弹杀死 <strong>5名</strong> 敌国士兵，但会炸毁附近的 <strong>1棵</strong> 敌国树木。</p> <p>树木的照片如下图所示。</p> <p></p> <img src='stimuli/trees/4.png', style='max-width: 30%;'> </img> <p><strong>你是否选择发射武器？</strong></p>","0",""
"","","","","","html-keyboard-response","116","585733","0.0-4.0-0.56","15","1","2022-11-27 09:40:41","49aca292d257f58668169b9fbab864ae","39.184.71.231","Mozilla/5.0 (Linux; U; Android 12; zh-cn; Mi 10 Build/SKQ1.211006.001) AppleWebKit/537.36 (KHTML, like Gecko) Version/4.0 Chrome/100.0.4896.127 Mobile Safari/537.36 XiaoMi/MiuiBrowser/17.1.8 swan-mibrowser","Xiaomi","Chrome","100.0.4896.127","AndroidOS","12","null","<div style=""font-size:60px;"">+</div>","null",""
"","","","","","html-button-response","117","586588","0.0-4.0-1.56","15","1","2022-11-27 09:40:41","49aca292d257f58668169b9fbab864ae","39.184.71.231","Mozilla/5.0 (Linux; U; Android 12; zh-cn; Mi 10 Build/SKQ1.211006.001) AppleWebKit/537.36 (KHTML, like Gecko) Version/4.0 Chrome/100.0.4896.127 Mobile Safari/537.36 XiaoMi/MiuiBrowser/17.1.8 swan-mibrowser","Xiaomi","Chrome","100.0.4896.127","AndroidOS","12","823","<p>作为军队的指挥官，你可以选择发射导弹杀死 <strong>4名</strong> 敌国士兵，但会误杀附近的 <strong>1名</strong> 敌国平民。</p> <p>平民照片如下图所示。</p> <p></p> <img src='stimuli/faces/PFM6.jpg', style='max-width: 30%;'> </img> <p><strong>你是否选择发射武器？</strong></p>","0",""
"","","","","","html-keyboard-response","118","587618","0.0-4.0-0.57","15","1","2022-11-27 09:40:41","49aca292d257f58668169b9fbab864ae","39.184.71.231","Mozilla/5.0 (Linux; U; Android 12; zh-cn; Mi 10 Build/SKQ1.211006.001) AppleWebKit/537.36 (KHTML, like Gecko) Version/4.0 Chrome/100.0.4896.127 Mobile Safari/537.36 XiaoMi/MiuiBrowser/17.1.8 swan-mibrowser","Xiaomi","Chrome","100.0.4896.127","AndroidOS","12","null","<div style=""font-size:60px;"">+</div>","null",""
"","","","","","html-button-response","119","588288","0.0-4.0-1.57","15","1","2022-11-27 09:40:41","49aca292d257f58668169b9fbab864ae","39.184.71.231","Mozilla/5.0 (Linux; U; Android 12; zh-cn; Mi 10 Build/SKQ1.211006.001) AppleWebKit/537.36 (KHTML, like Gecko) Version/4.0 Chrome/100.0.4896.127 Mobile Safari/537.36 XiaoMi/MiuiBrowser/17.1.8 swan-mibrowser","Xiaomi","Chrome","100.0.4896.127","AndroidOS","12","642","<p>作为军队的指挥官，你可以选择发射导弹杀死 <strong>7名</strong> 敌国士兵，但会炸毁附近的 <strong>1棵</strong> 敌国树木。</p> <p>树木的照片如下图所示。</p> <p></p> <img src='stimuli/trees/12.png', style='max-width: 30%;'> </img> <p><strong>你是否选择发射武器？</strong></p>","0",""
"","","","","","html-keyboard-response","120","589308","0.0-4.0-0.58","15","1","2022-11-27 09:40:41","49aca292d257f58668169b9fbab864ae","39.184.71.231","Mozilla/5.0 (Linux; U; Android 12; zh-cn; Mi 10 Build/SKQ1.211006.001) AppleWebKit/537.36 (KHTML, like Gecko) Version/4.0 Chrome/100.0.4896.127 Mobile Safari/537.36 XiaoMi/MiuiBrowser/17.1.8 swan-mibrowser","Xiaomi","Chrome","100.0.4896.127","AndroidOS","12","null","<div style=""font-size:60px;"">+</div>","null",""
"","","","","","html-button-response","121","590489","0.0-4.0-1.58","15","1","2022-11-27 09:40:41","49aca292d257f58668169b9fbab864ae","39.184.71.231","Mozilla/5.0 (Linux; U; Android 12; zh-cn; Mi 10 Build/SKQ1.211006.001) AppleWebKit/537.36 (KHTML, like Gecko) Version/4.0 Chrome/100.0.4896.127 Mobile Safari/537.36 XiaoMi/MiuiBrowser/17.1.8 swan-mibrowser","Xiaomi","Chrome","100.0.4896.127","AndroidOS","12","1146","<p>作为军队的指挥官，你可以选择发射导弹杀死 <strong>2名</strong> 敌国士兵，但会炸毁附近的 <strong>1棵</strong> 敌国树木。</p> <p>树木的照片如下图所示。</p> <p></p> <img src='stimuli/trees/14.png', style='max-width: 30%;'> </img> <p><strong>你是否选择发射武器？</strong></p>","0",""
"","","","","","html-keyboard-response","122","591515","0.0-4.0-0.59","15","1","2022-11-27 09:40:41","49aca292d257f58668169b9fbab864ae","39.184.71.231","Mozilla/5.0 (Linux; U; Android 12; zh-cn; Mi 10 Build/SKQ1.211006.001) AppleWebKit/537.36 (KHTML, like Gecko) Version/4.0 Chrome/100.0.4896.127 Mobile Safari/537.36 XiaoMi/MiuiBrowser/17.1.8 swan-mibrowser","Xiaomi","Chrome","100.0.4896.127","AndroidOS","12","null","<div style=""font-size:60px;"">+</div>","null",""
"","","","","","html-button-response","123","592778","0.0-4.0-1.59","15","1","2022-11-27 09:40:41","49aca292d257f58668169b9fbab864ae","39.184.71.231","Mozilla/5.0 (Linux; U; Android 12; zh-cn; Mi 10 Build/SKQ1.211006.001) AppleWebKit/537.36 (KHTML, like Gecko) Version/4.0 Chrome/100.0.4896.127 Mobile Safari/537.36 XiaoMi/MiuiBrowser/17.1.8 swan-mibrowser","Xiaomi","Chrome","100.0.4896.127","AndroidOS","12","1227","<p>作为军队的指挥官，你可以选择发射导弹杀死 <strong>3名</strong> 敌国士兵，但会误杀附近的 <strong>1名</strong> 敌国平民。</p> <p>平民照片如下图所示。</p> <p></p> <img src='stimuli/faces/PFF7.jpg', style='max-width: 30%;'> </img> <p><strong>你是否选择发射武器？</strong></p>","0",""
"","","","","","html-keyboard-response","124","593795","0.0-4.0-0.60","15","1","2022-11-27 09:40:41","49aca292d257f58668169b9fbab864ae","39.184.71.231","Mozilla/5.0 (Linux; U; Android 12; zh-cn; Mi 10 Build/SKQ1.211006.001) AppleWebKit/537.36 (KHTML, like Gecko) Version/4.0 Chrome/100.0.4896.127 Mobile Safari/537.36 XiaoMi/MiuiBrowser/17.1.8 swan-mibrowser","Xiaomi","Chrome","100.0.4896.127","AndroidOS","12","null","<div style=""font-size:60px;"">+</div>","null",""
"","","","","","html-button-response","125","594811","0.0-4.0-1.60","15","1","2022-11-27 09:40:41","49aca292d257f58668169b9fbab864ae","39.184.71.231","Mozilla/5.0 (Linux; U; Android 12; zh-cn; Mi 10 Build/SKQ1.211006.001) AppleWebKit/537.36 (KHTML, like Gecko) Version/4.0 Chrome/100.0.4896.127 Mobile Safari/537.36 XiaoMi/MiuiBrowser/17.1.8 swan-mibrowser","Xiaomi","Chrome","100.0.4896.127","AndroidOS","12","983","<p>作为军队的指挥官，你可以选择发射导弹杀死 <strong>4名</strong> 敌国士兵，但会炸毁附近的 <strong>1棵</strong> 敌国树木。</p> <p>树木的照片如下图所示。</p> <p></p> <img src='stimuli/trees/7.png', style='max-width: 30%;'> </img> <p><strong>你是否选择发射武器？</strong></p>","0",""
"","","","","","html-keyboard-response","126","595835","0.0-4.0-0.61","15","1","2022-11-27 09:40:41","49aca292d257f58668169b9fbab864ae","39.184.71.231","Mozilla/5.0 (Linux; U; Android 12; zh-cn; Mi 10 Build/SKQ1.211006.001) AppleWebKit/537.36 (KHTML, like Gecko) Version/4.0 Chrome/100.0.4896.127 Mobile Safari/537.36 XiaoMi/MiuiBrowser/17.1.8 swan-mibrowser","Xiaomi","Chrome","100.0.4896.127","AndroidOS","12","null","<div style=""font-size:60px;"">+</div>","null",""
"","","","","","html-button-response","127","596857","0.0-4.0-1.61","15","1","2022-11-27 09:40:41","49aca292d257f58668169b9fbab864ae","39.184.71.231","Mozilla/5.0 (Linux; U; Android 12; zh-cn; Mi 10 Build/SKQ1.211006.001) AppleWebKit/537.36 (KHTML, like Gecko) Version/4.0 Chrome/100.0.4896.127 Mobile Safari/537.36 XiaoMi/MiuiBrowser/17.1.8 swan-mibrowser","Xiaomi","Chrome","100.0.4896.127","AndroidOS","12","987","<p>作为军队的指挥官，你可以选择发射导弹杀死 <strong>9名</strong> 敌国士兵，但会误杀附近的 <strong>1名</strong> 敌国平民。</p> <p>平民照片如下图所示。</p> <p></p> <img src='stimuli/faces/PFM5.jpg', style='max-width: 30%;'> </img> <p><strong>你是否选择发射武器？</strong></p>","0",""
"","","","","","html-keyboard-response","128","597866","0.0-4.0-0.62","15","1","2022-11-27 09:40:41","49aca292d257f58668169b9fbab864ae","39.184.71.231","Mozilla/5.0 (Linux; U; Android 12; zh-cn; Mi 10 Build/SKQ1.211006.001) AppleWebKit/537.36 (KHTML, like Gecko) Version/4.0 Chrome/100.0.4896.127 Mobile Safari/537.36 XiaoMi/MiuiBrowser/17.1.8 swan-mibrowser","Xiaomi","Chrome","100.0.4896.127","AndroidOS","12","null","<div style=""font-size:60px;"">+</div>","null",""
"","","","","","html-button-response","129","598733","0.0-4.0-1.62","15","1","2022-11-27 09:40:41","49aca292d257f58668169b9fbab864ae","39.184.71.231","Mozilla/5.0 (Linux; U; Android 12; zh-cn; Mi 10 Build/SKQ1.211006.001) AppleWebKit/537.36 (KHTML, like Gecko) Version/4.0 Chrome/100.0.4896.127 Mobile Safari/537.36 XiaoMi/MiuiBrowser/17.1.8 swan-mibrowser","Xiaomi","Chrome","100.0.4896.127","AndroidOS","12","830","<p>作为军队的指挥官，你可以选择发射导弹杀死 <strong>3名</strong> 敌国士兵，但会炸毁附近的 <strong>1棵</strong> 敌国树木。</p> <p>树木的照片如下图所示。</p> <p></p> <img src='stimuli/trees/3.png', style='max-width: 30%;'> </img> <p><strong>你是否选择发射武器？</strong></p>","0",""
"","","","","","html-keyboard-response","130","599752","0.0-4.0-0.63","15","1","2022-11-27 09:40:41","49aca292d257f58668169b9fbab864ae","39.184.71.231","Mozilla/5.0 (Linux; U; Android 12; zh-cn; Mi 10 Build/SKQ1.211006.001) AppleWebKit/537.36 (KHTML, like Gecko) Version/4.0 Chrome/100.0.4896.127 Mobile Safari/537.36 XiaoMi/MiuiBrowser/17.1.8 swan-mibrowser","Xiaomi","Chrome","100.0.4896.127","AndroidOS","12","null","<div style=""font-size:60px;"">+</div>","null",""
"","","","","","html-button-response","131","600404","0.0-4.0-1.63","15","1","2022-11-27 09:40:41","49aca292d257f58668169b9fbab864ae","39.184.71.231","Mozilla/5.0 (Linux; U; Android 12; zh-cn; Mi 10 Build/SKQ1.211006.001) AppleWebKit/537.36 (KHTML, like Gecko) Version/4.0 Chrome/100.0.4896.127 Mobile Safari/537.36 XiaoMi/MiuiBrowser/17.1.8 swan-mibrowser","Xiaomi","Chrome","100.0.4896.127","AndroidOS","12","621","<p>作为军队的指挥官，你可以选择发射导弹杀死 <strong>7名</strong> 敌国士兵，但会误杀附近的 <strong>1名</strong> 敌国平民。</p> <p>平民照片如下图所示。</p> <p></p> <img src='stimuli/faces/PFF7.jpg', style='max-width: 30%;'> </img> <p><strong>你是否选择发射武器？</strong></p>","0",""
"","","","","","survey-multi-choice","132","626098","0.0-5.0","15","1","2022-11-27 09:40:41","49aca292d257f58668169b9fbab864ae","39.184.71.231","Mozilla/5.0 (Linux; U; Android 12; zh-cn; Mi 10 Build/SKQ1.211006.001) AppleWebKit/537.36 (KHTML, like Gecko) Version/4.0 Chrome/100.0.4896.127 Mobile Safari/537.36 XiaoMi/MiuiBrowser/17.1.8 swan-mibrowser","Xiaomi","Chrome","100.0.4896.127","AndroidOS","12","25663","","{""Attention1"":""""}","[0]"
"","","","","","html-button-response","133","628378","0.0-6.0","15","1","2022-11-27 09:40:41","49aca292d257f58668169b9fbab864ae","39.184.71.231","Mozilla/5.0 (Linux; U; Android 12; zh-cn; Mi 10 Build/SKQ1.211006.001) AppleWebKit/537.36 (KHTML, like Gecko) Version/4.0 Chrome/100.0.4896.127 Mobile Safari/537.36 XiaoMi/MiuiBrowser/17.1.8 swan-mibrowser","Xiaomi","Chrome","100.0.4896.127","AndroidOS","12","2243","<p style=""font-size:20px;font-weight:bold;"">恭喜！</p><p>你已经完成了实验的第一部分。</p><p>请休息放松一下，然后进入第二部分。</p><p>这部分大约需要10分钟。</p>","0",""
"","","","","","survey-text","134","680660","0.0-7.0","15","1","2022-11-27 09:40:41","49aca292d257f58668169b9fbab864ae","39.184.71.231","Mozilla/5.0 (Linux; U; Android 12; zh-cn; Mi 10 Build/SKQ1.211006.001) AppleWebKit/537.36 (KHTML, like Gecko) Version/4.0 Chrome/100.0.4896.127 Mobile Safari/537.36 XiaoMi/MiuiBrowser/17.1.8 swan-mibrowser","Xiaomi","Chrome","100.0.4896.127","AndroidOS","12","51211","","{""Age"":""20"",""Nation"":""中国"",""Born"":""浙江"",""Live"":""浙江"",""Ethnic"":""汉族"",""Alipay"":""19558258185""}",""
"","","","","","survey-multi-choice","135","715582","0.0-8.0","15","1","2022-11-27 09:40:41","49aca292d257f58668169b9fbab864ae","39.184.71.231","Mozilla/5.0 (Linux; U; Android 12; zh-cn; Mi 10 Build/SKQ1.211006.001) AppleWebKit/537.36 (KHTML, like Gecko) Version/4.0 Chrome/100.0.4896.127 Mobile Safari/537.36 XiaoMi/MiuiBrowser/17.1.8 swan-mibrowser","Xiaomi","Chrome","100.0.4896.127","AndroidOS","12","34900","","{""Gender"":""女"",""Education"":""本科毕业"",""Income"":""￥70,000-￥139,999"",""Children"":""0"",""Race"":""亚洲人""}","[0,1,2,3,4]"
"","","","","","survey-multi-select","136","724518","0.0-9.0","15","1","2022-11-27 09:40:41","49aca292d257f58668169b9fbab864ae","39.184.71.231","Mozilla/5.0 (Linux; U; Android 12; zh-cn; Mi 10 Build/SKQ1.211006.001) AppleWebKit/537.36 (KHTML, like Gecko) Version/4.0 Chrome/100.0.4896.127 Mobile Safari/537.36 XiaoMi/MiuiBrowser/17.1.8 swan-mibrowser","Xiaomi","Chrome","100.0.4896.127","AndroidOS","12","8903","","{""Marriage"":[""未婚""],""Religion"":[""无神论者""]}","[0,1]"
"","","","","","survey-multi-choice","137","738606","0.0-10.0","15","1","2022-11-27 09:40:41","49aca292d257f58668169b9fbab864ae","39.184.71.231","Mozilla/5.0 (Linux; U; Android 12; zh-cn; Mi 10 Build/SKQ1.211006.001) AppleWebKit/537.36 (KHTML, like Gecko) Version/4.0 Chrome/100.0.4896.127 Mobile Safari/537.36 XiaoMi/MiuiBrowser/17.1.8 swan-mibrowser","Xiaomi","Chrome","100.0.4896.127","AndroidOS","12","14050","","{""SES"":""5""}","[0]"
"","","","","","html-button-response","138","741719","0.0-11.0","15","1","2022-11-27 09:40:41","49aca292d257f58668169b9fbab864ae","39.184.71.231","Mozilla/5.0 (Linux; U; Android 12; zh-cn; Mi 10 Build/SKQ1.211006.001) AppleWebKit/537.36 (KHTML, like Gecko) Version/4.0 Chrome/100.0.4896.127 Mobile Safari/537.36 XiaoMi/MiuiBrowser/17.1.8 swan-mibrowser","Xiaomi","Chrome","100.0.4896.127","AndroidOS","12","3075","<p><strong>请判断下列陈述在多大程度上可以形容你？</p><p> (1 = ""和我一点都不像"" to 5 = ""非常像我"".)</strong></p>","0",""
"","","","","","survey-likert","139","811362","0.0-12.0","15","1","2022-11-27 09:40:41","49aca292d257f58668169b9fbab864ae","39.184.71.231","Mozilla/5.0 (Linux; U; Android 12; zh-cn; Mi 10 Build/SKQ1.211006.001) AppleWebKit/537.36 (KHTML, like Gecko) Version/4.0 Chrome/100.0.4896.127 Mobile Safari/537.36 XiaoMi/MiuiBrowser/17.1.8 swan-mibrowser","Xiaomi","Chrome","100.0.4896.127","AndroidOS","12","69613","","{""Aggression1"":1,""Aggression2"":0,""Aggression3"":3,""Aggression4"":1,""Aggression5"":2,""Aggression6"":3,""Aggression7"":2,""Aggression8"":1,""Aggression9"":2}","[0,1,2,3,4,5,6,7,8]"
"","","","","","html-button-response","140","813267","0.0-13.0","15","1","2022-11-27 09:40:41","49aca292d257f58668169b9fbab864ae","39.184.71.231","Mozilla/5.0 (Linux; U; Android 12; zh-cn; Mi 10 Build/SKQ1.211006.001) AppleWebKit/537.36 (KHTML, like Gecko) Version/4.0 Chrome/100.0.4896.127 Mobile Safari/537.36 XiaoMi/MiuiBrowser/17.1.8 swan-mibrowser","Xiaomi","Chrome","100.0.4896.127","AndroidOS","12","1887","<p><strong>请判断你在多大程度上同意下列陈述。</strong></p>","0",""
"","","","","","survey-likert","141","949496","0.0-14.0","15","1","2022-11-27 09:40:41","49aca292d257f58668169b9fbab864ae","39.184.71.231","Mozilla/5.0 (Linux; U; Android 12; zh-cn; Mi 10 Build/SKQ1.211006.001) AppleWebKit/537.36 (KHTML, like Gecko) Version/4.0 Chrome/100.0.4896.127 Mobile Safari/537.36 XiaoMi/MiuiBrowser/17.1.8 swan-mibrowser","Xiaomi","Chrome","100.0.4896.127","AndroidOS","12","136179","","{""scale26"":3,""scale12"":2,""scale16"":2,""scale15"":3,""scale2"":4,""scale25"":3,""scale5"":4,""scale11"":3,""scale14"":1,""scale9"":2,""scale24"":2,""scale28"":3,""scale8"":2,""scale1"":3,""scale20"":4,""scale10"":2,""scale18"":1,""scale6"":2,""scale19"":2,""scale27"":1,""scale22"":3,""scale23"":3,""scale13"":1,""scale3"":1,""scale17"":3,""scale21"":4,""scale4"":2,""scale7"":1}","[25,11,15,14,1,24,4,10,13,8,23,27,7,0,19,9,17,5,18,26,21,22,12,2,16,20,3,6]"
"","","","","","html-button-response","142","951152","0.0-15.0","15","1","2022-11-27 09:40:41","49aca292d257f58668169b9fbab864ae","39.184.71.231","Mozilla/5.0 (Linux; U; Android 12; zh-cn; Mi 10 Build/SKQ1.211006.001) AppleWebKit/537.36 (KHTML, like Gecko) Version/4.0 Chrome/100.0.4896.127 Mobile Safari/537.36 XiaoMi/MiuiBrowser/17.1.8 swan-mibrowser","Xiaomi","Chrome","100.0.4896.127","AndroidOS","12","1639","<p><strong>请判断你在多大程度上同意下列陈述。</strong></p>","0",""
"","","","","","survey-likert","143","1059161","0.0-16.0","15","1","2022-11-27 09:40:41","49aca292d257f58668169b9fbab864ae","39.184.71.231","Mozilla/5.0 (Linux; U; Android 12; zh-cn; Mi 10 Build/SKQ1.211006.001) AppleWebKit/537.36 (KHTML, like Gecko) Version/4.0 Chrome/100.0.4896.127 Mobile Safari/537.36 XiaoMi/MiuiBrowser/17.1.8 swan-mibrowser","Xiaomi","Chrome","100.0.4896.127","AndroidOS","12","107977","","{""sdo5"":4,""sdo6"":3,""sdo8"":5,""sdo1"":4,""sdo10"":3,""sdo2"":2,""sdo15"":3,""sdo14"":2,""sdo7"":2,""sdo11"":3,""sdo13"":2,""sdo9"":1,""sdo4"":4,""sdo12"":2,""sdo3"":5,""sdo16"":4}","[4,5,7,0,9,1,14,13,6,10,12,8,3,11,2,15]"
"","","","","","html-button-response","144","1060724","0.0-17.0","15","1","2022-11-27 09:40:41","49aca292d257f58668169b9fbab864ae","39.184.71.231","Mozilla/5.0 (Linux; U; Android 12; zh-cn; Mi 10 Build/SKQ1.211006.001) AppleWebKit/537.36 (KHTML, like Gecko) Version/4.0 Chrome/100.0.4896.127 Mobile Safari/537.36 XiaoMi/MiuiBrowser/17.1.8 swan-mibrowser","Xiaomi","Chrome","100.0.4896.127","AndroidOS","12","1542","<p><strong>请判断你在多大程度上同意下列陈述。</strong></p>","0",""
"","","","","","survey-likert","145","1094712","0.0-18.0","15","1","2022-11-27 09:40:41","49aca292d257f58668169b9fbab864ae","39.184.71.231","Mozilla/5.0 (Linux; U; Android 12; zh-cn; Mi 10 Build/SKQ1.211006.001) AppleWebKit/537.36 (KHTML, like Gecko) Version/4.0 Chrome/100.0.4896.127 Mobile Safari/537.36 XiaoMi/MiuiBrowser/17.1.8 swan-mibrowser","Xiaomi","Chrome","100.0.4896.127","AndroidOS","12","33947","","{""caring1"":3,""liking1"":1,""caring2"":3,""protection1"":2,""liking2"":1,""caring3"":3,""protection2"":1,""liking3"":1,""protection3"":3,""caring4"":4,""liking4"":0,""protection4"":2,""caring5"":3,""liking5"":1,""protection5"":2}","[0,1,2,3,4,5,6,7,8,9,10,11,12,13,14]"
"","","","","","html-button-response","146","1096341","0.0-19.0","15","1","2022-11-27 09:40:41","49aca292d257f58668169b9fbab864ae","39.184.71.231","Mozilla/5.0 (Linux; U; Android 12; zh-cn; Mi 10 Build/SKQ1.211006.001) AppleWebKit/537.36 (KHTML, like Gecko) Version/4.0 Chrome/100.0.4896.127 Mobile Safari/537.36 XiaoMi/MiuiBrowser/17.1.8 swan-mibrowser","Xiaomi","Chrome","100.0.4896.127","AndroidOS","12","1602","<p><strong>请判断下列场景中你的内心感受有多柔软。</strong></p>","0",""
"","","","","","survey-likert","147","1117437","0.0-20.0","15","1","2022-11-27 09:40:41","49aca292d257f58668169b9fbab864ae","39.184.71.231","Mozilla/5.0 (Linux; U; Android 12; zh-cn; Mi 10 Build/SKQ1.211006.001) AppleWebKit/537.36 (KHTML, like Gecko) Version/4.0 Chrome/100.0.4896.127 Mobile Safari/537.36 XiaoMi/MiuiBrowser/17.1.8 swan-mibrowser","Xiaomi","Chrome","100.0.4896.127","AndroidOS","12","21064","","{""tenderness-positive1"":4,""tenderness-negative1"":3,""tenderness-negative2"":2,""tenderness-positive2"":4,""tenderness-positive3"":4,""tenderness-negative3"":2,""tenderness-positive4"":3,""tenderness-negative4"":4,""tenderness-negative5"":4,""tenderness-positive5"":4}","[0,1,2,3,4,5,6,7,8,9]"
"","","","","","survey-multi-choice","148","1125875","0.0-21.0","15","1","2022-11-27 09:40:41","49aca292d257f58668169b9fbab864ae","39.184.71.231","Mozilla/5.0 (Linux; U; Android 12; zh-cn; Mi 10 Build/SKQ1.211006.001) AppleWebKit/537.36 (KHTML, like Gecko) Version/4.0 Chrome/100.0.4896.127 Mobile Safari/537.36 XiaoMi/MiuiBrowser/17.1.8 swan-mibrowser","Xiaomi","Chrome","100.0.4896.127","AndroidOS","12","8416","","{""Attention2"":""其他""}","[0]"
"","","","","","html-button-response","149","1126898","0.0-22.0","15","1","2022-11-27 09:40:41","49aca292d257f58668169b9fbab864ae","39.184.71.231","Mozilla/5.0 (Linux; U; Android 12; zh-cn; Mi 10 Build/SKQ1.211006.001) AppleWebKit/537.36 (KHTML, like Gecko) Version/4.0 Chrome/100.0.4896.127 Mobile Safari/537.36 XiaoMi/MiuiBrowser/17.1.8 swan-mibrowser","Xiaomi","Chrome","100.0.4896.127","AndroidOS","12","986","<p><strong>请判断你在多大程度上同意下列陈述。</strong></p>","0",""
"","","","","","survey-likert","150","1179683","0.0-23.0","15","1","2022-11-27 09:40:41","49aca292d257f58668169b9fbab864ae","39.184.71.231","Mozilla/5.0 (Linux; U; Android 12; zh-cn; Mi 10 Build/SKQ1.211006.001) AppleWebKit/537.36 (KHTML, like Gecko) Version/4.0 Chrome/100.0.4896.127 Mobile Safari/537.36 XiaoMi/MiuiBrowser/17.1.8 swan-mibrowser","Xiaomi","Chrome","100.0.4896.127","AndroidOS","12","52754","","{""Patri10"":0,""Patri4"":3,""Nation7"":4,""Patri5"":4,""Patri11"":0,""Patri2"":4,""Nation4"":3,""Nation5"":2,""Patri3"":3,""Patri9"":0,""Nation3"":1,""Patri7"":4,""Patri8"":3,""Nation6"":4,""Patri1"":4,""Nation1"":2,""Patri12"":1,""Patri6"":0,""Nation2"":4,""Nation8"":1}","[9,3,18,4,10,1,15,16,2,8,14,6,7,17,0,12,11,5,13,19]"
"","","","","","html-button-response","151","1180840","0.0-24.0","15","1","2022-11-27 09:40:41","49aca292d257f58668169b9fbab864ae","39.184.71.231","Mozilla/5.0 (Linux; U; Android 12; zh-cn; Mi 10 Build/SKQ1.211006.001) AppleWebKit/537.36 (KHTML, like Gecko) Version/4.0 Chrome/100.0.4896.127 Mobile Safari/537.36 XiaoMi/MiuiBrowser/17.1.8 swan-mibrowser","Xiaomi","Chrome","100.0.4896.127","AndroidOS","12","1136","<p><strong>请判断你在多大程度上同意下列陈述。</strong></p>","0",""
"","","","","","survey-likert","152","1232389","0.0-25.0","15","1","2022-11-27 09:40:41","49aca292d257f58668169b9fbab864ae","39.184.71.231","Mozilla/5.0 (Linux; U; Android 12; zh-cn; Mi 10 Build/SKQ1.211006.001) AppleWebKit/537.36 (KHTML, like Gecko) Version/4.0 Chrome/100.0.4896.127 Mobile Safari/537.36 XiaoMi/MiuiBrowser/17.1.8 swan-mibrowser","Xiaomi","Chrome","100.0.4896.127","AndroidOS","12","51491","","{""hi2"":2,""vc2"":6,""vi1"":6,""hc3"":7,""vi3"":7,""hi4"":4,""vc3"":5,""hc2"":5,""vi4"":5,""vc1"":7,""Robot"":6,""hc4"":6,""hc1"":6,""vi2"":4,""vc4"":7,""hi1"":6,""hi3"":2}","[1,14,4,11,6,3,15,10,8,13,7,12,9,5,16,0,2]"
"","","","","","survey-text","153","1283524","0.0-26.0","15","1","2022-11-27 09:40:41","49aca292d257f58668169b9fbab864ae","39.184.71.231","Mozilla/5.0 (Linux; U; Android 12; zh-cn; Mi 10 Build/SKQ1.211006.001) AppleWebKit/537.36 (KHTML, like Gecko) Version/4.0 Chrome/100.0.4896.127 Mobile Safari/537.36 XiaoMi/MiuiBrowser/17.1.8 swan-mibrowser","Xiaomi","Chrome","100.0.4896.127","AndroidOS","12","51099","","{""Comments"":""第一部分有点太多了，就是感觉都是差不多的一直在反复问题。""}",""
"","","","","","html-button-response","154","1286553","0.0-27.0","15","1","2022-11-27 09:40:41","49aca292d257f58668169b9fbab864ae","39.184.71.231","Mozilla/5.0 (Linux; U; Android 12; zh-cn; Mi 10 Build/SKQ1.211006.001) AppleWebKit/537.36 (KHTML, like Gecko) Version/4.0 Chrome/100.0.4896.127 Mobile Safari/537.36 XiaoMi/MiuiBrowser/17.1.8 swan-mibrowser","Xiaomi","Chrome","100.0.4896.127","AndroidOS","12","3006","<strong><p>恭喜你完成了实验！</p><p>感谢您的参与。</p></strong>","0",""
