"success","timeout","failed_images","failed_audio","failed_video","trial_type","trial_index","time_elapsed","internal_node_id","run_id","condition","recorded_at","source_code_version","ip","user_agent","device","browser","browser_version","platform","platform_version","rt","stimulus","response","question_order"
"true","false","[]","[]","[]","preload","0","2933","0.0-0.0","17","1","2022-11-27 09:41:11","49aca292d257f58668169b9fbab864ae","219.142.99.22","Mozilla/5.0 (Windows NT 10.0; Win64; x64) AppleWebKit/537.36 (KHTML, like Gecko) Chrome/107.0.0.0 Safari/537.36 Edg/107.0.1418.56","WebKit","Edge","107.0.1418.56","Windows","10.0","","","",""
"true","","","","","fullscreen","1","5743","0.0-1.0","17","1","2022-11-27 09:41:11","49aca292d257f58668169b9fbab864ae","219.142.99.22","Mozilla/5.0 (Windows NT 10.0; Win64; x64) AppleWebKit/537.36 (KHTML, like Gecko) Chrome/107.0.0.0 Safari/537.36 Edg/107.0.1418.56","WebKit","Edge","107.0.1418.56","Windows","10.0","","","",""
"","","","","","html-button-response","2","14646","0.0-2.0","17","1","2022-11-27 09:41:11","49aca292d257f58668169b9fbab864ae","219.142.99.22","Mozilla/5.0 (Windows NT 10.0; Win64; x64) AppleWebKit/537.36 (KHTML, like Gecko) Chrome/107.0.0.0 Safari/537.36 Edg/107.0.1418.56","WebKit","Edge","107.0.1418.56","Windows","10.0","8900","<p style=""font-size:20px;font-weight:bold;"">实验知情同意书</p><p style=""text-align:left;""><strong>实验名称：</strong>社会冲突研究</p><p style=""text-align:left;""><strong>主要研究者：</strong>韩晓春副教授（北京师范大学心理学部）</p><p style=""text-align:left;""><strong>联系方式：</strong>发送邮件至xiaochun.han@bnu.edu.cn</p><p style=""text-align:left;""><strong>研究目的：</strong>研究旨在了解人类面对群体冲突时的决策方式，以及相关的心理学特质。实验调查大约需要20分钟。</p><p style=""text-align:left;""><strong>实验流程：</strong>实验包含两部分。第一部分呈现一系列群体冲突场景，请你决定如何对这些冲突进行反应，大约需要10分钟完成。第二部分包含一系列人口统计学信息收集和心理学问卷，大约需要10分钟完成。</p><p style=""text-align:left;""><strong>参加及退出规则：</strong>参加本实验完全取决于您的个人意愿。在参与过程中，您可以随时退出，并且不用承担任何后果。</p><p style=""text-align:left;""><strong>隐私：</strong>本实验完全匿名进行，不会收集您的姓名或其他能够识别您身份的信息。实验中收集的作答仅用作科学研究使用，可能会在学术期刊/书籍上发表，或者用于教学，您的数据未来可能会和其他研究者或实验室分享，但您的个人身份不会被识别。</p><p style=""text-align:left;""><strong>实验报酬：</strong>实验完成后，您将获得15元人民币报酬，以感谢您的时间和努力。调查问卷中包含几道题目用以测验您作答时的认真度。只有完成全部实验，并且正确回答认真度测验的被试才能获得实验报酬。实验报酬将通过支付宝转账发放。</p><p style=""text-align:left;font-size:20px;""><strong>如果您同意以上实验知情同意书的内容，请点击'同意并且开始实验'按钮；否则请关闭浏览器界面，退出实验。</strong></p>","0",""
"","","","","","html-button-response","3","25348","0.0-3.0","17","1","2022-11-27 09:41:11","49aca292d257f58668169b9fbab864ae","219.142.99.22","Mozilla/5.0 (Windows NT 10.0; Win64; x64) AppleWebKit/537.36 (KHTML, like Gecko) Chrome/107.0.0.0 Safari/537.36 Edg/107.0.1418.56","WebKit","Edge","107.0.1418.56","Windows","10.0","10700","<p ><strong>实验任务一：</strong></p><p>请想象你的国家与另一个国家发生了军事冲突。</p><p>你是国家军队的指挥官，你将如何在冲突中进行决策。</p><p>具体来说，作为军队指挥官，请你决定是否发射导弹进行打击。</p><p>接下来，你会面对一系列场景，请仔细阅读每个场景，然后进行决策。</p><p>这部分实验任务大约需要10分钟。</p><p><strong>实验过程中，请集中注意力。</strong></p>","0",""
"","","","","","html-keyboard-response","4","26356","0.0-4.0-0.0","17","1","2022-11-27 09:41:11","49aca292d257f58668169b9fbab864ae","219.142.99.22","Mozilla/5.0 (Windows NT 10.0; Win64; x64) AppleWebKit/537.36 (KHTML, like Gecko) Chrome/107.0.0.0 Safari/537.36 Edg/107.0.1418.56","WebKit","Edge","107.0.1418.56","Windows","10.0","null","<div style=""font-size:60px;"">+</div>","null",""
"","","","","","html-button-response","5","38053","0.0-4.0-1.0","17","1","2022-11-27 09:41:11","49aca292d257f58668169b9fbab864ae","219.142.99.22","Mozilla/5.0 (Windows NT 10.0; Win64; x64) AppleWebKit/537.36 (KHTML, like Gecko) Chrome/107.0.0.0 Safari/537.36 Edg/107.0.1418.56","WebKit","Edge","107.0.1418.56","Windows","10.0","11694","<p>作为军队的指挥官，你可以选择发射导弹杀死 <strong>4名</strong> 敌国士兵，但会误杀附近的 <strong>1名</strong> 敌国平民。</p> <p>平民照片如下图所示。</p> <p></p> <img src='stimuli/faces/PFF4.jpg', style='max-width: 30%;'> </img> <p><strong>你是否选择发射武器？</strong></p>","1",""
"","","","","","html-keyboard-response","6","39074","0.0-4.0-0.1","17","1","2022-11-27 09:41:11","49aca292d257f58668169b9fbab864ae","219.142.99.22","Mozilla/5.0 (Windows NT 10.0; Win64; x64) AppleWebKit/537.36 (KHTML, like Gecko) Chrome/107.0.0.0 Safari/537.36 Edg/107.0.1418.56","WebKit","Edge","107.0.1418.56","Windows","10.0","null","<div style=""font-size:60px;"">+</div>","null",""
"","","","","","html-button-response","7","58131","0.0-4.0-1.1","17","1","2022-11-27 09:41:11","49aca292d257f58668169b9fbab864ae","219.142.99.22","Mozilla/5.0 (Windows NT 10.0; Win64; x64) AppleWebKit/537.36 (KHTML, like Gecko) Chrome/107.0.0.0 Safari/537.36 Edg/107.0.1418.56","WebKit","Edge","107.0.1418.56","Windows","10.0","19054","<p>作为军队的指挥官，你可以选择发射导弹杀死 <strong>6名</strong> 敌国士兵，但会误杀附近的 <strong>1名</strong> 敌国平民。</p> <p>平民照片如下图所示。</p> <p></p> <img src='stimuli/faces/PFM8.jpg', style='max-width: 30%;'> </img> <p><strong>你是否选择发射武器？</strong></p>","0",""
"","","","","","html-keyboard-response","8","59143","0.0-4.0-0.2","17","1","2022-11-27 09:41:11","49aca292d257f58668169b9fbab864ae","219.142.99.22","Mozilla/5.0 (Windows NT 10.0; Win64; x64) AppleWebKit/537.36 (KHTML, like Gecko) Chrome/107.0.0.0 Safari/537.36 Edg/107.0.1418.56","WebKit","Edge","107.0.1418.56","Windows","10.0","null","<div style=""font-size:60px;"">+</div>","null",""
"","","","","","html-button-response","9","63601","0.0-4.0-1.2","17","1","2022-11-27 09:41:11","49aca292d257f58668169b9fbab864ae","219.142.99.22","Mozilla/5.0 (Windows NT 10.0; Win64; x64) AppleWebKit/537.36 (KHTML, like Gecko) Chrome/107.0.0.0 Safari/537.36 Edg/107.0.1418.56","WebKit","Edge","107.0.1418.56","Windows","10.0","4455","<p>作为军队的指挥官，你可以选择发射导弹杀死 <strong>4名</strong> 敌国士兵，但会误杀附近的 <strong>1名</strong> 敌国平民。</p> <p>平民照片如下图所示。</p> <p></p> <img src='stimuli/faces/PFF3.jpg', style='max-width: 30%;'> </img> <p><strong>你是否选择发射武器？</strong></p>","1",""
"","","","","","html-keyboard-response","10","64616","0.0-4.0-0.3","17","1","2022-11-27 09:41:11","49aca292d257f58668169b9fbab864ae","219.142.99.22","Mozilla/5.0 (Windows NT 10.0; Win64; x64) AppleWebKit/537.36 (KHTML, like Gecko) Chrome/107.0.0.0 Safari/537.36 Edg/107.0.1418.56","WebKit","Edge","107.0.1418.56","Windows","10.0","null","<div style=""font-size:60px;"">+</div>","null",""
"","","","","","html-button-response","11","73269","0.0-4.0-1.3","17","1","2022-11-27 09:41:11","49aca292d257f58668169b9fbab864ae","219.142.99.22","Mozilla/5.0 (Windows NT 10.0; Win64; x64) AppleWebKit/537.36 (KHTML, like Gecko) Chrome/107.0.0.0 Safari/537.36 Edg/107.0.1418.56","WebKit","Edge","107.0.1418.56","Windows","10.0","8651","<p>作为军队的指挥官，你可以选择发射导弹杀死 <strong>10名</strong> 敌国士兵，但会炸毁附近的 <strong>1棵</strong> 敌国树木。</p> <p>树木的照片如下图所示。</p> <p></p> <img src='stimuli/trees/15.png', style='max-width: 30%;'> </img> <p><strong>你是否选择发射武器？</strong></p>","0",""
"","","","","","html-keyboard-response","12","74273","0.0-4.0-0.4","17","1","2022-11-27 09:41:11","49aca292d257f58668169b9fbab864ae","219.142.99.22","Mozilla/5.0 (Windows NT 10.0; Win64; x64) AppleWebKit/537.36 (KHTML, like Gecko) Chrome/107.0.0.0 Safari/537.36 Edg/107.0.1418.56","WebKit","Edge","107.0.1418.56","Windows","10.0","null","<div style=""font-size:60px;"">+</div>","null",""
"","","","","","html-button-response","13","75932","0.0-4.0-1.4","17","1","2022-11-27 09:41:11","49aca292d257f58668169b9fbab864ae","219.142.99.22","Mozilla/5.0 (Windows NT 10.0; Win64; x64) AppleWebKit/537.36 (KHTML, like Gecko) Chrome/107.0.0.0 Safari/537.36 Edg/107.0.1418.56","WebKit","Edge","107.0.1418.56","Windows","10.0","1656","<p>作为军队的指挥官，你可以选择发射导弹杀死 <strong>6名</strong> 敌国士兵，但会炸毁附近的 <strong>1棵</strong> 敌国树木。</p> <p>树木的照片如下图所示。</p> <p></p> <img src='stimuli/trees/8.png', style='max-width: 30%;'> </img> <p><strong>你是否选择发射武器？</strong></p>","0",""
"","","","","","html-keyboard-response","14","76945","0.0-4.0-0.5","17","1","2022-11-27 09:41:11","49aca292d257f58668169b9fbab864ae","219.142.99.22","Mozilla/5.0 (Windows NT 10.0; Win64; x64) AppleWebKit/537.36 (KHTML, like Gecko) Chrome/107.0.0.0 Safari/537.36 Edg/107.0.1418.56","WebKit","Edge","107.0.1418.56","Windows","10.0","null","<div style=""font-size:60px;"">+</div>","null",""
"","","","","","html-button-response","15","79153","0.0-4.0-1.5","17","1","2022-11-27 09:41:11","49aca292d257f58668169b9fbab864ae","219.142.99.22","Mozilla/5.0 (Windows NT 10.0; Win64; x64) AppleWebKit/537.36 (KHTML, like Gecko) Chrome/107.0.0.0 Safari/537.36 Edg/107.0.1418.56","WebKit","Edge","107.0.1418.56","Windows","10.0","2206","<p>作为军队的指挥官，你可以选择发射导弹杀死 <strong>2名</strong> 敌国士兵，但会炸毁附近的 <strong>1棵</strong> 敌国树木。</p> <p>树木的照片如下图所示。</p> <p></p> <img src='stimuli/trees/4.png', style='max-width: 30%;'> </img> <p><strong>你是否选择发射武器？</strong></p>","0",""
"","","","","","html-keyboard-response","16","80170","0.0-4.0-0.6","17","1","2022-11-27 09:41:11","49aca292d257f58668169b9fbab864ae","219.142.99.22","Mozilla/5.0 (Windows NT 10.0; Win64; x64) AppleWebKit/537.36 (KHTML, like Gecko) Chrome/107.0.0.0 Safari/537.36 Edg/107.0.1418.56","WebKit","Edge","107.0.1418.56","Windows","10.0","null","<div style=""font-size:60px;"">+</div>","null",""
"","","","","","html-button-response","17","82784","0.0-4.0-1.6","17","1","2022-11-27 09:41:11","49aca292d257f58668169b9fbab864ae","219.142.99.22","Mozilla/5.0 (Windows NT 10.0; Win64; x64) AppleWebKit/537.36 (KHTML, like Gecko) Chrome/107.0.0.0 Safari/537.36 Edg/107.0.1418.56","WebKit","Edge","107.0.1418.56","Windows","10.0","2612","<p>作为军队的指挥官，你可以选择发射导弹杀死 <strong>7名</strong> 敌国士兵，但会炸毁附近的 <strong>1棵</strong> 敌国树木。</p> <p>树木的照片如下图所示。</p> <p></p> <img src='stimuli/trees/9.png', style='max-width: 30%;'> </img> <p><strong>你是否选择发射武器？</strong></p>","0",""
"","","","","","html-keyboard-response","18","83800","0.0-4.0-0.7","17","1","2022-11-27 09:41:11","49aca292d257f58668169b9fbab864ae","219.142.99.22","Mozilla/5.0 (Windows NT 10.0; Win64; x64) AppleWebKit/537.36 (KHTML, like Gecko) Chrome/107.0.0.0 Safari/537.36 Edg/107.0.1418.56","WebKit","Edge","107.0.1418.56","Windows","10.0","null","<div style=""font-size:60px;"">+</div>","null",""
"","","","","","html-button-response","19","84673","0.0-4.0-1.7","17","1","2022-11-27 09:41:11","49aca292d257f58668169b9fbab864ae","219.142.99.22","Mozilla/5.0 (Windows NT 10.0; Win64; x64) AppleWebKit/537.36 (KHTML, like Gecko) Chrome/107.0.0.0 Safari/537.36 Edg/107.0.1418.56","WebKit","Edge","107.0.1418.56","Windows","10.0","871","<p>作为军队的指挥官，你可以选择发射导弹杀死 <strong>3名</strong> 敌国士兵，但会炸毁附近的 <strong>1棵</strong> 敌国树木。</p> <p>树木的照片如下图所示。</p> <p></p> <img src='stimuli/trees/3.png', style='max-width: 30%;'> </img> <p><strong>你是否选择发射武器？</strong></p>","0",""
"","","","","","html-keyboard-response","20","85685","0.0-4.0-0.8","17","1","2022-11-27 09:41:11","49aca292d257f58668169b9fbab864ae","219.142.99.22","Mozilla/5.0 (Windows NT 10.0; Win64; x64) AppleWebKit/537.36 (KHTML, like Gecko) Chrome/107.0.0.0 Safari/537.36 Edg/107.0.1418.56","WebKit","Edge","107.0.1418.56","Windows","10.0","null","<div style=""font-size:60px;"">+</div>","null",""
"","","","","","html-button-response","21","89461","0.0-4.0-1.8","17","1","2022-11-27 09:41:11","49aca292d257f58668169b9fbab864ae","219.142.99.22","Mozilla/5.0 (Windows NT 10.0; Win64; x64) AppleWebKit/537.36 (KHTML, like Gecko) Chrome/107.0.0.0 Safari/537.36 Edg/107.0.1418.56","WebKit","Edge","107.0.1418.56","Windows","10.0","3774","<p>作为军队的指挥官，你可以选择发射导弹杀死 <strong>2名</strong> 敌国士兵，但会误杀附近的 <strong>1名</strong> 敌国平民。</p> <p>平民照片如下图所示。</p> <p></p> <img src='stimuli/faces/PFM6.jpg', style='max-width: 30%;'> </img> <p><strong>你是否选择发射武器？</strong></p>","1",""
"","","","","","html-keyboard-response","22","90476","0.0-4.0-0.9","17","1","2022-11-27 09:41:11","49aca292d257f58668169b9fbab864ae","219.142.99.22","Mozilla/5.0 (Windows NT 10.0; Win64; x64) AppleWebKit/537.36 (KHTML, like Gecko) Chrome/107.0.0.0 Safari/537.36 Edg/107.0.1418.56","WebKit","Edge","107.0.1418.56","Windows","10.0","null","<div style=""font-size:60px;"">+</div>","null",""
"","","","","","html-button-response","23","95984","0.0-4.0-1.9","17","1","2022-11-27 09:41:11","49aca292d257f58668169b9fbab864ae","219.142.99.22","Mozilla/5.0 (Windows NT 10.0; Win64; x64) AppleWebKit/537.36 (KHTML, like Gecko) Chrome/107.0.0.0 Safari/537.36 Edg/107.0.1418.56","WebKit","Edge","107.0.1418.56","Windows","10.0","5505","<p>作为军队的指挥官，你可以选择发射导弹杀死 <strong>4名</strong> 敌国士兵，但会误杀附近的 <strong>1名</strong> 敌国平民。</p> <p>平民照片如下图所示。</p> <p></p> <img src='stimuli/faces/PFM1.jpg', style='max-width: 30%;'> </img> <p><strong>你是否选择发射武器？</strong></p>","1",""
"","","","","","html-keyboard-response","24","97002","0.0-4.0-0.10","17","1","2022-11-27 09:41:11","49aca292d257f58668169b9fbab864ae","219.142.99.22","Mozilla/5.0 (Windows NT 10.0; Win64; x64) AppleWebKit/537.36 (KHTML, like Gecko) Chrome/107.0.0.0 Safari/537.36 Edg/107.0.1418.56","WebKit","Edge","107.0.1418.56","Windows","10.0","null","<div style=""font-size:60px;"">+</div>","null",""
"","","","","","html-button-response","25","105242","0.0-4.0-1.10","17","1","2022-11-27 09:41:11","49aca292d257f58668169b9fbab864ae","219.142.99.22","Mozilla/5.0 (Windows NT 10.0; Win64; x64) AppleWebKit/537.36 (KHTML, like Gecko) Chrome/107.0.0.0 Safari/537.36 Edg/107.0.1418.56","WebKit","Edge","107.0.1418.56","Windows","10.0","8238","<p>作为军队的指挥官，你可以选择发射导弹杀死 <strong>9名</strong> 敌国士兵，但会误杀附近的 <strong>1名</strong> 敌国平民。</p> <p>平民照片如下图所示。</p> <p></p> <img src='stimuli/faces/PFF7.jpg', style='max-width: 30%;'> </img> <p><strong>你是否选择发射武器？</strong></p>","0",""
"","","","","","html-keyboard-response","26","106254","0.0-4.0-0.11","17","1","2022-11-27 09:41:11","49aca292d257f58668169b9fbab864ae","219.142.99.22","Mozilla/5.0 (Windows NT 10.0; Win64; x64) AppleWebKit/537.36 (KHTML, like Gecko) Chrome/107.0.0.0 Safari/537.36 Edg/107.0.1418.56","WebKit","Edge","107.0.1418.56","Windows","10.0","null","<div style=""font-size:60px;"">+</div>","null",""
"","","","","","html-button-response","27","107798","0.0-4.0-1.11","17","1","2022-11-27 09:41:11","49aca292d257f58668169b9fbab864ae","219.142.99.22","Mozilla/5.0 (Windows NT 10.0; Win64; x64) AppleWebKit/537.36 (KHTML, like Gecko) Chrome/107.0.0.0 Safari/537.36 Edg/107.0.1418.56","WebKit","Edge","107.0.1418.56","Windows","10.0","1541","<p>作为军队的指挥官，你可以选择发射导弹杀死 <strong>3名</strong> 敌国士兵，但会炸毁附近的 <strong>1棵</strong> 敌国树木。</p> <p>树木的照片如下图所示。</p> <p></p> <img src='stimuli/trees/5.png', style='max-width: 30%;'> </img> <p><strong>你是否选择发射武器？</strong></p>","0",""
"","","","","","html-keyboard-response","28","108811","0.0-4.0-0.12","17","1","2022-11-27 09:41:11","49aca292d257f58668169b9fbab864ae","219.142.99.22","Mozilla/5.0 (Windows NT 10.0; Win64; x64) AppleWebKit/537.36 (KHTML, like Gecko) Chrome/107.0.0.0 Safari/537.36 Edg/107.0.1418.56","WebKit","Edge","107.0.1418.56","Windows","10.0","null","<div style=""font-size:60px;"">+</div>","null",""
"","","","","","html-button-response","29","109438","0.0-4.0-1.12","17","1","2022-11-27 09:41:11","49aca292d257f58668169b9fbab864ae","219.142.99.22","Mozilla/5.0 (Windows NT 10.0; Win64; x64) AppleWebKit/537.36 (KHTML, like Gecko) Chrome/107.0.0.0 Safari/537.36 Edg/107.0.1418.56","WebKit","Edge","107.0.1418.56","Windows","10.0","624","<p>作为军队的指挥官，你可以选择发射导弹杀死 <strong>4名</strong> 敌国士兵，但会炸毁附近的 <strong>1棵</strong> 敌国树木。</p> <p>树木的照片如下图所示。</p> <p></p> <img src='stimuli/trees/11.png', style='max-width: 30%;'> </img> <p><strong>你是否选择发射武器？</strong></p>","0",""
"","","","","","html-keyboard-response","30","110460","0.0-4.0-0.13","17","1","2022-11-27 09:41:11","49aca292d257f58668169b9fbab864ae","219.142.99.22","Mozilla/5.0 (Windows NT 10.0; Win64; x64) AppleWebKit/537.36 (KHTML, like Gecko) Chrome/107.0.0.0 Safari/537.36 Edg/107.0.1418.56","WebKit","Edge","107.0.1418.56","Windows","10.0","null","<div style=""font-size:60px;"">+</div>","null",""
"","","","","","html-button-response","31","112720","0.0-4.0-1.13","17","1","2022-11-27 09:41:11","49aca292d257f58668169b9fbab864ae","219.142.99.22","Mozilla/5.0 (Windows NT 10.0; Win64; x64) AppleWebKit/537.36 (KHTML, like Gecko) Chrome/107.0.0.0 Safari/537.36 Edg/107.0.1418.56","WebKit","Edge","107.0.1418.56","Windows","10.0","2258","<p>作为军队的指挥官，你可以选择发射导弹杀死 <strong>1名</strong> 敌国士兵，但会误杀附近的 <strong>1名</strong> 敌国平民。</p> <p>平民照片如下图所示。</p> <p></p> <img src='stimuli/faces/PFF1.jpg', style='max-width: 30%;'> </img> <p><strong>你是否选择发射武器？</strong></p>","1",""
"","","","","","html-keyboard-response","32","113735","0.0-4.0-0.14","17","1","2022-11-27 09:41:11","49aca292d257f58668169b9fbab864ae","219.142.99.22","Mozilla/5.0 (Windows NT 10.0; Win64; x64) AppleWebKit/537.36 (KHTML, like Gecko) Chrome/107.0.0.0 Safari/537.36 Edg/107.0.1418.56","WebKit","Edge","107.0.1418.56","Windows","10.0","null","<div style=""font-size:60px;"">+</div>","null",""
"","","","","","html-button-response","33","124997","0.0-4.0-1.14","17","1","2022-11-27 09:41:11","49aca292d257f58668169b9fbab864ae","219.142.99.22","Mozilla/5.0 (Windows NT 10.0; Win64; x64) AppleWebKit/537.36 (KHTML, like Gecko) Chrome/107.0.0.0 Safari/537.36 Edg/107.0.1418.56","WebKit","Edge","107.0.1418.56","Windows","10.0","11260","<p>作为军队的指挥官，你可以选择发射导弹杀死 <strong>6名</strong> 敌国士兵，但会误杀附近的 <strong>1名</strong> 敌国平民。</p> <p>平民照片如下图所示。</p> <p></p> <img src='stimuli/faces/PFF8.jpg', style='max-width: 30%;'> </img> <p><strong>你是否选择发射武器？</strong></p>","0",""
"","","","","","html-keyboard-response","34","126009","0.0-4.0-0.15","17","1","2022-11-27 09:41:11","49aca292d257f58668169b9fbab864ae","219.142.99.22","Mozilla/5.0 (Windows NT 10.0; Win64; x64) AppleWebKit/537.36 (KHTML, like Gecko) Chrome/107.0.0.0 Safari/537.36 Edg/107.0.1418.56","WebKit","Edge","107.0.1418.56","Windows","10.0","null","<div style=""font-size:60px;"">+</div>","null",""
"","","","","","html-button-response","35","127012","0.0-4.0-1.15","17","1","2022-11-27 09:41:11","49aca292d257f58668169b9fbab864ae","219.142.99.22","Mozilla/5.0 (Windows NT 10.0; Win64; x64) AppleWebKit/537.36 (KHTML, like Gecko) Chrome/107.0.0.0 Safari/537.36 Edg/107.0.1418.56","WebKit","Edge","107.0.1418.56","Windows","10.0","1000","<p>作为军队的指挥官，你可以选择发射导弹杀死 <strong>5名</strong> 敌国士兵，但会炸毁附近的 <strong>1棵</strong> 敌国树木。</p> <p>树木的照片如下图所示。</p> <p></p> <img src='stimuli/trees/12.png', style='max-width: 30%;'> </img> <p><strong>你是否选择发射武器？</strong></p>","0",""
"","","","","","html-keyboard-response","36","128021","0.0-4.0-0.16","17","1","2022-11-27 09:41:11","49aca292d257f58668169b9fbab864ae","219.142.99.22","Mozilla/5.0 (Windows NT 10.0; Win64; x64) AppleWebKit/537.36 (KHTML, like Gecko) Chrome/107.0.0.0 Safari/537.36 Edg/107.0.1418.56","WebKit","Edge","107.0.1418.56","Windows","10.0","null","<div style=""font-size:60px;"">+</div>","null",""
"","","","","","html-button-response","37","144662","0.0-4.0-1.16","17","1","2022-11-27 09:41:11","49aca292d257f58668169b9fbab864ae","219.142.99.22","Mozilla/5.0 (Windows NT 10.0; Win64; x64) AppleWebKit/537.36 (KHTML, like Gecko) Chrome/107.0.0.0 Safari/537.36 Edg/107.0.1418.56","WebKit","Edge","107.0.1418.56","Windows","10.0","16637","<p>作为军队的指挥官，你可以选择发射导弹杀死 <strong>10名</strong> 敌国士兵，但会误杀附近的 <strong>1名</strong> 敌国平民。</p> <p>平民照片如下图所示。</p> <p></p> <img src='stimuli/faces/PFF4.jpg', style='max-width: 30%;'> </img> <p><strong>你是否选择发射武器？</strong></p>","1",""
"","","","","","html-keyboard-response","38","145679","0.0-4.0-0.17","17","1","2022-11-27 09:41:11","49aca292d257f58668169b9fbab864ae","219.142.99.22","Mozilla/5.0 (Windows NT 10.0; Win64; x64) AppleWebKit/537.36 (KHTML, like Gecko) Chrome/107.0.0.0 Safari/537.36 Edg/107.0.1418.56","WebKit","Edge","107.0.1418.56","Windows","10.0","null","<div style=""font-size:60px;"">+</div>","null",""
"","","","","","html-button-response","39","148364","0.0-4.0-1.17","17","1","2022-11-27 09:41:11","49aca292d257f58668169b9fbab864ae","219.142.99.22","Mozilla/5.0 (Windows NT 10.0; Win64; x64) AppleWebKit/537.36 (KHTML, like Gecko) Chrome/107.0.0.0 Safari/537.36 Edg/107.0.1418.56","WebKit","Edge","107.0.1418.56","Windows","10.0","2682","<p>作为军队的指挥官，你可以选择发射导弹杀死 <strong>10名</strong> 敌国士兵，但会误杀附近的 <strong>1名</strong> 敌国平民。</p> <p>平民照片如下图所示。</p> <p></p> <img src='stimuli/faces/PFM2.jpg', style='max-width: 30%;'> </img> <p><strong>你是否选择发射武器？</strong></p>","0",""
"","","","","","html-keyboard-response","40","149370","0.0-4.0-0.18","17","1","2022-11-27 09:41:11","49aca292d257f58668169b9fbab864ae","219.142.99.22","Mozilla/5.0 (Windows NT 10.0; Win64; x64) AppleWebKit/537.36 (KHTML, like Gecko) Chrome/107.0.0.0 Safari/537.36 Edg/107.0.1418.56","WebKit","Edge","107.0.1418.56","Windows","10.0","null","<div style=""font-size:60px;"">+</div>","null",""
"","","","","","html-button-response","41","150862","0.0-4.0-1.18","17","1","2022-11-27 09:41:11","49aca292d257f58668169b9fbab864ae","219.142.99.22","Mozilla/5.0 (Windows NT 10.0; Win64; x64) AppleWebKit/537.36 (KHTML, like Gecko) Chrome/107.0.0.0 Safari/537.36 Edg/107.0.1418.56","WebKit","Edge","107.0.1418.56","Windows","10.0","1490","<p>作为军队的指挥官，你可以选择发射导弹杀死 <strong>5名</strong> 敌国士兵，但会炸毁附近的 <strong>1棵</strong> 敌国树木。</p> <p>树木的照片如下图所示。</p> <p></p> <img src='stimuli/trees/1.png', style='max-width: 30%;'> </img> <p><strong>你是否选择发射武器？</strong></p>","0",""
"","","","","","html-keyboard-response","42","151884","0.0-4.0-0.19","17","1","2022-11-27 09:41:11","49aca292d257f58668169b9fbab864ae","219.142.99.22","Mozilla/5.0 (Windows NT 10.0; Win64; x64) AppleWebKit/537.36 (KHTML, like Gecko) Chrome/107.0.0.0 Safari/537.36 Edg/107.0.1418.56","WebKit","Edge","107.0.1418.56","Windows","10.0","null","<div style=""font-size:60px;"">+</div>","null",""
"","","","","","html-button-response","43","152448","0.0-4.0-1.19","17","1","2022-11-27 09:41:11","49aca292d257f58668169b9fbab864ae","219.142.99.22","Mozilla/5.0 (Windows NT 10.0; Win64; x64) AppleWebKit/537.36 (KHTML, like Gecko) Chrome/107.0.0.0 Safari/537.36 Edg/107.0.1418.56","WebKit","Edge","107.0.1418.56","Windows","10.0","560","<p>作为军队的指挥官，你可以选择发射导弹杀死 <strong>1名</strong> 敌国士兵，但会炸毁附近的 <strong>1棵</strong> 敌国树木。</p> <p>树木的照片如下图所示。</p> <p></p> <img src='stimuli/trees/7.png', style='max-width: 30%;'> </img> <p><strong>你是否选择发射武器？</strong></p>","0",""
"","","","","","html-keyboard-response","44","153468","0.0-4.0-0.20","17","1","2022-11-27 09:41:11","49aca292d257f58668169b9fbab864ae","219.142.99.22","Mozilla/5.0 (Windows NT 10.0; Win64; x64) AppleWebKit/537.36 (KHTML, like Gecko) Chrome/107.0.0.0 Safari/537.36 Edg/107.0.1418.56","WebKit","Edge","107.0.1418.56","Windows","10.0","null","<div style=""font-size:60px;"">+</div>","null",""
"","","","","","html-button-response","45","154689","0.0-4.0-1.20","17","1","2022-11-27 09:41:11","49aca292d257f58668169b9fbab864ae","219.142.99.22","Mozilla/5.0 (Windows NT 10.0; Win64; x64) AppleWebKit/537.36 (KHTML, like Gecko) Chrome/107.0.0.0 Safari/537.36 Edg/107.0.1418.56","WebKit","Edge","107.0.1418.56","Windows","10.0","1218","<p>作为军队的指挥官，你可以选择发射导弹杀死 <strong>2名</strong> 敌国士兵，但会炸毁附近的 <strong>1棵</strong> 敌国树木。</p> <p>树木的照片如下图所示。</p> <p></p> <img src='stimuli/trees/10.png', style='max-width: 30%;'> </img> <p><strong>你是否选择发射武器？</strong></p>","0",""
"","","","","","html-keyboard-response","46","155708","0.0-4.0-0.21","17","1","2022-11-27 09:41:11","49aca292d257f58668169b9fbab864ae","219.142.99.22","Mozilla/5.0 (Windows NT 10.0; Win64; x64) AppleWebKit/537.36 (KHTML, like Gecko) Chrome/107.0.0.0 Safari/537.36 Edg/107.0.1418.56","WebKit","Edge","107.0.1418.56","Windows","10.0","null","<div style=""font-size:60px;"">+</div>","null",""
"","","","","","html-button-response","47","156343","0.0-4.0-1.21","17","1","2022-11-27 09:41:11","49aca292d257f58668169b9fbab864ae","219.142.99.22","Mozilla/5.0 (Windows NT 10.0; Win64; x64) AppleWebKit/537.36 (KHTML, like Gecko) Chrome/107.0.0.0 Safari/537.36 Edg/107.0.1418.56","WebKit","Edge","107.0.1418.56","Windows","10.0","633","<p>作为军队的指挥官，你可以选择发射导弹杀死 <strong>5名</strong> 敌国士兵，但会炸毁附近的 <strong>1棵</strong> 敌国树木。</p> <p>树木的照片如下图所示。</p> <p></p> <img src='stimuli/trees/13.png', style='max-width: 30%;'> </img> <p><strong>你是否选择发射武器？</strong></p>","0",""
"","","","","","html-keyboard-response","48","157356","0.0-4.0-0.22","17","1","2022-11-27 09:41:11","49aca292d257f58668169b9fbab864ae","219.142.99.22","Mozilla/5.0 (Windows NT 10.0; Win64; x64) AppleWebKit/537.36 (KHTML, like Gecko) Chrome/107.0.0.0 Safari/537.36 Edg/107.0.1418.56","WebKit","Edge","107.0.1418.56","Windows","10.0","null","<div style=""font-size:60px;"">+</div>","null",""
"","","","","","html-button-response","49","160376","0.0-4.0-1.22","17","1","2022-11-27 09:41:11","49aca292d257f58668169b9fbab864ae","219.142.99.22","Mozilla/5.0 (Windows NT 10.0; Win64; x64) AppleWebKit/537.36 (KHTML, like Gecko) Chrome/107.0.0.0 Safari/537.36 Edg/107.0.1418.56","WebKit","Edge","107.0.1418.56","Windows","10.0","3018","<p>作为军队的指挥官，你可以选择发射导弹杀死 <strong>10名</strong> 敌国士兵，但会误杀附近的 <strong>1名</strong> 敌国平民。</p> <p>平民照片如下图所示。</p> <p></p> <img src='stimuli/faces/PFF2.jpg', style='max-width: 30%;'> </img> <p><strong>你是否选择发射武器？</strong></p>","0",""
"","","","","","html-keyboard-response","50","161386","0.0-4.0-0.23","17","1","2022-11-27 09:41:11","49aca292d257f58668169b9fbab864ae","219.142.99.22","Mozilla/5.0 (Windows NT 10.0; Win64; x64) AppleWebKit/537.36 (KHTML, like Gecko) Chrome/107.0.0.0 Safari/537.36 Edg/107.0.1418.56","WebKit","Edge","107.0.1418.56","Windows","10.0","null","<div style=""font-size:60px;"">+</div>","null",""
"","","","","","html-button-response","51","163842","0.0-4.0-1.23","17","1","2022-11-27 09:41:11","49aca292d257f58668169b9fbab864ae","219.142.99.22","Mozilla/5.0 (Windows NT 10.0; Win64; x64) AppleWebKit/537.36 (KHTML, like Gecko) Chrome/107.0.0.0 Safari/537.36 Edg/107.0.1418.56","WebKit","Edge","107.0.1418.56","Windows","10.0","2454","<p>作为军队的指挥官，你可以选择发射导弹杀死 <strong>7名</strong> 敌国士兵，但会炸毁附近的 <strong>1棵</strong> 敌国树木。</p> <p>树木的照片如下图所示。</p> <p></p> <img src='stimuli/trees/14.png', style='max-width: 30%;'> </img> <p><strong>你是否选择发射武器？</strong></p>","0",""
"","","","","","html-keyboard-response","52","164855","0.0-4.0-0.24","17","1","2022-11-27 09:41:11","49aca292d257f58668169b9fbab864ae","219.142.99.22","Mozilla/5.0 (Windows NT 10.0; Win64; x64) AppleWebKit/537.36 (KHTML, like Gecko) Chrome/107.0.0.0 Safari/537.36 Edg/107.0.1418.56","WebKit","Edge","107.0.1418.56","Windows","10.0","null","<div style=""font-size:60px;"">+</div>","null",""
"","","","","","html-button-response","53","180346","0.0-4.0-1.24","17","1","2022-11-27 09:41:11","49aca292d257f58668169b9fbab864ae","219.142.99.22","Mozilla/5.0 (Windows NT 10.0; Win64; x64) AppleWebKit/537.36 (KHTML, like Gecko) Chrome/107.0.0.0 Safari/537.36 Edg/107.0.1418.56","WebKit","Edge","107.0.1418.56","Windows","10.0","15487","<p>作为军队的指挥官，你可以选择发射导弹杀死 <strong>2名</strong> 敌国士兵，但会误杀附近的 <strong>1名</strong> 敌国平民。</p> <p>平民照片如下图所示。</p> <p></p> <img src='stimuli/faces/PFM7.jpg', style='max-width: 30%;'> </img> <p><strong>你是否选择发射武器？</strong></p>","1",""
"","","","","","html-keyboard-response","54","181351","0.0-4.0-0.25","17","1","2022-11-27 09:41:11","49aca292d257f58668169b9fbab864ae","219.142.99.22","Mozilla/5.0 (Windows NT 10.0; Win64; x64) AppleWebKit/537.36 (KHTML, like Gecko) Chrome/107.0.0.0 Safari/537.36 Edg/107.0.1418.56","WebKit","Edge","107.0.1418.56","Windows","10.0","null","<div style=""font-size:60px;"">+</div>","null",""
"","","","","","html-button-response","55","184273","0.0-4.0-1.25","17","1","2022-11-27 09:41:11","49aca292d257f58668169b9fbab864ae","219.142.99.22","Mozilla/5.0 (Windows NT 10.0; Win64; x64) AppleWebKit/537.36 (KHTML, like Gecko) Chrome/107.0.0.0 Safari/537.36 Edg/107.0.1418.56","WebKit","Edge","107.0.1418.56","Windows","10.0","2918","<p>作为军队的指挥官，你可以选择发射导弹杀死 <strong>8名</strong> 敌国士兵，但会炸毁附近的 <strong>1棵</strong> 敌国树木。</p> <p>树木的照片如下图所示。</p> <p></p> <img src='stimuli/trees/16.png', style='max-width: 30%;'> </img> <p><strong>你是否选择发射武器？</strong></p>","0",""
"","","","","","html-keyboard-response","56","185279","0.0-4.0-0.26","17","1","2022-11-27 09:41:11","49aca292d257f58668169b9fbab864ae","219.142.99.22","Mozilla/5.0 (Windows NT 10.0; Win64; x64) AppleWebKit/537.36 (KHTML, like Gecko) Chrome/107.0.0.0 Safari/537.36 Edg/107.0.1418.56","WebKit","Edge","107.0.1418.56","Windows","10.0","null","<div style=""font-size:60px;"">+</div>","null",""
"","","","","","html-button-response","57","185995","0.0-4.0-1.26","17","1","2022-11-27 09:41:11","49aca292d257f58668169b9fbab864ae","219.142.99.22","Mozilla/5.0 (Windows NT 10.0; Win64; x64) AppleWebKit/537.36 (KHTML, like Gecko) Chrome/107.0.0.0 Safari/537.36 Edg/107.0.1418.56","WebKit","Edge","107.0.1418.56","Windows","10.0","713","<p>作为军队的指挥官，你可以选择发射导弹杀死 <strong>8名</strong> 敌国士兵，但会炸毁附近的 <strong>1棵</strong> 敌国树木。</p> <p>树木的照片如下图所示。</p> <p></p> <img src='stimuli/trees/7.png', style='max-width: 30%;'> </img> <p><strong>你是否选择发射武器？</strong></p>","0",""
"","","","","","html-keyboard-response","58","186999","0.0-4.0-0.27","17","1","2022-11-27 09:41:11","49aca292d257f58668169b9fbab864ae","219.142.99.22","Mozilla/5.0 (Windows NT 10.0; Win64; x64) AppleWebKit/537.36 (KHTML, like Gecko) Chrome/107.0.0.0 Safari/537.36 Edg/107.0.1418.56","WebKit","Edge","107.0.1418.56","Windows","10.0","null","<div style=""font-size:60px;"">+</div>","null",""
"","","","","","html-button-response","59","187539","0.0-4.0-1.27","17","1","2022-11-27 09:41:11","49aca292d257f58668169b9fbab864ae","219.142.99.22","Mozilla/5.0 (Windows NT 10.0; Win64; x64) AppleWebKit/537.36 (KHTML, like Gecko) Chrome/107.0.0.0 Safari/537.36 Edg/107.0.1418.56","WebKit","Edge","107.0.1418.56","Windows","10.0","538","<p>作为军队的指挥官，你可以选择发射导弹杀死 <strong>5名</strong> 敌国士兵，但会炸毁附近的 <strong>1棵</strong> 敌国树木。</p> <p>树木的照片如下图所示。</p> <p></p> <img src='stimuli/trees/2.png', style='max-width: 30%;'> </img> <p><strong>你是否选择发射武器？</strong></p>","0",""
"","","","","","html-keyboard-response","60","188551","0.0-4.0-0.28","17","1","2022-11-27 09:41:11","49aca292d257f58668169b9fbab864ae","219.142.99.22","Mozilla/5.0 (Windows NT 10.0; Win64; x64) AppleWebKit/537.36 (KHTML, like Gecko) Chrome/107.0.0.0 Safari/537.36 Edg/107.0.1418.56","WebKit","Edge","107.0.1418.56","Windows","10.0","null","<div style=""font-size:60px;"">+</div>","null",""
"","","","","","html-button-response","61","193678","0.0-4.0-1.28","17","1","2022-11-27 09:41:11","49aca292d257f58668169b9fbab864ae","219.142.99.22","Mozilla/5.0 (Windows NT 10.0; Win64; x64) AppleWebKit/537.36 (KHTML, like Gecko) Chrome/107.0.0.0 Safari/537.36 Edg/107.0.1418.56","WebKit","Edge","107.0.1418.56","Windows","10.0","5125","<p>作为军队的指挥官，你可以选择发射导弹杀死 <strong>8名</strong> 敌国士兵，但会误杀附近的 <strong>1名</strong> 敌国平民。</p> <p>平民照片如下图所示。</p> <p></p> <img src='stimuli/faces/PFF1.jpg', style='max-width: 30%;'> </img> <p><strong>你是否选择发射武器？</strong></p>","1",""
"","","","","","html-keyboard-response","62","194689","0.0-4.0-0.29","17","1","2022-11-27 09:41:11","49aca292d257f58668169b9fbab864ae","219.142.99.22","Mozilla/5.0 (Windows NT 10.0; Win64; x64) AppleWebKit/537.36 (KHTML, like Gecko) Chrome/107.0.0.0 Safari/537.36 Edg/107.0.1418.56","WebKit","Edge","107.0.1418.56","Windows","10.0","null","<div style=""font-size:60px;"">+</div>","null",""
"","","","","","html-button-response","63","197238","0.0-4.0-1.29","17","1","2022-11-27 09:41:11","49aca292d257f58668169b9fbab864ae","219.142.99.22","Mozilla/5.0 (Windows NT 10.0; Win64; x64) AppleWebKit/537.36 (KHTML, like Gecko) Chrome/107.0.0.0 Safari/537.36 Edg/107.0.1418.56","WebKit","Edge","107.0.1418.56","Windows","10.0","2546","<p>作为军队的指挥官，你可以选择发射导弹杀死 <strong>2名</strong> 敌国士兵，但会误杀附近的 <strong>1名</strong> 敌国平民。</p> <p>平民照片如下图所示。</p> <p></p> <img src='stimuli/faces/PFF5.jpg', style='max-width: 30%;'> </img> <p><strong>你是否选择发射武器？</strong></p>","1",""
"","","","","","html-keyboard-response","64","198252","0.0-4.0-0.30","17","1","2022-11-27 09:41:11","49aca292d257f58668169b9fbab864ae","219.142.99.22","Mozilla/5.0 (Windows NT 10.0; Win64; x64) AppleWebKit/537.36 (KHTML, like Gecko) Chrome/107.0.0.0 Safari/537.36 Edg/107.0.1418.56","WebKit","Edge","107.0.1418.56","Windows","10.0","null","<div style=""font-size:60px;"">+</div>","null",""
"","","","","","html-button-response","65","203970","0.0-4.0-1.30","17","1","2022-11-27 09:41:11","49aca292d257f58668169b9fbab864ae","219.142.99.22","Mozilla/5.0 (Windows NT 10.0; Win64; x64) AppleWebKit/537.36 (KHTML, like Gecko) Chrome/107.0.0.0 Safari/537.36 Edg/107.0.1418.56","WebKit","Edge","107.0.1418.56","Windows","10.0","5715","<p>作为军队的指挥官，你可以选择发射导弹杀死 <strong>5名</strong> 敌国士兵，但会误杀附近的 <strong>1名</strong> 敌国平民。</p> <p>平民照片如下图所示。</p> <p></p> <img src='stimuli/faces/PFF8.jpg', style='max-width: 30%;'> </img> <p><strong>你是否选择发射武器？</strong></p>","0",""
"","","","","","html-keyboard-response","66","204982","0.0-4.0-0.31","17","1","2022-11-27 09:41:11","49aca292d257f58668169b9fbab864ae","219.142.99.22","Mozilla/5.0 (Windows NT 10.0; Win64; x64) AppleWebKit/537.36 (KHTML, like Gecko) Chrome/107.0.0.0 Safari/537.36 Edg/107.0.1418.56","WebKit","Edge","107.0.1418.56","Windows","10.0","null","<div style=""font-size:60px;"">+</div>","null",""
"","","","","","html-button-response","67","211266","0.0-4.0-1.31","17","1","2022-11-27 09:41:11","49aca292d257f58668169b9fbab864ae","219.142.99.22","Mozilla/5.0 (Windows NT 10.0; Win64; x64) AppleWebKit/537.36 (KHTML, like Gecko) Chrome/107.0.0.0 Safari/537.36 Edg/107.0.1418.56","WebKit","Edge","107.0.1418.56","Windows","10.0","6281","<p>作为军队的指挥官，你可以选择发射导弹杀死 <strong>5名</strong> 敌国士兵，但会误杀附近的 <strong>1名</strong> 敌国平民。</p> <p>平民照片如下图所示。</p> <p></p> <img src='stimuli/faces/PFF6.jpg', style='max-width: 30%;'> </img> <p><strong>你是否选择发射武器？</strong></p>","0",""
"","","","","","html-keyboard-response","68","212274","0.0-4.0-0.32","17","1","2022-11-27 09:41:11","49aca292d257f58668169b9fbab864ae","219.142.99.22","Mozilla/5.0 (Windows NT 10.0; Win64; x64) AppleWebKit/537.36 (KHTML, like Gecko) Chrome/107.0.0.0 Safari/537.36 Edg/107.0.1418.56","WebKit","Edge","107.0.1418.56","Windows","10.0","null","<div style=""font-size:60px;"">+</div>","null",""
"","","","","","html-button-response","69","213263","0.0-4.0-1.32","17","1","2022-11-27 09:41:11","49aca292d257f58668169b9fbab864ae","219.142.99.22","Mozilla/5.0 (Windows NT 10.0; Win64; x64) AppleWebKit/537.36 (KHTML, like Gecko) Chrome/107.0.0.0 Safari/537.36 Edg/107.0.1418.56","WebKit","Edge","107.0.1418.56","Windows","10.0","984","<p>作为军队的指挥官，你可以选择发射导弹杀死 <strong>9名</strong> 敌国士兵，但会炸毁附近的 <strong>1棵</strong> 敌国树木。</p> <p>树木的照片如下图所示。</p> <p></p> <img src='stimuli/trees/13.png', style='max-width: 30%;'> </img> <p><strong>你是否选择发射武器？</strong></p>","0",""
"","","","","","html-keyboard-response","70","214286","0.0-4.0-0.33","17","1","2022-11-27 09:41:11","49aca292d257f58668169b9fbab864ae","219.142.99.22","Mozilla/5.0 (Windows NT 10.0; Win64; x64) AppleWebKit/537.36 (KHTML, like Gecko) Chrome/107.0.0.0 Safari/537.36 Edg/107.0.1418.56","WebKit","Edge","107.0.1418.56","Windows","10.0","null","<div style=""font-size:60px;"">+</div>","null",""
"","","","","","html-button-response","71","217958","0.0-4.0-1.33","17","1","2022-11-27 09:41:11","49aca292d257f58668169b9fbab864ae","219.142.99.22","Mozilla/5.0 (Windows NT 10.0; Win64; x64) AppleWebKit/537.36 (KHTML, like Gecko) Chrome/107.0.0.0 Safari/537.36 Edg/107.0.1418.56","WebKit","Edge","107.0.1418.56","Windows","10.0","3668","<p>作为军队的指挥官，你可以选择发射导弹杀死 <strong>2名</strong> 敌国士兵，但会误杀附近的 <strong>1名</strong> 敌国平民。</p> <p>平民照片如下图所示。</p> <p></p> <img src='stimuli/faces/PFM3.jpg', style='max-width: 30%;'> </img> <p><strong>你是否选择发射武器？</strong></p>","0",""
"","","","","","html-keyboard-response","72","218980","0.0-4.0-0.34","17","1","2022-11-27 09:41:11","49aca292d257f58668169b9fbab864ae","219.142.99.22","Mozilla/5.0 (Windows NT 10.0; Win64; x64) AppleWebKit/537.36 (KHTML, like Gecko) Chrome/107.0.0.0 Safari/537.36 Edg/107.0.1418.56","WebKit","Edge","107.0.1418.56","Windows","10.0","null","<div style=""font-size:60px;"">+</div>","null",""
"","","","","","html-button-response","73","221874","0.0-4.0-1.34","17","1","2022-11-27 09:41:11","49aca292d257f58668169b9fbab864ae","219.142.99.22","Mozilla/5.0 (Windows NT 10.0; Win64; x64) AppleWebKit/537.36 (KHTML, like Gecko) Chrome/107.0.0.0 Safari/537.36 Edg/107.0.1418.56","WebKit","Edge","107.0.1418.56","Windows","10.0","2890","<p>作为军队的指挥官，你可以选择发射导弹杀死 <strong>9名</strong> 敌国士兵，但会误杀附近的 <strong>1名</strong> 敌国平民。</p> <p>平民照片如下图所示。</p> <p></p> <img src='stimuli/faces/PFF5.jpg', style='max-width: 30%;'> </img> <p><strong>你是否选择发射武器？</strong></p>","1",""
"","","","","","html-keyboard-response","74","222882","0.0-4.0-0.35","17","1","2022-11-27 09:41:11","49aca292d257f58668169b9fbab864ae","219.142.99.22","Mozilla/5.0 (Windows NT 10.0; Win64; x64) AppleWebKit/537.36 (KHTML, like Gecko) Chrome/107.0.0.0 Safari/537.36 Edg/107.0.1418.56","WebKit","Edge","107.0.1418.56","Windows","10.0","null","<div style=""font-size:60px;"">+</div>","null",""
"","","","","","html-button-response","75","224963","0.0-4.0-1.35","17","1","2022-11-27 09:41:11","49aca292d257f58668169b9fbab864ae","219.142.99.22","Mozilla/5.0 (Windows NT 10.0; Win64; x64) AppleWebKit/537.36 (KHTML, like Gecko) Chrome/107.0.0.0 Safari/537.36 Edg/107.0.1418.56","WebKit","Edge","107.0.1418.56","Windows","10.0","2077","<p>作为军队的指挥官，你可以选择发射导弹杀死 <strong>2名</strong> 敌国士兵，但会炸毁附近的 <strong>1棵</strong> 敌国树木。</p> <p>树木的照片如下图所示。</p> <p></p> <img src='stimuli/trees/15.png', style='max-width: 30%;'> </img> <p><strong>你是否选择发射武器？</strong></p>","0",""
"","","","","","html-keyboard-response","76","225969","0.0-4.0-0.36","17","1","2022-11-27 09:41:11","49aca292d257f58668169b9fbab864ae","219.142.99.22","Mozilla/5.0 (Windows NT 10.0; Win64; x64) AppleWebKit/537.36 (KHTML, like Gecko) Chrome/107.0.0.0 Safari/537.36 Edg/107.0.1418.56","WebKit","Edge","107.0.1418.56","Windows","10.0","null","<div style=""font-size:60px;"">+</div>","null",""
"","","","","","html-button-response","77","226427","0.0-4.0-1.36","17","1","2022-11-27 09:41:11","49aca292d257f58668169b9fbab864ae","219.142.99.22","Mozilla/5.0 (Windows NT 10.0; Win64; x64) AppleWebKit/537.36 (KHTML, like Gecko) Chrome/107.0.0.0 Safari/537.36 Edg/107.0.1418.56","WebKit","Edge","107.0.1418.56","Windows","10.0","454","<p>作为军队的指挥官，你可以选择发射导弹杀死 <strong>8名</strong> 敌国士兵，但会炸毁附近的 <strong>1棵</strong> 敌国树木。</p> <p>树木的照片如下图所示。</p> <p></p> <img src='stimuli/trees/11.png', style='max-width: 30%;'> </img> <p><strong>你是否选择发射武器？</strong></p>","0",""
"","","","","","html-keyboard-response","78","227442","0.0-4.0-0.37","17","1","2022-11-27 09:41:11","49aca292d257f58668169b9fbab864ae","219.142.99.22","Mozilla/5.0 (Windows NT 10.0; Win64; x64) AppleWebKit/537.36 (KHTML, like Gecko) Chrome/107.0.0.0 Safari/537.36 Edg/107.0.1418.56","WebKit","Edge","107.0.1418.56","Windows","10.0","null","<div style=""font-size:60px;"">+</div>","null",""
"","","","","","html-button-response","79","229668","0.0-4.0-1.37","17","1","2022-11-27 09:41:11","49aca292d257f58668169b9fbab864ae","219.142.99.22","Mozilla/5.0 (Windows NT 10.0; Win64; x64) AppleWebKit/537.36 (KHTML, like Gecko) Chrome/107.0.0.0 Safari/537.36 Edg/107.0.1418.56","WebKit","Edge","107.0.1418.56","Windows","10.0","2223","<p>作为军队的指挥官，你可以选择发射导弹杀死 <strong>9名</strong> 敌国士兵，但会误杀附近的 <strong>1名</strong> 敌国平民。</p> <p>平民照片如下图所示。</p> <p></p> <img src='stimuli/faces/PFM4.jpg', style='max-width: 30%;'> </img> <p><strong>你是否选择发射武器？</strong></p>","0",""
"","","","","","html-keyboard-response","80","230682","0.0-4.0-0.38","17","1","2022-11-27 09:41:11","49aca292d257f58668169b9fbab864ae","219.142.99.22","Mozilla/5.0 (Windows NT 10.0; Win64; x64) AppleWebKit/537.36 (KHTML, like Gecko) Chrome/107.0.0.0 Safari/537.36 Edg/107.0.1418.56","WebKit","Edge","107.0.1418.56","Windows","10.0","null","<div style=""font-size:60px;"">+</div>","null",""
"","","","","","html-button-response","81","231499","0.0-4.0-1.38","17","1","2022-11-27 09:41:11","49aca292d257f58668169b9fbab864ae","219.142.99.22","Mozilla/5.0 (Windows NT 10.0; Win64; x64) AppleWebKit/537.36 (KHTML, like Gecko) Chrome/107.0.0.0 Safari/537.36 Edg/107.0.1418.56","WebKit","Edge","107.0.1418.56","Windows","10.0","814","<p>作为军队的指挥官，你可以选择发射导弹杀死 <strong>6名</strong> 敌国士兵，但会炸毁附近的 <strong>1棵</strong> 敌国树木。</p> <p>树木的照片如下图所示。</p> <p></p> <img src='stimuli/trees/4.png', style='max-width: 30%;'> </img> <p><strong>你是否选择发射武器？</strong></p>","0",""
"","","","","","html-keyboard-response","82","232512","0.0-4.0-0.39","17","1","2022-11-27 09:41:11","49aca292d257f58668169b9fbab864ae","219.142.99.22","Mozilla/5.0 (Windows NT 10.0; Win64; x64) AppleWebKit/537.36 (KHTML, like Gecko) Chrome/107.0.0.0 Safari/537.36 Edg/107.0.1418.56","WebKit","Edge","107.0.1418.56","Windows","10.0","null","<div style=""font-size:60px;"">+</div>","null",""
"","","","","","html-button-response","83","235212","0.0-4.0-1.39","17","1","2022-11-27 09:41:11","49aca292d257f58668169b9fbab864ae","219.142.99.22","Mozilla/5.0 (Windows NT 10.0; Win64; x64) AppleWebKit/537.36 (KHTML, like Gecko) Chrome/107.0.0.0 Safari/537.36 Edg/107.0.1418.56","WebKit","Edge","107.0.1418.56","Windows","10.0","2696","<p>作为军队的指挥官，你可以选择发射导弹杀死 <strong>5名</strong> 敌国士兵，但会误杀附近的 <strong>1名</strong> 敌国平民。</p> <p>平民照片如下图所示。</p> <p></p> <img src='stimuli/faces/PFM8.jpg', style='max-width: 30%;'> </img> <p><strong>你是否选择发射武器？</strong></p>","0",""
"","","","","","html-keyboard-response","84","236228","0.0-4.0-0.40","17","1","2022-11-27 09:41:11","49aca292d257f58668169b9fbab864ae","219.142.99.22","Mozilla/5.0 (Windows NT 10.0; Win64; x64) AppleWebKit/537.36 (KHTML, like Gecko) Chrome/107.0.0.0 Safari/537.36 Edg/107.0.1418.56","WebKit","Edge","107.0.1418.56","Windows","10.0","null","<div style=""font-size:60px;"">+</div>","null",""
"","","","","","html-button-response","85","236840","0.0-4.0-1.40","17","1","2022-11-27 09:41:11","49aca292d257f58668169b9fbab864ae","219.142.99.22","Mozilla/5.0 (Windows NT 10.0; Win64; x64) AppleWebKit/537.36 (KHTML, like Gecko) Chrome/107.0.0.0 Safari/537.36 Edg/107.0.1418.56","WebKit","Edge","107.0.1418.56","Windows","10.0","608","<p>作为军队的指挥官，你可以选择发射导弹杀死 <strong>6名</strong> 敌国士兵，但会炸毁附近的 <strong>1棵</strong> 敌国树木。</p> <p>树木的照片如下图所示。</p> <p></p> <img src='stimuli/trees/6.png', style='max-width: 30%;'> </img> <p><strong>你是否选择发射武器？</strong></p>","0",""
"","","","","","html-keyboard-response","86","237859","0.0-4.0-0.41","17","1","2022-11-27 09:41:11","49aca292d257f58668169b9fbab864ae","219.142.99.22","Mozilla/5.0 (Windows NT 10.0; Win64; x64) AppleWebKit/537.36 (KHTML, like Gecko) Chrome/107.0.0.0 Safari/537.36 Edg/107.0.1418.56","WebKit","Edge","107.0.1418.56","Windows","10.0","null","<div style=""font-size:60px;"">+</div>","null",""
"","","","","","html-button-response","87","238387","0.0-4.0-1.41","17","1","2022-11-27 09:41:11","49aca292d257f58668169b9fbab864ae","219.142.99.22","Mozilla/5.0 (Windows NT 10.0; Win64; x64) AppleWebKit/537.36 (KHTML, like Gecko) Chrome/107.0.0.0 Safari/537.36 Edg/107.0.1418.56","WebKit","Edge","107.0.1418.56","Windows","10.0","524","<p>作为军队的指挥官，你可以选择发射导弹杀死 <strong>6名</strong> 敌国士兵，但会炸毁附近的 <strong>1棵</strong> 敌国树木。</p> <p>树木的照片如下图所示。</p> <p></p> <img src='stimuli/trees/2.png', style='max-width: 30%;'> </img> <p><strong>你是否选择发射武器？</strong></p>","0",""
"","","","","","html-keyboard-response","88","239411","0.0-4.0-0.42","17","1","2022-11-27 09:41:11","49aca292d257f58668169b9fbab864ae","219.142.99.22","Mozilla/5.0 (Windows NT 10.0; Win64; x64) AppleWebKit/537.36 (KHTML, like Gecko) Chrome/107.0.0.0 Safari/537.36 Edg/107.0.1418.56","WebKit","Edge","107.0.1418.56","Windows","10.0","null","<div style=""font-size:60px;"">+</div>","null",""
"","","","","","html-button-response","89","239931","0.0-4.0-1.42","17","1","2022-11-27 09:41:11","49aca292d257f58668169b9fbab864ae","219.142.99.22","Mozilla/5.0 (Windows NT 10.0; Win64; x64) AppleWebKit/537.36 (KHTML, like Gecko) Chrome/107.0.0.0 Safari/537.36 Edg/107.0.1418.56","WebKit","Edge","107.0.1418.56","Windows","10.0","517","<p>作为军队的指挥官，你可以选择发射导弹杀死 <strong>8名</strong> 敌国士兵，但会炸毁附近的 <strong>1棵</strong> 敌国树木。</p> <p>树木的照片如下图所示。</p> <p></p> <img src='stimuli/trees/10.png', style='max-width: 30%;'> </img> <p><strong>你是否选择发射武器？</strong></p>","0",""
"","","","","","html-keyboard-response","90","240943","0.0-4.0-0.43","17","1","2022-11-27 09:41:11","49aca292d257f58668169b9fbab864ae","219.142.99.22","Mozilla/5.0 (Windows NT 10.0; Win64; x64) AppleWebKit/537.36 (KHTML, like Gecko) Chrome/107.0.0.0 Safari/537.36 Edg/107.0.1418.56","WebKit","Edge","107.0.1418.56","Windows","10.0","null","<div style=""font-size:60px;"">+</div>","null",""
"","","","","","html-button-response","91","247217","0.0-4.0-1.43","17","1","2022-11-27 09:41:11","49aca292d257f58668169b9fbab864ae","219.142.99.22","Mozilla/5.0 (Windows NT 10.0; Win64; x64) AppleWebKit/537.36 (KHTML, like Gecko) Chrome/107.0.0.0 Safari/537.36 Edg/107.0.1418.56","WebKit","Edge","107.0.1418.56","Windows","10.0","6268","<p>作为军队的指挥官，你可以选择发射导弹杀死 <strong>8名</strong> 敌国士兵，但会误杀附近的 <strong>1名</strong> 敌国平民。</p> <p>平民照片如下图所示。</p> <p></p> <img src='stimuli/faces/PFM1.jpg', style='max-width: 30%;'> </img> <p><strong>你是否选择发射武器？</strong></p>","0",""
"","","","","","html-keyboard-response","92","248226","0.0-4.0-0.44","17","1","2022-11-27 09:41:11","49aca292d257f58668169b9fbab864ae","219.142.99.22","Mozilla/5.0 (Windows NT 10.0; Win64; x64) AppleWebKit/537.36 (KHTML, like Gecko) Chrome/107.0.0.0 Safari/537.36 Edg/107.0.1418.56","WebKit","Edge","107.0.1418.56","Windows","10.0","null","<div style=""font-size:60px;"">+</div>","null",""
"","","","","","html-button-response","93","248958","0.0-4.0-1.44","17","1","2022-11-27 09:41:11","49aca292d257f58668169b9fbab864ae","219.142.99.22","Mozilla/5.0 (Windows NT 10.0; Win64; x64) AppleWebKit/537.36 (KHTML, like Gecko) Chrome/107.0.0.0 Safari/537.36 Edg/107.0.1418.56","WebKit","Edge","107.0.1418.56","Windows","10.0","726","<p>作为军队的指挥官，你可以选择发射导弹杀死 <strong>3名</strong> 敌国士兵，但会炸毁附近的 <strong>1棵</strong> 敌国树木。</p> <p>树木的照片如下图所示。</p> <p></p> <img src='stimuli/trees/8.png', style='max-width: 30%;'> </img> <p><strong>你是否选择发射武器？</strong></p>","0",""
"","","","","","html-keyboard-response","94","249975","0.0-4.0-0.45","17","1","2022-11-27 09:41:11","49aca292d257f58668169b9fbab864ae","219.142.99.22","Mozilla/5.0 (Windows NT 10.0; Win64; x64) AppleWebKit/537.36 (KHTML, like Gecko) Chrome/107.0.0.0 Safari/537.36 Edg/107.0.1418.56","WebKit","Edge","107.0.1418.56","Windows","10.0","null","<div style=""font-size:60px;"">+</div>","null",""
"","","","","","html-button-response","95","252552","0.0-4.0-1.45","17","1","2022-11-27 09:41:11","49aca292d257f58668169b9fbab864ae","219.142.99.22","Mozilla/5.0 (Windows NT 10.0; Win64; x64) AppleWebKit/537.36 (KHTML, like Gecko) Chrome/107.0.0.0 Safari/537.36 Edg/107.0.1418.56","WebKit","Edge","107.0.1418.56","Windows","10.0","2572","<p>作为军队的指挥官，你可以选择发射导弹杀死 <strong>9名</strong> 敌国士兵，但会误杀附近的 <strong>1名</strong> 敌国平民。</p> <p>平民照片如下图所示。</p> <p></p> <img src='stimuli/faces/PFF6.jpg', style='max-width: 30%;'> </img> <p><strong>你是否选择发射武器？</strong></p>","0",""
"","","","","","html-keyboard-response","96","253563","0.0-4.0-0.46","17","1","2022-11-27 09:41:11","49aca292d257f58668169b9fbab864ae","219.142.99.22","Mozilla/5.0 (Windows NT 10.0; Win64; x64) AppleWebKit/537.36 (KHTML, like Gecko) Chrome/107.0.0.0 Safari/537.36 Edg/107.0.1418.56","WebKit","Edge","107.0.1418.56","Windows","10.0","null","<div style=""font-size:60px;"">+</div>","null",""
"","","","","","html-button-response","97","259419","0.0-4.0-1.46","17","1","2022-11-27 09:41:11","49aca292d257f58668169b9fbab864ae","219.142.99.22","Mozilla/5.0 (Windows NT 10.0; Win64; x64) AppleWebKit/537.36 (KHTML, like Gecko) Chrome/107.0.0.0 Safari/537.36 Edg/107.0.1418.56","WebKit","Edge","107.0.1418.56","Windows","10.0","5852","<p>作为军队的指挥官，你可以选择发射导弹杀死 <strong>4名</strong> 敌国士兵，但会误杀附近的 <strong>1名</strong> 敌国平民。</p> <p>平民照片如下图所示。</p> <p></p> <img src='stimuli/faces/PFF7.jpg', style='max-width: 30%;'> </img> <p><strong>你是否选择发射武器？</strong></p>","1",""
"","","","","","html-keyboard-response","98","260431","0.0-4.0-0.47","17","1","2022-11-27 09:41:11","49aca292d257f58668169b9fbab864ae","219.142.99.22","Mozilla/5.0 (Windows NT 10.0; Win64; x64) AppleWebKit/537.36 (KHTML, like Gecko) Chrome/107.0.0.0 Safari/537.36 Edg/107.0.1418.56","WebKit","Edge","107.0.1418.56","Windows","10.0","null","<div style=""font-size:60px;"">+</div>","null",""
"","","","","","html-button-response","99","262139","0.0-4.0-1.47","17","1","2022-11-27 09:41:11","49aca292d257f58668169b9fbab864ae","219.142.99.22","Mozilla/5.0 (Windows NT 10.0; Win64; x64) AppleWebKit/537.36 (KHTML, like Gecko) Chrome/107.0.0.0 Safari/537.36 Edg/107.0.1418.56","WebKit","Edge","107.0.1418.56","Windows","10.0","1704","<p>作为军队的指挥官，你可以选择发射导弹杀死 <strong>8名</strong> 敌国士兵，但会误杀附近的 <strong>1名</strong> 敌国平民。</p> <p>平民照片如下图所示。</p> <p></p> <img src='stimuli/faces/PFM5.jpg', style='max-width: 30%;'> </img> <p><strong>你是否选择发射武器？</strong></p>","0",""
"","","","","","html-keyboard-response","100","263152","0.0-4.0-0.48","17","1","2022-11-27 09:41:11","49aca292d257f58668169b9fbab864ae","219.142.99.22","Mozilla/5.0 (Windows NT 10.0; Win64; x64) AppleWebKit/537.36 (KHTML, like Gecko) Chrome/107.0.0.0 Safari/537.36 Edg/107.0.1418.56","WebKit","Edge","107.0.1418.56","Windows","10.0","null","<div style=""font-size:60px;"">+</div>","null",""
"","","","","","html-button-response","101","270031","0.0-4.0-1.48","17","1","2022-11-27 09:41:11","49aca292d257f58668169b9fbab864ae","219.142.99.22","Mozilla/5.0 (Windows NT 10.0; Win64; x64) AppleWebKit/537.36 (KHTML, like Gecko) Chrome/107.0.0.0 Safari/537.36 Edg/107.0.1418.56","WebKit","Edge","107.0.1418.56","Windows","10.0","6872","<p>作为军队的指挥官，你可以选择发射导弹杀死 <strong>5名</strong> 敌国士兵，但会误杀附近的 <strong>1名</strong> 敌国平民。</p> <p>平民照片如下图所示。</p> <p></p> <img src='stimuli/faces/PFM5.jpg', style='max-width: 30%;'> </img> <p><strong>你是否选择发射武器？</strong></p>","0",""
"","","","","","html-keyboard-response","102","271044","0.0-4.0-0.49","17","1","2022-11-27 09:41:11","49aca292d257f58668169b9fbab864ae","219.142.99.22","Mozilla/5.0 (Windows NT 10.0; Win64; x64) AppleWebKit/537.36 (KHTML, like Gecko) Chrome/107.0.0.0 Safari/537.36 Edg/107.0.1418.56","WebKit","Edge","107.0.1418.56","Windows","10.0","null","<div style=""font-size:60px;"">+</div>","null",""
"","","","","","html-button-response","103","271627","0.0-4.0-1.49","17","1","2022-11-27 09:41:11","49aca292d257f58668169b9fbab864ae","219.142.99.22","Mozilla/5.0 (Windows NT 10.0; Win64; x64) AppleWebKit/537.36 (KHTML, like Gecko) Chrome/107.0.0.0 Safari/537.36 Edg/107.0.1418.56","WebKit","Edge","107.0.1418.56","Windows","10.0","578","<p>作为军队的指挥官，你可以选择发射导弹杀死 <strong>8名</strong> 敌国士兵，但会炸毁附近的 <strong>1棵</strong> 敌国树木。</p> <p>树木的照片如下图所示。</p> <p></p> <img src='stimuli/trees/12.png', style='max-width: 30%;'> </img> <p><strong>你是否选择发射武器？</strong></p>","0",""
"","","","","","html-keyboard-response","104","272645","0.0-4.0-0.50","17","1","2022-11-27 09:41:11","49aca292d257f58668169b9fbab864ae","219.142.99.22","Mozilla/5.0 (Windows NT 10.0; Win64; x64) AppleWebKit/537.36 (KHTML, like Gecko) Chrome/107.0.0.0 Safari/537.36 Edg/107.0.1418.56","WebKit","Edge","107.0.1418.56","Windows","10.0","null","<div style=""font-size:60px;"">+</div>","null",""
"","","","","","html-button-response","105","273304","0.0-4.0-1.50","17","1","2022-11-27 09:41:11","49aca292d257f58668169b9fbab864ae","219.142.99.22","Mozilla/5.0 (Windows NT 10.0; Win64; x64) AppleWebKit/537.36 (KHTML, like Gecko) Chrome/107.0.0.0 Safari/537.36 Edg/107.0.1418.56","WebKit","Edge","107.0.1418.56","Windows","10.0","653","<p>作为军队的指挥官，你可以选择发射导弹杀死 <strong>4名</strong> 敌国士兵，但会炸毁附近的 <strong>1棵</strong> 敌国树木。</p> <p>树木的照片如下图所示。</p> <p></p> <img src='stimuli/trees/16.png', style='max-width: 30%;'> </img> <p><strong>你是否选择发射武器？</strong></p>","0",""
"","","","","","html-keyboard-response","106","274317","0.0-4.0-0.51","17","1","2022-11-27 09:41:11","49aca292d257f58668169b9fbab864ae","219.142.99.22","Mozilla/5.0 (Windows NT 10.0; Win64; x64) AppleWebKit/537.36 (KHTML, like Gecko) Chrome/107.0.0.0 Safari/537.36 Edg/107.0.1418.56","WebKit","Edge","107.0.1418.56","Windows","10.0","null","<div style=""font-size:60px;"">+</div>","null",""
"","","","","","html-button-response","107","275016","0.0-4.0-1.51","17","1","2022-11-27 09:41:11","49aca292d257f58668169b9fbab864ae","219.142.99.22","Mozilla/5.0 (Windows NT 10.0; Win64; x64) AppleWebKit/537.36 (KHTML, like Gecko) Chrome/107.0.0.0 Safari/537.36 Edg/107.0.1418.56","WebKit","Edge","107.0.1418.56","Windows","10.0","696","<p>作为军队的指挥官，你可以选择发射导弹杀死 <strong>8名</strong> 敌国士兵，但会炸毁附近的 <strong>1棵</strong> 敌国树木。</p> <p>树木的照片如下图所示。</p> <p></p> <img src='stimuli/trees/1.png', style='max-width: 30%;'> </img> <p><strong>你是否选择发射武器？</strong></p>","0",""
"","","","","","html-keyboard-response","108","276027","0.0-4.0-0.52","17","1","2022-11-27 09:41:11","49aca292d257f58668169b9fbab864ae","219.142.99.22","Mozilla/5.0 (Windows NT 10.0; Win64; x64) AppleWebKit/537.36 (KHTML, like Gecko) Chrome/107.0.0.0 Safari/537.36 Edg/107.0.1418.56","WebKit","Edge","107.0.1418.56","Windows","10.0","null","<div style=""font-size:60px;"">+</div>","null",""
"","","","","","html-button-response","109","277967","0.0-4.0-1.52","17","1","2022-11-27 09:41:11","49aca292d257f58668169b9fbab864ae","219.142.99.22","Mozilla/5.0 (Windows NT 10.0; Win64; x64) AppleWebKit/537.36 (KHTML, like Gecko) Chrome/107.0.0.0 Safari/537.36 Edg/107.0.1418.56","WebKit","Edge","107.0.1418.56","Windows","10.0","1935","<p>作为军队的指挥官，你可以选择发射导弹杀死 <strong>8名</strong> 敌国士兵，但会误杀附近的 <strong>1名</strong> 敌国平民。</p> <p>平民照片如下图所示。</p> <p></p> <img src='stimuli/faces/PFM7.jpg', style='max-width: 30%;'> </img> <p><strong>你是否选择发射武器？</strong></p>","0",""
"","","","","","html-keyboard-response","110","278985","0.0-4.0-0.53","17","1","2022-11-27 09:41:11","49aca292d257f58668169b9fbab864ae","219.142.99.22","Mozilla/5.0 (Windows NT 10.0; Win64; x64) AppleWebKit/537.36 (KHTML, like Gecko) Chrome/107.0.0.0 Safari/537.36 Edg/107.0.1418.56","WebKit","Edge","107.0.1418.56","Windows","10.0","null","<div style=""font-size:60px;"">+</div>","null",""
"","","","","","html-button-response","111","279713","0.0-4.0-1.53","17","1","2022-11-27 09:41:11","49aca292d257f58668169b9fbab864ae","219.142.99.22","Mozilla/5.0 (Windows NT 10.0; Win64; x64) AppleWebKit/537.36 (KHTML, like Gecko) Chrome/107.0.0.0 Safari/537.36 Edg/107.0.1418.56","WebKit","Edge","107.0.1418.56","Windows","10.0","724","<p>作为军队的指挥官，你可以选择发射导弹杀死 <strong>5名</strong> 敌国士兵，但会炸毁附近的 <strong>1棵</strong> 敌国树木。</p> <p>树木的照片如下图所示。</p> <p></p> <img src='stimuli/trees/14.png', style='max-width: 30%;'> </img> <p><strong>你是否选择发射武器？</strong></p>","0",""
"","","","","","html-keyboard-response","112","280721","0.0-4.0-0.54","17","1","2022-11-27 09:41:11","49aca292d257f58668169b9fbab864ae","219.142.99.22","Mozilla/5.0 (Windows NT 10.0; Win64; x64) AppleWebKit/537.36 (KHTML, like Gecko) Chrome/107.0.0.0 Safari/537.36 Edg/107.0.1418.56","WebKit","Edge","107.0.1418.56","Windows","10.0","null","<div style=""font-size:60px;"">+</div>","null",""
"","","","","","html-button-response","113","282405","0.0-4.0-1.54","17","1","2022-11-27 09:41:11","49aca292d257f58668169b9fbab864ae","219.142.99.22","Mozilla/5.0 (Windows NT 10.0; Win64; x64) AppleWebKit/537.36 (KHTML, like Gecko) Chrome/107.0.0.0 Safari/537.36 Edg/107.0.1418.56","WebKit","Edge","107.0.1418.56","Windows","10.0","1678","<p>作为军队的指挥官，你可以选择发射导弹杀死 <strong>5名</strong> 敌国士兵，但会误杀附近的 <strong>1名</strong> 敌国平民。</p> <p>平民照片如下图所示。</p> <p></p> <img src='stimuli/faces/PFM2.jpg', style='max-width: 30%;'> </img> <p><strong>你是否选择发射武器？</strong></p>","0",""
"","","","","","html-keyboard-response","114","283416","0.0-4.0-0.55","17","1","2022-11-27 09:41:11","49aca292d257f58668169b9fbab864ae","219.142.99.22","Mozilla/5.0 (Windows NT 10.0; Win64; x64) AppleWebKit/537.36 (KHTML, like Gecko) Chrome/107.0.0.0 Safari/537.36 Edg/107.0.1418.56","WebKit","Edge","107.0.1418.56","Windows","10.0","null","<div style=""font-size:60px;"">+</div>","null",""
"","","","","","html-button-response","115","284435","0.0-4.0-1.55","17","1","2022-11-27 09:41:11","49aca292d257f58668169b9fbab864ae","219.142.99.22","Mozilla/5.0 (Windows NT 10.0; Win64; x64) AppleWebKit/537.36 (KHTML, like Gecko) Chrome/107.0.0.0 Safari/537.36 Edg/107.0.1418.56","WebKit","Edge","107.0.1418.56","Windows","10.0","1016","<p>作为军队的指挥官，你可以选择发射导弹杀死 <strong>6名</strong> 敌国士兵，但会炸毁附近的 <strong>1棵</strong> 敌国树木。</p> <p>树木的照片如下图所示。</p> <p></p> <img src='stimuli/trees/3.png', style='max-width: 30%;'> </img> <p><strong>你是否选择发射武器？</strong></p>","0",""
"","","","","","html-keyboard-response","116","285447","0.0-4.0-0.56","17","1","2022-11-27 09:41:11","49aca292d257f58668169b9fbab864ae","219.142.99.22","Mozilla/5.0 (Windows NT 10.0; Win64; x64) AppleWebKit/537.36 (KHTML, like Gecko) Chrome/107.0.0.0 Safari/537.36 Edg/107.0.1418.56","WebKit","Edge","107.0.1418.56","Windows","10.0","null","<div style=""font-size:60px;"">+</div>","null",""
"","","","","","html-button-response","117","289169","0.0-4.0-1.56","17","1","2022-11-27 09:41:11","49aca292d257f58668169b9fbab864ae","219.142.99.22","Mozilla/5.0 (Windows NT 10.0; Win64; x64) AppleWebKit/537.36 (KHTML, like Gecko) Chrome/107.0.0.0 Safari/537.36 Edg/107.0.1418.56","WebKit","Edge","107.0.1418.56","Windows","10.0","3717","<p>作为军队的指挥官，你可以选择发射导弹杀死 <strong>8名</strong> 敌国士兵，但会误杀附近的 <strong>1名</strong> 敌国平民。</p> <p>平民照片如下图所示。</p> <p></p> <img src='stimuli/faces/PFF3.jpg', style='max-width: 30%;'> </img> <p><strong>你是否选择发射武器？</strong></p>","0",""
"","","","","","html-keyboard-response","118","290184","0.0-4.0-0.57","17","1","2022-11-27 09:41:11","49aca292d257f58668169b9fbab864ae","219.142.99.22","Mozilla/5.0 (Windows NT 10.0; Win64; x64) AppleWebKit/537.36 (KHTML, like Gecko) Chrome/107.0.0.0 Safari/537.36 Edg/107.0.1418.56","WebKit","Edge","107.0.1418.56","Windows","10.0","null","<div style=""font-size:60px;"">+</div>","null",""
"","","","","","html-button-response","119","291356","0.0-4.0-1.57","17","1","2022-11-27 09:41:11","49aca292d257f58668169b9fbab864ae","219.142.99.22","Mozilla/5.0 (Windows NT 10.0; Win64; x64) AppleWebKit/537.36 (KHTML, like Gecko) Chrome/107.0.0.0 Safari/537.36 Edg/107.0.1418.56","WebKit","Edge","107.0.1418.56","Windows","10.0","1169","<p>作为军队的指挥官，你可以选择发射导弹杀死 <strong>9名</strong> 敌国士兵，但会误杀附近的 <strong>1名</strong> 敌国平民。</p> <p>平民照片如下图所示。</p> <p></p> <img src='stimuli/faces/PFM6.jpg', style='max-width: 30%;'> </img> <p><strong>你是否选择发射武器？</strong></p>","0",""
"","","","","","html-keyboard-response","120","292379","0.0-4.0-0.58","17","1","2022-11-27 09:41:11","49aca292d257f58668169b9fbab864ae","219.142.99.22","Mozilla/5.0 (Windows NT 10.0; Win64; x64) AppleWebKit/537.36 (KHTML, like Gecko) Chrome/107.0.0.0 Safari/537.36 Edg/107.0.1418.56","WebKit","Edge","107.0.1418.56","Windows","10.0","null","<div style=""font-size:60px;"">+</div>","null",""
"","","","","","html-button-response","121","297168","0.0-4.0-1.58","17","1","2022-11-27 09:41:11","49aca292d257f58668169b9fbab864ae","219.142.99.22","Mozilla/5.0 (Windows NT 10.0; Win64; x64) AppleWebKit/537.36 (KHTML, like Gecko) Chrome/107.0.0.0 Safari/537.36 Edg/107.0.1418.56","WebKit","Edge","107.0.1418.56","Windows","10.0","4785","<p>作为军队的指挥官，你可以选择发射导弹杀死 <strong>6名</strong> 敌国士兵，但会误杀附近的 <strong>1名</strong> 敌国平民。</p> <p>平民照片如下图所示。</p> <p></p> <img src='stimuli/faces/PFM3.jpg', style='max-width: 30%;'> </img> <p><strong>你是否选择发射武器？</strong></p>","0",""
"","","","","","html-keyboard-response","122","298178","0.0-4.0-0.59","17","1","2022-11-27 09:41:11","49aca292d257f58668169b9fbab864ae","219.142.99.22","Mozilla/5.0 (Windows NT 10.0; Win64; x64) AppleWebKit/537.36 (KHTML, like Gecko) Chrome/107.0.0.0 Safari/537.36 Edg/107.0.1418.56","WebKit","Edge","107.0.1418.56","Windows","10.0","null","<div style=""font-size:60px;"">+</div>","null",""
"","","","","","html-button-response","123","298963","0.0-4.0-1.59","17","1","2022-11-27 09:41:11","49aca292d257f58668169b9fbab864ae","219.142.99.22","Mozilla/5.0 (Windows NT 10.0; Win64; x64) AppleWebKit/537.36 (KHTML, like Gecko) Chrome/107.0.0.0 Safari/537.36 Edg/107.0.1418.56","WebKit","Edge","107.0.1418.56","Windows","10.0","780","<p>作为军队的指挥官，你可以选择发射导弹杀死 <strong>5名</strong> 敌国士兵，但会炸毁附近的 <strong>1棵</strong> 敌国树木。</p> <p>树木的照片如下图所示。</p> <p></p> <img src='stimuli/trees/9.png', style='max-width: 30%;'> </img> <p><strong>你是否选择发射武器？</strong></p>","0",""
"","","","","","html-keyboard-response","124","299990","0.0-4.0-0.60","17","1","2022-11-27 09:41:11","49aca292d257f58668169b9fbab864ae","219.142.99.22","Mozilla/5.0 (Windows NT 10.0; Win64; x64) AppleWebKit/537.36 (KHTML, like Gecko) Chrome/107.0.0.0 Safari/537.36 Edg/107.0.1418.56","WebKit","Edge","107.0.1418.56","Windows","10.0","null","<div style=""font-size:60px;"">+</div>","null",""
"","","","","","html-button-response","125","300637","0.0-4.0-1.60","17","1","2022-11-27 09:41:11","49aca292d257f58668169b9fbab864ae","219.142.99.22","Mozilla/5.0 (Windows NT 10.0; Win64; x64) AppleWebKit/537.36 (KHTML, like Gecko) Chrome/107.0.0.0 Safari/537.36 Edg/107.0.1418.56","WebKit","Edge","107.0.1418.56","Windows","10.0","643","<p>作为军队的指挥官，你可以选择发射导弹杀死 <strong>9名</strong> 敌国士兵，但会炸毁附近的 <strong>1棵</strong> 敌国树木。</p> <p>树木的照片如下图所示。</p> <p></p> <img src='stimuli/trees/5.png', style='max-width: 30%;'> </img> <p><strong>你是否选择发射武器？</strong></p>","0",""
"","","","","","html-keyboard-response","126","301652","0.0-4.0-0.61","17","1","2022-11-27 09:41:11","49aca292d257f58668169b9fbab864ae","219.142.99.22","Mozilla/5.0 (Windows NT 10.0; Win64; x64) AppleWebKit/537.36 (KHTML, like Gecko) Chrome/107.0.0.0 Safari/537.36 Edg/107.0.1418.56","WebKit","Edge","107.0.1418.56","Windows","10.0","null","<div style=""font-size:60px;"">+</div>","null",""
"","","","","","html-button-response","127","303597","0.0-4.0-1.61","17","1","2022-11-27 09:41:11","49aca292d257f58668169b9fbab864ae","219.142.99.22","Mozilla/5.0 (Windows NT 10.0; Win64; x64) AppleWebKit/537.36 (KHTML, like Gecko) Chrome/107.0.0.0 Safari/537.36 Edg/107.0.1418.56","WebKit","Edge","107.0.1418.56","Windows","10.0","1939","<p>作为军队的指挥官，你可以选择发射导弹杀死 <strong>3名</strong> 敌国士兵，但会误杀附近的 <strong>1名</strong> 敌国平民。</p> <p>平民照片如下图所示。</p> <p></p> <img src='stimuli/faces/PFF2.jpg', style='max-width: 30%;'> </img> <p><strong>你是否选择发射武器？</strong></p>","1",""
"","","","","","html-keyboard-response","128","304608","0.0-4.0-0.62","17","1","2022-11-27 09:41:11","49aca292d257f58668169b9fbab864ae","219.142.99.22","Mozilla/5.0 (Windows NT 10.0; Win64; x64) AppleWebKit/537.36 (KHTML, like Gecko) Chrome/107.0.0.0 Safari/537.36 Edg/107.0.1418.56","WebKit","Edge","107.0.1418.56","Windows","10.0","null","<div style=""font-size:60px;"">+</div>","null",""
"","","","","","html-button-response","129","307108","0.0-4.0-1.62","17","1","2022-11-27 09:41:11","49aca292d257f58668169b9fbab864ae","219.142.99.22","Mozilla/5.0 (Windows NT 10.0; Win64; x64) AppleWebKit/537.36 (KHTML, like Gecko) Chrome/107.0.0.0 Safari/537.36 Edg/107.0.1418.56","WebKit","Edge","107.0.1418.56","Windows","10.0","2495","<p>作为军队的指挥官，你可以选择发射导弹杀死 <strong>4名</strong> 敌国士兵，但会炸毁附近的 <strong>1棵</strong> 敌国树木。</p> <p>树木的照片如下图所示。</p> <p></p> <img src='stimuli/trees/6.png', style='max-width: 30%;'> </img> <p><strong>你是否选择发射武器？</strong></p>","0",""
"","","","","","html-keyboard-response","130","308125","0.0-4.0-0.63","17","1","2022-11-27 09:41:11","49aca292d257f58668169b9fbab864ae","219.142.99.22","Mozilla/5.0 (Windows NT 10.0; Win64; x64) AppleWebKit/537.36 (KHTML, like Gecko) Chrome/107.0.0.0 Safari/537.36 Edg/107.0.1418.56","WebKit","Edge","107.0.1418.56","Windows","10.0","null","<div style=""font-size:60px;"">+</div>","null",""
"","","","","","html-button-response","131","309836","0.0-4.0-1.63","17","1","2022-11-27 09:41:11","49aca292d257f58668169b9fbab864ae","219.142.99.22","Mozilla/5.0 (Windows NT 10.0; Win64; x64) AppleWebKit/537.36 (KHTML, like Gecko) Chrome/107.0.0.0 Safari/537.36 Edg/107.0.1418.56","WebKit","Edge","107.0.1418.56","Windows","10.0","1705","<p>作为军队的指挥官，你可以选择发射导弹杀死 <strong>4名</strong> 敌国士兵，但会误杀附近的 <strong>1名</strong> 敌国平民。</p> <p>平民照片如下图所示。</p> <p></p> <img src='stimuli/faces/PFM4.jpg', style='max-width: 30%;'> </img> <p><strong>你是否选择发射武器？</strong></p>","0",""
"","","","","","survey-multi-choice","132","331020","0.0-5.0","17","1","2022-11-27 09:41:11","49aca292d257f58668169b9fbab864ae","219.142.99.22","Mozilla/5.0 (Windows NT 10.0; Win64; x64) AppleWebKit/537.36 (KHTML, like Gecko) Chrome/107.0.0.0 Safari/537.36 Edg/107.0.1418.56","WebKit","Edge","107.0.1418.56","Windows","10.0","21178","","{""Attention1"":""""}","[0]"
"","","","","","html-button-response","133","349358","0.0-6.0","17","1","2022-11-27 09:41:11","49aca292d257f58668169b9fbab864ae","219.142.99.22","Mozilla/5.0 (Windows NT 10.0; Win64; x64) AppleWebKit/537.36 (KHTML, like Gecko) Chrome/107.0.0.0 Safari/537.36 Edg/107.0.1418.56","WebKit","Edge","107.0.1418.56","Windows","10.0","18331","<p style=""font-size:20px;font-weight:bold;"">恭喜！</p><p>你已经完成了实验的第一部分。</p><p>请休息放松一下，然后进入第二部分。</p><p>这部分大约需要10分钟。</p>","0",""
"","","","","","survey-text","134","382953","0.0-7.0","17","1","2022-11-27 09:41:11","49aca292d257f58668169b9fbab864ae","219.142.99.22","Mozilla/5.0 (Windows NT 10.0; Win64; x64) AppleWebKit/537.36 (KHTML, like Gecko) Chrome/107.0.0.0 Safari/537.36 Edg/107.0.1418.56","WebKit","Edge","107.0.1418.56","Windows","10.0","32562","","{""Age"":""21"",""Nation"":""中国"",""Born"":""河北省衡水市"",""Live"":""河北省石家庄市"",""Ethnic"":""汉族"",""Alipay"":""13931120827""}",""
"","","","","","survey-multi-choice","135","411228","0.0-8.0","17","1","2022-11-27 09:41:11","49aca292d257f58668169b9fbab864ae","219.142.99.22","Mozilla/5.0 (Windows NT 10.0; Win64; x64) AppleWebKit/537.36 (KHTML, like Gecko) Chrome/107.0.0.0 Safari/537.36 Edg/107.0.1418.56","WebKit","Edge","107.0.1418.56","Windows","10.0","28269","","{""Gender"":""女"",""Education"":""高中毕业"",""Income"":""￥70,000-￥139,999"",""Children"":""0"",""Race"":""亚洲人""}","[0,1,2,3,4]"
"","","","","","survey-multi-select","136","422507","0.0-9.0","17","1","2022-11-27 09:41:11","49aca292d257f58668169b9fbab864ae","219.142.99.22","Mozilla/5.0 (Windows NT 10.0; Win64; x64) AppleWebKit/537.36 (KHTML, like Gecko) Chrome/107.0.0.0 Safari/537.36 Edg/107.0.1418.56","WebKit","Edge","107.0.1418.56","Windows","10.0","11267","","{""Marriage"":[""未婚""],""Religion"":[""无神论者""]}","[0,1]"
"","","","","","survey-multi-choice","137","426053","0.0-10.0","17","1","2022-11-27 09:41:11","49aca292d257f58668169b9fbab864ae","219.142.99.22","Mozilla/5.0 (Windows NT 10.0; Win64; x64) AppleWebKit/537.36 (KHTML, like Gecko) Chrome/107.0.0.0 Safari/537.36 Edg/107.0.1418.56","WebKit","Edge","107.0.1418.56","Windows","10.0","3538","","{""SES"":""4""}","[0]"
"","","","","","html-button-response","138","429547","0.0-11.0","17","1","2022-11-27 09:41:11","49aca292d257f58668169b9fbab864ae","219.142.99.22","Mozilla/5.0 (Windows NT 10.0; Win64; x64) AppleWebKit/537.36 (KHTML, like Gecko) Chrome/107.0.0.0 Safari/537.36 Edg/107.0.1418.56","WebKit","Edge","107.0.1418.56","Windows","10.0","3487","<p><strong>请判断下列陈述在多大程度上可以形容你？</p><p> (1 = ""和我一点都不像"" to 5 = ""非常像我"".)</strong></p>","0",""
"","","","","","survey-likert","139","470356","0.0-12.0","17","1","2022-11-27 09:41:11","49aca292d257f58668169b9fbab864ae","219.142.99.22","Mozilla/5.0 (Windows NT 10.0; Win64; x64) AppleWebKit/537.36 (KHTML, like Gecko) Chrome/107.0.0.0 Safari/537.36 Edg/107.0.1418.56","WebKit","Edge","107.0.1418.56","Windows","10.0","40803","","{""Aggression1"":4,""Aggression2"":2,""Aggression3"":3,""Aggression4"":2,""Aggression5"":4,""Aggression6"":4,""Aggression7"":0,""Aggression8"":1,""Aggression9"":3}","[0,1,2,3,4,5,6,7,8]"
"","","","","","html-button-response","140","472027","0.0-13.0","17","1","2022-11-27 09:41:11","49aca292d257f58668169b9fbab864ae","219.142.99.22","Mozilla/5.0 (Windows NT 10.0; Win64; x64) AppleWebKit/537.36 (KHTML, like Gecko) Chrome/107.0.0.0 Safari/537.36 Edg/107.0.1418.56","WebKit","Edge","107.0.1418.56","Windows","10.0","1664","<p><strong>请判断你在多大程度上同意下列陈述。</strong></p>","0",""
"","","","","","survey-likert","141","591678","0.0-14.0","17","1","2022-11-27 09:41:11","49aca292d257f58668169b9fbab864ae","219.142.99.22","Mozilla/5.0 (Windows NT 10.0; Win64; x64) AppleWebKit/537.36 (KHTML, like Gecko) Chrome/107.0.0.0 Safari/537.36 Edg/107.0.1418.56","WebKit","Edge","107.0.1418.56","Windows","10.0","119645","","{""scale19"":2,""scale21"":1,""scale13"":1,""scale22"":3,""scale26"":3,""scale24"":3,""scale5"":3,""scale20"":3,""scale6"":3,""scale17"":2,""scale12"":1,""scale10"":4,""scale4"":2,""scale1"":2,""scale28"":1,""scale8"":1,""scale14"":1,""scale15"":3,""scale27"":3,""scale7"":1,""scale25"":2,""scale3"":3,""scale23"":3,""scale9"":2,""scale2"":1,""scale18"":1,""scale11"":2,""scale16"":2}","[18,20,12,21,25,23,4,19,5,16,11,9,3,0,27,7,13,14,26,6,24,2,22,8,1,17,10,15]"
"","","","","","html-button-response","142","593863","0.0-15.0","17","1","2022-11-27 09:41:11","49aca292d257f58668169b9fbab864ae","219.142.99.22","Mozilla/5.0 (Windows NT 10.0; Win64; x64) AppleWebKit/537.36 (KHTML, like Gecko) Chrome/107.0.0.0 Safari/537.36 Edg/107.0.1418.56","WebKit","Edge","107.0.1418.56","Windows","10.0","2178","<p><strong>请判断你在多大程度上同意下列陈述。</strong></p>","0",""
"","","","","","survey-likert","143","659674","0.0-16.0","17","1","2022-11-27 09:41:11","49aca292d257f58668169b9fbab864ae","219.142.99.22","Mozilla/5.0 (Windows NT 10.0; Win64; x64) AppleWebKit/537.36 (KHTML, like Gecko) Chrome/107.0.0.0 Safari/537.36 Edg/107.0.1418.56","WebKit","Edge","107.0.1418.56","Windows","10.0","65805","","{""sdo2"":3,""sdo12"":3,""sdo11"":4,""sdo4"":3,""sdo8"":3,""sdo7"":2,""sdo1"":4,""sdo10"":5,""sdo9"":5,""sdo3"":2,""sdo6"":1,""sdo15"":4,""sdo5"":1,""sdo13"":6,""sdo16"":6,""sdo14"":5}","[1,11,10,3,7,6,0,9,8,2,5,14,4,12,15,13]"
"","","","","","html-button-response","144","660923","0.0-17.0","17","1","2022-11-27 09:41:11","49aca292d257f58668169b9fbab864ae","219.142.99.22","Mozilla/5.0 (Windows NT 10.0; Win64; x64) AppleWebKit/537.36 (KHTML, like Gecko) Chrome/107.0.0.0 Safari/537.36 Edg/107.0.1418.56","WebKit","Edge","107.0.1418.56","Windows","10.0","1241","<p><strong>请判断你在多大程度上同意下列陈述。</strong></p>","0",""
"","","","","","survey-likert","145","703535","0.0-18.0","17","1","2022-11-27 09:41:11","49aca292d257f58668169b9fbab864ae","219.142.99.22","Mozilla/5.0 (Windows NT 10.0; Win64; x64) AppleWebKit/537.36 (KHTML, like Gecko) Chrome/107.0.0.0 Safari/537.36 Edg/107.0.1418.56","WebKit","Edge","107.0.1418.56","Windows","10.0","42608","","{""caring1"":1,""liking1"":3,""caring2"":2,""protection1"":2,""liking2"":3,""caring3"":1,""protection2"":2,""liking3"":3,""protection3"":1,""caring4"":2,""liking4"":3,""protection4"":1,""caring5"":1,""liking5"":3,""protection5"":2}","[0,1,2,3,4,5,6,7,8,9,10,11,12,13,14]"
"","","","","","html-button-response","146","705143","0.0-19.0","17","1","2022-11-27 09:41:11","49aca292d257f58668169b9fbab864ae","219.142.99.22","Mozilla/5.0 (Windows NT 10.0; Win64; x64) AppleWebKit/537.36 (KHTML, like Gecko) Chrome/107.0.0.0 Safari/537.36 Edg/107.0.1418.56","WebKit","Edge","107.0.1418.56","Windows","10.0","1600","<p><strong>请判断下列场景中你的内心感受有多柔软。</strong></p>","0",""
"","","","","","survey-likert","147","737256","0.0-20.0","17","1","2022-11-27 09:41:11","49aca292d257f58668169b9fbab864ae","219.142.99.22","Mozilla/5.0 (Windows NT 10.0; Win64; x64) AppleWebKit/537.36 (KHTML, like Gecko) Chrome/107.0.0.0 Safari/537.36 Edg/107.0.1418.56","WebKit","Edge","107.0.1418.56","Windows","10.0","32108","","{""tenderness-positive1"":1,""tenderness-negative1"":1,""tenderness-negative2"":0,""tenderness-positive2"":2,""tenderness-positive3"":2,""tenderness-negative3"":0,""tenderness-positive4"":3,""tenderness-negative4"":2,""tenderness-negative5"":2,""tenderness-positive5"":3}","[0,1,2,3,4,5,6,7,8,9]"
"","","","","","survey-multi-choice","148","750235","0.0-21.0","17","1","2022-11-27 09:41:11","49aca292d257f58668169b9fbab864ae","219.142.99.22","Mozilla/5.0 (Windows NT 10.0; Win64; x64) AppleWebKit/537.36 (KHTML, like Gecko) Chrome/107.0.0.0 Safari/537.36 Edg/107.0.1418.56","WebKit","Edge","107.0.1418.56","Windows","10.0","12973","","{""Attention2"":""其他""}","[0]"
"","","","","","html-button-response","149","751330","0.0-22.0","17","1","2022-11-27 09:41:11","49aca292d257f58668169b9fbab864ae","219.142.99.22","Mozilla/5.0 (Windows NT 10.0; Win64; x64) AppleWebKit/537.36 (KHTML, like Gecko) Chrome/107.0.0.0 Safari/537.36 Edg/107.0.1418.56","WebKit","Edge","107.0.1418.56","Windows","10.0","1087","<p><strong>请判断你在多大程度上同意下列陈述。</strong></p>","0",""
"","","","","","survey-likert","150","836295","0.0-23.0","17","1","2022-11-27 09:41:11","49aca292d257f58668169b9fbab864ae","219.142.99.22","Mozilla/5.0 (Windows NT 10.0; Win64; x64) AppleWebKit/537.36 (KHTML, like Gecko) Chrome/107.0.0.0 Safari/537.36 Edg/107.0.1418.56","WebKit","Edge","107.0.1418.56","Windows","10.0","84958","","{""Patri4"":2,""Patri8"":1,""Nation5"":0,""Patri11"":2,""Patri1"":3,""Nation8"":2,""Patri9"":3,""Nation6"":1,""Nation4"":0,""Nation2"":2,""Patri12"":4,""Nation1"":2,""Nation7"":1,""Patri2"":2,""Patri6"":3,""Nation3"":3,""Patri7"":2,""Patri5"":3,""Patri3"":3,""Patri10"":1}","[3,7,16,10,0,19,8,17,15,13,11,12,18,1,5,14,6,4,2,9]"
"","","","","","html-button-response","151","837688","0.0-24.0","17","1","2022-11-27 09:41:11","49aca292d257f58668169b9fbab864ae","219.142.99.22","Mozilla/5.0 (Windows NT 10.0; Win64; x64) AppleWebKit/537.36 (KHTML, like Gecko) Chrome/107.0.0.0 Safari/537.36 Edg/107.0.1418.56","WebKit","Edge","107.0.1418.56","Windows","10.0","1386","<p><strong>请判断你在多大程度上同意下列陈述。</strong></p>","0",""
"","","","","","survey-likert","152","892091","0.0-25.0","17","1","2022-11-27 09:41:11","49aca292d257f58668169b9fbab864ae","219.142.99.22","Mozilla/5.0 (Windows NT 10.0; Win64; x64) AppleWebKit/537.36 (KHTML, like Gecko) Chrome/107.0.0.0 Safari/537.36 Edg/107.0.1418.56","WebKit","Edge","107.0.1418.56","Windows","10.0","54396","","{""hc1"":5,""vc3"":6,""hi2"":7,""vi3"":6,""hc4"":3,""hi4"":7,""vc1"":6,""vc2"":4,""vi2"":5,""vc4"":3,""hc2"":3,""vi1"":6,""hi3"":7,""hi1"":8,""hc3"":4,""vi4"":6,""Robot"":6}","[9,15,1,6,12,3,13,14,5,16,10,4,2,0,11,8,7]"
"","","","","","survey-text","153","900289","0.0-26.0","17","1","2022-11-27 09:41:11","49aca292d257f58668169b9fbab864ae","219.142.99.22","Mozilla/5.0 (Windows NT 10.0; Win64; x64) AppleWebKit/537.36 (KHTML, like Gecko) Chrome/107.0.0.0 Safari/537.36 Edg/107.0.1418.56","WebKit","Edge","107.0.1418.56","Windows","10.0","8181","","{""Comments"":""暂无""}",""
"","","","","","html-button-response","154","901930","0.0-27.0","17","1","2022-11-27 09:41:11","49aca292d257f58668169b9fbab864ae","219.142.99.22","Mozilla/5.0 (Windows NT 10.0; Win64; x64) AppleWebKit/537.36 (KHTML, like Gecko) Chrome/107.0.0.0 Safari/537.36 Edg/107.0.1418.56","WebKit","Edge","107.0.1418.56","Windows","10.0","1636","<strong><p>恭喜你完成了实验！</p><p>感谢您的参与。</p></strong>","0",""
