"success","timeout","failed_images","failed_audio","failed_video","trial_type","trial_index","time_elapsed","internal_node_id","run_id","condition","recorded_at","source_code_version","ip","user_agent","device","browser","browser_version","platform","platform_version","rt","stimulus","response","question_order"
"true","false","[]","[]","[]","preload","0","3808","0.0-0.0","20","1","2022-11-27 09:44:35","49aca292d257f58668169b9fbab864ae","101.30.8.88","Mozilla/5.0 (Windows NT 10.0; Win64; x64) AppleWebKit/537.36 (KHTML, like Gecko) Chrome/102.0.0.0 Safari/537.36","WebKit","Chrome","102.0.0.0","Windows","10.0","","","",""
"true","","","","","fullscreen","1","44042","0.0-1.0","20","1","2022-11-27 09:44:35","49aca292d257f58668169b9fbab864ae","101.30.8.88","Mozilla/5.0 (Windows NT 10.0; Win64; x64) AppleWebKit/537.36 (KHTML, like Gecko) Chrome/102.0.0.0 Safari/537.36","WebKit","Chrome","102.0.0.0","Windows","10.0","","","",""
"","","","","","html-button-response","2","55810","0.0-2.0","20","1","2022-11-27 09:44:35","49aca292d257f58668169b9fbab864ae","101.30.8.88","Mozilla/5.0 (Windows NT 10.0; Win64; x64) AppleWebKit/537.36 (KHTML, like Gecko) Chrome/102.0.0.0 Safari/537.36","WebKit","Chrome","102.0.0.0","Windows","10.0","11763","<p style=""font-size:20px;font-weight:bold;"">实验知情同意书</p><p style=""text-align:left;""><strong>实验名称：</strong>社会冲突研究</p><p style=""text-align:left;""><strong>主要研究者：</strong>韩晓春副教授（北京师范大学心理学部）</p><p style=""text-align:left;""><strong>联系方式：</strong>发送邮件至xiaochun.han@bnu.edu.cn</p><p style=""text-align:left;""><strong>研究目的：</strong>研究旨在了解人类面对群体冲突时的决策方式，以及相关的心理学特质。实验调查大约需要20分钟。</p><p style=""text-align:left;""><strong>实验流程：</strong>实验包含两部分。第一部分呈现一系列群体冲突场景，请你决定如何对这些冲突进行反应，大约需要10分钟完成。第二部分包含一系列人口统计学信息收集和心理学问卷，大约需要10分钟完成。</p><p style=""text-align:left;""><strong>参加及退出规则：</strong>参加本实验完全取决于您的个人意愿。在参与过程中，您可以随时退出，并且不用承担任何后果。</p><p style=""text-align:left;""><strong>隐私：</strong>本实验完全匿名进行，不会收集您的姓名或其他能够识别您身份的信息。实验中收集的作答仅用作科学研究使用，可能会在学术期刊/书籍上发表，或者用于教学，您的数据未来可能会和其他研究者或实验室分享，但您的个人身份不会被识别。</p><p style=""text-align:left;""><strong>实验报酬：</strong>实验完成后，您将获得15元人民币报酬，以感谢您的时间和努力。调查问卷中包含几道题目用以测验您作答时的认真度。只有完成全部实验，并且正确回答认真度测验的被试才能获得实验报酬。实验报酬将通过支付宝转账发放。</p><p style=""text-align:left;font-size:20px;""><strong>如果您同意以上实验知情同意书的内容，请点击'同意并且开始实验'按钮；否则请关闭浏览器界面，退出实验。</strong></p>","0",""
"","","","","","html-button-response","3","65191","0.0-3.0","20","1","2022-11-27 09:44:35","49aca292d257f58668169b9fbab864ae","101.30.8.88","Mozilla/5.0 (Windows NT 10.0; Win64; x64) AppleWebKit/537.36 (KHTML, like Gecko) Chrome/102.0.0.0 Safari/537.36","WebKit","Chrome","102.0.0.0","Windows","10.0","9379","<p ><strong>实验任务一：</strong></p><p>请想象你的国家与另一个国家发生了军事冲突。</p><p>你是国家军队的指挥官，你将如何在冲突中进行决策。</p><p>具体来说，作为军队指挥官，请你决定是否发射导弹进行打击。</p><p>接下来，你会面对一系列场景，请仔细阅读每个场景，然后进行决策。</p><p>这部分实验任务大约需要10分钟。</p><p><strong>实验过程中，请集中注意力。</strong></p>","0",""
"","","","","","html-keyboard-response","4","66194","0.0-4.0-0.0","20","1","2022-11-27 09:44:35","49aca292d257f58668169b9fbab864ae","101.30.8.88","Mozilla/5.0 (Windows NT 10.0; Win64; x64) AppleWebKit/537.36 (KHTML, like Gecko) Chrome/102.0.0.0 Safari/537.36","WebKit","Chrome","102.0.0.0","Windows","10.0","null","<div style=""font-size:60px;"">+</div>","null",""
"","","","","","html-button-response","5","74014","0.0-4.0-1.0","20","1","2022-11-27 09:44:35","49aca292d257f58668169b9fbab864ae","101.30.8.88","Mozilla/5.0 (Windows NT 10.0; Win64; x64) AppleWebKit/537.36 (KHTML, like Gecko) Chrome/102.0.0.0 Safari/537.36","WebKit","Chrome","102.0.0.0","Windows","10.0","7812","<p>作为军队的指挥官，你可以选择发射导弹杀死 <strong>8名</strong> 敌国士兵，但会炸毁附近的 <strong>1棵</strong> 敌国树木。</p> <p>树木的照片如下图所示。</p> <p></p> <img src='stimuli/trees/7.png', style='max-width: 30%;'> </img> <p><strong>你是否选择发射武器？</strong></p>","0",""
"","","","","","html-keyboard-response","6","75032","0.0-4.0-0.1","20","1","2022-11-27 09:44:35","49aca292d257f58668169b9fbab864ae","101.30.8.88","Mozilla/5.0 (Windows NT 10.0; Win64; x64) AppleWebKit/537.36 (KHTML, like Gecko) Chrome/102.0.0.0 Safari/537.36","WebKit","Chrome","102.0.0.0","Windows","10.0","null","<div style=""font-size:60px;"">+</div>","null",""
"","","","","","html-button-response","7","80630","0.0-4.0-1.1","20","1","2022-11-27 09:44:35","49aca292d257f58668169b9fbab864ae","101.30.8.88","Mozilla/5.0 (Windows NT 10.0; Win64; x64) AppleWebKit/537.36 (KHTML, like Gecko) Chrome/102.0.0.0 Safari/537.36","WebKit","Chrome","102.0.0.0","Windows","10.0","5594","<p>作为军队的指挥官，你可以选择发射导弹杀死 <strong>4名</strong> 敌国士兵，但会炸毁附近的 <strong>1棵</strong> 敌国树木。</p> <p>树木的照片如下图所示。</p> <p></p> <img src='stimuli/trees/16.png', style='max-width: 30%;'> </img> <p><strong>你是否选择发射武器？</strong></p>","1",""
"","","","","","html-keyboard-response","8","81635","0.0-4.0-0.2","20","1","2022-11-27 09:44:35","49aca292d257f58668169b9fbab864ae","101.30.8.88","Mozilla/5.0 (Windows NT 10.0; Win64; x64) AppleWebKit/537.36 (KHTML, like Gecko) Chrome/102.0.0.0 Safari/537.36","WebKit","Chrome","102.0.0.0","Windows","10.0","null","<div style=""font-size:60px;"">+</div>","null",""
"","","","","","html-button-response","9","85076","0.0-4.0-1.2","20","1","2022-11-27 09:44:35","49aca292d257f58668169b9fbab864ae","101.30.8.88","Mozilla/5.0 (Windows NT 10.0; Win64; x64) AppleWebKit/537.36 (KHTML, like Gecko) Chrome/102.0.0.0 Safari/537.36","WebKit","Chrome","102.0.0.0","Windows","10.0","3437","<p>作为军队的指挥官，你可以选择发射导弹杀死 <strong>5名</strong> 敌国士兵，但会炸毁附近的 <strong>1棵</strong> 敌国树木。</p> <p>树木的照片如下图所示。</p> <p></p> <img src='stimuli/trees/7.png', style='max-width: 30%;'> </img> <p><strong>你是否选择发射武器？</strong></p>","0",""
"","","","","","html-keyboard-response","10","86078","0.0-4.0-0.3","20","1","2022-11-27 09:44:35","49aca292d257f58668169b9fbab864ae","101.30.8.88","Mozilla/5.0 (Windows NT 10.0; Win64; x64) AppleWebKit/537.36 (KHTML, like Gecko) Chrome/102.0.0.0 Safari/537.36","WebKit","Chrome","102.0.0.0","Windows","10.0","null","<div style=""font-size:60px;"">+</div>","null",""
"","","","","","html-button-response","11","96017","0.0-4.0-1.3","20","1","2022-11-27 09:44:35","49aca292d257f58668169b9fbab864ae","101.30.8.88","Mozilla/5.0 (Windows NT 10.0; Win64; x64) AppleWebKit/537.36 (KHTML, like Gecko) Chrome/102.0.0.0 Safari/537.36","WebKit","Chrome","102.0.0.0","Windows","10.0","9935","<p>作为军队的指挥官，你可以选择发射导弹杀死 <strong>6名</strong> 敌国士兵，但会误杀附近的 <strong>1名</strong> 敌国平民。</p> <p>平民照片如下图所示。</p> <p></p> <img src='stimuli/faces/PFF3.jpg', style='max-width: 30%;'> </img> <p><strong>你是否选择发射武器？</strong></p>","1",""
"","","","","","html-keyboard-response","12","97032","0.0-4.0-0.4","20","1","2022-11-27 09:44:35","49aca292d257f58668169b9fbab864ae","101.30.8.88","Mozilla/5.0 (Windows NT 10.0; Win64; x64) AppleWebKit/537.36 (KHTML, like Gecko) Chrome/102.0.0.0 Safari/537.36","WebKit","Chrome","102.0.0.0","Windows","10.0","null","<div style=""font-size:60px;"">+</div>","null",""
"","","","","","html-button-response","13","99275","0.0-4.0-1.4","20","1","2022-11-27 09:44:35","49aca292d257f58668169b9fbab864ae","101.30.8.88","Mozilla/5.0 (Windows NT 10.0; Win64; x64) AppleWebKit/537.36 (KHTML, like Gecko) Chrome/102.0.0.0 Safari/537.36","WebKit","Chrome","102.0.0.0","Windows","10.0","2238","<p>作为军队的指挥官，你可以选择发射导弹杀死 <strong>9名</strong> 敌国士兵，但会炸毁附近的 <strong>1棵</strong> 敌国树木。</p> <p>树木的照片如下图所示。</p> <p></p> <img src='stimuli/trees/6.png', style='max-width: 30%;'> </img> <p><strong>你是否选择发射武器？</strong></p>","1",""
"","","","","","html-keyboard-response","14","100278","0.0-4.0-0.5","20","1","2022-11-27 09:44:35","49aca292d257f58668169b9fbab864ae","101.30.8.88","Mozilla/5.0 (Windows NT 10.0; Win64; x64) AppleWebKit/537.36 (KHTML, like Gecko) Chrome/102.0.0.0 Safari/537.36","WebKit","Chrome","102.0.0.0","Windows","10.0","null","<div style=""font-size:60px;"">+</div>","null",""
"","","","","","html-button-response","15","103017","0.0-4.0-1.5","20","1","2022-11-27 09:44:35","49aca292d257f58668169b9fbab864ae","101.30.8.88","Mozilla/5.0 (Windows NT 10.0; Win64; x64) AppleWebKit/537.36 (KHTML, like Gecko) Chrome/102.0.0.0 Safari/537.36","WebKit","Chrome","102.0.0.0","Windows","10.0","2736","<p>作为军队的指挥官，你可以选择发射导弹杀死 <strong>8名</strong> 敌国士兵，但会炸毁附近的 <strong>1棵</strong> 敌国树木。</p> <p>树木的照片如下图所示。</p> <p></p> <img src='stimuli/trees/4.png', style='max-width: 30%;'> </img> <p><strong>你是否选择发射武器？</strong></p>","1",""
"","","","","","html-keyboard-response","16","104029","0.0-4.0-0.6","20","1","2022-11-27 09:44:35","49aca292d257f58668169b9fbab864ae","101.30.8.88","Mozilla/5.0 (Windows NT 10.0; Win64; x64) AppleWebKit/537.36 (KHTML, like Gecko) Chrome/102.0.0.0 Safari/537.36","WebKit","Chrome","102.0.0.0","Windows","10.0","null","<div style=""font-size:60px;"">+</div>","null",""
"","","","","","html-button-response","17","110248","0.0-4.0-1.6","20","1","2022-11-27 09:44:35","49aca292d257f58668169b9fbab864ae","101.30.8.88","Mozilla/5.0 (Windows NT 10.0; Win64; x64) AppleWebKit/537.36 (KHTML, like Gecko) Chrome/102.0.0.0 Safari/537.36","WebKit","Chrome","102.0.0.0","Windows","10.0","6215","<p>作为军队的指挥官，你可以选择发射导弹杀死 <strong>7名</strong> 敌国士兵，但会炸毁附近的 <strong>1棵</strong> 敌国树木。</p> <p>树木的照片如下图所示。</p> <p></p> <img src='stimuli/trees/12.png', style='max-width: 30%;'> </img> <p><strong>你是否选择发射武器？</strong></p>","0",""
"","","","","","html-keyboard-response","18","111253","0.0-4.0-0.7","20","1","2022-11-27 09:44:35","49aca292d257f58668169b9fbab864ae","101.30.8.88","Mozilla/5.0 (Windows NT 10.0; Win64; x64) AppleWebKit/537.36 (KHTML, like Gecko) Chrome/102.0.0.0 Safari/537.36","WebKit","Chrome","102.0.0.0","Windows","10.0","null","<div style=""font-size:60px;"">+</div>","null",""
"","","","","","html-button-response","19","113060","0.0-4.0-1.7","20","1","2022-11-27 09:44:35","49aca292d257f58668169b9fbab864ae","101.30.8.88","Mozilla/5.0 (Windows NT 10.0; Win64; x64) AppleWebKit/537.36 (KHTML, like Gecko) Chrome/102.0.0.0 Safari/537.36","WebKit","Chrome","102.0.0.0","Windows","10.0","1803","<p>作为军队的指挥官，你可以选择发射导弹杀死 <strong>7名</strong> 敌国士兵，但会炸毁附近的 <strong>1棵</strong> 敌国树木。</p> <p>树木的照片如下图所示。</p> <p></p> <img src='stimuli/trees/16.png', style='max-width: 30%;'> </img> <p><strong>你是否选择发射武器？</strong></p>","1",""
"","","","","","html-keyboard-response","20","114066","0.0-4.0-0.8","20","1","2022-11-27 09:44:35","49aca292d257f58668169b9fbab864ae","101.30.8.88","Mozilla/5.0 (Windows NT 10.0; Win64; x64) AppleWebKit/537.36 (KHTML, like Gecko) Chrome/102.0.0.0 Safari/537.36","WebKit","Chrome","102.0.0.0","Windows","10.0","null","<div style=""font-size:60px;"">+</div>","null",""
"","","","","","html-button-response","21","116150","0.0-4.0-1.8","20","1","2022-11-27 09:44:35","49aca292d257f58668169b9fbab864ae","101.30.8.88","Mozilla/5.0 (Windows NT 10.0; Win64; x64) AppleWebKit/537.36 (KHTML, like Gecko) Chrome/102.0.0.0 Safari/537.36","WebKit","Chrome","102.0.0.0","Windows","10.0","2081","<p>作为军队的指挥官，你可以选择发射导弹杀死 <strong>2名</strong> 敌国士兵，但会炸毁附近的 <strong>1棵</strong> 敌国树木。</p> <p>树木的照片如下图所示。</p> <p></p> <img src='stimuli/trees/3.png', style='max-width: 30%;'> </img> <p><strong>你是否选择发射武器？</strong></p>","1",""
"","","","","","html-keyboard-response","22","117167","0.0-4.0-0.9","20","1","2022-11-27 09:44:35","49aca292d257f58668169b9fbab864ae","101.30.8.88","Mozilla/5.0 (Windows NT 10.0; Win64; x64) AppleWebKit/537.36 (KHTML, like Gecko) Chrome/102.0.0.0 Safari/537.36","WebKit","Chrome","102.0.0.0","Windows","10.0","null","<div style=""font-size:60px;"">+</div>","null",""
"","","","","","html-button-response","23","119173","0.0-4.0-1.9","20","1","2022-11-27 09:44:35","49aca292d257f58668169b9fbab864ae","101.30.8.88","Mozilla/5.0 (Windows NT 10.0; Win64; x64) AppleWebKit/537.36 (KHTML, like Gecko) Chrome/102.0.0.0 Safari/537.36","WebKit","Chrome","102.0.0.0","Windows","10.0","2001","<p>作为军队的指挥官，你可以选择发射导弹杀死 <strong>9名</strong> 敌国士兵，但会炸毁附近的 <strong>1棵</strong> 敌国树木。</p> <p>树木的照片如下图所示。</p> <p></p> <img src='stimuli/trees/13.png', style='max-width: 30%;'> </img> <p><strong>你是否选择发射武器？</strong></p>","0",""
"","","","","","html-keyboard-response","24","120185","0.0-4.0-0.10","20","1","2022-11-27 09:44:35","49aca292d257f58668169b9fbab864ae","101.30.8.88","Mozilla/5.0 (Windows NT 10.0; Win64; x64) AppleWebKit/537.36 (KHTML, like Gecko) Chrome/102.0.0.0 Safari/537.36","WebKit","Chrome","102.0.0.0","Windows","10.0","null","<div style=""font-size:60px;"">+</div>","null",""
"","","","","","html-button-response","25","121978","0.0-4.0-1.10","20","1","2022-11-27 09:44:35","49aca292d257f58668169b9fbab864ae","101.30.8.88","Mozilla/5.0 (Windows NT 10.0; Win64; x64) AppleWebKit/537.36 (KHTML, like Gecko) Chrome/102.0.0.0 Safari/537.36","WebKit","Chrome","102.0.0.0","Windows","10.0","1790","<p>作为军队的指挥官，你可以选择发射导弹杀死 <strong>9名</strong> 敌国士兵，但会炸毁附近的 <strong>1棵</strong> 敌国树木。</p> <p>树木的照片如下图所示。</p> <p></p> <img src='stimuli/trees/10.png', style='max-width: 30%;'> </img> <p><strong>你是否选择发射武器？</strong></p>","0",""
"","","","","","html-keyboard-response","26","122982","0.0-4.0-0.11","20","1","2022-11-27 09:44:35","49aca292d257f58668169b9fbab864ae","101.30.8.88","Mozilla/5.0 (Windows NT 10.0; Win64; x64) AppleWebKit/537.36 (KHTML, like Gecko) Chrome/102.0.0.0 Safari/537.36","WebKit","Chrome","102.0.0.0","Windows","10.0","null","<div style=""font-size:60px;"">+</div>","null",""
"","","","","","html-button-response","27","125451","0.0-4.0-1.11","20","1","2022-11-27 09:44:35","49aca292d257f58668169b9fbab864ae","101.30.8.88","Mozilla/5.0 (Windows NT 10.0; Win64; x64) AppleWebKit/537.36 (KHTML, like Gecko) Chrome/102.0.0.0 Safari/537.36","WebKit","Chrome","102.0.0.0","Windows","10.0","2464","<p>作为军队的指挥官，你可以选择发射导弹杀死 <strong>9名</strong> 敌国士兵，但会炸毁附近的 <strong>1棵</strong> 敌国树木。</p> <p>树木的照片如下图所示。</p> <p></p> <img src='stimuli/trees/1.png', style='max-width: 30%;'> </img> <p><strong>你是否选择发射武器？</strong></p>","1",""
"","","","","","html-keyboard-response","28","126455","0.0-4.0-0.12","20","1","2022-11-27 09:44:35","49aca292d257f58668169b9fbab864ae","101.30.8.88","Mozilla/5.0 (Windows NT 10.0; Win64; x64) AppleWebKit/537.36 (KHTML, like Gecko) Chrome/102.0.0.0 Safari/537.36","WebKit","Chrome","102.0.0.0","Windows","10.0","null","<div style=""font-size:60px;"">+</div>","null",""
"","","","","","html-button-response","29","129626","0.0-4.0-1.12","20","1","2022-11-27 09:44:35","49aca292d257f58668169b9fbab864ae","101.30.8.88","Mozilla/5.0 (Windows NT 10.0; Win64; x64) AppleWebKit/537.36 (KHTML, like Gecko) Chrome/102.0.0.0 Safari/537.36","WebKit","Chrome","102.0.0.0","Windows","10.0","3165","<p>作为军队的指挥官，你可以选择发射导弹杀死 <strong>1名</strong> 敌国士兵，但会误杀附近的 <strong>1名</strong> 敌国平民。</p> <p>平民照片如下图所示。</p> <p></p> <img src='stimuli/faces/PFF1.jpg', style='max-width: 30%;'> </img> <p><strong>你是否选择发射武器？</strong></p>","1",""
"","","","","","html-keyboard-response","30","130632","0.0-4.0-0.13","20","1","2022-11-27 09:44:35","49aca292d257f58668169b9fbab864ae","101.30.8.88","Mozilla/5.0 (Windows NT 10.0; Win64; x64) AppleWebKit/537.36 (KHTML, like Gecko) Chrome/102.0.0.0 Safari/537.36","WebKit","Chrome","102.0.0.0","Windows","10.0","null","<div style=""font-size:60px;"">+</div>","null",""
"","","","","","html-button-response","31","133043","0.0-4.0-1.13","20","1","2022-11-27 09:44:35","49aca292d257f58668169b9fbab864ae","101.30.8.88","Mozilla/5.0 (Windows NT 10.0; Win64; x64) AppleWebKit/537.36 (KHTML, like Gecko) Chrome/102.0.0.0 Safari/537.36","WebKit","Chrome","102.0.0.0","Windows","10.0","2406","<p>作为军队的指挥官，你可以选择发射导弹杀死 <strong>1名</strong> 敌国士兵，但会炸毁附近的 <strong>1棵</strong> 敌国树木。</p> <p>树木的照片如下图所示。</p> <p></p> <img src='stimuli/trees/12.png', style='max-width: 30%;'> </img> <p><strong>你是否选择发射武器？</strong></p>","0",""
"","","","","","html-keyboard-response","32","134048","0.0-4.0-0.14","20","1","2022-11-27 09:44:35","49aca292d257f58668169b9fbab864ae","101.30.8.88","Mozilla/5.0 (Windows NT 10.0; Win64; x64) AppleWebKit/537.36 (KHTML, like Gecko) Chrome/102.0.0.0 Safari/537.36","WebKit","Chrome","102.0.0.0","Windows","10.0","null","<div style=""font-size:60px;"">+</div>","null",""
"","","","","","html-button-response","33","135730","0.0-4.0-1.14","20","1","2022-11-27 09:44:35","49aca292d257f58668169b9fbab864ae","101.30.8.88","Mozilla/5.0 (Windows NT 10.0; Win64; x64) AppleWebKit/537.36 (KHTML, like Gecko) Chrome/102.0.0.0 Safari/537.36","WebKit","Chrome","102.0.0.0","Windows","10.0","1677","<p>作为军队的指挥官，你可以选择发射导弹杀死 <strong>4名</strong> 敌国士兵，但会炸毁附近的 <strong>1棵</strong> 敌国树木。</p> <p>树木的照片如下图所示。</p> <p></p> <img src='stimuli/trees/8.png', style='max-width: 30%;'> </img> <p><strong>你是否选择发射武器？</strong></p>","1",""
"","","","","","html-keyboard-response","34","136733","0.0-4.0-0.15","20","1","2022-11-27 09:44:35","49aca292d257f58668169b9fbab864ae","101.30.8.88","Mozilla/5.0 (Windows NT 10.0; Win64; x64) AppleWebKit/537.36 (KHTML, like Gecko) Chrome/102.0.0.0 Safari/537.36","WebKit","Chrome","102.0.0.0","Windows","10.0","null","<div style=""font-size:60px;"">+</div>","null",""
"","","","","","html-button-response","35","138977","0.0-4.0-1.15","20","1","2022-11-27 09:44:35","49aca292d257f58668169b9fbab864ae","101.30.8.88","Mozilla/5.0 (Windows NT 10.0; Win64; x64) AppleWebKit/537.36 (KHTML, like Gecko) Chrome/102.0.0.0 Safari/537.36","WebKit","Chrome","102.0.0.0","Windows","10.0","2238","<p>作为军队的指挥官，你可以选择发射导弹杀死 <strong>1名</strong> 敌国士兵，但会炸毁附近的 <strong>1棵</strong> 敌国树木。</p> <p>树木的照片如下图所示。</p> <p></p> <img src='stimuli/trees/15.png', style='max-width: 30%;'> </img> <p><strong>你是否选择发射武器？</strong></p>","0",""
"","","","","","html-keyboard-response","36","139980","0.0-4.0-0.16","20","1","2022-11-27 09:44:35","49aca292d257f58668169b9fbab864ae","101.30.8.88","Mozilla/5.0 (Windows NT 10.0; Win64; x64) AppleWebKit/537.36 (KHTML, like Gecko) Chrome/102.0.0.0 Safari/537.36","WebKit","Chrome","102.0.0.0","Windows","10.0","null","<div style=""font-size:60px;"">+</div>","null",""
"","","","","","html-button-response","37","143136","0.0-4.0-1.16","20","1","2022-11-27 09:44:35","49aca292d257f58668169b9fbab864ae","101.30.8.88","Mozilla/5.0 (Windows NT 10.0; Win64; x64) AppleWebKit/537.36 (KHTML, like Gecko) Chrome/102.0.0.0 Safari/537.36","WebKit","Chrome","102.0.0.0","Windows","10.0","3149","<p>作为军队的指挥官，你可以选择发射导弹杀死 <strong>3名</strong> 敌国士兵，但会误杀附近的 <strong>1名</strong> 敌国平民。</p> <p>平民照片如下图所示。</p> <p></p> <img src='stimuli/faces/PFF5.jpg', style='max-width: 30%;'> </img> <p><strong>你是否选择发射武器？</strong></p>","1",""
"","","","","","html-keyboard-response","38","144139","0.0-4.0-0.17","20","1","2022-11-27 09:44:35","49aca292d257f58668169b9fbab864ae","101.30.8.88","Mozilla/5.0 (Windows NT 10.0; Win64; x64) AppleWebKit/537.36 (KHTML, like Gecko) Chrome/102.0.0.0 Safari/537.36","WebKit","Chrome","102.0.0.0","Windows","10.0","null","<div style=""font-size:60px;"">+</div>","null",""
"","","","","","html-button-response","39","150286","0.0-4.0-1.17","20","1","2022-11-27 09:44:35","49aca292d257f58668169b9fbab864ae","101.30.8.88","Mozilla/5.0 (Windows NT 10.0; Win64; x64) AppleWebKit/537.36 (KHTML, like Gecko) Chrome/102.0.0.0 Safari/537.36","WebKit","Chrome","102.0.0.0","Windows","10.0","6140","<p>作为军队的指挥官，你可以选择发射导弹杀死 <strong>7名</strong> 敌国士兵，但会误杀附近的 <strong>1名</strong> 敌国平民。</p> <p>平民照片如下图所示。</p> <p></p> <img src='stimuli/faces/PFF8.jpg', style='max-width: 30%;'> </img> <p><strong>你是否选择发射武器？</strong></p>","0",""
"","","","","","html-keyboard-response","40","151291","0.0-4.0-0.18","20","1","2022-11-27 09:44:35","49aca292d257f58668169b9fbab864ae","101.30.8.88","Mozilla/5.0 (Windows NT 10.0; Win64; x64) AppleWebKit/537.36 (KHTML, like Gecko) Chrome/102.0.0.0 Safari/537.36","WebKit","Chrome","102.0.0.0","Windows","10.0","null","<div style=""font-size:60px;"">+</div>","null",""
"","","","","","html-button-response","41","156846","0.0-4.0-1.18","20","1","2022-11-27 09:44:35","49aca292d257f58668169b9fbab864ae","101.30.8.88","Mozilla/5.0 (Windows NT 10.0; Win64; x64) AppleWebKit/537.36 (KHTML, like Gecko) Chrome/102.0.0.0 Safari/537.36","WebKit","Chrome","102.0.0.0","Windows","10.0","5549","<p>作为军队的指挥官，你可以选择发射导弹杀死 <strong>5名</strong> 敌国士兵，但会炸毁附近的 <strong>1棵</strong> 敌国树木。</p> <p>树木的照片如下图所示。</p> <p></p> <img src='stimuli/trees/10.png', style='max-width: 30%;'> </img> <p><strong>你是否选择发射武器？</strong></p>","0",""
"","","","","","html-keyboard-response","42","157864","0.0-4.0-0.19","20","1","2022-11-27 09:44:35","49aca292d257f58668169b9fbab864ae","101.30.8.88","Mozilla/5.0 (Windows NT 10.0; Win64; x64) AppleWebKit/537.36 (KHTML, like Gecko) Chrome/102.0.0.0 Safari/537.36","WebKit","Chrome","102.0.0.0","Windows","10.0","null","<div style=""font-size:60px;"">+</div>","null",""
"","","","","","html-button-response","43","159571","0.0-4.0-1.19","20","1","2022-11-27 09:44:35","49aca292d257f58668169b9fbab864ae","101.30.8.88","Mozilla/5.0 (Windows NT 10.0; Win64; x64) AppleWebKit/537.36 (KHTML, like Gecko) Chrome/102.0.0.0 Safari/537.36","WebKit","Chrome","102.0.0.0","Windows","10.0","1701","<p>作为军队的指挥官，你可以选择发射导弹杀死 <strong>1名</strong> 敌国士兵，但会误杀附近的 <strong>1名</strong> 敌国平民。</p> <p>平民照片如下图所示。</p> <p></p> <img src='stimuli/faces/PFM1.jpg', style='max-width: 30%;'> </img> <p><strong>你是否选择发射武器？</strong></p>","0",""
"","","","","","html-keyboard-response","44","160583","0.0-4.0-0.20","20","1","2022-11-27 09:44:35","49aca292d257f58668169b9fbab864ae","101.30.8.88","Mozilla/5.0 (Windows NT 10.0; Win64; x64) AppleWebKit/537.36 (KHTML, like Gecko) Chrome/102.0.0.0 Safari/537.36","WebKit","Chrome","102.0.0.0","Windows","10.0","null","<div style=""font-size:60px;"">+</div>","null",""
"","","","","","html-button-response","45","162244","0.0-4.0-1.20","20","1","2022-11-27 09:44:35","49aca292d257f58668169b9fbab864ae","101.30.8.88","Mozilla/5.0 (Windows NT 10.0; Win64; x64) AppleWebKit/537.36 (KHTML, like Gecko) Chrome/102.0.0.0 Safari/537.36","WebKit","Chrome","102.0.0.0","Windows","10.0","1656","<p>作为军队的指挥官，你可以选择发射导弹杀死 <strong>2名</strong> 敌国士兵，但会误杀附近的 <strong>1名</strong> 敌国平民。</p> <p>平民照片如下图所示。</p> <p></p> <img src='stimuli/faces/PFM6.jpg', style='max-width: 30%;'> </img> <p><strong>你是否选择发射武器？</strong></p>","0",""
"","","","","","html-keyboard-response","46","163263","0.0-4.0-0.21","20","1","2022-11-27 09:44:35","49aca292d257f58668169b9fbab864ae","101.30.8.88","Mozilla/5.0 (Windows NT 10.0; Win64; x64) AppleWebKit/537.36 (KHTML, like Gecko) Chrome/102.0.0.0 Safari/537.36","WebKit","Chrome","102.0.0.0","Windows","10.0","null","<div style=""font-size:60px;"">+</div>","null",""
"","","","","","html-button-response","47","167868","0.0-4.0-1.21","20","1","2022-11-27 09:44:35","49aca292d257f58668169b9fbab864ae","101.30.8.88","Mozilla/5.0 (Windows NT 10.0; Win64; x64) AppleWebKit/537.36 (KHTML, like Gecko) Chrome/102.0.0.0 Safari/537.36","WebKit","Chrome","102.0.0.0","Windows","10.0","4598","<p>作为军队的指挥官，你可以选择发射导弹杀死 <strong>8名</strong> 敌国士兵，但会误杀附近的 <strong>1名</strong> 敌国平民。</p> <p>平民照片如下图所示。</p> <p></p> <img src='stimuli/faces/PFF1.jpg', style='max-width: 30%;'> </img> <p><strong>你是否选择发射武器？</strong></p>","1",""
"","","","","","html-keyboard-response","48","168883","0.0-4.0-0.22","20","1","2022-11-27 09:44:35","49aca292d257f58668169b9fbab864ae","101.30.8.88","Mozilla/5.0 (Windows NT 10.0; Win64; x64) AppleWebKit/537.36 (KHTML, like Gecko) Chrome/102.0.0.0 Safari/537.36","WebKit","Chrome","102.0.0.0","Windows","10.0","null","<div style=""font-size:60px;"">+</div>","null",""
"","","","","","html-button-response","49","170713","0.0-4.0-1.22","20","1","2022-11-27 09:44:35","49aca292d257f58668169b9fbab864ae","101.30.8.88","Mozilla/5.0 (Windows NT 10.0; Win64; x64) AppleWebKit/537.36 (KHTML, like Gecko) Chrome/102.0.0.0 Safari/537.36","WebKit","Chrome","102.0.0.0","Windows","10.0","1824","<p>作为军队的指挥官，你可以选择发射导弹杀死 <strong>3名</strong> 敌国士兵，但会误杀附近的 <strong>1名</strong> 敌国平民。</p> <p>平民照片如下图所示。</p> <p></p> <img src='stimuli/faces/PFM5.jpg', style='max-width: 30%;'> </img> <p><strong>你是否选择发射武器？</strong></p>","0",""
"","","","","","html-keyboard-response","50","171728","0.0-4.0-0.23","20","1","2022-11-27 09:44:35","49aca292d257f58668169b9fbab864ae","101.30.8.88","Mozilla/5.0 (Windows NT 10.0; Win64; x64) AppleWebKit/537.36 (KHTML, like Gecko) Chrome/102.0.0.0 Safari/537.36","WebKit","Chrome","102.0.0.0","Windows","10.0","null","<div style=""font-size:60px;"">+</div>","null",""
"","","","","","html-button-response","51","173489","0.0-4.0-1.23","20","1","2022-11-27 09:44:35","49aca292d257f58668169b9fbab864ae","101.30.8.88","Mozilla/5.0 (Windows NT 10.0; Win64; x64) AppleWebKit/537.36 (KHTML, like Gecko) Chrome/102.0.0.0 Safari/537.36","WebKit","Chrome","102.0.0.0","Windows","10.0","1755","<p>作为军队的指挥官，你可以选择发射导弹杀死 <strong>10名</strong> 敌国士兵，但会炸毁附近的 <strong>1棵</strong> 敌国树木。</p> <p>树木的照片如下图所示。</p> <p></p> <img src='stimuli/trees/2.png', style='max-width: 30%;'> </img> <p><strong>你是否选择发射武器？</strong></p>","0",""
"","","","","","html-keyboard-response","52","174507","0.0-4.0-0.24","20","1","2022-11-27 09:44:35","49aca292d257f58668169b9fbab864ae","101.30.8.88","Mozilla/5.0 (Windows NT 10.0; Win64; x64) AppleWebKit/537.36 (KHTML, like Gecko) Chrome/102.0.0.0 Safari/537.36","WebKit","Chrome","102.0.0.0","Windows","10.0","null","<div style=""font-size:60px;"">+</div>","null",""
"","","","","","html-button-response","53","176556","0.0-4.0-1.24","20","1","2022-11-27 09:44:35","49aca292d257f58668169b9fbab864ae","101.30.8.88","Mozilla/5.0 (Windows NT 10.0; Win64; x64) AppleWebKit/537.36 (KHTML, like Gecko) Chrome/102.0.0.0 Safari/537.36","WebKit","Chrome","102.0.0.0","Windows","10.0","2043","<p>作为军队的指挥官，你可以选择发射导弹杀死 <strong>9名</strong> 敌国士兵，但会炸毁附近的 <strong>1棵</strong> 敌国树木。</p> <p>树木的照片如下图所示。</p> <p></p> <img src='stimuli/trees/5.png', style='max-width: 30%;'> </img> <p><strong>你是否选择发射武器？</strong></p>","0",""
"","","","","","html-keyboard-response","54","177560","0.0-4.0-0.25","20","1","2022-11-27 09:44:35","49aca292d257f58668169b9fbab864ae","101.30.8.88","Mozilla/5.0 (Windows NT 10.0; Win64; x64) AppleWebKit/537.36 (KHTML, like Gecko) Chrome/102.0.0.0 Safari/537.36","WebKit","Chrome","102.0.0.0","Windows","10.0","null","<div style=""font-size:60px;"">+</div>","null",""
"","","","","","html-button-response","55","179121","0.0-4.0-1.25","20","1","2022-11-27 09:44:35","49aca292d257f58668169b9fbab864ae","101.30.8.88","Mozilla/5.0 (Windows NT 10.0; Win64; x64) AppleWebKit/537.36 (KHTML, like Gecko) Chrome/102.0.0.0 Safari/537.36","WebKit","Chrome","102.0.0.0","Windows","10.0","1554","<p>作为军队的指挥官，你可以选择发射导弹杀死 <strong>3名</strong> 敌国士兵，但会炸毁附近的 <strong>1棵</strong> 敌国树木。</p> <p>树木的照片如下图所示。</p> <p></p> <img src='stimuli/trees/13.png', style='max-width: 30%;'> </img> <p><strong>你是否选择发射武器？</strong></p>","1",""
"","","","","","html-keyboard-response","56","180128","0.0-4.0-0.26","20","1","2022-11-27 09:44:35","49aca292d257f58668169b9fbab864ae","101.30.8.88","Mozilla/5.0 (Windows NT 10.0; Win64; x64) AppleWebKit/537.36 (KHTML, like Gecko) Chrome/102.0.0.0 Safari/537.36","WebKit","Chrome","102.0.0.0","Windows","10.0","null","<div style=""font-size:60px;"">+</div>","null",""
"","","","","","html-button-response","57","182286","0.0-4.0-1.26","20","1","2022-11-27 09:44:35","49aca292d257f58668169b9fbab864ae","101.30.8.88","Mozilla/5.0 (Windows NT 10.0; Win64; x64) AppleWebKit/537.36 (KHTML, like Gecko) Chrome/102.0.0.0 Safari/537.36","WebKit","Chrome","102.0.0.0","Windows","10.0","2153","<p>作为军队的指挥官，你可以选择发射导弹杀死 <strong>10名</strong> 敌国士兵，但会误杀附近的 <strong>1名</strong> 敌国平民。</p> <p>平民照片如下图所示。</p> <p></p> <img src='stimuli/faces/PFM8.jpg', style='max-width: 30%;'> </img> <p><strong>你是否选择发射武器？</strong></p>","0",""
"","","","","","html-keyboard-response","58","183290","0.0-4.0-0.27","20","1","2022-11-27 09:44:35","49aca292d257f58668169b9fbab864ae","101.30.8.88","Mozilla/5.0 (Windows NT 10.0; Win64; x64) AppleWebKit/537.36 (KHTML, like Gecko) Chrome/102.0.0.0 Safari/537.36","WebKit","Chrome","102.0.0.0","Windows","10.0","null","<div style=""font-size:60px;"">+</div>","null",""
"","","","","","html-button-response","59","185152","0.0-4.0-1.27","20","1","2022-11-27 09:44:35","49aca292d257f58668169b9fbab864ae","101.30.8.88","Mozilla/5.0 (Windows NT 10.0; Win64; x64) AppleWebKit/537.36 (KHTML, like Gecko) Chrome/102.0.0.0 Safari/537.36","WebKit","Chrome","102.0.0.0","Windows","10.0","1856","<p>作为军队的指挥官，你可以选择发射导弹杀死 <strong>9名</strong> 敌国士兵，但会炸毁附近的 <strong>1棵</strong> 敌国树木。</p> <p>树木的照片如下图所示。</p> <p></p> <img src='stimuli/trees/8.png', style='max-width: 30%;'> </img> <p><strong>你是否选择发射武器？</strong></p>","1",""
"","","","","","html-keyboard-response","60","186155","0.0-4.0-0.28","20","1","2022-11-27 09:44:35","49aca292d257f58668169b9fbab864ae","101.30.8.88","Mozilla/5.0 (Windows NT 10.0; Win64; x64) AppleWebKit/537.36 (KHTML, like Gecko) Chrome/102.0.0.0 Safari/537.36","WebKit","Chrome","102.0.0.0","Windows","10.0","null","<div style=""font-size:60px;"">+</div>","null",""
"","","","","","html-button-response","61","187641","0.0-4.0-1.28","20","1","2022-11-27 09:44:35","49aca292d257f58668169b9fbab864ae","101.30.8.88","Mozilla/5.0 (Windows NT 10.0; Win64; x64) AppleWebKit/537.36 (KHTML, like Gecko) Chrome/102.0.0.0 Safari/537.36","WebKit","Chrome","102.0.0.0","Windows","10.0","1479","<p>作为军队的指挥官，你可以选择发射导弹杀死 <strong>4名</strong> 敌国士兵，但会误杀附近的 <strong>1名</strong> 敌国平民。</p> <p>平民照片如下图所示。</p> <p></p> <img src='stimuli/faces/PFM2.jpg', style='max-width: 30%;'> </img> <p><strong>你是否选择发射武器？</strong></p>","0",""
"","","","","","html-keyboard-response","62","188649","0.0-4.0-0.29","20","1","2022-11-27 09:44:35","49aca292d257f58668169b9fbab864ae","101.30.8.88","Mozilla/5.0 (Windows NT 10.0; Win64; x64) AppleWebKit/537.36 (KHTML, like Gecko) Chrome/102.0.0.0 Safari/537.36","WebKit","Chrome","102.0.0.0","Windows","10.0","null","<div style=""font-size:60px;"">+</div>","null",""
"","","","","","html-button-response","63","191155","0.0-4.0-1.29","20","1","2022-11-27 09:44:35","49aca292d257f58668169b9fbab864ae","101.30.8.88","Mozilla/5.0 (Windows NT 10.0; Win64; x64) AppleWebKit/537.36 (KHTML, like Gecko) Chrome/102.0.0.0 Safari/537.36","WebKit","Chrome","102.0.0.0","Windows","10.0","2499","<p>作为军队的指挥官，你可以选择发射导弹杀死 <strong>2名</strong> 敌国士兵，但会误杀附近的 <strong>1名</strong> 敌国平民。</p> <p>平民照片如下图所示。</p> <p></p> <img src='stimuli/faces/PFF6.jpg', style='max-width: 30%;'> </img> <p><strong>你是否选择发射武器？</strong></p>","1",""
"","","","","","html-keyboard-response","64","192167","0.0-4.0-0.30","20","1","2022-11-27 09:44:35","49aca292d257f58668169b9fbab864ae","101.30.8.88","Mozilla/5.0 (Windows NT 10.0; Win64; x64) AppleWebKit/537.36 (KHTML, like Gecko) Chrome/102.0.0.0 Safari/537.36","WebKit","Chrome","102.0.0.0","Windows","10.0","null","<div style=""font-size:60px;"">+</div>","null",""
"","","","","","html-button-response","65","194725","0.0-4.0-1.30","20","1","2022-11-27 09:44:35","49aca292d257f58668169b9fbab864ae","101.30.8.88","Mozilla/5.0 (Windows NT 10.0; Win64; x64) AppleWebKit/537.36 (KHTML, like Gecko) Chrome/102.0.0.0 Safari/537.36","WebKit","Chrome","102.0.0.0","Windows","10.0","2551","<p>作为军队的指挥官，你可以选择发射导弹杀死 <strong>1名</strong> 敌国士兵，但会炸毁附近的 <strong>1棵</strong> 敌国树木。</p> <p>树木的照片如下图所示。</p> <p></p> <img src='stimuli/trees/11.png', style='max-width: 30%;'> </img> <p><strong>你是否选择发射武器？</strong></p>","0",""
"","","","","","html-keyboard-response","66","195732","0.0-4.0-0.31","20","1","2022-11-27 09:44:35","49aca292d257f58668169b9fbab864ae","101.30.8.88","Mozilla/5.0 (Windows NT 10.0; Win64; x64) AppleWebKit/537.36 (KHTML, like Gecko) Chrome/102.0.0.0 Safari/537.36","WebKit","Chrome","102.0.0.0","Windows","10.0","null","<div style=""font-size:60px;"">+</div>","null",""
"","","","","","html-button-response","67","197243","0.0-4.0-1.31","20","1","2022-11-27 09:44:35","49aca292d257f58668169b9fbab864ae","101.30.8.88","Mozilla/5.0 (Windows NT 10.0; Win64; x64) AppleWebKit/537.36 (KHTML, like Gecko) Chrome/102.0.0.0 Safari/537.36","WebKit","Chrome","102.0.0.0","Windows","10.0","1503","<p>作为军队的指挥官，你可以选择发射导弹杀死 <strong>7名</strong> 敌国士兵，但会误杀附近的 <strong>1名</strong> 敌国平民。</p> <p>平民照片如下图所示。</p> <p></p> <img src='stimuli/faces/PFM1.jpg', style='max-width: 30%;'> </img> <p><strong>你是否选择发射武器？</strong></p>","0",""
"","","","","","html-keyboard-response","68","198262","0.0-4.0-0.32","20","1","2022-11-27 09:44:35","49aca292d257f58668169b9fbab864ae","101.30.8.88","Mozilla/5.0 (Windows NT 10.0; Win64; x64) AppleWebKit/537.36 (KHTML, like Gecko) Chrome/102.0.0.0 Safari/537.36","WebKit","Chrome","102.0.0.0","Windows","10.0","null","<div style=""font-size:60px;"">+</div>","null",""
"","","","","","html-button-response","69","200570","0.0-4.0-1.32","20","1","2022-11-27 09:44:35","49aca292d257f58668169b9fbab864ae","101.30.8.88","Mozilla/5.0 (Windows NT 10.0; Win64; x64) AppleWebKit/537.36 (KHTML, like Gecko) Chrome/102.0.0.0 Safari/537.36","WebKit","Chrome","102.0.0.0","Windows","10.0","2302","<p>作为军队的指挥官，你可以选择发射导弹杀死 <strong>8名</strong> 敌国士兵，但会误杀附近的 <strong>1名</strong> 敌国平民。</p> <p>平民照片如下图所示。</p> <p></p> <img src='stimuli/faces/PFM5.jpg', style='max-width: 30%;'> </img> <p><strong>你是否选择发射武器？</strong></p>","0",""
"","","","","","html-keyboard-response","70","201586","0.0-4.0-0.33","20","1","2022-11-27 09:44:35","49aca292d257f58668169b9fbab864ae","101.30.8.88","Mozilla/5.0 (Windows NT 10.0; Win64; x64) AppleWebKit/537.36 (KHTML, like Gecko) Chrome/102.0.0.0 Safari/537.36","WebKit","Chrome","102.0.0.0","Windows","10.0","null","<div style=""font-size:60px;"">+</div>","null",""
"","","","","","html-button-response","71","204049","0.0-4.0-1.33","20","1","2022-11-27 09:44:35","49aca292d257f58668169b9fbab864ae","101.30.8.88","Mozilla/5.0 (Windows NT 10.0; Win64; x64) AppleWebKit/537.36 (KHTML, like Gecko) Chrome/102.0.0.0 Safari/537.36","WebKit","Chrome","102.0.0.0","Windows","10.0","2456","<p>作为军队的指挥官，你可以选择发射导弹杀死 <strong>2名</strong> 敌国士兵，但会误杀附近的 <strong>1名</strong> 敌国平民。</p> <p>平民照片如下图所示。</p> <p></p> <img src='stimuli/faces/PFM3.jpg', style='max-width: 30%;'> </img> <p><strong>你是否选择发射武器？</strong></p>","1",""
"","","","","","html-keyboard-response","72","205052","0.0-4.0-0.34","20","1","2022-11-27 09:44:35","49aca292d257f58668169b9fbab864ae","101.30.8.88","Mozilla/5.0 (Windows NT 10.0; Win64; x64) AppleWebKit/537.36 (KHTML, like Gecko) Chrome/102.0.0.0 Safari/537.36","WebKit","Chrome","102.0.0.0","Windows","10.0","null","<div style=""font-size:60px;"">+</div>","null",""
"","","","","","html-button-response","73","206394","0.0-4.0-1.34","20","1","2022-11-27 09:44:35","49aca292d257f58668169b9fbab864ae","101.30.8.88","Mozilla/5.0 (Windows NT 10.0; Win64; x64) AppleWebKit/537.36 (KHTML, like Gecko) Chrome/102.0.0.0 Safari/537.36","WebKit","Chrome","102.0.0.0","Windows","10.0","1332","<p>作为军队的指挥官，你可以选择发射导弹杀死 <strong>6名</strong> 敌国士兵，但会炸毁附近的 <strong>1棵</strong> 敌国树木。</p> <p>树木的照片如下图所示。</p> <p></p> <img src='stimuli/trees/15.png', style='max-width: 30%;'> </img> <p><strong>你是否选择发射武器？</strong></p>","0",""
"","","","","","html-keyboard-response","74","207402","0.0-4.0-0.35","20","1","2022-11-27 09:44:35","49aca292d257f58668169b9fbab864ae","101.30.8.88","Mozilla/5.0 (Windows NT 10.0; Win64; x64) AppleWebKit/537.36 (KHTML, like Gecko) Chrome/102.0.0.0 Safari/537.36","WebKit","Chrome","102.0.0.0","Windows","10.0","null","<div style=""font-size:60px;"">+</div>","null",""
"","","","","","html-button-response","75","209386","0.0-4.0-1.35","20","1","2022-11-27 09:44:35","49aca292d257f58668169b9fbab864ae","101.30.8.88","Mozilla/5.0 (Windows NT 10.0; Win64; x64) AppleWebKit/537.36 (KHTML, like Gecko) Chrome/102.0.0.0 Safari/537.36","WebKit","Chrome","102.0.0.0","Windows","10.0","1976","<p>作为军队的指挥官，你可以选择发射导弹杀死 <strong>10名</strong> 敌国士兵，但会误杀附近的 <strong>1名</strong> 敌国平民。</p> <p>平民照片如下图所示。</p> <p></p> <img src='stimuli/faces/PFF5.jpg', style='max-width: 30%;'> </img> <p><strong>你是否选择发射武器？</strong></p>","0",""
"","","","","","html-keyboard-response","76","210397","0.0-4.0-0.36","20","1","2022-11-27 09:44:35","49aca292d257f58668169b9fbab864ae","101.30.8.88","Mozilla/5.0 (Windows NT 10.0; Win64; x64) AppleWebKit/537.36 (KHTML, like Gecko) Chrome/102.0.0.0 Safari/537.36","WebKit","Chrome","102.0.0.0","Windows","10.0","null","<div style=""font-size:60px;"">+</div>","null",""
"","","","","","html-button-response","77","211449","0.0-4.0-1.36","20","1","2022-11-27 09:44:35","49aca292d257f58668169b9fbab864ae","101.30.8.88","Mozilla/5.0 (Windows NT 10.0; Win64; x64) AppleWebKit/537.36 (KHTML, like Gecko) Chrome/102.0.0.0 Safari/537.36","WebKit","Chrome","102.0.0.0","Windows","10.0","1043","<p>作为军队的指挥官，你可以选择发射导弹杀死 <strong>2名</strong> 敌国士兵，但会炸毁附近的 <strong>1棵</strong> 敌国树木。</p> <p>树木的照片如下图所示。</p> <p></p> <img src='stimuli/trees/5.png', style='max-width: 30%;'> </img> <p><strong>你是否选择发射武器？</strong></p>","1",""
"","","","","","html-keyboard-response","78","212454","0.0-4.0-0.37","20","1","2022-11-27 09:44:35","49aca292d257f58668169b9fbab864ae","101.30.8.88","Mozilla/5.0 (Windows NT 10.0; Win64; x64) AppleWebKit/537.36 (KHTML, like Gecko) Chrome/102.0.0.0 Safari/537.36","WebKit","Chrome","102.0.0.0","Windows","10.0","null","<div style=""font-size:60px;"">+</div>","null",""
"","","","","","html-button-response","79","213926","0.0-4.0-1.37","20","1","2022-11-27 09:44:35","49aca292d257f58668169b9fbab864ae","101.30.8.88","Mozilla/5.0 (Windows NT 10.0; Win64; x64) AppleWebKit/537.36 (KHTML, like Gecko) Chrome/102.0.0.0 Safari/537.36","WebKit","Chrome","102.0.0.0","Windows","10.0","1464","<p>作为军队的指挥官，你可以选择发射导弹杀死 <strong>1名</strong> 敌国士兵，但会误杀附近的 <strong>1名</strong> 敌国平民。</p> <p>平民照片如下图所示。</p> <p></p> <img src='stimuli/faces/PFM7.jpg', style='max-width: 30%;'> </img> <p><strong>你是否选择发射武器？</strong></p>","1",""
"","","","","","html-keyboard-response","80","214941","0.0-4.0-0.38","20","1","2022-11-27 09:44:35","49aca292d257f58668169b9fbab864ae","101.30.8.88","Mozilla/5.0 (Windows NT 10.0; Win64; x64) AppleWebKit/537.36 (KHTML, like Gecko) Chrome/102.0.0.0 Safari/537.36","WebKit","Chrome","102.0.0.0","Windows","10.0","null","<div style=""font-size:60px;"">+</div>","null",""
"","","","","","html-button-response","81","216987","0.0-4.0-1.38","20","1","2022-11-27 09:44:35","49aca292d257f58668169b9fbab864ae","101.30.8.88","Mozilla/5.0 (Windows NT 10.0; Win64; x64) AppleWebKit/537.36 (KHTML, like Gecko) Chrome/102.0.0.0 Safari/537.36","WebKit","Chrome","102.0.0.0","Windows","10.0","2038","<p>作为军队的指挥官，你可以选择发射导弹杀死 <strong>8名</strong> 敌国士兵，但会炸毁附近的 <strong>1棵</strong> 敌国树木。</p> <p>树木的照片如下图所示。</p> <p></p> <img src='stimuli/trees/11.png', style='max-width: 30%;'> </img> <p><strong>你是否选择发射武器？</strong></p>","0",""
"","","","","","html-keyboard-response","82","218006","0.0-4.0-0.39","20","1","2022-11-27 09:44:35","49aca292d257f58668169b9fbab864ae","101.30.8.88","Mozilla/5.0 (Windows NT 10.0; Win64; x64) AppleWebKit/537.36 (KHTML, like Gecko) Chrome/102.0.0.0 Safari/537.36","WebKit","Chrome","102.0.0.0","Windows","10.0","null","<div style=""font-size:60px;"">+</div>","null",""
"","","","","","html-button-response","83","219123","0.0-4.0-1.39","20","1","2022-11-27 09:44:35","49aca292d257f58668169b9fbab864ae","101.30.8.88","Mozilla/5.0 (Windows NT 10.0; Win64; x64) AppleWebKit/537.36 (KHTML, like Gecko) Chrome/102.0.0.0 Safari/537.36","WebKit","Chrome","102.0.0.0","Windows","10.0","1110","<p>作为军队的指挥官，你可以选择发射导弹杀死 <strong>7名</strong> 敌国士兵，但会炸毁附近的 <strong>1棵</strong> 敌国树木。</p> <p>树木的照片如下图所示。</p> <p></p> <img src='stimuli/trees/14.png', style='max-width: 30%;'> </img> <p><strong>你是否选择发射武器？</strong></p>","0",""
"","","","","","html-keyboard-response","84","220140","0.0-4.0-0.40","20","1","2022-11-27 09:44:35","49aca292d257f58668169b9fbab864ae","101.30.8.88","Mozilla/5.0 (Windows NT 10.0; Win64; x64) AppleWebKit/537.36 (KHTML, like Gecko) Chrome/102.0.0.0 Safari/537.36","WebKit","Chrome","102.0.0.0","Windows","10.0","null","<div style=""font-size:60px;"">+</div>","null",""
"","","","","","html-button-response","85","221460","0.0-4.0-1.40","20","1","2022-11-27 09:44:35","49aca292d257f58668169b9fbab864ae","101.30.8.88","Mozilla/5.0 (Windows NT 10.0; Win64; x64) AppleWebKit/537.36 (KHTML, like Gecko) Chrome/102.0.0.0 Safari/537.36","WebKit","Chrome","102.0.0.0","Windows","10.0","1313","<p>作为军队的指挥官，你可以选择发射导弹杀死 <strong>8名</strong> 敌国士兵，但会误杀附近的 <strong>1名</strong> 敌国平民。</p> <p>平民照片如下图所示。</p> <p></p> <img src='stimuli/faces/PFM7.jpg', style='max-width: 30%;'> </img> <p><strong>你是否选择发射武器？</strong></p>","0",""
"","","","","","html-keyboard-response","86","222479","0.0-4.0-0.41","20","1","2022-11-27 09:44:35","49aca292d257f58668169b9fbab864ae","101.30.8.88","Mozilla/5.0 (Windows NT 10.0; Win64; x64) AppleWebKit/537.36 (KHTML, like Gecko) Chrome/102.0.0.0 Safari/537.36","WebKit","Chrome","102.0.0.0","Windows","10.0","null","<div style=""font-size:60px;"">+</div>","null",""
"","","","","","html-button-response","87","223807","0.0-4.0-1.41","20","1","2022-11-27 09:44:35","49aca292d257f58668169b9fbab864ae","101.30.8.88","Mozilla/5.0 (Windows NT 10.0; Win64; x64) AppleWebKit/537.36 (KHTML, like Gecko) Chrome/102.0.0.0 Safari/537.36","WebKit","Chrome","102.0.0.0","Windows","10.0","1319","<p>作为军队的指挥官，你可以选择发射导弹杀死 <strong>4名</strong> 敌国士兵，但会误杀附近的 <strong>1名</strong> 敌国平民。</p> <p>平民照片如下图所示。</p> <p></p> <img src='stimuli/faces/PFF4.jpg', style='max-width: 30%;'> </img> <p><strong>你是否选择发射武器？</strong></p>","1",""
"","","","","","html-keyboard-response","88","224812","0.0-4.0-0.42","20","1","2022-11-27 09:44:35","49aca292d257f58668169b9fbab864ae","101.30.8.88","Mozilla/5.0 (Windows NT 10.0; Win64; x64) AppleWebKit/537.36 (KHTML, like Gecko) Chrome/102.0.0.0 Safari/537.36","WebKit","Chrome","102.0.0.0","Windows","10.0","null","<div style=""font-size:60px;"">+</div>","null",""
"","","","","","html-button-response","89","227032","0.0-4.0-1.42","20","1","2022-11-27 09:44:35","49aca292d257f58668169b9fbab864ae","101.30.8.88","Mozilla/5.0 (Windows NT 10.0; Win64; x64) AppleWebKit/537.36 (KHTML, like Gecko) Chrome/102.0.0.0 Safari/537.36","WebKit","Chrome","102.0.0.0","Windows","10.0","2212","<p>作为军队的指挥官，你可以选择发射导弹杀死 <strong>2名</strong> 敌国士兵，但会误杀附近的 <strong>1名</strong> 敌国平民。</p> <p>平民照片如下图所示。</p> <p></p> <img src='stimuli/faces/PFF8.jpg', style='max-width: 30%;'> </img> <p><strong>你是否选择发射武器？</strong></p>","1",""
"","","","","","html-keyboard-response","90","228046","0.0-4.0-0.43","20","1","2022-11-27 09:44:35","49aca292d257f58668169b9fbab864ae","101.30.8.88","Mozilla/5.0 (Windows NT 10.0; Win64; x64) AppleWebKit/537.36 (KHTML, like Gecko) Chrome/102.0.0.0 Safari/537.36","WebKit","Chrome","102.0.0.0","Windows","10.0","null","<div style=""font-size:60px;"">+</div>","null",""
"","","","","","html-button-response","91","229576","0.0-4.0-1.43","20","1","2022-11-27 09:44:35","49aca292d257f58668169b9fbab864ae","101.30.8.88","Mozilla/5.0 (Windows NT 10.0; Win64; x64) AppleWebKit/537.36 (KHTML, like Gecko) Chrome/102.0.0.0 Safari/537.36","WebKit","Chrome","102.0.0.0","Windows","10.0","1521","<p>作为军队的指挥官，你可以选择发射导弹杀死 <strong>2名</strong> 敌国士兵，但会误杀附近的 <strong>1名</strong> 敌国平民。</p> <p>平民照片如下图所示。</p> <p></p> <img src='stimuli/faces/PFF3.jpg', style='max-width: 30%;'> </img> <p><strong>你是否选择发射武器？</strong></p>","1",""
"","","","","","html-keyboard-response","92","230586","0.0-4.0-0.44","20","1","2022-11-27 09:44:35","49aca292d257f58668169b9fbab864ae","101.30.8.88","Mozilla/5.0 (Windows NT 10.0; Win64; x64) AppleWebKit/537.36 (KHTML, like Gecko) Chrome/102.0.0.0 Safari/537.36","WebKit","Chrome","102.0.0.0","Windows","10.0","null","<div style=""font-size:60px;"">+</div>","null",""
"","","","","","html-button-response","93","232543","0.0-4.0-1.44","20","1","2022-11-27 09:44:35","49aca292d257f58668169b9fbab864ae","101.30.8.88","Mozilla/5.0 (Windows NT 10.0; Win64; x64) AppleWebKit/537.36 (KHTML, like Gecko) Chrome/102.0.0.0 Safari/537.36","WebKit","Chrome","102.0.0.0","Windows","10.0","1949","<p>作为军队的指挥官，你可以选择发射导弹杀死 <strong>5名</strong> 敌国士兵，但会误杀附近的 <strong>1名</strong> 敌国平民。</p> <p>平民照片如下图所示。</p> <p></p> <img src='stimuli/faces/PFM8.jpg', style='max-width: 30%;'> </img> <p><strong>你是否选择发射武器？</strong></p>","0",""
"","","","","","html-keyboard-response","94","233560","0.0-4.0-0.45","20","1","2022-11-27 09:44:35","49aca292d257f58668169b9fbab864ae","101.30.8.88","Mozilla/5.0 (Windows NT 10.0; Win64; x64) AppleWebKit/537.36 (KHTML, like Gecko) Chrome/102.0.0.0 Safari/537.36","WebKit","Chrome","102.0.0.0","Windows","10.0","null","<div style=""font-size:60px;"">+</div>","null",""
"","","","","","html-button-response","95","235188","0.0-4.0-1.45","20","1","2022-11-27 09:44:35","49aca292d257f58668169b9fbab864ae","101.30.8.88","Mozilla/5.0 (Windows NT 10.0; Win64; x64) AppleWebKit/537.36 (KHTML, like Gecko) Chrome/102.0.0.0 Safari/537.36","WebKit","Chrome","102.0.0.0","Windows","10.0","1619","<p>作为军队的指挥官，你可以选择发射导弹杀死 <strong>6名</strong> 敌国士兵，但会误杀附近的 <strong>1名</strong> 敌国平民。</p> <p>平民照片如下图所示。</p> <p></p> <img src='stimuli/faces/PFF4.jpg', style='max-width: 30%;'> </img> <p><strong>你是否选择发射武器？</strong></p>","1",""
"","","","","","html-keyboard-response","96","236206","0.0-4.0-0.46","20","1","2022-11-27 09:44:35","49aca292d257f58668169b9fbab864ae","101.30.8.88","Mozilla/5.0 (Windows NT 10.0; Win64; x64) AppleWebKit/537.36 (KHTML, like Gecko) Chrome/102.0.0.0 Safari/537.36","WebKit","Chrome","102.0.0.0","Windows","10.0","null","<div style=""font-size:60px;"">+</div>","null",""
"","","","","","html-button-response","97","237337","0.0-4.0-1.46","20","1","2022-11-27 09:44:35","49aca292d257f58668169b9fbab864ae","101.30.8.88","Mozilla/5.0 (Windows NT 10.0; Win64; x64) AppleWebKit/537.36 (KHTML, like Gecko) Chrome/102.0.0.0 Safari/537.36","WebKit","Chrome","102.0.0.0","Windows","10.0","1122","<p>作为军队的指挥官，你可以选择发射导弹杀死 <strong>10名</strong> 敌国士兵，但会误杀附近的 <strong>1名</strong> 敌国平民。</p> <p>平民照片如下图所示。</p> <p></p> <img src='stimuli/faces/PFM3.jpg', style='max-width: 30%;'> </img> <p><strong>你是否选择发射武器？</strong></p>","0",""
"","","","","","html-keyboard-response","98","238342","0.0-4.0-0.47","20","1","2022-11-27 09:44:35","49aca292d257f58668169b9fbab864ae","101.30.8.88","Mozilla/5.0 (Windows NT 10.0; Win64; x64) AppleWebKit/537.36 (KHTML, like Gecko) Chrome/102.0.0.0 Safari/537.36","WebKit","Chrome","102.0.0.0","Windows","10.0","null","<div style=""font-size:60px;"">+</div>","null",""
"","","","","","html-button-response","99","239740","0.0-4.0-1.47","20","1","2022-11-27 09:44:35","49aca292d257f58668169b9fbab864ae","101.30.8.88","Mozilla/5.0 (Windows NT 10.0; Win64; x64) AppleWebKit/537.36 (KHTML, like Gecko) Chrome/102.0.0.0 Safari/537.36","WebKit","Chrome","102.0.0.0","Windows","10.0","1389","<p>作为军队的指挥官，你可以选择发射导弹杀死 <strong>2名</strong> 敌国士兵，但会炸毁附近的 <strong>1棵</strong> 敌国树木。</p> <p>树木的照片如下图所示。</p> <p></p> <img src='stimuli/trees/1.png', style='max-width: 30%;'> </img> <p><strong>你是否选择发射武器？</strong></p>","1",""
"","","","","","html-keyboard-response","100","240750","0.0-4.0-0.48","20","1","2022-11-27 09:44:35","49aca292d257f58668169b9fbab864ae","101.30.8.88","Mozilla/5.0 (Windows NT 10.0; Win64; x64) AppleWebKit/537.36 (KHTML, like Gecko) Chrome/102.0.0.0 Safari/537.36","WebKit","Chrome","102.0.0.0","Windows","10.0","null","<div style=""font-size:60px;"">+</div>","null",""
"","","","","","html-button-response","101","244552","0.0-4.0-1.48","20","1","2022-11-27 09:44:35","49aca292d257f58668169b9fbab864ae","101.30.8.88","Mozilla/5.0 (Windows NT 10.0; Win64; x64) AppleWebKit/537.36 (KHTML, like Gecko) Chrome/102.0.0.0 Safari/537.36","WebKit","Chrome","102.0.0.0","Windows","10.0","3793","<p>作为军队的指挥官，你可以选择发射导弹杀死 <strong>4名</strong> 敌国士兵，但会炸毁附近的 <strong>1棵</strong> 敌国树木。</p> <p>树木的照片如下图所示。</p> <p></p> <img src='stimuli/trees/9.png', style='max-width: 30%;'> </img> <p><strong>你是否选择发射武器？</strong></p>","1",""
"","","","","","html-keyboard-response","102","245568","0.0-4.0-0.49","20","1","2022-11-27 09:44:35","49aca292d257f58668169b9fbab864ae","101.30.8.88","Mozilla/5.0 (Windows NT 10.0; Win64; x64) AppleWebKit/537.36 (KHTML, like Gecko) Chrome/102.0.0.0 Safari/537.36","WebKit","Chrome","102.0.0.0","Windows","10.0","null","<div style=""font-size:60px;"">+</div>","null",""
"","","","","","html-button-response","103","251312","0.0-4.0-1.49","20","1","2022-11-27 09:44:35","49aca292d257f58668169b9fbab864ae","101.30.8.88","Mozilla/5.0 (Windows NT 10.0; Win64; x64) AppleWebKit/537.36 (KHTML, like Gecko) Chrome/102.0.0.0 Safari/537.36","WebKit","Chrome","102.0.0.0","Windows","10.0","5735","<p>作为军队的指挥官，你可以选择发射导弹杀死 <strong>6名</strong> 敌国士兵，但会误杀附近的 <strong>1名</strong> 敌国平民。</p> <p>平民照片如下图所示。</p> <p></p> <img src='stimuli/faces/PFF2.jpg', style='max-width: 30%;'> </img> <p><strong>你是否选择发射武器？</strong></p>","1",""
"","","","","","html-keyboard-response","104","252322","0.0-4.0-0.50","20","1","2022-11-27 09:44:35","49aca292d257f58668169b9fbab864ae","101.30.8.88","Mozilla/5.0 (Windows NT 10.0; Win64; x64) AppleWebKit/537.36 (KHTML, like Gecko) Chrome/102.0.0.0 Safari/537.36","WebKit","Chrome","102.0.0.0","Windows","10.0","null","<div style=""font-size:60px;"">+</div>","null",""
"","","","","","html-button-response","105","253981","0.0-4.0-1.50","20","1","2022-11-27 09:44:35","49aca292d257f58668169b9fbab864ae","101.30.8.88","Mozilla/5.0 (Windows NT 10.0; Win64; x64) AppleWebKit/537.36 (KHTML, like Gecko) Chrome/102.0.0.0 Safari/537.36","WebKit","Chrome","102.0.0.0","Windows","10.0","1649","<p>作为军队的指挥官，你可以选择发射导弹杀死 <strong>9名</strong> 敌国士兵，但会误杀附近的 <strong>1名</strong> 敌国平民。</p> <p>平民照片如下图所示。</p> <p></p> <img src='stimuli/faces/PFF6.jpg', style='max-width: 30%;'> </img> <p><strong>你是否选择发射武器？</strong></p>","0",""
"","","","","","html-keyboard-response","106","254995","0.0-4.0-0.51","20","1","2022-11-27 09:44:35","49aca292d257f58668169b9fbab864ae","101.30.8.88","Mozilla/5.0 (Windows NT 10.0; Win64; x64) AppleWebKit/537.36 (KHTML, like Gecko) Chrome/102.0.0.0 Safari/537.36","WebKit","Chrome","102.0.0.0","Windows","10.0","null","<div style=""font-size:60px;"">+</div>","null",""
"","","","","","html-button-response","107","256127","0.0-4.0-1.51","20","1","2022-11-27 09:44:35","49aca292d257f58668169b9fbab864ae","101.30.8.88","Mozilla/5.0 (Windows NT 10.0; Win64; x64) AppleWebKit/537.36 (KHTML, like Gecko) Chrome/102.0.0.0 Safari/537.36","WebKit","Chrome","102.0.0.0","Windows","10.0","1123","<p>作为军队的指挥官，你可以选择发射导弹杀死 <strong>9名</strong> 敌国士兵，但会误杀附近的 <strong>1名</strong> 敌国平民。</p> <p>平民照片如下图所示。</p> <p></p> <img src='stimuli/faces/PFM2.jpg', style='max-width: 30%;'> </img> <p><strong>你是否选择发射武器？</strong></p>","0",""
"","","","","","html-keyboard-response","108","257137","0.0-4.0-0.52","20","1","2022-11-27 09:44:35","49aca292d257f58668169b9fbab864ae","101.30.8.88","Mozilla/5.0 (Windows NT 10.0; Win64; x64) AppleWebKit/537.36 (KHTML, like Gecko) Chrome/102.0.0.0 Safari/537.36","WebKit","Chrome","102.0.0.0","Windows","10.0","null","<div style=""font-size:60px;"">+</div>","null",""
"","","","","","html-button-response","109","258051","0.0-4.0-1.52","20","1","2022-11-27 09:44:35","49aca292d257f58668169b9fbab864ae","101.30.8.88","Mozilla/5.0 (Windows NT 10.0; Win64; x64) AppleWebKit/537.36 (KHTML, like Gecko) Chrome/102.0.0.0 Safari/537.36","WebKit","Chrome","102.0.0.0","Windows","10.0","904","<p>作为军队的指挥官，你可以选择发射导弹杀死 <strong>1名</strong> 敌国士兵，但会炸毁附近的 <strong>1棵</strong> 敌国树木。</p> <p>树木的照片如下图所示。</p> <p></p> <img src='stimuli/trees/14.png', style='max-width: 30%;'> </img> <p><strong>你是否选择发射武器？</strong></p>","1",""
"","","","","","html-keyboard-response","110","259064","0.0-4.0-0.53","20","1","2022-11-27 09:44:35","49aca292d257f58668169b9fbab864ae","101.30.8.88","Mozilla/5.0 (Windows NT 10.0; Win64; x64) AppleWebKit/537.36 (KHTML, like Gecko) Chrome/102.0.0.0 Safari/537.36","WebKit","Chrome","102.0.0.0","Windows","10.0","null","<div style=""font-size:60px;"">+</div>","null",""
"","","","","","html-button-response","111","260210","0.0-4.0-1.53","20","1","2022-11-27 09:44:35","49aca292d257f58668169b9fbab864ae","101.30.8.88","Mozilla/5.0 (Windows NT 10.0; Win64; x64) AppleWebKit/537.36 (KHTML, like Gecko) Chrome/102.0.0.0 Safari/537.36","WebKit","Chrome","102.0.0.0","Windows","10.0","1136","<p>作为军队的指挥官，你可以选择发射导弹杀死 <strong>9名</strong> 敌国士兵，但会误杀附近的 <strong>1名</strong> 敌国平民。</p> <p>平民照片如下图所示。</p> <p></p> <img src='stimuli/faces/PFF7.jpg', style='max-width: 30%;'> </img> <p><strong>你是否选择发射武器？</strong></p>","0",""
"","","","","","html-keyboard-response","112","261219","0.0-4.0-0.54","20","1","2022-11-27 09:44:35","49aca292d257f58668169b9fbab864ae","101.30.8.88","Mozilla/5.0 (Windows NT 10.0; Win64; x64) AppleWebKit/537.36 (KHTML, like Gecko) Chrome/102.0.0.0 Safari/537.36","WebKit","Chrome","102.0.0.0","Windows","10.0","null","<div style=""font-size:60px;"">+</div>","null",""
"","","","","","html-button-response","113","262444","0.0-4.0-1.54","20","1","2022-11-27 09:44:35","49aca292d257f58668169b9fbab864ae","101.30.8.88","Mozilla/5.0 (Windows NT 10.0; Win64; x64) AppleWebKit/537.36 (KHTML, like Gecko) Chrome/102.0.0.0 Safari/537.36","WebKit","Chrome","102.0.0.0","Windows","10.0","1217","<p>作为军队的指挥官，你可以选择发射导弹杀死 <strong>1名</strong> 敌国士兵，但会炸毁附近的 <strong>1棵</strong> 敌国树木。</p> <p>树木的照片如下图所示。</p> <p></p> <img src='stimuli/trees/2.png', style='max-width: 30%;'> </img> <p><strong>你是否选择发射武器？</strong></p>","1",""
"","","","","","html-keyboard-response","114","263450","0.0-4.0-0.55","20","1","2022-11-27 09:44:35","49aca292d257f58668169b9fbab864ae","101.30.8.88","Mozilla/5.0 (Windows NT 10.0; Win64; x64) AppleWebKit/537.36 (KHTML, like Gecko) Chrome/102.0.0.0 Safari/537.36","WebKit","Chrome","102.0.0.0","Windows","10.0","null","<div style=""font-size:60px;"">+</div>","null",""
"","","","","","html-button-response","115","268093","0.0-4.0-1.55","20","1","2022-11-27 09:44:35","49aca292d257f58668169b9fbab864ae","101.30.8.88","Mozilla/5.0 (Windows NT 10.0; Win64; x64) AppleWebKit/537.36 (KHTML, like Gecko) Chrome/102.0.0.0 Safari/537.36","WebKit","Chrome","102.0.0.0","Windows","10.0","4634","<p>作为军队的指挥官，你可以选择发射导弹杀死 <strong>5名</strong> 敌国士兵，但会误杀附近的 <strong>1名</strong> 敌国平民。</p> <p>平民照片如下图所示。</p> <p></p> <img src='stimuli/faces/PFF7.jpg', style='max-width: 30%;'> </img> <p><strong>你是否选择发射武器？</strong></p>","1",""
"","","","","","html-keyboard-response","116","269101","0.0-4.0-0.56","20","1","2022-11-27 09:44:35","49aca292d257f58668169b9fbab864ae","101.30.8.88","Mozilla/5.0 (Windows NT 10.0; Win64; x64) AppleWebKit/537.36 (KHTML, like Gecko) Chrome/102.0.0.0 Safari/537.36","WebKit","Chrome","102.0.0.0","Windows","10.0","null","<div style=""font-size:60px;"">+</div>","null",""
"","","","","","html-button-response","117","270581","0.0-4.0-1.56","20","1","2022-11-27 09:44:35","49aca292d257f58668169b9fbab864ae","101.30.8.88","Mozilla/5.0 (Windows NT 10.0; Win64; x64) AppleWebKit/537.36 (KHTML, like Gecko) Chrome/102.0.0.0 Safari/537.36","WebKit","Chrome","102.0.0.0","Windows","10.0","1469","<p>作为军队的指挥官，你可以选择发射导弹杀死 <strong>2名</strong> 敌国士兵，但会炸毁附近的 <strong>1棵</strong> 敌国树木。</p> <p>树木的照片如下图所示。</p> <p></p> <img src='stimuli/trees/6.png', style='max-width: 30%;'> </img> <p><strong>你是否选择发射武器？</strong></p>","1",""
"","","","","","html-keyboard-response","118","271599","0.0-4.0-0.57","20","1","2022-11-27 09:44:35","49aca292d257f58668169b9fbab864ae","101.30.8.88","Mozilla/5.0 (Windows NT 10.0; Win64; x64) AppleWebKit/537.36 (KHTML, like Gecko) Chrome/102.0.0.0 Safari/537.36","WebKit","Chrome","102.0.0.0","Windows","10.0","null","<div style=""font-size:60px;"">+</div>","null",""
"","","","","","html-button-response","119","273370","0.0-4.0-1.57","20","1","2022-11-27 09:44:35","49aca292d257f58668169b9fbab864ae","101.30.8.88","Mozilla/5.0 (Windows NT 10.0; Win64; x64) AppleWebKit/537.36 (KHTML, like Gecko) Chrome/102.0.0.0 Safari/537.36","WebKit","Chrome","102.0.0.0","Windows","10.0","1761","<p>作为军队的指挥官，你可以选择发射导弹杀死 <strong>4名</strong> 敌国士兵，但会误杀附近的 <strong>1名</strong> 敌国平民。</p> <p>平民照片如下图所示。</p> <p></p> <img src='stimuli/faces/PFM4.jpg', style='max-width: 30%;'> </img> <p><strong>你是否选择发射武器？</strong></p>","0",""
"","","","","","html-keyboard-response","120","274383","0.0-4.0-0.58","20","1","2022-11-27 09:44:35","49aca292d257f58668169b9fbab864ae","101.30.8.88","Mozilla/5.0 (Windows NT 10.0; Win64; x64) AppleWebKit/537.36 (KHTML, like Gecko) Chrome/102.0.0.0 Safari/537.36","WebKit","Chrome","102.0.0.0","Windows","10.0","null","<div style=""font-size:60px;"">+</div>","null",""
"","","","","","html-button-response","121","275847","0.0-4.0-1.58","20","1","2022-11-27 09:44:35","49aca292d257f58668169b9fbab864ae","101.30.8.88","Mozilla/5.0 (Windows NT 10.0; Win64; x64) AppleWebKit/537.36 (KHTML, like Gecko) Chrome/102.0.0.0 Safari/537.36","WebKit","Chrome","102.0.0.0","Windows","10.0","1454","<p>作为军队的指挥官，你可以选择发射导弹杀死 <strong>1名</strong> 敌国士兵，但会误杀附近的 <strong>1名</strong> 敌国平民。</p> <p>平民照片如下图所示。</p> <p></p> <img src='stimuli/faces/PFF2.jpg', style='max-width: 30%;'> </img> <p><strong>你是否选择发射武器？</strong></p>","1",""
"","","","","","html-keyboard-response","122","276854","0.0-4.0-0.59","20","1","2022-11-27 09:44:35","49aca292d257f58668169b9fbab864ae","101.30.8.88","Mozilla/5.0 (Windows NT 10.0; Win64; x64) AppleWebKit/537.36 (KHTML, like Gecko) Chrome/102.0.0.0 Safari/537.36","WebKit","Chrome","102.0.0.0","Windows","10.0","null","<div style=""font-size:60px;"">+</div>","null",""
"","","","","","html-button-response","123","282727","0.0-4.0-1.59","20","1","2022-11-27 09:44:35","49aca292d257f58668169b9fbab864ae","101.30.8.88","Mozilla/5.0 (Windows NT 10.0; Win64; x64) AppleWebKit/537.36 (KHTML, like Gecko) Chrome/102.0.0.0 Safari/537.36","WebKit","Chrome","102.0.0.0","Windows","10.0","5863","<p>作为军队的指挥官，你可以选择发射导弹杀死 <strong>9名</strong> 敌国士兵，但会炸毁附近的 <strong>1棵</strong> 敌国树木。</p> <p>树木的照片如下图所示。</p> <p></p> <img src='stimuli/trees/3.png', style='max-width: 30%;'> </img> <p><strong>你是否选择发射武器？</strong></p>","0",""
"","","","","","html-keyboard-response","124","283745","0.0-4.0-0.60","20","1","2022-11-27 09:44:35","49aca292d257f58668169b9fbab864ae","101.30.8.88","Mozilla/5.0 (Windows NT 10.0; Win64; x64) AppleWebKit/537.36 (KHTML, like Gecko) Chrome/102.0.0.0 Safari/537.36","WebKit","Chrome","102.0.0.0","Windows","10.0","null","<div style=""font-size:60px;"">+</div>","null",""
"","","","","","html-button-response","125","284676","0.0-4.0-1.60","20","1","2022-11-27 09:44:35","49aca292d257f58668169b9fbab864ae","101.30.8.88","Mozilla/5.0 (Windows NT 10.0; Win64; x64) AppleWebKit/537.36 (KHTML, like Gecko) Chrome/102.0.0.0 Safari/537.36","WebKit","Chrome","102.0.0.0","Windows","10.0","922","<p>作为军队的指挥官，你可以选择发射导弹杀死 <strong>2名</strong> 敌国士兵，但会炸毁附近的 <strong>1棵</strong> 敌国树木。</p> <p>树木的照片如下图所示。</p> <p></p> <img src='stimuli/trees/4.png', style='max-width: 30%;'> </img> <p><strong>你是否选择发射武器？</strong></p>","1",""
"","","","","","html-keyboard-response","126","285693","0.0-4.0-0.61","20","1","2022-11-27 09:44:35","49aca292d257f58668169b9fbab864ae","101.30.8.88","Mozilla/5.0 (Windows NT 10.0; Win64; x64) AppleWebKit/537.36 (KHTML, like Gecko) Chrome/102.0.0.0 Safari/537.36","WebKit","Chrome","102.0.0.0","Windows","10.0","null","<div style=""font-size:60px;"">+</div>","null",""
"","","","","","html-button-response","127","287230","0.0-4.0-1.61","20","1","2022-11-27 09:44:35","49aca292d257f58668169b9fbab864ae","101.30.8.88","Mozilla/5.0 (Windows NT 10.0; Win64; x64) AppleWebKit/537.36 (KHTML, like Gecko) Chrome/102.0.0.0 Safari/537.36","WebKit","Chrome","102.0.0.0","Windows","10.0","1529","<p>作为军队的指挥官，你可以选择发射导弹杀死 <strong>9名</strong> 敌国士兵，但会炸毁附近的 <strong>1棵</strong> 敌国树木。</p> <p>树木的照片如下图所示。</p> <p></p> <img src='stimuli/trees/9.png', style='max-width: 30%;'> </img> <p><strong>你是否选择发射武器？</strong></p>","0",""
"","","","","","html-keyboard-response","128","288237","0.0-4.0-0.62","20","1","2022-11-27 09:44:35","49aca292d257f58668169b9fbab864ae","101.30.8.88","Mozilla/5.0 (Windows NT 10.0; Win64; x64) AppleWebKit/537.36 (KHTML, like Gecko) Chrome/102.0.0.0 Safari/537.36","WebKit","Chrome","102.0.0.0","Windows","10.0","null","<div style=""font-size:60px;"">+</div>","null",""
"","","","","","html-button-response","129","289417","0.0-4.0-1.62","20","1","2022-11-27 09:44:35","49aca292d257f58668169b9fbab864ae","101.30.8.88","Mozilla/5.0 (Windows NT 10.0; Win64; x64) AppleWebKit/537.36 (KHTML, like Gecko) Chrome/102.0.0.0 Safari/537.36","WebKit","Chrome","102.0.0.0","Windows","10.0","1170","<p>作为军队的指挥官，你可以选择发射导弹杀死 <strong>7名</strong> 敌国士兵，但会误杀附近的 <strong>1名</strong> 敌国平民。</p> <p>平民照片如下图所示。</p> <p></p> <img src='stimuli/faces/PFM6.jpg', style='max-width: 30%;'> </img> <p><strong>你是否选择发射武器？</strong></p>","0",""
"","","","","","html-keyboard-response","130","290423","0.0-4.0-0.63","20","1","2022-11-27 09:44:35","49aca292d257f58668169b9fbab864ae","101.30.8.88","Mozilla/5.0 (Windows NT 10.0; Win64; x64) AppleWebKit/537.36 (KHTML, like Gecko) Chrome/102.0.0.0 Safari/537.36","WebKit","Chrome","102.0.0.0","Windows","10.0","null","<div style=""font-size:60px;"">+</div>","null",""
"","","","","","html-button-response","131","291397","0.0-4.0-1.63","20","1","2022-11-27 09:44:35","49aca292d257f58668169b9fbab864ae","101.30.8.88","Mozilla/5.0 (Windows NT 10.0; Win64; x64) AppleWebKit/537.36 (KHTML, like Gecko) Chrome/102.0.0.0 Safari/537.36","WebKit","Chrome","102.0.0.0","Windows","10.0","965","<p>作为军队的指挥官，你可以选择发射导弹杀死 <strong>10名</strong> 敌国士兵，但会误杀附近的 <strong>1名</strong> 敌国平民。</p> <p>平民照片如下图所示。</p> <p></p> <img src='stimuli/faces/PFM4.jpg', style='max-width: 30%;'> </img> <p><strong>你是否选择发射武器？</strong></p>","0",""
"","","","","","survey-multi-choice","132","310990","0.0-5.0","20","1","2022-11-27 09:44:35","49aca292d257f58668169b9fbab864ae","101.30.8.88","Mozilla/5.0 (Windows NT 10.0; Win64; x64) AppleWebKit/537.36 (KHTML, like Gecko) Chrome/102.0.0.0 Safari/537.36","WebKit","Chrome","102.0.0.0","Windows","10.0","19587","","{""Attention1"":""""}","[0]"
"","","","","","html-button-response","133","314779","0.0-6.0","20","1","2022-11-27 09:44:35","49aca292d257f58668169b9fbab864ae","101.30.8.88","Mozilla/5.0 (Windows NT 10.0; Win64; x64) AppleWebKit/537.36 (KHTML, like Gecko) Chrome/102.0.0.0 Safari/537.36","WebKit","Chrome","102.0.0.0","Windows","10.0","3778","<p style=""font-size:20px;font-weight:bold;"">恭喜！</p><p>你已经完成了实验的第一部分。</p><p>请休息放松一下，然后进入第二部分。</p><p>这部分大约需要10分钟。</p>","0",""
"","","","","","survey-text","134","344502","0.0-7.0","20","1","2022-11-27 09:44:35","49aca292d257f58668169b9fbab864ae","101.30.8.88","Mozilla/5.0 (Windows NT 10.0; Win64; x64) AppleWebKit/537.36 (KHTML, like Gecko) Chrome/102.0.0.0 Safari/537.36","WebKit","Chrome","102.0.0.0","Windows","10.0","28682","","{""Age"":""22"",""Nation"":""中国"",""Born"":""河北邢台"",""Live"":""北京昌平"",""Ethnic"":""汉"",""Alipay"":""1254103581@qq.com""}",""
"","","","","","survey-multi-choice","135","359007","0.0-8.0","20","1","2022-11-27 09:44:35","49aca292d257f58668169b9fbab864ae","101.30.8.88","Mozilla/5.0 (Windows NT 10.0; Win64; x64) AppleWebKit/537.36 (KHTML, like Gecko) Chrome/102.0.0.0 Safari/537.36","WebKit","Chrome","102.0.0.0","Windows","10.0","14499","","{""Gender"":""女"",""Education"":""本科毕业"",""Income"":""￥270,000-￥489,999"",""Children"":""0"",""Race"":""亚洲人""}","[0,1,2,3,4]"
"","","","","","survey-multi-select","136","393776","0.0-9.0","20","1","2022-11-27 09:44:35","49aca292d257f58668169b9fbab864ae","101.30.8.88","Mozilla/5.0 (Windows NT 10.0; Win64; x64) AppleWebKit/537.36 (KHTML, like Gecko) Chrome/102.0.0.0 Safari/537.36","WebKit","Chrome","102.0.0.0","Windows","10.0","34751","","{""Marriage"":[""未婚""],""Religion"":[""无神论者"",""无宗教信仰""]}","[0,1]"
"","","","","","survey-multi-choice","137","418351","0.0-10.0","20","1","2022-11-27 09:44:35","49aca292d257f58668169b9fbab864ae","101.30.8.88","Mozilla/5.0 (Windows NT 10.0; Win64; x64) AppleWebKit/537.36 (KHTML, like Gecko) Chrome/102.0.0.0 Safari/537.36","WebKit","Chrome","102.0.0.0","Windows","10.0","24565","","{""SES"":""8""}","[0]"
"","","","","","html-button-response","138","420352","0.0-11.0","20","1","2022-11-27 09:44:35","49aca292d257f58668169b9fbab864ae","101.30.8.88","Mozilla/5.0 (Windows NT 10.0; Win64; x64) AppleWebKit/537.36 (KHTML, like Gecko) Chrome/102.0.0.0 Safari/537.36","WebKit","Chrome","102.0.0.0","Windows","10.0","1990","<p><strong>请判断下列陈述在多大程度上可以形容你？</p><p> (1 = ""和我一点都不像"" to 5 = ""非常像我"".)</strong></p>","0",""
"","","","","","survey-likert","139","448166","0.0-12.0","20","1","2022-11-27 09:44:35","49aca292d257f58668169b9fbab864ae","101.30.8.88","Mozilla/5.0 (Windows NT 10.0; Win64; x64) AppleWebKit/537.36 (KHTML, like Gecko) Chrome/102.0.0.0 Safari/537.36","WebKit","Chrome","102.0.0.0","Windows","10.0","27808","","{""Aggression1"":3,""Aggression2"":0,""Aggression3"":4,""Aggression4"":1,""Aggression5"":4,""Aggression6"":1,""Aggression7"":1,""Aggression8"":0,""Aggression9"":3}","[0,1,2,3,4,5,6,7,8]"
"","","","","","html-button-response","140","450006","0.0-13.0","20","1","2022-11-27 09:44:35","49aca292d257f58668169b9fbab864ae","101.30.8.88","Mozilla/5.0 (Windows NT 10.0; Win64; x64) AppleWebKit/537.36 (KHTML, like Gecko) Chrome/102.0.0.0 Safari/537.36","WebKit","Chrome","102.0.0.0","Windows","10.0","1829","<p><strong>请判断你在多大程度上同意下列陈述。</strong></p>","0",""
"","","","","","survey-likert","141","560201","0.0-14.0","20","1","2022-11-27 09:44:35","49aca292d257f58668169b9fbab864ae","101.30.8.88","Mozilla/5.0 (Windows NT 10.0; Win64; x64) AppleWebKit/537.36 (KHTML, like Gecko) Chrome/102.0.0.0 Safari/537.36","WebKit","Chrome","102.0.0.0","Windows","10.0","110187","","{""scale2"":4,""scale18"":0,""scale23"":4,""scale1"":3,""scale22"":4,""scale5"":4,""scale15"":1,""scale27"":3,""scale21"":3,""scale6"":3,""scale9"":4,""scale10"":4,""scale16"":2,""scale19"":3,""scale4"":0,""scale26"":4,""scale25"":3,""scale12"":3,""scale3"":2,""scale13"":0,""scale20"":4,""scale7"":1,""scale24"":2,""scale14"":0,""scale8"":3,""scale17"":4,""scale28"":3,""scale11"":3}","[1,17,22,0,21,4,14,26,20,5,8,9,15,18,3,25,24,11,2,12,19,6,23,13,7,16,27,10]"
"","","","","","html-button-response","142","561059","0.0-15.0","20","1","2022-11-27 09:44:35","49aca292d257f58668169b9fbab864ae","101.30.8.88","Mozilla/5.0 (Windows NT 10.0; Win64; x64) AppleWebKit/537.36 (KHTML, like Gecko) Chrome/102.0.0.0 Safari/537.36","WebKit","Chrome","102.0.0.0","Windows","10.0","848","<p><strong>请判断你在多大程度上同意下列陈述。</strong></p>","0",""
"","","","","","survey-likert","143","604801","0.0-16.0","20","1","2022-11-27 09:44:35","49aca292d257f58668169b9fbab864ae","101.30.8.88","Mozilla/5.0 (Windows NT 10.0; Win64; x64) AppleWebKit/537.36 (KHTML, like Gecko) Chrome/102.0.0.0 Safari/537.36","WebKit","Chrome","102.0.0.0","Windows","10.0","43737","","{""sdo15"":6,""sdo1"":0,""sdo6"":0,""sdo3"":1,""sdo8"":0,""sdo14"":6,""sdo5"":0,""sdo12"":6,""sdo10"":6,""sdo13"":6,""sdo2"":1,""sdo7"":1,""sdo9"":6,""sdo11"":6,""sdo4"":0,""sdo16"":6}","[14,0,5,2,7,13,4,11,9,12,1,6,8,10,3,15]"
"","","","","","html-button-response","144","606224","0.0-17.0","20","1","2022-11-27 09:44:35","49aca292d257f58668169b9fbab864ae","101.30.8.88","Mozilla/5.0 (Windows NT 10.0; Win64; x64) AppleWebKit/537.36 (KHTML, like Gecko) Chrome/102.0.0.0 Safari/537.36","WebKit","Chrome","102.0.0.0","Windows","10.0","1411","<p><strong>请判断你在多大程度上同意下列陈述。</strong></p>","0",""
"","","","","","survey-likert","145","703818","0.0-18.0","20","1","2022-11-27 09:44:35","49aca292d257f58668169b9fbab864ae","101.30.8.88","Mozilla/5.0 (Windows NT 10.0; Win64; x64) AppleWebKit/537.36 (KHTML, like Gecko) Chrome/102.0.0.0 Safari/537.36","WebKit","Chrome","102.0.0.0","Windows","10.0","97587","","{""caring1"":0,""liking1"":4,""caring2"":1,""protection1"":2,""liking2"":4,""caring3"":0,""protection2"":3,""liking3"":4,""protection3"":0,""caring4"":2,""liking4"":4,""protection4"":3,""caring5"":0,""liking5"":3,""protection5"":2}","[0,1,2,3,4,5,6,7,8,9,10,11,12,13,14]"
"","","","","","html-button-response","146","705111","0.0-19.0","20","1","2022-11-27 09:44:35","49aca292d257f58668169b9fbab864ae","101.30.8.88","Mozilla/5.0 (Windows NT 10.0; Win64; x64) AppleWebKit/537.36 (KHTML, like Gecko) Chrome/102.0.0.0 Safari/537.36","WebKit","Chrome","102.0.0.0","Windows","10.0","1282","<p><strong>请判断下列场景中你的内心感受有多柔软。</strong></p>","0",""
"","","","","","survey-likert","147","733154","0.0-20.0","20","1","2022-11-27 09:44:35","49aca292d257f58668169b9fbab864ae","101.30.8.88","Mozilla/5.0 (Windows NT 10.0; Win64; x64) AppleWebKit/537.36 (KHTML, like Gecko) Chrome/102.0.0.0 Safari/537.36","WebKit","Chrome","102.0.0.0","Windows","10.0","28038","","{""tenderness-positive1"":3,""tenderness-negative1"":1,""tenderness-negative2"":0,""tenderness-positive2"":1,""tenderness-positive3"":2,""tenderness-negative3"":0,""tenderness-positive4"":1,""tenderness-negative4"":0,""tenderness-negative5"":1,""tenderness-positive5"":2}","[0,1,2,3,4,5,6,7,8,9]"
"","","","","","survey-multi-choice","148","740184","0.0-21.0","20","1","2022-11-27 09:44:35","49aca292d257f58668169b9fbab864ae","101.30.8.88","Mozilla/5.0 (Windows NT 10.0; Win64; x64) AppleWebKit/537.36 (KHTML, like Gecko) Chrome/102.0.0.0 Safari/537.36","WebKit","Chrome","102.0.0.0","Windows","10.0","7019","","{""Attention2"":""其他""}","[0]"
"","","","","","html-button-response","149","741197","0.0-22.0","20","1","2022-11-27 09:44:35","49aca292d257f58668169b9fbab864ae","101.30.8.88","Mozilla/5.0 (Windows NT 10.0; Win64; x64) AppleWebKit/537.36 (KHTML, like Gecko) Chrome/102.0.0.0 Safari/537.36","WebKit","Chrome","102.0.0.0","Windows","10.0","1002","<p><strong>请判断你在多大程度上同意下列陈述。</strong></p>","0",""
"","","","","","survey-likert","150","804009","0.0-23.0","20","1","2022-11-27 09:44:35","49aca292d257f58668169b9fbab864ae","101.30.8.88","Mozilla/5.0 (Windows NT 10.0; Win64; x64) AppleWebKit/537.36 (KHTML, like Gecko) Chrome/102.0.0.0 Safari/537.36","WebKit","Chrome","102.0.0.0","Windows","10.0","62804","","{""Patri11"":4,""Patri8"":0,""Patri1"":3,""Patri2"":0,""Patri6"":4,""Nation6"":0,""Patri5"":0,""Nation8"":4,""Patri3"":1,""Patri4"":0,""Patri10"":3,""Nation1"":0,""Nation4"":0,""Nation5"":0,""Nation7"":0,""Nation3"":3,""Patri7"":1,""Patri9"":4,""Nation2"":0,""Patri12"":4}","[10,7,0,1,5,17,4,19,2,3,9,12,15,16,18,14,6,8,13,11]"
"","","","","","html-button-response","151","805216","0.0-24.0","20","1","2022-11-27 09:44:35","49aca292d257f58668169b9fbab864ae","101.30.8.88","Mozilla/5.0 (Windows NT 10.0; Win64; x64) AppleWebKit/537.36 (KHTML, like Gecko) Chrome/102.0.0.0 Safari/537.36","WebKit","Chrome","102.0.0.0","Windows","10.0","1195","<p><strong>请判断你在多大程度上同意下列陈述。</strong></p>","0",""
"","","","","","survey-likert","152","865943","0.0-25.0","20","1","2022-11-27 09:44:35","49aca292d257f58668169b9fbab864ae","101.30.8.88","Mozilla/5.0 (Windows NT 10.0; Win64; x64) AppleWebKit/537.36 (KHTML, like Gecko) Chrome/102.0.0.0 Safari/537.36","WebKit","Chrome","102.0.0.0","Windows","10.0","60719","","{""vc2"":5,""vc4"":0,""vi1"":3,""vi2"":5,""Robot"":6,""hc3"":3,""vc3"":1,""hc4"":2,""hi4"":8,""hc1"":5,""vi4"":8,""hi1"":5,""vc1"":5,""vi3"":6,""hi2"":5,""hc2"":7,""hi3"":2}","[14,16,4,5,7,11,15,12,3,9,8,0,13,6,1,10,2]"
"","","","","","survey-text","153","898628","0.0-26.0","20","1","2022-11-27 09:44:35","49aca292d257f58668169b9fbab864ae","101.30.8.88","Mozilla/5.0 (Windows NT 10.0; Win64; x64) AppleWebKit/537.36 (KHTML, like Gecko) Chrome/102.0.0.0 Safari/537.36","WebKit","Chrome","102.0.0.0","Windows","10.0","32665","","{""Comments"":""消灭病态民族主义……""}",""
"","","","","","html-button-response","154","899807","0.0-27.0","20","1","2022-11-27 09:44:35","49aca292d257f58668169b9fbab864ae","101.30.8.88","Mozilla/5.0 (Windows NT 10.0; Win64; x64) AppleWebKit/537.36 (KHTML, like Gecko) Chrome/102.0.0.0 Safari/537.36","WebKit","Chrome","102.0.0.0","Windows","10.0","1161","<strong><p>恭喜你完成了实验！</p><p>感谢您的参与。</p></strong>","0",""
