"success","timeout","failed_images","failed_audio","failed_video","trial_type","trial_index","time_elapsed","internal_node_id","run_id","condition","recorded_at","source_code_version","ip","user_agent","device","browser","browser_version","platform","platform_version","rt","stimulus","response","question_order"
"true","false","[]","[]","[]","preload","0","2635","0.0-0.0","26","1","2022-11-27 09:49:16","49aca292d257f58668169b9fbab864ae","124.117.119.250","Mozilla/5.0 (Windows NT 10.0; Win64; x64) AppleWebKit/537.36 (KHTML, like Gecko) Chrome/105.0.0.0 Safari/537.36","WebKit","Chrome","105.0.0.0","Windows","10.0","","","",""
"true","","","","","fullscreen","1","5725","0.0-1.0","26","1","2022-11-27 09:49:16","49aca292d257f58668169b9fbab864ae","124.117.119.250","Mozilla/5.0 (Windows NT 10.0; Win64; x64) AppleWebKit/537.36 (KHTML, like Gecko) Chrome/105.0.0.0 Safari/537.36","WebKit","Chrome","105.0.0.0","Windows","10.0","","","",""
"","","","","","html-button-response","2","24129","0.0-2.0","26","1","2022-11-27 09:49:16","49aca292d257f58668169b9fbab864ae","124.117.119.250","Mozilla/5.0 (Windows NT 10.0; Win64; x64) AppleWebKit/537.36 (KHTML, like Gecko) Chrome/105.0.0.0 Safari/537.36","WebKit","Chrome","105.0.0.0","Windows","10.0","18403","<p style=""font-size:20px;font-weight:bold;"">实验知情同意书</p><p style=""text-align:left;""><strong>实验名称：</strong>社会冲突研究</p><p style=""text-align:left;""><strong>主要研究者：</strong>韩晓春副教授（北京师范大学心理学部）</p><p style=""text-align:left;""><strong>联系方式：</strong>发送邮件至xiaochun.han@bnu.edu.cn</p><p style=""text-align:left;""><strong>研究目的：</strong>研究旨在了解人类面对群体冲突时的决策方式，以及相关的心理学特质。实验调查大约需要20分钟。</p><p style=""text-align:left;""><strong>实验流程：</strong>实验包含两部分。第一部分呈现一系列群体冲突场景，请你决定如何对这些冲突进行反应，大约需要10分钟完成。第二部分包含一系列人口统计学信息收集和心理学问卷，大约需要10分钟完成。</p><p style=""text-align:left;""><strong>参加及退出规则：</strong>参加本实验完全取决于您的个人意愿。在参与过程中，您可以随时退出，并且不用承担任何后果。</p><p style=""text-align:left;""><strong>隐私：</strong>本实验完全匿名进行，不会收集您的姓名或其他能够识别您身份的信息。实验中收集的作答仅用作科学研究使用，可能会在学术期刊/书籍上发表，或者用于教学，您的数据未来可能会和其他研究者或实验室分享，但您的个人身份不会被识别。</p><p style=""text-align:left;""><strong>实验报酬：</strong>实验完成后，您将获得15元人民币报酬，以感谢您的时间和努力。调查问卷中包含几道题目用以测验您作答时的认真度。只有完成全部实验，并且正确回答认真度测验的被试才能获得实验报酬。实验报酬将通过支付宝转账发放。</p><p style=""text-align:left;font-size:20px;""><strong>如果您同意以上实验知情同意书的内容，请点击'同意并且开始实验'按钮；否则请关闭浏览器界面，退出实验。</strong></p>","0",""
"","","","","","html-button-response","3","73078","0.0-3.0","26","1","2022-11-27 09:49:16","49aca292d257f58668169b9fbab864ae","124.117.119.250","Mozilla/5.0 (Windows NT 10.0; Win64; x64) AppleWebKit/537.36 (KHTML, like Gecko) Chrome/105.0.0.0 Safari/537.36","WebKit","Chrome","105.0.0.0","Windows","10.0","48945","<p ><strong>实验任务一：</strong></p><p>请想象你的国家与另一个国家发生了军事冲突。</p><p>你是国家军队的指挥官，你将如何在冲突中进行决策。</p><p>具体来说，作为军队指挥官，请你决定是否发射导弹进行打击。</p><p>接下来，你会面对一系列场景，请仔细阅读每个场景，然后进行决策。</p><p>这部分实验任务大约需要10分钟。</p><p><strong>实验过程中，请集中注意力。</strong></p>","0",""
"","","","","","html-keyboard-response","4","74085","0.0-4.0-0.0","26","1","2022-11-27 09:49:16","49aca292d257f58668169b9fbab864ae","124.117.119.250","Mozilla/5.0 (Windows NT 10.0; Win64; x64) AppleWebKit/537.36 (KHTML, like Gecko) Chrome/105.0.0.0 Safari/537.36","WebKit","Chrome","105.0.0.0","Windows","10.0","null","<div style=""font-size:60px;"">+</div>","null",""
"","","","","","html-button-response","5","91414","0.0-4.0-1.0","26","1","2022-11-27 09:49:16","49aca292d257f58668169b9fbab864ae","124.117.119.250","Mozilla/5.0 (Windows NT 10.0; Win64; x64) AppleWebKit/537.36 (KHTML, like Gecko) Chrome/105.0.0.0 Safari/537.36","WebKit","Chrome","105.0.0.0","Windows","10.0","17327","<p>作为军队的指挥官，你可以选择发射导弹杀死 <strong>8名</strong> 敌国士兵，但会炸毁附近的 <strong>1棵</strong> 敌国树木。</p> <p>树木的照片如下图所示。</p> <p></p> <img src='stimuli/trees/3.png', style='max-width: 30%;'> </img> <p><strong>你是否选择发射武器？</strong></p>","0",""
"","","","","","html-keyboard-response","6","92422","0.0-4.0-0.1","26","1","2022-11-27 09:49:16","49aca292d257f58668169b9fbab864ae","124.117.119.250","Mozilla/5.0 (Windows NT 10.0; Win64; x64) AppleWebKit/537.36 (KHTML, like Gecko) Chrome/105.0.0.0 Safari/537.36","WebKit","Chrome","105.0.0.0","Windows","10.0","null","<div style=""font-size:60px;"">+</div>","null",""
"","","","","","html-button-response","7","98362","0.0-4.0-1.1","26","1","2022-11-27 09:49:16","49aca292d257f58668169b9fbab864ae","124.117.119.250","Mozilla/5.0 (Windows NT 10.0; Win64; x64) AppleWebKit/537.36 (KHTML, like Gecko) Chrome/105.0.0.0 Safari/537.36","WebKit","Chrome","105.0.0.0","Windows","10.0","5939","<p>作为军队的指挥官，你可以选择发射导弹杀死 <strong>8名</strong> 敌国士兵，但会炸毁附近的 <strong>1棵</strong> 敌国树木。</p> <p>树木的照片如下图所示。</p> <p></p> <img src='stimuli/trees/6.png', style='max-width: 30%;'> </img> <p><strong>你是否选择发射武器？</strong></p>","0",""
"","","","","","html-keyboard-response","8","99365","0.0-4.0-0.2","26","1","2022-11-27 09:49:16","49aca292d257f58668169b9fbab864ae","124.117.119.250","Mozilla/5.0 (Windows NT 10.0; Win64; x64) AppleWebKit/537.36 (KHTML, like Gecko) Chrome/105.0.0.0 Safari/537.36","WebKit","Chrome","105.0.0.0","Windows","10.0","null","<div style=""font-size:60px;"">+</div>","null",""
"","","","","","html-button-response","9","110014","0.0-4.0-1.2","26","1","2022-11-27 09:49:16","49aca292d257f58668169b9fbab864ae","124.117.119.250","Mozilla/5.0 (Windows NT 10.0; Win64; x64) AppleWebKit/537.36 (KHTML, like Gecko) Chrome/105.0.0.0 Safari/537.36","WebKit","Chrome","105.0.0.0","Windows","10.0","10647","<p>作为军队的指挥官，你可以选择发射导弹杀死 <strong>4名</strong> 敌国士兵，但会误杀附近的 <strong>1名</strong> 敌国平民。</p> <p>平民照片如下图所示。</p> <p></p> <img src='stimuli/faces/PFM8.jpg', style='max-width: 30%;'> </img> <p><strong>你是否选择发射武器？</strong></p>","0",""
"","","","","","html-keyboard-response","10","111017","0.0-4.0-0.3","26","1","2022-11-27 09:49:16","49aca292d257f58668169b9fbab864ae","124.117.119.250","Mozilla/5.0 (Windows NT 10.0; Win64; x64) AppleWebKit/537.36 (KHTML, like Gecko) Chrome/105.0.0.0 Safari/537.36","WebKit","Chrome","105.0.0.0","Windows","10.0","null","<div style=""font-size:60px;"">+</div>","null",""
"","","","","","html-button-response","11","121807","0.0-4.0-1.3","26","1","2022-11-27 09:49:16","49aca292d257f58668169b9fbab864ae","124.117.119.250","Mozilla/5.0 (Windows NT 10.0; Win64; x64) AppleWebKit/537.36 (KHTML, like Gecko) Chrome/105.0.0.0 Safari/537.36","WebKit","Chrome","105.0.0.0","Windows","10.0","10787","<p>作为军队的指挥官，你可以选择发射导弹杀死 <strong>2名</strong> 敌国士兵，但会误杀附近的 <strong>1名</strong> 敌国平民。</p> <p>平民照片如下图所示。</p> <p></p> <img src='stimuli/faces/PFF6.jpg', style='max-width: 30%;'> </img> <p><strong>你是否选择发射武器？</strong></p>","1",""
"","","","","","html-keyboard-response","12","122808","0.0-4.0-0.4","26","1","2022-11-27 09:49:16","49aca292d257f58668169b9fbab864ae","124.117.119.250","Mozilla/5.0 (Windows NT 10.0; Win64; x64) AppleWebKit/537.36 (KHTML, like Gecko) Chrome/105.0.0.0 Safari/537.36","WebKit","Chrome","105.0.0.0","Windows","10.0","null","<div style=""font-size:60px;"">+</div>","null",""
"","","","","","html-button-response","13","126637","0.0-4.0-1.4","26","1","2022-11-27 09:49:16","49aca292d257f58668169b9fbab864ae","124.117.119.250","Mozilla/5.0 (Windows NT 10.0; Win64; x64) AppleWebKit/537.36 (KHTML, like Gecko) Chrome/105.0.0.0 Safari/537.36","WebKit","Chrome","105.0.0.0","Windows","10.0","3828","<p>作为军队的指挥官，你可以选择发射导弹杀死 <strong>3名</strong> 敌国士兵，但会炸毁附近的 <strong>1棵</strong> 敌国树木。</p> <p>树木的照片如下图所示。</p> <p></p> <img src='stimuli/trees/1.png', style='max-width: 30%;'> </img> <p><strong>你是否选择发射武器？</strong></p>","0",""
"","","","","","html-keyboard-response","14","127640","0.0-4.0-0.5","26","1","2022-11-27 09:49:16","49aca292d257f58668169b9fbab864ae","124.117.119.250","Mozilla/5.0 (Windows NT 10.0; Win64; x64) AppleWebKit/537.36 (KHTML, like Gecko) Chrome/105.0.0.0 Safari/537.36","WebKit","Chrome","105.0.0.0","Windows","10.0","null","<div style=""font-size:60px;"">+</div>","null",""
"","","","","","html-button-response","15","131583","0.0-4.0-1.5","26","1","2022-11-27 09:49:16","49aca292d257f58668169b9fbab864ae","124.117.119.250","Mozilla/5.0 (Windows NT 10.0; Win64; x64) AppleWebKit/537.36 (KHTML, like Gecko) Chrome/105.0.0.0 Safari/537.36","WebKit","Chrome","105.0.0.0","Windows","10.0","3941","<p>作为军队的指挥官，你可以选择发射导弹杀死 <strong>3名</strong> 敌国士兵，但会炸毁附近的 <strong>1棵</strong> 敌国树木。</p> <p>树木的照片如下图所示。</p> <p></p> <img src='stimuli/trees/9.png', style='max-width: 30%;'> </img> <p><strong>你是否选择发射武器？</strong></p>","0",""
"","","","","","html-keyboard-response","16","132596","0.0-4.0-0.6","26","1","2022-11-27 09:49:16","49aca292d257f58668169b9fbab864ae","124.117.119.250","Mozilla/5.0 (Windows NT 10.0; Win64; x64) AppleWebKit/537.36 (KHTML, like Gecko) Chrome/105.0.0.0 Safari/537.36","WebKit","Chrome","105.0.0.0","Windows","10.0","null","<div style=""font-size:60px;"">+</div>","null",""
"","","","","","html-button-response","17","136273","0.0-4.0-1.6","26","1","2022-11-27 09:49:16","49aca292d257f58668169b9fbab864ae","124.117.119.250","Mozilla/5.0 (Windows NT 10.0; Win64; x64) AppleWebKit/537.36 (KHTML, like Gecko) Chrome/105.0.0.0 Safari/537.36","WebKit","Chrome","105.0.0.0","Windows","10.0","3675","<p>作为军队的指挥官，你可以选择发射导弹杀死 <strong>8名</strong> 敌国士兵，但会误杀附近的 <strong>1名</strong> 敌国平民。</p> <p>平民照片如下图所示。</p> <p></p> <img src='stimuli/faces/PFF8.jpg', style='max-width: 30%;'> </img> <p><strong>你是否选择发射武器？</strong></p>","0",""
"","","","","","html-keyboard-response","18","137286","0.0-4.0-0.7","26","1","2022-11-27 09:49:16","49aca292d257f58668169b9fbab864ae","124.117.119.250","Mozilla/5.0 (Windows NT 10.0; Win64; x64) AppleWebKit/537.36 (KHTML, like Gecko) Chrome/105.0.0.0 Safari/537.36","WebKit","Chrome","105.0.0.0","Windows","10.0","null","<div style=""font-size:60px;"">+</div>","null",""
"","","","","","html-button-response","19","144965","0.0-4.0-1.7","26","1","2022-11-27 09:49:16","49aca292d257f58668169b9fbab864ae","124.117.119.250","Mozilla/5.0 (Windows NT 10.0; Win64; x64) AppleWebKit/537.36 (KHTML, like Gecko) Chrome/105.0.0.0 Safari/537.36","WebKit","Chrome","105.0.0.0","Windows","10.0","7677","<p>作为军队的指挥官，你可以选择发射导弹杀死 <strong>6名</strong> 敌国士兵，但会误杀附近的 <strong>1名</strong> 敌国平民。</p> <p>平民照片如下图所示。</p> <p></p> <img src='stimuli/faces/PFF2.jpg', style='max-width: 30%;'> </img> <p><strong>你是否选择发射武器？</strong></p>","0",""
"","","","","","html-keyboard-response","20","145982","0.0-4.0-0.8","26","1","2022-11-27 09:49:16","49aca292d257f58668169b9fbab864ae","124.117.119.250","Mozilla/5.0 (Windows NT 10.0; Win64; x64) AppleWebKit/537.36 (KHTML, like Gecko) Chrome/105.0.0.0 Safari/537.36","WebKit","Chrome","105.0.0.0","Windows","10.0","null","<div style=""font-size:60px;"">+</div>","null",""
"","","","","","html-button-response","21","150915","0.0-4.0-1.8","26","1","2022-11-27 09:49:16","49aca292d257f58668169b9fbab864ae","124.117.119.250","Mozilla/5.0 (Windows NT 10.0; Win64; x64) AppleWebKit/537.36 (KHTML, like Gecko) Chrome/105.0.0.0 Safari/537.36","WebKit","Chrome","105.0.0.0","Windows","10.0","4931","<p>作为军队的指挥官，你可以选择发射导弹杀死 <strong>4名</strong> 敌国士兵，但会炸毁附近的 <strong>1棵</strong> 敌国树木。</p> <p>树木的照片如下图所示。</p> <p></p> <img src='stimuli/trees/6.png', style='max-width: 30%;'> </img> <p><strong>你是否选择发射武器？</strong></p>","0",""
"","","","","","html-keyboard-response","22","151921","0.0-4.0-0.9","26","1","2022-11-27 09:49:16","49aca292d257f58668169b9fbab864ae","124.117.119.250","Mozilla/5.0 (Windows NT 10.0; Win64; x64) AppleWebKit/537.36 (KHTML, like Gecko) Chrome/105.0.0.0 Safari/537.36","WebKit","Chrome","105.0.0.0","Windows","10.0","null","<div style=""font-size:60px;"">+</div>","null",""
"","","","","","html-button-response","23","159469","0.0-4.0-1.9","26","1","2022-11-27 09:49:16","49aca292d257f58668169b9fbab864ae","124.117.119.250","Mozilla/5.0 (Windows NT 10.0; Win64; x64) AppleWebKit/537.36 (KHTML, like Gecko) Chrome/105.0.0.0 Safari/537.36","WebKit","Chrome","105.0.0.0","Windows","10.0","7546","<p>作为军队的指挥官，你可以选择发射导弹杀死 <strong>4名</strong> 敌国士兵，但会炸毁附近的 <strong>1棵</strong> 敌国树木。</p> <p>树木的照片如下图所示。</p> <p></p> <img src='stimuli/trees/12.png', style='max-width: 30%;'> </img> <p><strong>你是否选择发射武器？</strong></p>","0",""
"","","","","","html-keyboard-response","24","160473","0.0-4.0-0.10","26","1","2022-11-27 09:49:16","49aca292d257f58668169b9fbab864ae","124.117.119.250","Mozilla/5.0 (Windows NT 10.0; Win64; x64) AppleWebKit/537.36 (KHTML, like Gecko) Chrome/105.0.0.0 Safari/537.36","WebKit","Chrome","105.0.0.0","Windows","10.0","null","<div style=""font-size:60px;"">+</div>","null",""
"","","","","","html-button-response","25","169357","0.0-4.0-1.10","26","1","2022-11-27 09:49:16","49aca292d257f58668169b9fbab864ae","124.117.119.250","Mozilla/5.0 (Windows NT 10.0; Win64; x64) AppleWebKit/537.36 (KHTML, like Gecko) Chrome/105.0.0.0 Safari/537.36","WebKit","Chrome","105.0.0.0","Windows","10.0","8882","<p>作为军队的指挥官，你可以选择发射导弹杀死 <strong>4名</strong> 敌国士兵，但会炸毁附近的 <strong>1棵</strong> 敌国树木。</p> <p>树木的照片如下图所示。</p> <p></p> <img src='stimuli/trees/16.png', style='max-width: 30%;'> </img> <p><strong>你是否选择发射武器？</strong></p>","0",""
"","","","","","html-keyboard-response","26","170363","0.0-4.0-0.11","26","1","2022-11-27 09:49:16","49aca292d257f58668169b9fbab864ae","124.117.119.250","Mozilla/5.0 (Windows NT 10.0; Win64; x64) AppleWebKit/537.36 (KHTML, like Gecko) Chrome/105.0.0.0 Safari/537.36","WebKit","Chrome","105.0.0.0","Windows","10.0","null","<div style=""font-size:60px;"">+</div>","null",""
"","","","","","html-button-response","27","176151","0.0-4.0-1.11","26","1","2022-11-27 09:49:16","49aca292d257f58668169b9fbab864ae","124.117.119.250","Mozilla/5.0 (Windows NT 10.0; Win64; x64) AppleWebKit/537.36 (KHTML, like Gecko) Chrome/105.0.0.0 Safari/537.36","WebKit","Chrome","105.0.0.0","Windows","10.0","5787","<p>作为军队的指挥官，你可以选择发射导弹杀死 <strong>5名</strong> 敌国士兵，但会误杀附近的 <strong>1名</strong> 敌国平民。</p> <p>平民照片如下图所示。</p> <p></p> <img src='stimuli/faces/PFF5.jpg', style='max-width: 30%;'> </img> <p><strong>你是否选择发射武器？</strong></p>","0",""
"","","","","","html-keyboard-response","28","177167","0.0-4.0-0.12","26","1","2022-11-27 09:49:16","49aca292d257f58668169b9fbab864ae","124.117.119.250","Mozilla/5.0 (Windows NT 10.0; Win64; x64) AppleWebKit/537.36 (KHTML, like Gecko) Chrome/105.0.0.0 Safari/537.36","WebKit","Chrome","105.0.0.0","Windows","10.0","null","<div style=""font-size:60px;"">+</div>","null",""
"","","","","","html-button-response","29","181593","0.0-4.0-1.12","26","1","2022-11-27 09:49:16","49aca292d257f58668169b9fbab864ae","124.117.119.250","Mozilla/5.0 (Windows NT 10.0; Win64; x64) AppleWebKit/537.36 (KHTML, like Gecko) Chrome/105.0.0.0 Safari/537.36","WebKit","Chrome","105.0.0.0","Windows","10.0","4424","<p>作为军队的指挥官，你可以选择发射导弹杀死 <strong>2名</strong> 敌国士兵，但会误杀附近的 <strong>1名</strong> 敌国平民。</p> <p>平民照片如下图所示。</p> <p></p> <img src='stimuli/faces/PFF8.jpg', style='max-width: 30%;'> </img> <p><strong>你是否选择发射武器？</strong></p>","1",""
"","","","","","html-keyboard-response","30","182594","0.0-4.0-0.13","26","1","2022-11-27 09:49:16","49aca292d257f58668169b9fbab864ae","124.117.119.250","Mozilla/5.0 (Windows NT 10.0; Win64; x64) AppleWebKit/537.36 (KHTML, like Gecko) Chrome/105.0.0.0 Safari/537.36","WebKit","Chrome","105.0.0.0","Windows","10.0","null","<div style=""font-size:60px;"">+</div>","null",""
"","","","","","html-button-response","31","186327","0.0-4.0-1.13","26","1","2022-11-27 09:49:16","49aca292d257f58668169b9fbab864ae","124.117.119.250","Mozilla/5.0 (Windows NT 10.0; Win64; x64) AppleWebKit/537.36 (KHTML, like Gecko) Chrome/105.0.0.0 Safari/537.36","WebKit","Chrome","105.0.0.0","Windows","10.0","3732","<p>作为军队的指挥官，你可以选择发射导弹杀死 <strong>10名</strong> 敌国士兵，但会炸毁附近的 <strong>1棵</strong> 敌国树木。</p> <p>树木的照片如下图所示。</p> <p></p> <img src='stimuli/trees/14.png', style='max-width: 30%;'> </img> <p><strong>你是否选择发射武器？</strong></p>","0",""
"","","","","","html-keyboard-response","32","187337","0.0-4.0-0.14","26","1","2022-11-27 09:49:16","49aca292d257f58668169b9fbab864ae","124.117.119.250","Mozilla/5.0 (Windows NT 10.0; Win64; x64) AppleWebKit/537.36 (KHTML, like Gecko) Chrome/105.0.0.0 Safari/537.36","WebKit","Chrome","105.0.0.0","Windows","10.0","null","<div style=""font-size:60px;"">+</div>","null",""
"","","","","","html-button-response","33","195767","0.0-4.0-1.14","26","1","2022-11-27 09:49:16","49aca292d257f58668169b9fbab864ae","124.117.119.250","Mozilla/5.0 (Windows NT 10.0; Win64; x64) AppleWebKit/537.36 (KHTML, like Gecko) Chrome/105.0.0.0 Safari/537.36","WebKit","Chrome","105.0.0.0","Windows","10.0","8429","<p>作为军队的指挥官，你可以选择发射导弹杀死 <strong>9名</strong> 敌国士兵，但会误杀附近的 <strong>1名</strong> 敌国平民。</p> <p>平民照片如下图所示。</p> <p></p> <img src='stimuli/faces/PFM6.jpg', style='max-width: 30%;'> </img> <p><strong>你是否选择发射武器？</strong></p>","0",""
"","","","","","html-keyboard-response","34","196782","0.0-4.0-0.15","26","1","2022-11-27 09:49:16","49aca292d257f58668169b9fbab864ae","124.117.119.250","Mozilla/5.0 (Windows NT 10.0; Win64; x64) AppleWebKit/537.36 (KHTML, like Gecko) Chrome/105.0.0.0 Safari/537.36","WebKit","Chrome","105.0.0.0","Windows","10.0","null","<div style=""font-size:60px;"">+</div>","null",""
"","","","","","html-button-response","35","199757","0.0-4.0-1.15","26","1","2022-11-27 09:49:16","49aca292d257f58668169b9fbab864ae","124.117.119.250","Mozilla/5.0 (Windows NT 10.0; Win64; x64) AppleWebKit/537.36 (KHTML, like Gecko) Chrome/105.0.0.0 Safari/537.36","WebKit","Chrome","105.0.0.0","Windows","10.0","2973","<p>作为军队的指挥官，你可以选择发射导弹杀死 <strong>3名</strong> 敌国士兵，但会炸毁附近的 <strong>1棵</strong> 敌国树木。</p> <p>树木的照片如下图所示。</p> <p></p> <img src='stimuli/trees/15.png', style='max-width: 30%;'> </img> <p><strong>你是否选择发射武器？</strong></p>","0",""
"","","","","","html-keyboard-response","36","200767","0.0-4.0-0.16","26","1","2022-11-27 09:49:16","49aca292d257f58668169b9fbab864ae","124.117.119.250","Mozilla/5.0 (Windows NT 10.0; Win64; x64) AppleWebKit/537.36 (KHTML, like Gecko) Chrome/105.0.0.0 Safari/537.36","WebKit","Chrome","105.0.0.0","Windows","10.0","null","<div style=""font-size:60px;"">+</div>","null",""
"","","","","","html-button-response","37","203993","0.0-4.0-1.16","26","1","2022-11-27 09:49:16","49aca292d257f58668169b9fbab864ae","124.117.119.250","Mozilla/5.0 (Windows NT 10.0; Win64; x64) AppleWebKit/537.36 (KHTML, like Gecko) Chrome/105.0.0.0 Safari/537.36","WebKit","Chrome","105.0.0.0","Windows","10.0","3225","<p>作为军队的指挥官，你可以选择发射导弹杀死 <strong>5名</strong> 敌国士兵，但会炸毁附近的 <strong>1棵</strong> 敌国树木。</p> <p>树木的照片如下图所示。</p> <p></p> <img src='stimuli/trees/14.png', style='max-width: 30%;'> </img> <p><strong>你是否选择发射武器？</strong></p>","0",""
"","","","","","html-keyboard-response","38","205010","0.0-4.0-0.17","26","1","2022-11-27 09:49:16","49aca292d257f58668169b9fbab864ae","124.117.119.250","Mozilla/5.0 (Windows NT 10.0; Win64; x64) AppleWebKit/537.36 (KHTML, like Gecko) Chrome/105.0.0.0 Safari/537.36","WebKit","Chrome","105.0.0.0","Windows","10.0","null","<div style=""font-size:60px;"">+</div>","null",""
"","","","","","html-button-response","39","209295","0.0-4.0-1.17","26","1","2022-11-27 09:49:16","49aca292d257f58668169b9fbab864ae","124.117.119.250","Mozilla/5.0 (Windows NT 10.0; Win64; x64) AppleWebKit/537.36 (KHTML, like Gecko) Chrome/105.0.0.0 Safari/537.36","WebKit","Chrome","105.0.0.0","Windows","10.0","4283","<p>作为军队的指挥官，你可以选择发射导弹杀死 <strong>8名</strong> 敌国士兵，但会炸毁附近的 <strong>1棵</strong> 敌国树木。</p> <p>树木的照片如下图所示。</p> <p></p> <img src='stimuli/trees/5.png', style='max-width: 30%;'> </img> <p><strong>你是否选择发射武器？</strong></p>","0",""
"","","","","","html-keyboard-response","40","210304","0.0-4.0-0.18","26","1","2022-11-27 09:49:16","49aca292d257f58668169b9fbab864ae","124.117.119.250","Mozilla/5.0 (Windows NT 10.0; Win64; x64) AppleWebKit/537.36 (KHTML, like Gecko) Chrome/105.0.0.0 Safari/537.36","WebKit","Chrome","105.0.0.0","Windows","10.0","null","<div style=""font-size:60px;"">+</div>","null",""
"","","","","","html-button-response","41","218919","0.0-4.0-1.18","26","1","2022-11-27 09:49:16","49aca292d257f58668169b9fbab864ae","124.117.119.250","Mozilla/5.0 (Windows NT 10.0; Win64; x64) AppleWebKit/537.36 (KHTML, like Gecko) Chrome/105.0.0.0 Safari/537.36","WebKit","Chrome","105.0.0.0","Windows","10.0","8613","<p>作为军队的指挥官，你可以选择发射导弹杀死 <strong>2名</strong> 敌国士兵，但会炸毁附近的 <strong>1棵</strong> 敌国树木。</p> <p>树木的照片如下图所示。</p> <p></p> <img src='stimuli/trees/4.png', style='max-width: 30%;'> </img> <p><strong>你是否选择发射武器？</strong></p>","0",""
"","","","","","html-keyboard-response","42","219923","0.0-4.0-0.19","26","1","2022-11-27 09:49:16","49aca292d257f58668169b9fbab864ae","124.117.119.250","Mozilla/5.0 (Windows NT 10.0; Win64; x64) AppleWebKit/537.36 (KHTML, like Gecko) Chrome/105.0.0.0 Safari/537.36","WebKit","Chrome","105.0.0.0","Windows","10.0","null","<div style=""font-size:60px;"">+</div>","null",""
"","","","","","html-button-response","43","225575","0.0-4.0-1.19","26","1","2022-11-27 09:49:16","49aca292d257f58668169b9fbab864ae","124.117.119.250","Mozilla/5.0 (Windows NT 10.0; Win64; x64) AppleWebKit/537.36 (KHTML, like Gecko) Chrome/105.0.0.0 Safari/537.36","WebKit","Chrome","105.0.0.0","Windows","10.0","5650","<p>作为军队的指挥官，你可以选择发射导弹杀死 <strong>8名</strong> 敌国士兵，但会误杀附近的 <strong>1名</strong> 敌国平民。</p> <p>平民照片如下图所示。</p> <p></p> <img src='stimuli/faces/PFM5.jpg', style='max-width: 30%;'> </img> <p><strong>你是否选择发射武器？</strong></p>","0",""
"","","","","","html-keyboard-response","44","226590","0.0-4.0-0.20","26","1","2022-11-27 09:49:16","49aca292d257f58668169b9fbab864ae","124.117.119.250","Mozilla/5.0 (Windows NT 10.0; Win64; x64) AppleWebKit/537.36 (KHTML, like Gecko) Chrome/105.0.0.0 Safari/537.36","WebKit","Chrome","105.0.0.0","Windows","10.0","null","<div style=""font-size:60px;"">+</div>","null",""
"","","","","","html-button-response","45","245333","0.0-4.0-1.20","26","1","2022-11-27 09:49:16","49aca292d257f58668169b9fbab864ae","124.117.119.250","Mozilla/5.0 (Windows NT 10.0; Win64; x64) AppleWebKit/537.36 (KHTML, like Gecko) Chrome/105.0.0.0 Safari/537.36","WebKit","Chrome","105.0.0.0","Windows","10.0","18740","<p>作为军队的指挥官，你可以选择发射导弹杀死 <strong>8名</strong> 敌国士兵，但会误杀附近的 <strong>1名</strong> 敌国平民。</p> <p>平民照片如下图所示。</p> <p></p> <img src='stimuli/faces/PFF7.jpg', style='max-width: 30%;'> </img> <p><strong>你是否选择发射武器？</strong></p>","1",""
"","","","","","html-keyboard-response","46","246348","0.0-4.0-0.21","26","1","2022-11-27 09:49:16","49aca292d257f58668169b9fbab864ae","124.117.119.250","Mozilla/5.0 (Windows NT 10.0; Win64; x64) AppleWebKit/537.36 (KHTML, like Gecko) Chrome/105.0.0.0 Safari/537.36","WebKit","Chrome","105.0.0.0","Windows","10.0","null","<div style=""font-size:60px;"">+</div>","null",""
"","","","","","html-button-response","47","250501","0.0-4.0-1.21","26","1","2022-11-27 09:49:16","49aca292d257f58668169b9fbab864ae","124.117.119.250","Mozilla/5.0 (Windows NT 10.0; Win64; x64) AppleWebKit/537.36 (KHTML, like Gecko) Chrome/105.0.0.0 Safari/537.36","WebKit","Chrome","105.0.0.0","Windows","10.0","4152","<p>作为军队的指挥官，你可以选择发射导弹杀死 <strong>8名</strong> 敌国士兵，但会炸毁附近的 <strong>1棵</strong> 敌国树木。</p> <p>树木的照片如下图所示。</p> <p></p> <img src='stimuli/trees/1.png', style='max-width: 30%;'> </img> <p><strong>你是否选择发射武器？</strong></p>","0",""
"","","","","","html-keyboard-response","48","251511","0.0-4.0-0.22","26","1","2022-11-27 09:49:16","49aca292d257f58668169b9fbab864ae","124.117.119.250","Mozilla/5.0 (Windows NT 10.0; Win64; x64) AppleWebKit/537.36 (KHTML, like Gecko) Chrome/105.0.0.0 Safari/537.36","WebKit","Chrome","105.0.0.0","Windows","10.0","null","<div style=""font-size:60px;"">+</div>","null",""
"","","","","","html-button-response","49","254817","0.0-4.0-1.22","26","1","2022-11-27 09:49:16","49aca292d257f58668169b9fbab864ae","124.117.119.250","Mozilla/5.0 (Windows NT 10.0; Win64; x64) AppleWebKit/537.36 (KHTML, like Gecko) Chrome/105.0.0.0 Safari/537.36","WebKit","Chrome","105.0.0.0","Windows","10.0","3303","<p>作为军队的指挥官，你可以选择发射导弹杀死 <strong>7名</strong> 敌国士兵，但会炸毁附近的 <strong>1棵</strong> 敌国树木。</p> <p>树木的照片如下图所示。</p> <p></p> <img src='stimuli/trees/7.png', style='max-width: 30%;'> </img> <p><strong>你是否选择发射武器？</strong></p>","0",""
"","","","","","html-keyboard-response","50","255820","0.0-4.0-0.23","26","1","2022-11-27 09:49:16","49aca292d257f58668169b9fbab864ae","124.117.119.250","Mozilla/5.0 (Windows NT 10.0; Win64; x64) AppleWebKit/537.36 (KHTML, like Gecko) Chrome/105.0.0.0 Safari/537.36","WebKit","Chrome","105.0.0.0","Windows","10.0","null","<div style=""font-size:60px;"">+</div>","null",""
"","","","","","html-button-response","51","259051","0.0-4.0-1.23","26","1","2022-11-27 09:49:16","49aca292d257f58668169b9fbab864ae","124.117.119.250","Mozilla/5.0 (Windows NT 10.0; Win64; x64) AppleWebKit/537.36 (KHTML, like Gecko) Chrome/105.0.0.0 Safari/537.36","WebKit","Chrome","105.0.0.0","Windows","10.0","3229","<p>作为军队的指挥官，你可以选择发射导弹杀死 <strong>7名</strong> 敌国士兵，但会炸毁附近的 <strong>1棵</strong> 敌国树木。</p> <p>树木的照片如下图所示。</p> <p></p> <img src='stimuli/trees/10.png', style='max-width: 30%;'> </img> <p><strong>你是否选择发射武器？</strong></p>","0",""
"","","","","","html-keyboard-response","52","260060","0.0-4.0-0.24","26","1","2022-11-27 09:49:16","49aca292d257f58668169b9fbab864ae","124.117.119.250","Mozilla/5.0 (Windows NT 10.0; Win64; x64) AppleWebKit/537.36 (KHTML, like Gecko) Chrome/105.0.0.0 Safari/537.36","WebKit","Chrome","105.0.0.0","Windows","10.0","null","<div style=""font-size:60px;"">+</div>","null",""
"","","","","","html-button-response","53","296601","0.0-4.0-1.24","26","1","2022-11-27 09:49:16","49aca292d257f58668169b9fbab864ae","124.117.119.250","Mozilla/5.0 (Windows NT 10.0; Win64; x64) AppleWebKit/537.36 (KHTML, like Gecko) Chrome/105.0.0.0 Safari/537.36","WebKit","Chrome","105.0.0.0","Windows","10.0","36540","<p>作为军队的指挥官，你可以选择发射导弹杀死 <strong>9名</strong> 敌国士兵，但会误杀附近的 <strong>1名</strong> 敌国平民。</p> <p>平民照片如下图所示。</p> <p></p> <img src='stimuli/faces/PFF6.jpg', style='max-width: 30%;'> </img> <p><strong>你是否选择发射武器？</strong></p>","0",""
"","","","","","html-keyboard-response","54","297604","0.0-4.0-0.25","26","1","2022-11-27 09:49:16","49aca292d257f58668169b9fbab864ae","124.117.119.250","Mozilla/5.0 (Windows NT 10.0; Win64; x64) AppleWebKit/537.36 (KHTML, like Gecko) Chrome/105.0.0.0 Safari/537.36","WebKit","Chrome","105.0.0.0","Windows","10.0","null","<div style=""font-size:60px;"">+</div>","null",""
"","","","","","html-button-response","55","303518","0.0-4.0-1.25","26","1","2022-11-27 09:49:16","49aca292d257f58668169b9fbab864ae","124.117.119.250","Mozilla/5.0 (Windows NT 10.0; Win64; x64) AppleWebKit/537.36 (KHTML, like Gecko) Chrome/105.0.0.0 Safari/537.36","WebKit","Chrome","105.0.0.0","Windows","10.0","5911","<p>作为军队的指挥官，你可以选择发射导弹杀死 <strong>8名</strong> 敌国士兵，但会炸毁附近的 <strong>1棵</strong> 敌国树木。</p> <p>树木的照片如下图所示。</p> <p></p> <img src='stimuli/trees/4.png', style='max-width: 30%;'> </img> <p><strong>你是否选择发射武器？</strong></p>","0",""
"","","","","","html-keyboard-response","56","304531","0.0-4.0-0.26","26","1","2022-11-27 09:49:16","49aca292d257f58668169b9fbab864ae","124.117.119.250","Mozilla/5.0 (Windows NT 10.0; Win64; x64) AppleWebKit/537.36 (KHTML, like Gecko) Chrome/105.0.0.0 Safari/537.36","WebKit","Chrome","105.0.0.0","Windows","10.0","null","<div style=""font-size:60px;"">+</div>","null",""
"","","","","","html-button-response","57","308204","0.0-4.0-1.26","26","1","2022-11-27 09:49:16","49aca292d257f58668169b9fbab864ae","124.117.119.250","Mozilla/5.0 (Windows NT 10.0; Win64; x64) AppleWebKit/537.36 (KHTML, like Gecko) Chrome/105.0.0.0 Safari/537.36","WebKit","Chrome","105.0.0.0","Windows","10.0","3670","<p>作为军队的指挥官，你可以选择发射导弹杀死 <strong>8名</strong> 敌国士兵，但会误杀附近的 <strong>1名</strong> 敌国平民。</p> <p>平民照片如下图所示。</p> <p></p> <img src='stimuli/faces/PFM3.jpg', style='max-width: 30%;'> </img> <p><strong>你是否选择发射武器？</strong></p>","0",""
"","","","","","html-keyboard-response","58","309217","0.0-4.0-0.27","26","1","2022-11-27 09:49:16","49aca292d257f58668169b9fbab864ae","124.117.119.250","Mozilla/5.0 (Windows NT 10.0; Win64; x64) AppleWebKit/537.36 (KHTML, like Gecko) Chrome/105.0.0.0 Safari/537.36","WebKit","Chrome","105.0.0.0","Windows","10.0","null","<div style=""font-size:60px;"">+</div>","null",""
"","","","","","html-button-response","59","312983","0.0-4.0-1.27","26","1","2022-11-27 09:49:16","49aca292d257f58668169b9fbab864ae","124.117.119.250","Mozilla/5.0 (Windows NT 10.0; Win64; x64) AppleWebKit/537.36 (KHTML, like Gecko) Chrome/105.0.0.0 Safari/537.36","WebKit","Chrome","105.0.0.0","Windows","10.0","3763","<p>作为军队的指挥官，你可以选择发射导弹杀死 <strong>9名</strong> 敌国士兵，但会误杀附近的 <strong>1名</strong> 敌国平民。</p> <p>平民照片如下图所示。</p> <p></p> <img src='stimuli/faces/PFM7.jpg', style='max-width: 30%;'> </img> <p><strong>你是否选择发射武器？</strong></p>","0",""
"","","","","","html-keyboard-response","60","313987","0.0-4.0-0.28","26","1","2022-11-27 09:49:16","49aca292d257f58668169b9fbab864ae","124.117.119.250","Mozilla/5.0 (Windows NT 10.0; Win64; x64) AppleWebKit/537.36 (KHTML, like Gecko) Chrome/105.0.0.0 Safari/537.36","WebKit","Chrome","105.0.0.0","Windows","10.0","null","<div style=""font-size:60px;"">+</div>","null",""
"","","","","","html-button-response","61","321589","0.0-4.0-1.28","26","1","2022-11-27 09:49:16","49aca292d257f58668169b9fbab864ae","124.117.119.250","Mozilla/5.0 (Windows NT 10.0; Win64; x64) AppleWebKit/537.36 (KHTML, like Gecko) Chrome/105.0.0.0 Safari/537.36","WebKit","Chrome","105.0.0.0","Windows","10.0","7599","<p>作为军队的指挥官，你可以选择发射导弹杀死 <strong>1名</strong> 敌国士兵，但会误杀附近的 <strong>1名</strong> 敌国平民。</p> <p>平民照片如下图所示。</p> <p></p> <img src='stimuli/faces/PFM4.jpg', style='max-width: 30%;'> </img> <p><strong>你是否选择发射武器？</strong></p>","0",""
"","","","","","html-keyboard-response","62","322603","0.0-4.0-0.29","26","1","2022-11-27 09:49:16","49aca292d257f58668169b9fbab864ae","124.117.119.250","Mozilla/5.0 (Windows NT 10.0; Win64; x64) AppleWebKit/537.36 (KHTML, like Gecko) Chrome/105.0.0.0 Safari/537.36","WebKit","Chrome","105.0.0.0","Windows","10.0","null","<div style=""font-size:60px;"">+</div>","null",""
"","","","","","html-button-response","63","333507","0.0-4.0-1.29","26","1","2022-11-27 09:49:16","49aca292d257f58668169b9fbab864ae","124.117.119.250","Mozilla/5.0 (Windows NT 10.0; Win64; x64) AppleWebKit/537.36 (KHTML, like Gecko) Chrome/105.0.0.0 Safari/537.36","WebKit","Chrome","105.0.0.0","Windows","10.0","10901","<p>作为军队的指挥官，你可以选择发射导弹杀死 <strong>8名</strong> 敌国士兵，但会误杀附近的 <strong>1名</strong> 敌国平民。</p> <p>平民照片如下图所示。</p> <p></p> <img src='stimuli/faces/PFF1.jpg', style='max-width: 30%;'> </img> <p><strong>你是否选择发射武器？</strong></p>","0",""
"","","","","","html-keyboard-response","64","334512","0.0-4.0-0.30","26","1","2022-11-27 09:49:16","49aca292d257f58668169b9fbab864ae","124.117.119.250","Mozilla/5.0 (Windows NT 10.0; Win64; x64) AppleWebKit/537.36 (KHTML, like Gecko) Chrome/105.0.0.0 Safari/537.36","WebKit","Chrome","105.0.0.0","Windows","10.0","null","<div style=""font-size:60px;"">+</div>","null",""
"","","","","","html-button-response","65","337293","0.0-4.0-1.30","26","1","2022-11-27 09:49:16","49aca292d257f58668169b9fbab864ae","124.117.119.250","Mozilla/5.0 (Windows NT 10.0; Win64; x64) AppleWebKit/537.36 (KHTML, like Gecko) Chrome/105.0.0.0 Safari/537.36","WebKit","Chrome","105.0.0.0","Windows","10.0","2778","<p>作为军队的指挥官，你可以选择发射导弹杀死 <strong>10名</strong> 敌国士兵，但会炸毁附近的 <strong>1棵</strong> 敌国树木。</p> <p>树木的照片如下图所示。</p> <p></p> <img src='stimuli/trees/13.png', style='max-width: 30%;'> </img> <p><strong>你是否选择发射武器？</strong></p>","0",""
"","","","","","html-keyboard-response","66","338300","0.0-4.0-0.31","26","1","2022-11-27 09:49:16","49aca292d257f58668169b9fbab864ae","124.117.119.250","Mozilla/5.0 (Windows NT 10.0; Win64; x64) AppleWebKit/537.36 (KHTML, like Gecko) Chrome/105.0.0.0 Safari/537.36","WebKit","Chrome","105.0.0.0","Windows","10.0","null","<div style=""font-size:60px;"">+</div>","null",""
"","","","","","html-button-response","67","346021","0.0-4.0-1.31","26","1","2022-11-27 09:49:16","49aca292d257f58668169b9fbab864ae","124.117.119.250","Mozilla/5.0 (Windows NT 10.0; Win64; x64) AppleWebKit/537.36 (KHTML, like Gecko) Chrome/105.0.0.0 Safari/537.36","WebKit","Chrome","105.0.0.0","Windows","10.0","7718","<p>作为军队的指挥官，你可以选择发射导弹杀死 <strong>6名</strong> 敌国士兵，但会误杀附近的 <strong>1名</strong> 敌国平民。</p> <p>平民照片如下图所示。</p> <p></p> <img src='stimuli/faces/PFF5.jpg', style='max-width: 30%;'> </img> <p><strong>你是否选择发射武器？</strong></p>","0",""
"","","","","","html-keyboard-response","68","347032","0.0-4.0-0.32","26","1","2022-11-27 09:49:16","49aca292d257f58668169b9fbab864ae","124.117.119.250","Mozilla/5.0 (Windows NT 10.0; Win64; x64) AppleWebKit/537.36 (KHTML, like Gecko) Chrome/105.0.0.0 Safari/537.36","WebKit","Chrome","105.0.0.0","Windows","10.0","null","<div style=""font-size:60px;"">+</div>","null",""
"","","","","","html-button-response","69","349131","0.0-4.0-1.32","26","1","2022-11-27 09:49:16","49aca292d257f58668169b9fbab864ae","124.117.119.250","Mozilla/5.0 (Windows NT 10.0; Win64; x64) AppleWebKit/537.36 (KHTML, like Gecko) Chrome/105.0.0.0 Safari/537.36","WebKit","Chrome","105.0.0.0","Windows","10.0","2096","<p>作为军队的指挥官，你可以选择发射导弹杀死 <strong>10名</strong> 敌国士兵，但会炸毁附近的 <strong>1棵</strong> 敌国树木。</p> <p>树木的照片如下图所示。</p> <p></p> <img src='stimuli/trees/11.png', style='max-width: 30%;'> </img> <p><strong>你是否选择发射武器？</strong></p>","0",""
"","","","","","html-keyboard-response","70","350140","0.0-4.0-0.33","26","1","2022-11-27 09:49:16","49aca292d257f58668169b9fbab864ae","124.117.119.250","Mozilla/5.0 (Windows NT 10.0; Win64; x64) AppleWebKit/537.36 (KHTML, like Gecko) Chrome/105.0.0.0 Safari/537.36","WebKit","Chrome","105.0.0.0","Windows","10.0","null","<div style=""font-size:60px;"">+</div>","null",""
"","","","","","html-button-response","71","358500","0.0-4.0-1.33","26","1","2022-11-27 09:49:16","49aca292d257f58668169b9fbab864ae","124.117.119.250","Mozilla/5.0 (Windows NT 10.0; Win64; x64) AppleWebKit/537.36 (KHTML, like Gecko) Chrome/105.0.0.0 Safari/537.36","WebKit","Chrome","105.0.0.0","Windows","10.0","8357","<p>作为军队的指挥官，你可以选择发射导弹杀死 <strong>8名</strong> 敌国士兵，但会误杀附近的 <strong>1名</strong> 敌国平民。</p> <p>平民照片如下图所示。</p> <p></p> <img src='stimuli/faces/PFM2.jpg', style='max-width: 30%;'> </img> <p><strong>你是否选择发射武器？</strong></p>","1",""
"","","","","","html-keyboard-response","72","359516","0.0-4.0-0.34","26","1","2022-11-27 09:49:16","49aca292d257f58668169b9fbab864ae","124.117.119.250","Mozilla/5.0 (Windows NT 10.0; Win64; x64) AppleWebKit/537.36 (KHTML, like Gecko) Chrome/105.0.0.0 Safari/537.36","WebKit","Chrome","105.0.0.0","Windows","10.0","null","<div style=""font-size:60px;"">+</div>","null",""
"","","","","","html-button-response","73","365489","0.0-4.0-1.34","26","1","2022-11-27 09:49:16","49aca292d257f58668169b9fbab864ae","124.117.119.250","Mozilla/5.0 (Windows NT 10.0; Win64; x64) AppleWebKit/537.36 (KHTML, like Gecko) Chrome/105.0.0.0 Safari/537.36","WebKit","Chrome","105.0.0.0","Windows","10.0","5970","<p>作为军队的指挥官，你可以选择发射导弹杀死 <strong>10名</strong> 敌国士兵，但会炸毁附近的 <strong>1棵</strong> 敌国树木。</p> <p>树木的照片如下图所示。</p> <p></p> <img src='stimuli/trees/9.png', style='max-width: 30%;'> </img> <p><strong>你是否选择发射武器？</strong></p>","0",""
"","","","","","html-keyboard-response","74","366499","0.0-4.0-0.35","26","1","2022-11-27 09:49:16","49aca292d257f58668169b9fbab864ae","124.117.119.250","Mozilla/5.0 (Windows NT 10.0; Win64; x64) AppleWebKit/537.36 (KHTML, like Gecko) Chrome/105.0.0.0 Safari/537.36","WebKit","Chrome","105.0.0.0","Windows","10.0","null","<div style=""font-size:60px;"">+</div>","null",""
"","","","","","html-button-response","75","370967","0.0-4.0-1.35","26","1","2022-11-27 09:49:16","49aca292d257f58668169b9fbab864ae","124.117.119.250","Mozilla/5.0 (Windows NT 10.0; Win64; x64) AppleWebKit/537.36 (KHTML, like Gecko) Chrome/105.0.0.0 Safari/537.36","WebKit","Chrome","105.0.0.0","Windows","10.0","4465","<p>作为军队的指挥官，你可以选择发射导弹杀死 <strong>1名</strong> 敌国士兵，但会误杀附近的 <strong>1名</strong> 敌国平民。</p> <p>平民照片如下图所示。</p> <p></p> <img src='stimuli/faces/PFF1.jpg', style='max-width: 30%;'> </img> <p><strong>你是否选择发射武器？</strong></p>","1",""
"","","","","","html-keyboard-response","76","371980","0.0-4.0-0.36","26","1","2022-11-27 09:49:16","49aca292d257f58668169b9fbab864ae","124.117.119.250","Mozilla/5.0 (Windows NT 10.0; Win64; x64) AppleWebKit/537.36 (KHTML, like Gecko) Chrome/105.0.0.0 Safari/537.36","WebKit","Chrome","105.0.0.0","Windows","10.0","null","<div style=""font-size:60px;"">+</div>","null",""
"","","","","","html-button-response","77","374128","0.0-4.0-1.36","26","1","2022-11-27 09:49:16","49aca292d257f58668169b9fbab864ae","124.117.119.250","Mozilla/5.0 (Windows NT 10.0; Win64; x64) AppleWebKit/537.36 (KHTML, like Gecko) Chrome/105.0.0.0 Safari/537.36","WebKit","Chrome","105.0.0.0","Windows","10.0","2145","<p>作为军队的指挥官，你可以选择发射导弹杀死 <strong>4名</strong> 敌国士兵，但会炸毁附近的 <strong>1棵</strong> 敌国树木。</p> <p>树木的照片如下图所示。</p> <p></p> <img src='stimuli/trees/2.png', style='max-width: 30%;'> </img> <p><strong>你是否选择发射武器？</strong></p>","0",""
"","","","","","html-keyboard-response","78","375131","0.0-4.0-0.37","26","1","2022-11-27 09:49:16","49aca292d257f58668169b9fbab864ae","124.117.119.250","Mozilla/5.0 (Windows NT 10.0; Win64; x64) AppleWebKit/537.36 (KHTML, like Gecko) Chrome/105.0.0.0 Safari/537.36","WebKit","Chrome","105.0.0.0","Windows","10.0","null","<div style=""font-size:60px;"">+</div>","null",""
"","","","","","html-button-response","79","377555","0.0-4.0-1.37","26","1","2022-11-27 09:49:16","49aca292d257f58668169b9fbab864ae","124.117.119.250","Mozilla/5.0 (Windows NT 10.0; Win64; x64) AppleWebKit/537.36 (KHTML, like Gecko) Chrome/105.0.0.0 Safari/537.36","WebKit","Chrome","105.0.0.0","Windows","10.0","2420","<p>作为军队的指挥官，你可以选择发射导弹杀死 <strong>6名</strong> 敌国士兵，但会炸毁附近的 <strong>1棵</strong> 敌国树木。</p> <p>树木的照片如下图所示。</p> <p></p> <img src='stimuli/trees/15.png', style='max-width: 30%;'> </img> <p><strong>你是否选择发射武器？</strong></p>","0",""
"","","","","","html-keyboard-response","80","378562","0.0-4.0-0.38","26","1","2022-11-27 09:49:16","49aca292d257f58668169b9fbab864ae","124.117.119.250","Mozilla/5.0 (Windows NT 10.0; Win64; x64) AppleWebKit/537.36 (KHTML, like Gecko) Chrome/105.0.0.0 Safari/537.36","WebKit","Chrome","105.0.0.0","Windows","10.0","null","<div style=""font-size:60px;"">+</div>","null",""
"","","","","","html-button-response","81","398515","0.0-4.0-1.38","26","1","2022-11-27 09:49:16","49aca292d257f58668169b9fbab864ae","124.117.119.250","Mozilla/5.0 (Windows NT 10.0; Win64; x64) AppleWebKit/537.36 (KHTML, like Gecko) Chrome/105.0.0.0 Safari/537.36","WebKit","Chrome","105.0.0.0","Windows","10.0","19950","<p>作为军队的指挥官，你可以选择发射导弹杀死 <strong>4名</strong> 敌国士兵，但会误杀附近的 <strong>1名</strong> 敌国平民。</p> <p>平民照片如下图所示。</p> <p></p> <img src='stimuli/faces/PFM7.jpg', style='max-width: 30%;'> </img> <p><strong>你是否选择发射武器？</strong></p>","1",""
"","","","","","html-keyboard-response","82","399525","0.0-4.0-0.39","26","1","2022-11-27 09:49:16","49aca292d257f58668169b9fbab864ae","124.117.119.250","Mozilla/5.0 (Windows NT 10.0; Win64; x64) AppleWebKit/537.36 (KHTML, like Gecko) Chrome/105.0.0.0 Safari/537.36","WebKit","Chrome","105.0.0.0","Windows","10.0","null","<div style=""font-size:60px;"">+</div>","null",""
"","","","","","html-button-response","83","412134","0.0-4.0-1.39","26","1","2022-11-27 09:49:16","49aca292d257f58668169b9fbab864ae","124.117.119.250","Mozilla/5.0 (Windows NT 10.0; Win64; x64) AppleWebKit/537.36 (KHTML, like Gecko) Chrome/105.0.0.0 Safari/537.36","WebKit","Chrome","105.0.0.0","Windows","10.0","12606","<p>作为军队的指挥官，你可以选择发射导弹杀死 <strong>7名</strong> 敌国士兵，但会误杀附近的 <strong>1名</strong> 敌国平民。</p> <p>平民照片如下图所示。</p> <p></p> <img src='stimuli/faces/PFF3.jpg', style='max-width: 30%;'> </img> <p><strong>你是否选择发射武器？</strong></p>","1",""
"","","","","","html-keyboard-response","84","413153","0.0-4.0-0.40","26","1","2022-11-27 09:49:16","49aca292d257f58668169b9fbab864ae","124.117.119.250","Mozilla/5.0 (Windows NT 10.0; Win64; x64) AppleWebKit/537.36 (KHTML, like Gecko) Chrome/105.0.0.0 Safari/537.36","WebKit","Chrome","105.0.0.0","Windows","10.0","null","<div style=""font-size:60px;"">+</div>","null",""
"","","","","","html-button-response","85","414782","0.0-4.0-1.40","26","1","2022-11-27 09:49:16","49aca292d257f58668169b9fbab864ae","124.117.119.250","Mozilla/5.0 (Windows NT 10.0; Win64; x64) AppleWebKit/537.36 (KHTML, like Gecko) Chrome/105.0.0.0 Safari/537.36","WebKit","Chrome","105.0.0.0","Windows","10.0","1626","<p>作为军队的指挥官，你可以选择发射导弹杀死 <strong>5名</strong> 敌国士兵，但会炸毁附近的 <strong>1棵</strong> 敌国树木。</p> <p>树木的照片如下图所示。</p> <p></p> <img src='stimuli/trees/13.png', style='max-width: 30%;'> </img> <p><strong>你是否选择发射武器？</strong></p>","0",""
"","","","","","html-keyboard-response","86","415794","0.0-4.0-0.41","26","1","2022-11-27 09:49:16","49aca292d257f58668169b9fbab864ae","124.117.119.250","Mozilla/5.0 (Windows NT 10.0; Win64; x64) AppleWebKit/537.36 (KHTML, like Gecko) Chrome/105.0.0.0 Safari/537.36","WebKit","Chrome","105.0.0.0","Windows","10.0","null","<div style=""font-size:60px;"">+</div>","null",""
"","","","","","html-button-response","87","420740","0.0-4.0-1.41","26","1","2022-11-27 09:49:16","49aca292d257f58668169b9fbab864ae","124.117.119.250","Mozilla/5.0 (Windows NT 10.0; Win64; x64) AppleWebKit/537.36 (KHTML, like Gecko) Chrome/105.0.0.0 Safari/537.36","WebKit","Chrome","105.0.0.0","Windows","10.0","4943","<p>作为军队的指挥官，你可以选择发射导弹杀死 <strong>10名</strong> 敌国士兵，但会误杀附近的 <strong>1名</strong> 敌国平民。</p> <p>平民照片如下图所示。</p> <p></p> <img src='stimuli/faces/PFF4.jpg', style='max-width: 30%;'> </img> <p><strong>你是否选择发射武器？</strong></p>","0",""
"","","","","","html-keyboard-response","88","421744","0.0-4.0-0.42","26","1","2022-11-27 09:49:16","49aca292d257f58668169b9fbab864ae","124.117.119.250","Mozilla/5.0 (Windows NT 10.0; Win64; x64) AppleWebKit/537.36 (KHTML, like Gecko) Chrome/105.0.0.0 Safari/537.36","WebKit","Chrome","105.0.0.0","Windows","10.0","null","<div style=""font-size:60px;"">+</div>","null",""
"","","","","","html-button-response","89","425791","0.0-4.0-1.42","26","1","2022-11-27 09:49:16","49aca292d257f58668169b9fbab864ae","124.117.119.250","Mozilla/5.0 (Windows NT 10.0; Win64; x64) AppleWebKit/537.36 (KHTML, like Gecko) Chrome/105.0.0.0 Safari/537.36","WebKit","Chrome","105.0.0.0","Windows","10.0","4044","<p>作为军队的指挥官，你可以选择发射导弹杀死 <strong>2名</strong> 敌国士兵，但会炸毁附近的 <strong>1棵</strong> 敌国树木。</p> <p>树木的照片如下图所示。</p> <p></p> <img src='stimuli/trees/3.png', style='max-width: 30%;'> </img> <p><strong>你是否选择发射武器？</strong></p>","0",""
"","","","","","html-keyboard-response","90","426796","0.0-4.0-0.43","26","1","2022-11-27 09:49:16","49aca292d257f58668169b9fbab864ae","124.117.119.250","Mozilla/5.0 (Windows NT 10.0; Win64; x64) AppleWebKit/537.36 (KHTML, like Gecko) Chrome/105.0.0.0 Safari/537.36","WebKit","Chrome","105.0.0.0","Windows","10.0","null","<div style=""font-size:60px;"">+</div>","null",""
"","","","","","html-button-response","91","428573","0.0-4.0-1.43","26","1","2022-11-27 09:49:16","49aca292d257f58668169b9fbab864ae","124.117.119.250","Mozilla/5.0 (Windows NT 10.0; Win64; x64) AppleWebKit/537.36 (KHTML, like Gecko) Chrome/105.0.0.0 Safari/537.36","WebKit","Chrome","105.0.0.0","Windows","10.0","1773","<p>作为军队的指挥官，你可以选择发射导弹杀死 <strong>4名</strong> 敌国士兵，但会炸毁附近的 <strong>1棵</strong> 敌国树木。</p> <p>树木的照片如下图所示。</p> <p></p> <img src='stimuli/trees/5.png', style='max-width: 30%;'> </img> <p><strong>你是否选择发射武器？</strong></p>","0",""
"","","","","","html-keyboard-response","92","429579","0.0-4.0-0.44","26","1","2022-11-27 09:49:16","49aca292d257f58668169b9fbab864ae","124.117.119.250","Mozilla/5.0 (Windows NT 10.0; Win64; x64) AppleWebKit/537.36 (KHTML, like Gecko) Chrome/105.0.0.0 Safari/537.36","WebKit","Chrome","105.0.0.0","Windows","10.0","null","<div style=""font-size:60px;"">+</div>","null",""
"","","","","","html-button-response","93","433383","0.0-4.0-1.44","26","1","2022-11-27 09:49:16","49aca292d257f58668169b9fbab864ae","124.117.119.250","Mozilla/5.0 (Windows NT 10.0; Win64; x64) AppleWebKit/537.36 (KHTML, like Gecko) Chrome/105.0.0.0 Safari/537.36","WebKit","Chrome","105.0.0.0","Windows","10.0","3799","<p>作为军队的指挥官，你可以选择发射导弹杀死 <strong>3名</strong> 敌国士兵，但会误杀附近的 <strong>1名</strong> 敌国平民。</p> <p>平民照片如下图所示。</p> <p></p> <img src='stimuli/faces/PFF3.jpg', style='max-width: 30%;'> </img> <p><strong>你是否选择发射武器？</strong></p>","1",""
"","","","","","html-keyboard-response","94","434400","0.0-4.0-0.45","26","1","2022-11-27 09:49:16","49aca292d257f58668169b9fbab864ae","124.117.119.250","Mozilla/5.0 (Windows NT 10.0; Win64; x64) AppleWebKit/537.36 (KHTML, like Gecko) Chrome/105.0.0.0 Safari/537.36","WebKit","Chrome","105.0.0.0","Windows","10.0","null","<div style=""font-size:60px;"">+</div>","null",""
"","","","","","html-button-response","95","441133","0.0-4.0-1.45","26","1","2022-11-27 09:49:16","49aca292d257f58668169b9fbab864ae","124.117.119.250","Mozilla/5.0 (Windows NT 10.0; Win64; x64) AppleWebKit/537.36 (KHTML, like Gecko) Chrome/105.0.0.0 Safari/537.36","WebKit","Chrome","105.0.0.0","Windows","10.0","6729","<p>作为军队的指挥官，你可以选择发射导弹杀死 <strong>10名</strong> 敌国士兵，但会误杀附近的 <strong>1名</strong> 敌国平民。</p> <p>平民照片如下图所示。</p> <p></p> <img src='stimuli/faces/PFM4.jpg', style='max-width: 30%;'> </img> <p><strong>你是否选择发射武器？</strong></p>","0",""
"","","","","","html-keyboard-response","96","442142","0.0-4.0-0.46","26","1","2022-11-27 09:49:16","49aca292d257f58668169b9fbab864ae","124.117.119.250","Mozilla/5.0 (Windows NT 10.0; Win64; x64) AppleWebKit/537.36 (KHTML, like Gecko) Chrome/105.0.0.0 Safari/537.36","WebKit","Chrome","105.0.0.0","Windows","10.0","null","<div style=""font-size:60px;"">+</div>","null",""
"","","","","","html-button-response","97","446299","0.0-4.0-1.46","26","1","2022-11-27 09:49:16","49aca292d257f58668169b9fbab864ae","124.117.119.250","Mozilla/5.0 (Windows NT 10.0; Win64; x64) AppleWebKit/537.36 (KHTML, like Gecko) Chrome/105.0.0.0 Safari/537.36","WebKit","Chrome","105.0.0.0","Windows","10.0","4153","<p>作为军队的指挥官，你可以选择发射导弹杀死 <strong>3名</strong> 敌国士兵，但会误杀附近的 <strong>1名</strong> 敌国平民。</p> <p>平民照片如下图所示。</p> <p></p> <img src='stimuli/faces/PFF2.jpg', style='max-width: 30%;'> </img> <p><strong>你是否选择发射武器？</strong></p>","1",""
"","","","","","html-keyboard-response","98","447301","0.0-4.0-0.47","26","1","2022-11-27 09:49:16","49aca292d257f58668169b9fbab864ae","124.117.119.250","Mozilla/5.0 (Windows NT 10.0; Win64; x64) AppleWebKit/537.36 (KHTML, like Gecko) Chrome/105.0.0.0 Safari/537.36","WebKit","Chrome","105.0.0.0","Windows","10.0","null","<div style=""font-size:60px;"">+</div>","null",""
"","","","","","html-button-response","99","451243","0.0-4.0-1.47","26","1","2022-11-27 09:49:16","49aca292d257f58668169b9fbab864ae","124.117.119.250","Mozilla/5.0 (Windows NT 10.0; Win64; x64) AppleWebKit/537.36 (KHTML, like Gecko) Chrome/105.0.0.0 Safari/537.36","WebKit","Chrome","105.0.0.0","Windows","10.0","3938","<p>作为军队的指挥官，你可以选择发射导弹杀死 <strong>2名</strong> 敌国士兵，但会误杀附近的 <strong>1名</strong> 敌国平民。</p> <p>平民照片如下图所示。</p> <p></p> <img src='stimuli/faces/PFF4.jpg', style='max-width: 30%;'> </img> <p><strong>你是否选择发射武器？</strong></p>","1",""
"","","","","","html-keyboard-response","100","452256","0.0-4.0-0.48","26","1","2022-11-27 09:49:16","49aca292d257f58668169b9fbab864ae","124.117.119.250","Mozilla/5.0 (Windows NT 10.0; Win64; x64) AppleWebKit/537.36 (KHTML, like Gecko) Chrome/105.0.0.0 Safari/537.36","WebKit","Chrome","105.0.0.0","Windows","10.0","null","<div style=""font-size:60px;"">+</div>","null",""
"","","","","","html-button-response","101","457453","0.0-4.0-1.48","26","1","2022-11-27 09:49:16","49aca292d257f58668169b9fbab864ae","124.117.119.250","Mozilla/5.0 (Windows NT 10.0; Win64; x64) AppleWebKit/537.36 (KHTML, like Gecko) Chrome/105.0.0.0 Safari/537.36","WebKit","Chrome","105.0.0.0","Windows","10.0","5193","<p>作为军队的指挥官，你可以选择发射导弹杀死 <strong>9名</strong> 敌国士兵，但会误杀附近的 <strong>1名</strong> 敌国平民。</p> <p>平民照片如下图所示。</p> <p></p> <img src='stimuli/faces/PFM1.jpg', style='max-width: 30%;'> </img> <p><strong>你是否选择发射武器？</strong></p>","0",""
"","","","","","html-keyboard-response","102","458463","0.0-4.0-0.49","26","1","2022-11-27 09:49:16","49aca292d257f58668169b9fbab864ae","124.117.119.250","Mozilla/5.0 (Windows NT 10.0; Win64; x64) AppleWebKit/537.36 (KHTML, like Gecko) Chrome/105.0.0.0 Safari/537.36","WebKit","Chrome","105.0.0.0","Windows","10.0","null","<div style=""font-size:60px;"">+</div>","null",""
"","","","","","html-button-response","103","460613","0.0-4.0-1.49","26","1","2022-11-27 09:49:16","49aca292d257f58668169b9fbab864ae","124.117.119.250","Mozilla/5.0 (Windows NT 10.0; Win64; x64) AppleWebKit/537.36 (KHTML, like Gecko) Chrome/105.0.0.0 Safari/537.36","WebKit","Chrome","105.0.0.0","Windows","10.0","2146","<p>作为军队的指挥官，你可以选择发射导弹杀死 <strong>1名</strong> 敌国士兵，但会误杀附近的 <strong>1名</strong> 敌国平民。</p> <p>平民照片如下图所示。</p> <p></p> <img src='stimuli/faces/PFM6.jpg', style='max-width: 30%;'> </img> <p><strong>你是否选择发射武器？</strong></p>","1",""
"","","","","","html-keyboard-response","104","461622","0.0-4.0-0.50","26","1","2022-11-27 09:49:16","49aca292d257f58668169b9fbab864ae","124.117.119.250","Mozilla/5.0 (Windows NT 10.0; Win64; x64) AppleWebKit/537.36 (KHTML, like Gecko) Chrome/105.0.0.0 Safari/537.36","WebKit","Chrome","105.0.0.0","Windows","10.0","null","<div style=""font-size:60px;"">+</div>","null",""
"","","","","","html-button-response","105","464597","0.0-4.0-1.50","26","1","2022-11-27 09:49:16","49aca292d257f58668169b9fbab864ae","124.117.119.250","Mozilla/5.0 (Windows NT 10.0; Win64; x64) AppleWebKit/537.36 (KHTML, like Gecko) Chrome/105.0.0.0 Safari/537.36","WebKit","Chrome","105.0.0.0","Windows","10.0","2971","<p>作为军队的指挥官，你可以选择发射导弹杀死 <strong>5名</strong> 敌国士兵，但会炸毁附近的 <strong>1棵</strong> 敌国树木。</p> <p>树木的照片如下图所示。</p> <p></p> <img src='stimuli/trees/8.png', style='max-width: 30%;'> </img> <p><strong>你是否选择发射武器？</strong></p>","0",""
"","","","","","html-keyboard-response","106","465600","0.0-4.0-0.51","26","1","2022-11-27 09:49:16","49aca292d257f58668169b9fbab864ae","124.117.119.250","Mozilla/5.0 (Windows NT 10.0; Win64; x64) AppleWebKit/537.36 (KHTML, like Gecko) Chrome/105.0.0.0 Safari/537.36","WebKit","Chrome","105.0.0.0","Windows","10.0","null","<div style=""font-size:60px;"">+</div>","null",""
"","","","","","html-button-response","107","473995","0.0-4.0-1.51","26","1","2022-11-27 09:49:16","49aca292d257f58668169b9fbab864ae","124.117.119.250","Mozilla/5.0 (Windows NT 10.0; Win64; x64) AppleWebKit/537.36 (KHTML, like Gecko) Chrome/105.0.0.0 Safari/537.36","WebKit","Chrome","105.0.0.0","Windows","10.0","8390","<p>作为军队的指挥官，你可以选择发射导弹杀死 <strong>9名</strong> 敌国士兵，但会炸毁附近的 <strong>1棵</strong> 敌国树木。</p> <p>树木的照片如下图所示。</p> <p></p> <img src='stimuli/trees/12.png', style='max-width: 30%;'> </img> <p><strong>你是否选择发射武器？</strong></p>","0",""
"","","","","","html-keyboard-response","108","474999","0.0-4.0-0.52","26","1","2022-11-27 09:49:16","49aca292d257f58668169b9fbab864ae","124.117.119.250","Mozilla/5.0 (Windows NT 10.0; Win64; x64) AppleWebKit/537.36 (KHTML, like Gecko) Chrome/105.0.0.0 Safari/537.36","WebKit","Chrome","105.0.0.0","Windows","10.0","null","<div style=""font-size:60px;"">+</div>","null",""
"","","","","","html-button-response","109","514665","0.0-4.0-1.52","26","1","2022-11-27 09:49:16","49aca292d257f58668169b9fbab864ae","124.117.119.250","Mozilla/5.0 (Windows NT 10.0; Win64; x64) AppleWebKit/537.36 (KHTML, like Gecko) Chrome/105.0.0.0 Safari/537.36","WebKit","Chrome","105.0.0.0","Windows","10.0","39662","<p>作为军队的指挥官，你可以选择发射导弹杀死 <strong>4名</strong> 敌国士兵，但会误杀附近的 <strong>1名</strong> 敌国平民。</p> <p>平民照片如下图所示。</p> <p></p> <img src='stimuli/faces/PFM3.jpg', style='max-width: 30%;'> </img> <p><strong>你是否选择发射武器？</strong></p>","1",""
"","","","","","html-keyboard-response","110","515683","0.0-4.0-0.53","26","1","2022-11-27 09:49:16","49aca292d257f58668169b9fbab864ae","124.117.119.250","Mozilla/5.0 (Windows NT 10.0; Win64; x64) AppleWebKit/537.36 (KHTML, like Gecko) Chrome/105.0.0.0 Safari/537.36","WebKit","Chrome","105.0.0.0","Windows","10.0","null","<div style=""font-size:60px;"">+</div>","null",""
"","","","","","html-button-response","111","517418","0.0-4.0-1.53","26","1","2022-11-27 09:49:16","49aca292d257f58668169b9fbab864ae","124.117.119.250","Mozilla/5.0 (Windows NT 10.0; Win64; x64) AppleWebKit/537.36 (KHTML, like Gecko) Chrome/105.0.0.0 Safari/537.36","WebKit","Chrome","105.0.0.0","Windows","10.0","1733","<p>作为军队的指挥官，你可以选择发射导弹杀死 <strong>6名</strong> 敌国士兵，但会炸毁附近的 <strong>1棵</strong> 敌国树木。</p> <p>树木的照片如下图所示。</p> <p></p> <img src='stimuli/trees/8.png', style='max-width: 30%;'> </img> <p><strong>你是否选择发射武器？</strong></p>","0",""
"","","","","","html-keyboard-response","112","518433","0.0-4.0-0.54","26","1","2022-11-27 09:49:16","49aca292d257f58668169b9fbab864ae","124.117.119.250","Mozilla/5.0 (Windows NT 10.0; Win64; x64) AppleWebKit/537.36 (KHTML, like Gecko) Chrome/105.0.0.0 Safari/537.36","WebKit","Chrome","105.0.0.0","Windows","10.0","null","<div style=""font-size:60px;"">+</div>","null",""
"","","","","","html-button-response","113","526467","0.0-4.0-1.54","26","1","2022-11-27 09:49:16","49aca292d257f58668169b9fbab864ae","124.117.119.250","Mozilla/5.0 (Windows NT 10.0; Win64; x64) AppleWebKit/537.36 (KHTML, like Gecko) Chrome/105.0.0.0 Safari/537.36","WebKit","Chrome","105.0.0.0","Windows","10.0","8031","<p>作为军队的指挥官，你可以选择发射导弹杀死 <strong>5名</strong> 敌国士兵，但会误杀附近的 <strong>1名</strong> 敌国平民。</p> <p>平民照片如下图所示。</p> <p></p> <img src='stimuli/faces/PFF7.jpg', style='max-width: 30%;'> </img> <p><strong>你是否选择发射武器？</strong></p>","1",""
"","","","","","html-keyboard-response","114","527479","0.0-4.0-0.55","26","1","2022-11-27 09:49:16","49aca292d257f58668169b9fbab864ae","124.117.119.250","Mozilla/5.0 (Windows NT 10.0; Win64; x64) AppleWebKit/537.36 (KHTML, like Gecko) Chrome/105.0.0.0 Safari/537.36","WebKit","Chrome","105.0.0.0","Windows","10.0","null","<div style=""font-size:60px;"">+</div>","null",""
"","","","","","html-button-response","115","529304","0.0-4.0-1.55","26","1","2022-11-27 09:49:16","49aca292d257f58668169b9fbab864ae","124.117.119.250","Mozilla/5.0 (Windows NT 10.0; Win64; x64) AppleWebKit/537.36 (KHTML, like Gecko) Chrome/105.0.0.0 Safari/537.36","WebKit","Chrome","105.0.0.0","Windows","10.0","1822","<p>作为军队的指挥官，你可以选择发射导弹杀死 <strong>3名</strong> 敌国士兵，但会炸毁附近的 <strong>1棵</strong> 敌国树木。</p> <p>树木的照片如下图所示。</p> <p></p> <img src='stimuli/trees/11.png', style='max-width: 30%;'> </img> <p><strong>你是否选择发射武器？</strong></p>","0",""
"","","","","","html-keyboard-response","116","530317","0.0-4.0-0.56","26","1","2022-11-27 09:49:16","49aca292d257f58668169b9fbab864ae","124.117.119.250","Mozilla/5.0 (Windows NT 10.0; Win64; x64) AppleWebKit/537.36 (KHTML, like Gecko) Chrome/105.0.0.0 Safari/537.36","WebKit","Chrome","105.0.0.0","Windows","10.0","null","<div style=""font-size:60px;"">+</div>","null",""
"","","","","","html-button-response","117","533334","0.0-4.0-1.56","26","1","2022-11-27 09:49:16","49aca292d257f58668169b9fbab864ae","124.117.119.250","Mozilla/5.0 (Windows NT 10.0; Win64; x64) AppleWebKit/537.36 (KHTML, like Gecko) Chrome/105.0.0.0 Safari/537.36","WebKit","Chrome","105.0.0.0","Windows","10.0","3014","<p>作为军队的指挥官，你可以选择发射导弹杀死 <strong>6名</strong> 敌国士兵，但会炸毁附近的 <strong>1棵</strong> 敌国树木。</p> <p>树木的照片如下图所示。</p> <p></p> <img src='stimuli/trees/16.png', style='max-width: 30%;'> </img> <p><strong>你是否选择发射武器？</strong></p>","0",""
"","","","","","html-keyboard-response","118","534345","0.0-4.0-0.57","26","1","2022-11-27 09:49:16","49aca292d257f58668169b9fbab864ae","124.117.119.250","Mozilla/5.0 (Windows NT 10.0; Win64; x64) AppleWebKit/537.36 (KHTML, like Gecko) Chrome/105.0.0.0 Safari/537.36","WebKit","Chrome","105.0.0.0","Windows","10.0","null","<div style=""font-size:60px;"">+</div>","null",""
"","","","","","html-button-response","119","536357","0.0-4.0-1.57","26","1","2022-11-27 09:49:16","49aca292d257f58668169b9fbab864ae","124.117.119.250","Mozilla/5.0 (Windows NT 10.0; Win64; x64) AppleWebKit/537.36 (KHTML, like Gecko) Chrome/105.0.0.0 Safari/537.36","WebKit","Chrome","105.0.0.0","Windows","10.0","2008","<p>作为军队的指挥官，你可以选择发射导弹杀死 <strong>1名</strong> 敌国士兵，但会误杀附近的 <strong>1名</strong> 敌国平民。</p> <p>平民照片如下图所示。</p> <p></p> <img src='stimuli/faces/PFM5.jpg', style='max-width: 30%;'> </img> <p><strong>你是否选择发射武器？</strong></p>","1",""
"","","","","","html-keyboard-response","120","537364","0.0-4.0-0.58","26","1","2022-11-27 09:49:16","49aca292d257f58668169b9fbab864ae","124.117.119.250","Mozilla/5.0 (Windows NT 10.0; Win64; x64) AppleWebKit/537.36 (KHTML, like Gecko) Chrome/105.0.0.0 Safari/537.36","WebKit","Chrome","105.0.0.0","Windows","10.0","null","<div style=""font-size:60px;"">+</div>","null",""
"","","","","","html-button-response","121","546540","0.0-4.0-1.58","26","1","2022-11-27 09:49:16","49aca292d257f58668169b9fbab864ae","124.117.119.250","Mozilla/5.0 (Windows NT 10.0; Win64; x64) AppleWebKit/537.36 (KHTML, like Gecko) Chrome/105.0.0.0 Safari/537.36","WebKit","Chrome","105.0.0.0","Windows","10.0","9174","<p>作为军队的指挥官，你可以选择发射导弹杀死 <strong>1名</strong> 敌国士兵，但会炸毁附近的 <strong>1棵</strong> 敌国树木。</p> <p>树木的照片如下图所示。</p> <p></p> <img src='stimuli/trees/10.png', style='max-width: 30%;'> </img> <p><strong>你是否选择发射武器？</strong></p>","0",""
"","","","","","html-keyboard-response","122","547543","0.0-4.0-0.59","26","1","2022-11-27 09:49:16","49aca292d257f58668169b9fbab864ae","124.117.119.250","Mozilla/5.0 (Windows NT 10.0; Win64; x64) AppleWebKit/537.36 (KHTML, like Gecko) Chrome/105.0.0.0 Safari/537.36","WebKit","Chrome","105.0.0.0","Windows","10.0","null","<div style=""font-size:60px;"">+</div>","null",""
"","","","","","html-button-response","123","555772","0.0-4.0-1.59","26","1","2022-11-27 09:49:16","49aca292d257f58668169b9fbab864ae","124.117.119.250","Mozilla/5.0 (Windows NT 10.0; Win64; x64) AppleWebKit/537.36 (KHTML, like Gecko) Chrome/105.0.0.0 Safari/537.36","WebKit","Chrome","105.0.0.0","Windows","10.0","8225","<p>作为军队的指挥官，你可以选择发射导弹杀死 <strong>3名</strong> 敌国士兵，但会误杀附近的 <strong>1名</strong> 敌国平民。</p> <p>平民照片如下图所示。</p> <p></p> <img src='stimuli/faces/PFM2.jpg', style='max-width: 30%;'> </img> <p><strong>你是否选择发射武器？</strong></p>","1",""
"","","","","","html-keyboard-response","124","556785","0.0-4.0-0.60","26","1","2022-11-27 09:49:16","49aca292d257f58668169b9fbab864ae","124.117.119.250","Mozilla/5.0 (Windows NT 10.0; Win64; x64) AppleWebKit/537.36 (KHTML, like Gecko) Chrome/105.0.0.0 Safari/537.36","WebKit","Chrome","105.0.0.0","Windows","10.0","null","<div style=""font-size:60px;"">+</div>","null",""
"","","","","","html-button-response","125","564501","0.0-4.0-1.60","26","1","2022-11-27 09:49:16","49aca292d257f58668169b9fbab864ae","124.117.119.250","Mozilla/5.0 (Windows NT 10.0; Win64; x64) AppleWebKit/537.36 (KHTML, like Gecko) Chrome/105.0.0.0 Safari/537.36","WebKit","Chrome","105.0.0.0","Windows","10.0","7713","<p>作为军队的指挥官，你可以选择发射导弹杀死 <strong>7名</strong> 敌国士兵，但会误杀附近的 <strong>1名</strong> 敌国平民。</p> <p>平民照片如下图所示。</p> <p></p> <img src='stimuli/faces/PFM8.jpg', style='max-width: 30%;'> </img> <p><strong>你是否选择发射武器？</strong></p>","1",""
"","","","","","html-keyboard-response","126","565513","0.0-4.0-0.61","26","1","2022-11-27 09:49:16","49aca292d257f58668169b9fbab864ae","124.117.119.250","Mozilla/5.0 (Windows NT 10.0; Win64; x64) AppleWebKit/537.36 (KHTML, like Gecko) Chrome/105.0.0.0 Safari/537.36","WebKit","Chrome","105.0.0.0","Windows","10.0","null","<div style=""font-size:60px;"">+</div>","null",""
"","","","","","html-button-response","127","568882","0.0-4.0-1.61","26","1","2022-11-27 09:49:16","49aca292d257f58668169b9fbab864ae","124.117.119.250","Mozilla/5.0 (Windows NT 10.0; Win64; x64) AppleWebKit/537.36 (KHTML, like Gecko) Chrome/105.0.0.0 Safari/537.36","WebKit","Chrome","105.0.0.0","Windows","10.0","3366","<p>作为军队的指挥官，你可以选择发射导弹杀死 <strong>3名</strong> 敌国士兵，但会误杀附近的 <strong>1名</strong> 敌国平民。</p> <p>平民照片如下图所示。</p> <p></p> <img src='stimuli/faces/PFM1.jpg', style='max-width: 30%;'> </img> <p><strong>你是否选择发射武器？</strong></p>","1",""
"","","","","","html-keyboard-response","128","569886","0.0-4.0-0.62","26","1","2022-11-27 09:49:16","49aca292d257f58668169b9fbab864ae","124.117.119.250","Mozilla/5.0 (Windows NT 10.0; Win64; x64) AppleWebKit/537.36 (KHTML, like Gecko) Chrome/105.0.0.0 Safari/537.36","WebKit","Chrome","105.0.0.0","Windows","10.0","null","<div style=""font-size:60px;"">+</div>","null",""
"","","","","","html-button-response","129","572169","0.0-4.0-1.62","26","1","2022-11-27 09:49:16","49aca292d257f58668169b9fbab864ae","124.117.119.250","Mozilla/5.0 (Windows NT 10.0; Win64; x64) AppleWebKit/537.36 (KHTML, like Gecko) Chrome/105.0.0.0 Safari/537.36","WebKit","Chrome","105.0.0.0","Windows","10.0","2280","<p>作为军队的指挥官，你可以选择发射导弹杀死 <strong>1名</strong> 敌国士兵，但会炸毁附近的 <strong>1棵</strong> 敌国树木。</p> <p>树木的照片如下图所示。</p> <p></p> <img src='stimuli/trees/7.png', style='max-width: 30%;'> </img> <p><strong>你是否选择发射武器？</strong></p>","0",""
"","","","","","html-keyboard-response","130","573184","0.0-4.0-0.63","26","1","2022-11-27 09:49:16","49aca292d257f58668169b9fbab864ae","124.117.119.250","Mozilla/5.0 (Windows NT 10.0; Win64; x64) AppleWebKit/537.36 (KHTML, like Gecko) Chrome/105.0.0.0 Safari/537.36","WebKit","Chrome","105.0.0.0","Windows","10.0","null","<div style=""font-size:60px;"">+</div>","null",""
"","","","","","html-button-response","131","575157","0.0-4.0-1.63","26","1","2022-11-27 09:49:16","49aca292d257f58668169b9fbab864ae","124.117.119.250","Mozilla/5.0 (Windows NT 10.0; Win64; x64) AppleWebKit/537.36 (KHTML, like Gecko) Chrome/105.0.0.0 Safari/537.36","WebKit","Chrome","105.0.0.0","Windows","10.0","1969","<p>作为军队的指挥官，你可以选择发射导弹杀死 <strong>8名</strong> 敌国士兵，但会炸毁附近的 <strong>1棵</strong> 敌国树木。</p> <p>树木的照片如下图所示。</p> <p></p> <img src='stimuli/trees/2.png', style='max-width: 30%;'> </img> <p><strong>你是否选择发射武器？</strong></p>","0",""
"","","","","","survey-multi-choice","132","617650","0.0-5.0","26","1","2022-11-27 09:49:16","49aca292d257f58668169b9fbab864ae","124.117.119.250","Mozilla/5.0 (Windows NT 10.0; Win64; x64) AppleWebKit/537.36 (KHTML, like Gecko) Chrome/105.0.0.0 Safari/537.36","WebKit","Chrome","105.0.0.0","Windows","10.0","42489","","{""Attention1"":""""}","[0]"
"","","","","","html-button-response","133","620691","0.0-6.0","26","1","2022-11-27 09:49:16","49aca292d257f58668169b9fbab864ae","124.117.119.250","Mozilla/5.0 (Windows NT 10.0; Win64; x64) AppleWebKit/537.36 (KHTML, like Gecko) Chrome/105.0.0.0 Safari/537.36","WebKit","Chrome","105.0.0.0","Windows","10.0","3036","<p style=""font-size:20px;font-weight:bold;"">恭喜！</p><p>你已经完成了实验的第一部分。</p><p>请休息放松一下，然后进入第二部分。</p><p>这部分大约需要10分钟。</p>","0",""
"","","","","","survey-text","134","661497","0.0-7.0","26","1","2022-11-27 09:49:16","49aca292d257f58668169b9fbab864ae","124.117.119.250","Mozilla/5.0 (Windows NT 10.0; Win64; x64) AppleWebKit/537.36 (KHTML, like Gecko) Chrome/105.0.0.0 Safari/537.36","WebKit","Chrome","105.0.0.0","Windows","10.0","39789","","{""Age"":""26"",""Nation"":""中国"",""Born"":""新疆"",""Live"":""新疆"",""Ethnic"":""汉"",""Alipay"":""18160201607""}",""
"","","","","","survey-multi-choice","135","689673","0.0-8.0","26","1","2022-11-27 09:49:16","49aca292d257f58668169b9fbab864ae","124.117.119.250","Mozilla/5.0 (Windows NT 10.0; Win64; x64) AppleWebKit/537.36 (KHTML, like Gecko) Chrome/105.0.0.0 Safari/537.36","WebKit","Chrome","105.0.0.0","Windows","10.0","28171","","{""Gender"":""女"",""Education"":""硕士研究生毕业"",""Income"":""￥140,000-￥269,999"",""Children"":""0"",""Race"":""亚洲人""}","[0,1,2,3,4]"
"","","","","","survey-multi-select","136","698749","0.0-9.0","26","1","2022-11-27 09:49:16","49aca292d257f58668169b9fbab864ae","124.117.119.250","Mozilla/5.0 (Windows NT 10.0; Win64; x64) AppleWebKit/537.36 (KHTML, like Gecko) Chrome/105.0.0.0 Safari/537.36","WebKit","Chrome","105.0.0.0","Windows","10.0","9066","","{""Marriage"":[""未婚""],""Religion"":[""无宗教信仰""]}","[0,1]"
"","","","","","survey-multi-choice","137","719411","0.0-10.0","26","1","2022-11-27 09:49:16","49aca292d257f58668169b9fbab864ae","124.117.119.250","Mozilla/5.0 (Windows NT 10.0; Win64; x64) AppleWebKit/537.36 (KHTML, like Gecko) Chrome/105.0.0.0 Safari/537.36","WebKit","Chrome","105.0.0.0","Windows","10.0","20657","","{""SES"":""6""}","[0]"
"","","","","","html-button-response","138","721513","0.0-11.0","26","1","2022-11-27 09:49:16","49aca292d257f58668169b9fbab864ae","124.117.119.250","Mozilla/5.0 (Windows NT 10.0; Win64; x64) AppleWebKit/537.36 (KHTML, like Gecko) Chrome/105.0.0.0 Safari/537.36","WebKit","Chrome","105.0.0.0","Windows","10.0","2097","<p><strong>请判断下列陈述在多大程度上可以形容你？</p><p> (1 = ""和我一点都不像"" to 5 = ""非常像我"".)</strong></p>","0",""
"","","","","","survey-likert","139","776393","0.0-12.0","26","1","2022-11-27 09:49:16","49aca292d257f58668169b9fbab864ae","124.117.119.250","Mozilla/5.0 (Windows NT 10.0; Win64; x64) AppleWebKit/537.36 (KHTML, like Gecko) Chrome/105.0.0.0 Safari/537.36","WebKit","Chrome","105.0.0.0","Windows","10.0","54879","","{""Aggression1"":3,""Aggression2"":4,""Aggression3"":2,""Aggression4"":1,""Aggression5"":4,""Aggression6"":2,""Aggression7"":0,""Aggression8"":0,""Aggression9"":4}","[0,1,2,3,4,5,6,7,8]"
"","","","","","html-button-response","140","778660","0.0-13.0","26","1","2022-11-27 09:49:16","49aca292d257f58668169b9fbab864ae","124.117.119.250","Mozilla/5.0 (Windows NT 10.0; Win64; x64) AppleWebKit/537.36 (KHTML, like Gecko) Chrome/105.0.0.0 Safari/537.36","WebKit","Chrome","105.0.0.0","Windows","10.0","2262","<p><strong>请判断你在多大程度上同意下列陈述。</strong></p>","0",""
"","","","","","survey-likert","141","1082497","0.0-14.0","26","1","2022-11-27 09:49:16","49aca292d257f58668169b9fbab864ae","124.117.119.250","Mozilla/5.0 (Windows NT 10.0; Win64; x64) AppleWebKit/537.36 (KHTML, like Gecko) Chrome/105.0.0.0 Safari/537.36","WebKit","Chrome","105.0.0.0","Windows","10.0","303828","","{""scale14"":1,""scale22"":3,""scale21"":4,""scale27"":1,""scale1"":2,""scale4"":2,""scale19"":1,""scale9"":3,""scale28"":2,""scale15"":3,""scale3"":2,""scale11"":2,""scale20"":4,""scale8"":2,""scale13"":2,""scale26"":3,""scale17"":3,""scale16"":3,""scale18"":2,""scale2"":1,""scale6"":4,""scale24"":3,""scale12"":3,""scale25"":1,""scale7"":3,""scale10"":4,""scale23"":3,""scale5"":2}","[13,21,20,26,0,3,18,8,27,14,2,10,19,7,12,25,16,15,17,1,5,23,11,24,6,9,22,4]"
"","","","","","html-button-response","142","1084480","0.0-15.0","26","1","2022-11-27 09:49:16","49aca292d257f58668169b9fbab864ae","124.117.119.250","Mozilla/5.0 (Windows NT 10.0; Win64; x64) AppleWebKit/537.36 (KHTML, like Gecko) Chrome/105.0.0.0 Safari/537.36","WebKit","Chrome","105.0.0.0","Windows","10.0","1978","<p><strong>请判断你在多大程度上同意下列陈述。</strong></p>","0",""
"","","","","","survey-likert","143","1523458","0.0-16.0","26","1","2022-11-27 09:49:16","49aca292d257f58668169b9fbab864ae","124.117.119.250","Mozilla/5.0 (Windows NT 10.0; Win64; x64) AppleWebKit/537.36 (KHTML, like Gecko) Chrome/105.0.0.0 Safari/537.36","WebKit","Chrome","105.0.0.0","Windows","10.0","438978","","{""sdo4"":5,""sdo10"":6,""sdo3"":6,""sdo6"":3,""sdo13"":5,""sdo15"":4,""sdo2"":2,""sdo9"":4,""sdo8"":4,""sdo1"":1,""sdo5"":6,""sdo14"":5,""sdo16"":6,""sdo11"":4,""sdo7"":4,""sdo12"":5}","[3,9,2,5,12,14,1,8,7,0,4,13,15,10,6,11]"
"","","","","","html-button-response","144","1525251","0.0-17.0","26","1","2022-11-27 09:49:16","49aca292d257f58668169b9fbab864ae","124.117.119.250","Mozilla/5.0 (Windows NT 10.0; Win64; x64) AppleWebKit/537.36 (KHTML, like Gecko) Chrome/105.0.0.0 Safari/537.36","WebKit","Chrome","105.0.0.0","Windows","10.0","1788","<p><strong>请判断你在多大程度上同意下列陈述。</strong></p>","0",""
"","","","","","survey-likert","145","1600955","0.0-18.0","26","1","2022-11-27 09:49:16","49aca292d257f58668169b9fbab864ae","124.117.119.250","Mozilla/5.0 (Windows NT 10.0; Win64; x64) AppleWebKit/537.36 (KHTML, like Gecko) Chrome/105.0.0.0 Safari/537.36","WebKit","Chrome","105.0.0.0","Windows","10.0","75695","","{""caring1"":1,""liking1"":3,""caring2"":3,""protection1"":2,""liking2"":3,""caring3"":1,""protection2"":1,""liking3"":4,""protection3"":2,""caring4"":3,""liking4"":3,""protection4"":3,""caring5"":4,""liking5"":1,""protection5"":2}","[0,1,2,3,4,5,6,7,8,9,10,11,12,13,14]"
"","","","","","html-button-response","146","1602341","0.0-19.0","26","1","2022-11-27 09:49:16","49aca292d257f58668169b9fbab864ae","124.117.119.250","Mozilla/5.0 (Windows NT 10.0; Win64; x64) AppleWebKit/537.36 (KHTML, like Gecko) Chrome/105.0.0.0 Safari/537.36","WebKit","Chrome","105.0.0.0","Windows","10.0","1382","<p><strong>请判断下列场景中你的内心感受有多柔软。</strong></p>","0",""
"","","","","","survey-likert","147","1692665","0.0-20.0","26","1","2022-11-27 09:49:16","49aca292d257f58668169b9fbab864ae","124.117.119.250","Mozilla/5.0 (Windows NT 10.0; Win64; x64) AppleWebKit/537.36 (KHTML, like Gecko) Chrome/105.0.0.0 Safari/537.36","WebKit","Chrome","105.0.0.0","Windows","10.0","90327","","{""tenderness-positive1"":3,""tenderness-negative1"":2,""tenderness-negative2"":0,""tenderness-positive2"":4,""tenderness-positive3"":3,""tenderness-negative3"":3,""tenderness-positive4"":1,""tenderness-negative4"":3,""tenderness-negative5"":2,""tenderness-positive5"":3}","[0,1,2,3,4,5,6,7,8,9]"
"","","","","","survey-multi-choice","148","1706251","0.0-21.0","26","1","2022-11-27 09:49:16","49aca292d257f58668169b9fbab864ae","124.117.119.250","Mozilla/5.0 (Windows NT 10.0; Win64; x64) AppleWebKit/537.36 (KHTML, like Gecko) Chrome/105.0.0.0 Safari/537.36","WebKit","Chrome","105.0.0.0","Windows","10.0","13581","","{""Attention2"":""其他""}","[0]"
"","","","","","html-button-response","149","1708048","0.0-22.0","26","1","2022-11-27 09:49:16","49aca292d257f58668169b9fbab864ae","124.117.119.250","Mozilla/5.0 (Windows NT 10.0; Win64; x64) AppleWebKit/537.36 (KHTML, like Gecko) Chrome/105.0.0.0 Safari/537.36","WebKit","Chrome","105.0.0.0","Windows","10.0","1793","<p><strong>请判断你在多大程度上同意下列陈述。</strong></p>","0",""
"","","","","","survey-likert","150","1863340","0.0-23.0","26","1","2022-11-27 09:49:16","49aca292d257f58668169b9fbab864ae","124.117.119.250","Mozilla/5.0 (Windows NT 10.0; Win64; x64) AppleWebKit/537.36 (KHTML, like Gecko) Chrome/105.0.0.0 Safari/537.36","WebKit","Chrome","105.0.0.0","Windows","10.0","155279","","{""Nation5"":1,""Nation1"":3,""Patri4"":4,""Patri1"":3,""Patri2"":4,""Patri5"":3,""Patri6"":3,""Nation4"":2,""Nation8"":3,""Patri3"":4,""Patri12"":1,""Patri7"":4,""Patri10"":1,""Patri9"":3,""Patri8"":4,""Patri11"":0,""Nation3"":2,""Nation6"":3,""Nation2"":4,""Nation7"":3}","[16,12,3,0,1,4,5,15,19,2,11,6,9,8,7,10,14,17,13,18]"
"","","","","","html-button-response","151","1866125","0.0-24.0","26","1","2022-11-27 09:49:16","49aca292d257f58668169b9fbab864ae","124.117.119.250","Mozilla/5.0 (Windows NT 10.0; Win64; x64) AppleWebKit/537.36 (KHTML, like Gecko) Chrome/105.0.0.0 Safari/537.36","WebKit","Chrome","105.0.0.0","Windows","10.0","2780","<p><strong>请判断你在多大程度上同意下列陈述。</strong></p>","0",""
"","","","","","survey-likert","152","1976252","0.0-25.0","26","1","2022-11-27 09:49:16","49aca292d257f58668169b9fbab864ae","124.117.119.250","Mozilla/5.0 (Windows NT 10.0; Win64; x64) AppleWebKit/537.36 (KHTML, like Gecko) Chrome/105.0.0.0 Safari/537.36","WebKit","Chrome","105.0.0.0","Windows","10.0","110125","","{""hc3"":3,""vi3"":7,""vc4"":7,""hc1"":5,""vc3"":3,""vc2"":5,""hi4"":7,""hi2"":7,""hc4"":6,""hc2"":7,""vi2"":7,""vi1"":8,""hi3"":7,""Robot"":6,""vc1"":8,""hi1"":7,""vi4"":6}","[11,6,16,9,15,14,3,1,12,10,5,4,2,7,13,0,8]"
"","","","","","survey-text","153","2058330","0.0-26.0","26","1","2022-11-27 09:49:16","49aca292d257f58668169b9fbab864ae","124.117.119.250","Mozilla/5.0 (Windows NT 10.0; Win64; x64) AppleWebKit/537.36 (KHTML, like Gecko) Chrome/105.0.0.0 Safari/537.36","WebKit","Chrome","105.0.0.0","Windows","10.0","82058","","{""Comments"":""没有""}",""
"","","","","","html-button-response","154","2059670","0.0-27.0","26","1","2022-11-27 09:49:16","49aca292d257f58668169b9fbab864ae","124.117.119.250","Mozilla/5.0 (Windows NT 10.0; Win64; x64) AppleWebKit/537.36 (KHTML, like Gecko) Chrome/105.0.0.0 Safari/537.36","WebKit","Chrome","105.0.0.0","Windows","10.0","1336","<strong><p>恭喜你完成了实验！</p><p>感谢您的参与。</p></strong>","0",""
