"success","timeout","failed_images","failed_audio","failed_video","trial_type","trial_index","time_elapsed","internal_node_id","run_id","condition","recorded_at","source_code_version","ip","user_agent","device","browser","browser_version","platform","platform_version","rt","stimulus","response","question_order"
"true","false","[]","[]","[]","preload","0","1479","0.0-0.0","36","1","2022-11-27 09:56:36","49aca292d257f58668169b9fbab864ae","115.60.187.40","Mozilla/5.0 (Linux; U; Android 11; zh-cn; M2006J10C Build/RP1A.200720.011) AppleWebKit/537.36 (KHTML, like Gecko) Version/4.0 Chrome/100.0.4896.127 Mobile Safari/537.36 XiaoMi/MiuiBrowser/17.1.8 swan-mibrowser","Xiaomi","Chrome","100.0.4896.127","AndroidOS","11","","","",""
"true","","","","","fullscreen","1","3834","0.0-1.0","36","1","2022-11-27 09:56:36","49aca292d257f58668169b9fbab864ae","115.60.187.40","Mozilla/5.0 (Linux; U; Android 11; zh-cn; M2006J10C Build/RP1A.200720.011) AppleWebKit/537.36 (KHTML, like Gecko) Version/4.0 Chrome/100.0.4896.127 Mobile Safari/537.36 XiaoMi/MiuiBrowser/17.1.8 swan-mibrowser","Xiaomi","Chrome","100.0.4896.127","AndroidOS","11","","","",""
"","","","","","html-button-response","2","8516","0.0-2.0","36","1","2022-11-27 09:56:36","49aca292d257f58668169b9fbab864ae","115.60.187.40","Mozilla/5.0 (Linux; U; Android 11; zh-cn; M2006J10C Build/RP1A.200720.011) AppleWebKit/537.36 (KHTML, like Gecko) Version/4.0 Chrome/100.0.4896.127 Mobile Safari/537.36 XiaoMi/MiuiBrowser/17.1.8 swan-mibrowser","Xiaomi","Chrome","100.0.4896.127","AndroidOS","11","4678","<p style=""font-size:20px;font-weight:bold;"">实验知情同意书</p><p style=""text-align:left;""><strong>实验名称：</strong>社会冲突研究</p><p style=""text-align:left;""><strong>主要研究者：</strong>韩晓春副教授（北京师范大学心理学部）</p><p style=""text-align:left;""><strong>联系方式：</strong>发送邮件至xiaochun.han@bnu.edu.cn</p><p style=""text-align:left;""><strong>研究目的：</strong>研究旨在了解人类面对群体冲突时的决策方式，以及相关的心理学特质。实验调查大约需要20分钟。</p><p style=""text-align:left;""><strong>实验流程：</strong>实验包含两部分。第一部分呈现一系列群体冲突场景，请你决定如何对这些冲突进行反应，大约需要10分钟完成。第二部分包含一系列人口统计学信息收集和心理学问卷，大约需要10分钟完成。</p><p style=""text-align:left;""><strong>参加及退出规则：</strong>参加本实验完全取决于您的个人意愿。在参与过程中，您可以随时退出，并且不用承担任何后果。</p><p style=""text-align:left;""><strong>隐私：</strong>本实验完全匿名进行，不会收集您的姓名或其他能够识别您身份的信息。实验中收集的作答仅用作科学研究使用，可能会在学术期刊/书籍上发表，或者用于教学，您的数据未来可能会和其他研究者或实验室分享，但您的个人身份不会被识别。</p><p style=""text-align:left;""><strong>实验报酬：</strong>实验完成后，您将获得15元人民币报酬，以感谢您的时间和努力。调查问卷中包含几道题目用以测验您作答时的认真度。只有完成全部实验，并且正确回答认真度测验的被试才能获得实验报酬。实验报酬将通过支付宝转账发放。</p><p style=""text-align:left;font-size:20px;""><strong>如果您同意以上实验知情同意书的内容，请点击'同意并且开始实验'按钮；否则请关闭浏览器界面，退出实验。</strong></p>","0",""
"","","","","","html-button-response","3","16897","0.0-3.0","36","1","2022-11-27 09:56:36","49aca292d257f58668169b9fbab864ae","115.60.187.40","Mozilla/5.0 (Linux; U; Android 11; zh-cn; M2006J10C Build/RP1A.200720.011) AppleWebKit/537.36 (KHTML, like Gecko) Version/4.0 Chrome/100.0.4896.127 Mobile Safari/537.36 XiaoMi/MiuiBrowser/17.1.8 swan-mibrowser","Xiaomi","Chrome","100.0.4896.127","AndroidOS","11","8376","<p ><strong>实验任务一：</strong></p><p>请想象你的国家与另一个国家发生了军事冲突。</p><p>你是国家军队的指挥官，你将如何在冲突中进行决策。</p><p>具体来说，作为军队指挥官，请你决定是否发射导弹进行打击。</p><p>接下来，你会面对一系列场景，请仔细阅读每个场景，然后进行决策。</p><p>这部分实验任务大约需要10分钟。</p><p><strong>实验过程中，请集中注意力。</strong></p>","0",""
"","","","","","html-keyboard-response","4","17902","0.0-4.0-0.0","36","1","2022-11-27 09:56:36","49aca292d257f58668169b9fbab864ae","115.60.187.40","Mozilla/5.0 (Linux; U; Android 11; zh-cn; M2006J10C Build/RP1A.200720.011) AppleWebKit/537.36 (KHTML, like Gecko) Version/4.0 Chrome/100.0.4896.127 Mobile Safari/537.36 XiaoMi/MiuiBrowser/17.1.8 swan-mibrowser","Xiaomi","Chrome","100.0.4896.127","AndroidOS","11","null","<div style=""font-size:60px;"">+</div>","null",""
"","","","","","html-button-response","5","22410","0.0-4.0-1.0","36","1","2022-11-27 09:56:36","49aca292d257f58668169b9fbab864ae","115.60.187.40","Mozilla/5.0 (Linux; U; Android 11; zh-cn; M2006J10C Build/RP1A.200720.011) AppleWebKit/537.36 (KHTML, like Gecko) Version/4.0 Chrome/100.0.4896.127 Mobile Safari/537.36 XiaoMi/MiuiBrowser/17.1.8 swan-mibrowser","Xiaomi","Chrome","100.0.4896.127","AndroidOS","11","4483","<p>作为军队的指挥官，你可以选择发射导弹杀死 <strong>7名</strong> 敌国士兵，但会炸毁附近的 <strong>1棵</strong> 敌国树木。</p> <p>树木的照片如下图所示。</p> <p></p> <img src='stimuli/trees/15.png', style='max-width: 30%;'> </img> <p><strong>你是否选择发射武器？</strong></p>","1",""
"","","","","","html-keyboard-response","6","23414","0.0-4.0-0.1","36","1","2022-11-27 09:56:36","49aca292d257f58668169b9fbab864ae","115.60.187.40","Mozilla/5.0 (Linux; U; Android 11; zh-cn; M2006J10C Build/RP1A.200720.011) AppleWebKit/537.36 (KHTML, like Gecko) Version/4.0 Chrome/100.0.4896.127 Mobile Safari/537.36 XiaoMi/MiuiBrowser/17.1.8 swan-mibrowser","Xiaomi","Chrome","100.0.4896.127","AndroidOS","11","null","<div style=""font-size:60px;"">+</div>","null",""
"","","","","","html-button-response","7","26350","0.0-4.0-1.1","36","1","2022-11-27 09:56:36","49aca292d257f58668169b9fbab864ae","115.60.187.40","Mozilla/5.0 (Linux; U; Android 11; zh-cn; M2006J10C Build/RP1A.200720.011) AppleWebKit/537.36 (KHTML, like Gecko) Version/4.0 Chrome/100.0.4896.127 Mobile Safari/537.36 XiaoMi/MiuiBrowser/17.1.8 swan-mibrowser","Xiaomi","Chrome","100.0.4896.127","AndroidOS","11","2926","<p>作为军队的指挥官，你可以选择发射导弹杀死 <strong>9名</strong> 敌国士兵，但会炸毁附近的 <strong>1棵</strong> 敌国树木。</p> <p>树木的照片如下图所示。</p> <p></p> <img src='stimuli/trees/2.png', style='max-width: 30%;'> </img> <p><strong>你是否选择发射武器？</strong></p>","1",""
"","","","","","html-keyboard-response","8","27355","0.0-4.0-0.2","36","1","2022-11-27 09:56:36","49aca292d257f58668169b9fbab864ae","115.60.187.40","Mozilla/5.0 (Linux; U; Android 11; zh-cn; M2006J10C Build/RP1A.200720.011) AppleWebKit/537.36 (KHTML, like Gecko) Version/4.0 Chrome/100.0.4896.127 Mobile Safari/537.36 XiaoMi/MiuiBrowser/17.1.8 swan-mibrowser","Xiaomi","Chrome","100.0.4896.127","AndroidOS","11","null","<div style=""font-size:60px;"">+</div>","null",""
"","","","","","html-button-response","9","30691","0.0-4.0-1.2","36","1","2022-11-27 09:56:36","49aca292d257f58668169b9fbab864ae","115.60.187.40","Mozilla/5.0 (Linux; U; Android 11; zh-cn; M2006J10C Build/RP1A.200720.011) AppleWebKit/537.36 (KHTML, like Gecko) Version/4.0 Chrome/100.0.4896.127 Mobile Safari/537.36 XiaoMi/MiuiBrowser/17.1.8 swan-mibrowser","Xiaomi","Chrome","100.0.4896.127","AndroidOS","11","3314","<p>作为军队的指挥官，你可以选择发射导弹杀死 <strong>6名</strong> 敌国士兵，但会误杀附近的 <strong>1名</strong> 敌国平民。</p> <p>平民照片如下图所示。</p> <p></p> <img src='stimuli/faces/PFM1.jpg', style='max-width: 30%;'> </img> <p><strong>你是否选择发射武器？</strong></p>","0",""
"","","","","","html-keyboard-response","10","31697","0.0-4.0-0.3","36","1","2022-11-27 09:56:36","49aca292d257f58668169b9fbab864ae","115.60.187.40","Mozilla/5.0 (Linux; U; Android 11; zh-cn; M2006J10C Build/RP1A.200720.011) AppleWebKit/537.36 (KHTML, like Gecko) Version/4.0 Chrome/100.0.4896.127 Mobile Safari/537.36 XiaoMi/MiuiBrowser/17.1.8 swan-mibrowser","Xiaomi","Chrome","100.0.4896.127","AndroidOS","11","null","<div style=""font-size:60px;"">+</div>","null",""
"","","","","","html-button-response","11","33303","0.0-4.0-1.3","36","1","2022-11-27 09:56:36","49aca292d257f58668169b9fbab864ae","115.60.187.40","Mozilla/5.0 (Linux; U; Android 11; zh-cn; M2006J10C Build/RP1A.200720.011) AppleWebKit/537.36 (KHTML, like Gecko) Version/4.0 Chrome/100.0.4896.127 Mobile Safari/537.36 XiaoMi/MiuiBrowser/17.1.8 swan-mibrowser","Xiaomi","Chrome","100.0.4896.127","AndroidOS","11","1596","<p>作为军队的指挥官，你可以选择发射导弹杀死 <strong>9名</strong> 敌国士兵，但会炸毁附近的 <strong>1棵</strong> 敌国树木。</p> <p>树木的照片如下图所示。</p> <p></p> <img src='stimuli/trees/10.png', style='max-width: 30%;'> </img> <p><strong>你是否选择发射武器？</strong></p>","0",""
"","","","","","html-keyboard-response","12","34308","0.0-4.0-0.4","36","1","2022-11-27 09:56:36","49aca292d257f58668169b9fbab864ae","115.60.187.40","Mozilla/5.0 (Linux; U; Android 11; zh-cn; M2006J10C Build/RP1A.200720.011) AppleWebKit/537.36 (KHTML, like Gecko) Version/4.0 Chrome/100.0.4896.127 Mobile Safari/537.36 XiaoMi/MiuiBrowser/17.1.8 swan-mibrowser","Xiaomi","Chrome","100.0.4896.127","AndroidOS","11","null","<div style=""font-size:60px;"">+</div>","null",""
"","","","","","html-button-response","13","35443","0.0-4.0-1.4","36","1","2022-11-27 09:56:36","49aca292d257f58668169b9fbab864ae","115.60.187.40","Mozilla/5.0 (Linux; U; Android 11; zh-cn; M2006J10C Build/RP1A.200720.011) AppleWebKit/537.36 (KHTML, like Gecko) Version/4.0 Chrome/100.0.4896.127 Mobile Safari/537.36 XiaoMi/MiuiBrowser/17.1.8 swan-mibrowser","Xiaomi","Chrome","100.0.4896.127","AndroidOS","11","1107","<p>作为军队的指挥官，你可以选择发射导弹杀死 <strong>9名</strong> 敌国士兵，但会误杀附近的 <strong>1名</strong> 敌国平民。</p> <p>平民照片如下图所示。</p> <p></p> <img src='stimuli/faces/PFM4.jpg', style='max-width: 30%;'> </img> <p><strong>你是否选择发射武器？</strong></p>","1",""
"","","","","","html-keyboard-response","14","36448","0.0-4.0-0.5","36","1","2022-11-27 09:56:36","49aca292d257f58668169b9fbab864ae","115.60.187.40","Mozilla/5.0 (Linux; U; Android 11; zh-cn; M2006J10C Build/RP1A.200720.011) AppleWebKit/537.36 (KHTML, like Gecko) Version/4.0 Chrome/100.0.4896.127 Mobile Safari/537.36 XiaoMi/MiuiBrowser/17.1.8 swan-mibrowser","Xiaomi","Chrome","100.0.4896.127","AndroidOS","11","null","<div style=""font-size:60px;"">+</div>","null",""
"","","","","","html-button-response","15","37515","0.0-4.0-1.5","36","1","2022-11-27 09:56:36","49aca292d257f58668169b9fbab864ae","115.60.187.40","Mozilla/5.0 (Linux; U; Android 11; zh-cn; M2006J10C Build/RP1A.200720.011) AppleWebKit/537.36 (KHTML, like Gecko) Version/4.0 Chrome/100.0.4896.127 Mobile Safari/537.36 XiaoMi/MiuiBrowser/17.1.8 swan-mibrowser","Xiaomi","Chrome","100.0.4896.127","AndroidOS","11","1055","<p>作为军队的指挥官，你可以选择发射导弹杀死 <strong>5名</strong> 敌国士兵，但会误杀附近的 <strong>1名</strong> 敌国平民。</p> <p>平民照片如下图所示。</p> <p></p> <img src='stimuli/faces/PFM8.jpg', style='max-width: 30%;'> </img> <p><strong>你是否选择发射武器？</strong></p>","1",""
"","","","","","html-keyboard-response","16","38521","0.0-4.0-0.6","36","1","2022-11-27 09:56:36","49aca292d257f58668169b9fbab864ae","115.60.187.40","Mozilla/5.0 (Linux; U; Android 11; zh-cn; M2006J10C Build/RP1A.200720.011) AppleWebKit/537.36 (KHTML, like Gecko) Version/4.0 Chrome/100.0.4896.127 Mobile Safari/537.36 XiaoMi/MiuiBrowser/17.1.8 swan-mibrowser","Xiaomi","Chrome","100.0.4896.127","AndroidOS","11","null","<div style=""font-size:60px;"">+</div>","null",""
"","","","","","html-button-response","17","39550","0.0-4.0-1.6","36","1","2022-11-27 09:56:36","49aca292d257f58668169b9fbab864ae","115.60.187.40","Mozilla/5.0 (Linux; U; Android 11; zh-cn; M2006J10C Build/RP1A.200720.011) AppleWebKit/537.36 (KHTML, like Gecko) Version/4.0 Chrome/100.0.4896.127 Mobile Safari/537.36 XiaoMi/MiuiBrowser/17.1.8 swan-mibrowser","Xiaomi","Chrome","100.0.4896.127","AndroidOS","11","1000","<p>作为军队的指挥官，你可以选择发射导弹杀死 <strong>1名</strong> 敌国士兵，但会炸毁附近的 <strong>1棵</strong> 敌国树木。</p> <p>树木的照片如下图所示。</p> <p></p> <img src='stimuli/trees/11.png', style='max-width: 30%;'> </img> <p><strong>你是否选择发射武器？</strong></p>","1",""
"","","","","","html-keyboard-response","18","40557","0.0-4.0-0.7","36","1","2022-11-27 09:56:36","49aca292d257f58668169b9fbab864ae","115.60.187.40","Mozilla/5.0 (Linux; U; Android 11; zh-cn; M2006J10C Build/RP1A.200720.011) AppleWebKit/537.36 (KHTML, like Gecko) Version/4.0 Chrome/100.0.4896.127 Mobile Safari/537.36 XiaoMi/MiuiBrowser/17.1.8 swan-mibrowser","Xiaomi","Chrome","100.0.4896.127","AndroidOS","11","null","<div style=""font-size:60px;"">+</div>","null",""
"","","","","","html-button-response","19","41592","0.0-4.0-1.7","36","1","2022-11-27 09:56:36","49aca292d257f58668169b9fbab864ae","115.60.187.40","Mozilla/5.0 (Linux; U; Android 11; zh-cn; M2006J10C Build/RP1A.200720.011) AppleWebKit/537.36 (KHTML, like Gecko) Version/4.0 Chrome/100.0.4896.127 Mobile Safari/537.36 XiaoMi/MiuiBrowser/17.1.8 swan-mibrowser","Xiaomi","Chrome","100.0.4896.127","AndroidOS","11","1024","<p>作为军队的指挥官，你可以选择发射导弹杀死 <strong>7名</strong> 敌国士兵，但会炸毁附近的 <strong>1棵</strong> 敌国树木。</p> <p>树木的照片如下图所示。</p> <p></p> <img src='stimuli/trees/5.png', style='max-width: 30%;'> </img> <p><strong>你是否选择发射武器？</strong></p>","1",""
"","","","","","html-keyboard-response","20","42598","0.0-4.0-0.8","36","1","2022-11-27 09:56:36","49aca292d257f58668169b9fbab864ae","115.60.187.40","Mozilla/5.0 (Linux; U; Android 11; zh-cn; M2006J10C Build/RP1A.200720.011) AppleWebKit/537.36 (KHTML, like Gecko) Version/4.0 Chrome/100.0.4896.127 Mobile Safari/537.36 XiaoMi/MiuiBrowser/17.1.8 swan-mibrowser","Xiaomi","Chrome","100.0.4896.127","AndroidOS","11","null","<div style=""font-size:60px;"">+</div>","null",""
"","","","","","html-button-response","21","43635","0.0-4.0-1.8","36","1","2022-11-27 09:56:36","49aca292d257f58668169b9fbab864ae","115.60.187.40","Mozilla/5.0 (Linux; U; Android 11; zh-cn; M2006J10C Build/RP1A.200720.011) AppleWebKit/537.36 (KHTML, like Gecko) Version/4.0 Chrome/100.0.4896.127 Mobile Safari/537.36 XiaoMi/MiuiBrowser/17.1.8 swan-mibrowser","Xiaomi","Chrome","100.0.4896.127","AndroidOS","11","1023","<p>作为军队的指挥官，你可以选择发射导弹杀死 <strong>10名</strong> 敌国士兵，但会炸毁附近的 <strong>1棵</strong> 敌国树木。</p> <p>树木的照片如下图所示。</p> <p></p> <img src='stimuli/trees/6.png', style='max-width: 30%;'> </img> <p><strong>你是否选择发射武器？</strong></p>","1",""
"","","","","","html-keyboard-response","22","44642","0.0-4.0-0.9","36","1","2022-11-27 09:56:36","49aca292d257f58668169b9fbab864ae","115.60.187.40","Mozilla/5.0 (Linux; U; Android 11; zh-cn; M2006J10C Build/RP1A.200720.011) AppleWebKit/537.36 (KHTML, like Gecko) Version/4.0 Chrome/100.0.4896.127 Mobile Safari/537.36 XiaoMi/MiuiBrowser/17.1.8 swan-mibrowser","Xiaomi","Chrome","100.0.4896.127","AndroidOS","11","null","<div style=""font-size:60px;"">+</div>","null",""
"","","","","","html-button-response","23","45797","0.0-4.0-1.9","36","1","2022-11-27 09:56:36","49aca292d257f58668169b9fbab864ae","115.60.187.40","Mozilla/5.0 (Linux; U; Android 11; zh-cn; M2006J10C Build/RP1A.200720.011) AppleWebKit/537.36 (KHTML, like Gecko) Version/4.0 Chrome/100.0.4896.127 Mobile Safari/537.36 XiaoMi/MiuiBrowser/17.1.8 swan-mibrowser","Xiaomi","Chrome","100.0.4896.127","AndroidOS","11","1128","<p>作为军队的指挥官，你可以选择发射导弹杀死 <strong>1名</strong> 敌国士兵，但会误杀附近的 <strong>1名</strong> 敌国平民。</p> <p>平民照片如下图所示。</p> <p></p> <img src='stimuli/faces/PFM6.jpg', style='max-width: 30%;'> </img> <p><strong>你是否选择发射武器？</strong></p>","1",""
"","","","","","html-keyboard-response","24","46806","0.0-4.0-0.10","36","1","2022-11-27 09:56:36","49aca292d257f58668169b9fbab864ae","115.60.187.40","Mozilla/5.0 (Linux; U; Android 11; zh-cn; M2006J10C Build/RP1A.200720.011) AppleWebKit/537.36 (KHTML, like Gecko) Version/4.0 Chrome/100.0.4896.127 Mobile Safari/537.36 XiaoMi/MiuiBrowser/17.1.8 swan-mibrowser","Xiaomi","Chrome","100.0.4896.127","AndroidOS","11","null","<div style=""font-size:60px;"">+</div>","null",""
"","","","","","html-button-response","25","47956","0.0-4.0-1.10","36","1","2022-11-27 09:56:36","49aca292d257f58668169b9fbab864ae","115.60.187.40","Mozilla/5.0 (Linux; U; Android 11; zh-cn; M2006J10C Build/RP1A.200720.011) AppleWebKit/537.36 (KHTML, like Gecko) Version/4.0 Chrome/100.0.4896.127 Mobile Safari/537.36 XiaoMi/MiuiBrowser/17.1.8 swan-mibrowser","Xiaomi","Chrome","100.0.4896.127","AndroidOS","11","1113","<p>作为军队的指挥官，你可以选择发射导弹杀死 <strong>6名</strong> 敌国士兵，但会炸毁附近的 <strong>1棵</strong> 敌国树木。</p> <p>树木的照片如下图所示。</p> <p></p> <img src='stimuli/trees/1.png', style='max-width: 30%;'> </img> <p><strong>你是否选择发射武器？</strong></p>","1",""
"","","","","","html-keyboard-response","26","48964","0.0-4.0-0.11","36","1","2022-11-27 09:56:36","49aca292d257f58668169b9fbab864ae","115.60.187.40","Mozilla/5.0 (Linux; U; Android 11; zh-cn; M2006J10C Build/RP1A.200720.011) AppleWebKit/537.36 (KHTML, like Gecko) Version/4.0 Chrome/100.0.4896.127 Mobile Safari/537.36 XiaoMi/MiuiBrowser/17.1.8 swan-mibrowser","Xiaomi","Chrome","100.0.4896.127","AndroidOS","11","null","<div style=""font-size:60px;"">+</div>","null",""
"","","","","","html-button-response","27","49882","0.0-4.0-1.11","36","1","2022-11-27 09:56:36","49aca292d257f58668169b9fbab864ae","115.60.187.40","Mozilla/5.0 (Linux; U; Android 11; zh-cn; M2006J10C Build/RP1A.200720.011) AppleWebKit/537.36 (KHTML, like Gecko) Version/4.0 Chrome/100.0.4896.127 Mobile Safari/537.36 XiaoMi/MiuiBrowser/17.1.8 swan-mibrowser","Xiaomi","Chrome","100.0.4896.127","AndroidOS","11","905","<p>作为军队的指挥官，你可以选择发射导弹杀死 <strong>8名</strong> 敌国士兵，但会炸毁附近的 <strong>1棵</strong> 敌国树木。</p> <p>树木的照片如下图所示。</p> <p></p> <img src='stimuli/trees/16.png', style='max-width: 30%;'> </img> <p><strong>你是否选择发射武器？</strong></p>","1",""
"","","","","","html-keyboard-response","28","50888","0.0-4.0-0.12","36","1","2022-11-27 09:56:36","49aca292d257f58668169b9fbab864ae","115.60.187.40","Mozilla/5.0 (Linux; U; Android 11; zh-cn; M2006J10C Build/RP1A.200720.011) AppleWebKit/537.36 (KHTML, like Gecko) Version/4.0 Chrome/100.0.4896.127 Mobile Safari/537.36 XiaoMi/MiuiBrowser/17.1.8 swan-mibrowser","Xiaomi","Chrome","100.0.4896.127","AndroidOS","11","null","<div style=""font-size:60px;"">+</div>","null",""
"","","","","","html-button-response","29","51762","0.0-4.0-1.12","36","1","2022-11-27 09:56:36","49aca292d257f58668169b9fbab864ae","115.60.187.40","Mozilla/5.0 (Linux; U; Android 11; zh-cn; M2006J10C Build/RP1A.200720.011) AppleWebKit/537.36 (KHTML, like Gecko) Version/4.0 Chrome/100.0.4896.127 Mobile Safari/537.36 XiaoMi/MiuiBrowser/17.1.8 swan-mibrowser","Xiaomi","Chrome","100.0.4896.127","AndroidOS","11","860","<p>作为军队的指挥官，你可以选择发射导弹杀死 <strong>10名</strong> 敌国士兵，但会炸毁附近的 <strong>1棵</strong> 敌国树木。</p> <p>树木的照片如下图所示。</p> <p></p> <img src='stimuli/trees/12.png', style='max-width: 30%;'> </img> <p><strong>你是否选择发射武器？</strong></p>","1",""
"","","","","","html-keyboard-response","30","52769","0.0-4.0-0.13","36","1","2022-11-27 09:56:36","49aca292d257f58668169b9fbab864ae","115.60.187.40","Mozilla/5.0 (Linux; U; Android 11; zh-cn; M2006J10C Build/RP1A.200720.011) AppleWebKit/537.36 (KHTML, like Gecko) Version/4.0 Chrome/100.0.4896.127 Mobile Safari/537.36 XiaoMi/MiuiBrowser/17.1.8 swan-mibrowser","Xiaomi","Chrome","100.0.4896.127","AndroidOS","11","null","<div style=""font-size:60px;"">+</div>","null",""
"","","","","","html-button-response","31","53696","0.0-4.0-1.13","36","1","2022-11-27 09:56:36","49aca292d257f58668169b9fbab864ae","115.60.187.40","Mozilla/5.0 (Linux; U; Android 11; zh-cn; M2006J10C Build/RP1A.200720.011) AppleWebKit/537.36 (KHTML, like Gecko) Version/4.0 Chrome/100.0.4896.127 Mobile Safari/537.36 XiaoMi/MiuiBrowser/17.1.8 swan-mibrowser","Xiaomi","Chrome","100.0.4896.127","AndroidOS","11","891","<p>作为军队的指挥官，你可以选择发射导弹杀死 <strong>4名</strong> 敌国士兵，但会炸毁附近的 <strong>1棵</strong> 敌国树木。</p> <p>树木的照片如下图所示。</p> <p></p> <img src='stimuli/trees/5.png', style='max-width: 30%;'> </img> <p><strong>你是否选择发射武器？</strong></p>","1",""
"","","","","","html-keyboard-response","32","54703","0.0-4.0-0.14","36","1","2022-11-27 09:56:36","49aca292d257f58668169b9fbab864ae","115.60.187.40","Mozilla/5.0 (Linux; U; Android 11; zh-cn; M2006J10C Build/RP1A.200720.011) AppleWebKit/537.36 (KHTML, like Gecko) Version/4.0 Chrome/100.0.4896.127 Mobile Safari/537.36 XiaoMi/MiuiBrowser/17.1.8 swan-mibrowser","Xiaomi","Chrome","100.0.4896.127","AndroidOS","11","null","<div style=""font-size:60px;"">+</div>","null",""
"","","","","","html-button-response","33","55764","0.0-4.0-1.14","36","1","2022-11-27 09:56:36","49aca292d257f58668169b9fbab864ae","115.60.187.40","Mozilla/5.0 (Linux; U; Android 11; zh-cn; M2006J10C Build/RP1A.200720.011) AppleWebKit/537.36 (KHTML, like Gecko) Version/4.0 Chrome/100.0.4896.127 Mobile Safari/537.36 XiaoMi/MiuiBrowser/17.1.8 swan-mibrowser","Xiaomi","Chrome","100.0.4896.127","AndroidOS","11","1022","<p>作为军队的指挥官，你可以选择发射导弹杀死 <strong>8名</strong> 敌国士兵，但会误杀附近的 <strong>1名</strong> 敌国平民。</p> <p>平民照片如下图所示。</p> <p></p> <img src='stimuli/faces/PFM5.jpg', style='max-width: 30%;'> </img> <p><strong>你是否选择发射武器？</strong></p>","1",""
"","","","","","html-keyboard-response","34","56771","0.0-4.0-0.15","36","1","2022-11-27 09:56:36","49aca292d257f58668169b9fbab864ae","115.60.187.40","Mozilla/5.0 (Linux; U; Android 11; zh-cn; M2006J10C Build/RP1A.200720.011) AppleWebKit/537.36 (KHTML, like Gecko) Version/4.0 Chrome/100.0.4896.127 Mobile Safari/537.36 XiaoMi/MiuiBrowser/17.1.8 swan-mibrowser","Xiaomi","Chrome","100.0.4896.127","AndroidOS","11","null","<div style=""font-size:60px;"">+</div>","null",""
"","","","","","html-button-response","35","57947","0.0-4.0-1.15","36","1","2022-11-27 09:56:36","49aca292d257f58668169b9fbab864ae","115.60.187.40","Mozilla/5.0 (Linux; U; Android 11; zh-cn; M2006J10C Build/RP1A.200720.011) AppleWebKit/537.36 (KHTML, like Gecko) Version/4.0 Chrome/100.0.4896.127 Mobile Safari/537.36 XiaoMi/MiuiBrowser/17.1.8 swan-mibrowser","Xiaomi","Chrome","100.0.4896.127","AndroidOS","11","1167","<p>作为军队的指挥官，你可以选择发射导弹杀死 <strong>8名</strong> 敌国士兵，但会炸毁附近的 <strong>1棵</strong> 敌国树木。</p> <p>树木的照片如下图所示。</p> <p></p> <img src='stimuli/trees/7.png', style='max-width: 30%;'> </img> <p><strong>你是否选择发射武器？</strong></p>","1",""
"","","","","","html-keyboard-response","36","58959","0.0-4.0-0.16","36","1","2022-11-27 09:56:36","49aca292d257f58668169b9fbab864ae","115.60.187.40","Mozilla/5.0 (Linux; U; Android 11; zh-cn; M2006J10C Build/RP1A.200720.011) AppleWebKit/537.36 (KHTML, like Gecko) Version/4.0 Chrome/100.0.4896.127 Mobile Safari/537.36 XiaoMi/MiuiBrowser/17.1.8 swan-mibrowser","Xiaomi","Chrome","100.0.4896.127","AndroidOS","11","null","<div style=""font-size:60px;"">+</div>","null",""
"","","","","","html-button-response","37","60097","0.0-4.0-1.16","36","1","2022-11-27 09:56:36","49aca292d257f58668169b9fbab864ae","115.60.187.40","Mozilla/5.0 (Linux; U; Android 11; zh-cn; M2006J10C Build/RP1A.200720.011) AppleWebKit/537.36 (KHTML, like Gecko) Version/4.0 Chrome/100.0.4896.127 Mobile Safari/537.36 XiaoMi/MiuiBrowser/17.1.8 swan-mibrowser","Xiaomi","Chrome","100.0.4896.127","AndroidOS","11","1131","<p>作为军队的指挥官，你可以选择发射导弹杀死 <strong>10名</strong> 敌国士兵，但会炸毁附近的 <strong>1棵</strong> 敌国树木。</p> <p>树木的照片如下图所示。</p> <p></p> <img src='stimuli/trees/9.png', style='max-width: 30%;'> </img> <p><strong>你是否选择发射武器？</strong></p>","1",""
"","","","","","html-keyboard-response","38","61104","0.0-4.0-0.17","36","1","2022-11-27 09:56:36","49aca292d257f58668169b9fbab864ae","115.60.187.40","Mozilla/5.0 (Linux; U; Android 11; zh-cn; M2006J10C Build/RP1A.200720.011) AppleWebKit/537.36 (KHTML, like Gecko) Version/4.0 Chrome/100.0.4896.127 Mobile Safari/537.36 XiaoMi/MiuiBrowser/17.1.8 swan-mibrowser","Xiaomi","Chrome","100.0.4896.127","AndroidOS","11","null","<div style=""font-size:60px;"">+</div>","null",""
"","","","","","html-button-response","39","62048","0.0-4.0-1.17","36","1","2022-11-27 09:56:36","49aca292d257f58668169b9fbab864ae","115.60.187.40","Mozilla/5.0 (Linux; U; Android 11; zh-cn; M2006J10C Build/RP1A.200720.011) AppleWebKit/537.36 (KHTML, like Gecko) Version/4.0 Chrome/100.0.4896.127 Mobile Safari/537.36 XiaoMi/MiuiBrowser/17.1.8 swan-mibrowser","Xiaomi","Chrome","100.0.4896.127","AndroidOS","11","927","<p>作为军队的指挥官，你可以选择发射导弹杀死 <strong>2名</strong> 敌国士兵，但会炸毁附近的 <strong>1棵</strong> 敌国树木。</p> <p>树木的照片如下图所示。</p> <p></p> <img src='stimuli/trees/6.png', style='max-width: 30%;'> </img> <p><strong>你是否选择发射武器？</strong></p>","1",""
"","","","","","html-keyboard-response","40","63054","0.0-4.0-0.18","36","1","2022-11-27 09:56:36","49aca292d257f58668169b9fbab864ae","115.60.187.40","Mozilla/5.0 (Linux; U; Android 11; zh-cn; M2006J10C Build/RP1A.200720.011) AppleWebKit/537.36 (KHTML, like Gecko) Version/4.0 Chrome/100.0.4896.127 Mobile Safari/537.36 XiaoMi/MiuiBrowser/17.1.8 swan-mibrowser","Xiaomi","Chrome","100.0.4896.127","AndroidOS","11","null","<div style=""font-size:60px;"">+</div>","null",""
"","","","","","html-button-response","41","64125","0.0-4.0-1.18","36","1","2022-11-27 09:56:36","49aca292d257f58668169b9fbab864ae","115.60.187.40","Mozilla/5.0 (Linux; U; Android 11; zh-cn; M2006J10C Build/RP1A.200720.011) AppleWebKit/537.36 (KHTML, like Gecko) Version/4.0 Chrome/100.0.4896.127 Mobile Safari/537.36 XiaoMi/MiuiBrowser/17.1.8 swan-mibrowser","Xiaomi","Chrome","100.0.4896.127","AndroidOS","11","1053","<p>作为军队的指挥官，你可以选择发射导弹杀死 <strong>2名</strong> 敌国士兵，但会误杀附近的 <strong>1名</strong> 敌国平民。</p> <p>平民照片如下图所示。</p> <p></p> <img src='stimuli/faces/PFM1.jpg', style='max-width: 30%;'> </img> <p><strong>你是否选择发射武器？</strong></p>","1",""
"","","","","","html-keyboard-response","42","65132","0.0-4.0-0.19","36","1","2022-11-27 09:56:36","49aca292d257f58668169b9fbab864ae","115.60.187.40","Mozilla/5.0 (Linux; U; Android 11; zh-cn; M2006J10C Build/RP1A.200720.011) AppleWebKit/537.36 (KHTML, like Gecko) Version/4.0 Chrome/100.0.4896.127 Mobile Safari/537.36 XiaoMi/MiuiBrowser/17.1.8 swan-mibrowser","Xiaomi","Chrome","100.0.4896.127","AndroidOS","11","null","<div style=""font-size:60px;"">+</div>","null",""
"","","","","","html-button-response","43","66306","0.0-4.0-1.19","36","1","2022-11-27 09:56:36","49aca292d257f58668169b9fbab864ae","115.60.187.40","Mozilla/5.0 (Linux; U; Android 11; zh-cn; M2006J10C Build/RP1A.200720.011) AppleWebKit/537.36 (KHTML, like Gecko) Version/4.0 Chrome/100.0.4896.127 Mobile Safari/537.36 XiaoMi/MiuiBrowser/17.1.8 swan-mibrowser","Xiaomi","Chrome","100.0.4896.127","AndroidOS","11","1126","<p>作为军队的指挥官，你可以选择发射导弹杀死 <strong>10名</strong> 敌国士兵，但会炸毁附近的 <strong>1棵</strong> 敌国树木。</p> <p>树木的照片如下图所示。</p> <p></p> <img src='stimuli/trees/14.png', style='max-width: 30%;'> </img> <p><strong>你是否选择发射武器？</strong></p>","1",""
"","","","","","html-keyboard-response","44","67313","0.0-4.0-0.20","36","1","2022-11-27 09:56:36","49aca292d257f58668169b9fbab864ae","115.60.187.40","Mozilla/5.0 (Linux; U; Android 11; zh-cn; M2006J10C Build/RP1A.200720.011) AppleWebKit/537.36 (KHTML, like Gecko) Version/4.0 Chrome/100.0.4896.127 Mobile Safari/537.36 XiaoMi/MiuiBrowser/17.1.8 swan-mibrowser","Xiaomi","Chrome","100.0.4896.127","AndroidOS","11","null","<div style=""font-size:60px;"">+</div>","null",""
"","","","","","html-button-response","45","68868","0.0-4.0-1.20","36","1","2022-11-27 09:56:36","49aca292d257f58668169b9fbab864ae","115.60.187.40","Mozilla/5.0 (Linux; U; Android 11; zh-cn; M2006J10C Build/RP1A.200720.011) AppleWebKit/537.36 (KHTML, like Gecko) Version/4.0 Chrome/100.0.4896.127 Mobile Safari/537.36 XiaoMi/MiuiBrowser/17.1.8 swan-mibrowser","Xiaomi","Chrome","100.0.4896.127","AndroidOS","11","1504","<p>作为军队的指挥官，你可以选择发射导弹杀死 <strong>10名</strong> 敌国士兵，但会误杀附近的 <strong>1名</strong> 敌国平民。</p> <p>平民照片如下图所示。</p> <p></p> <img src='stimuli/faces/PFM8.jpg', style='max-width: 30%;'> </img> <p><strong>你是否选择发射武器？</strong></p>","1",""
"","","","","","html-keyboard-response","46","69876","0.0-4.0-0.21","36","1","2022-11-27 09:56:36","49aca292d257f58668169b9fbab864ae","115.60.187.40","Mozilla/5.0 (Linux; U; Android 11; zh-cn; M2006J10C Build/RP1A.200720.011) AppleWebKit/537.36 (KHTML, like Gecko) Version/4.0 Chrome/100.0.4896.127 Mobile Safari/537.36 XiaoMi/MiuiBrowser/17.1.8 swan-mibrowser","Xiaomi","Chrome","100.0.4896.127","AndroidOS","11","null","<div style=""font-size:60px;"">+</div>","null",""
"","","","","","html-button-response","47","70852","0.0-4.0-1.21","36","1","2022-11-27 09:56:36","49aca292d257f58668169b9fbab864ae","115.60.187.40","Mozilla/5.0 (Linux; U; Android 11; zh-cn; M2006J10C Build/RP1A.200720.011) AppleWebKit/537.36 (KHTML, like Gecko) Version/4.0 Chrome/100.0.4896.127 Mobile Safari/537.36 XiaoMi/MiuiBrowser/17.1.8 swan-mibrowser","Xiaomi","Chrome","100.0.4896.127","AndroidOS","11","940","<p>作为军队的指挥官，你可以选择发射导弹杀死 <strong>3名</strong> 敌国士兵，但会误杀附近的 <strong>1名</strong> 敌国平民。</p> <p>平民照片如下图所示。</p> <p></p> <img src='stimuli/faces/PFM4.jpg', style='max-width: 30%;'> </img> <p><strong>你是否选择发射武器？</strong></p>","1",""
"","","","","","html-keyboard-response","48","71860","0.0-4.0-0.22","36","1","2022-11-27 09:56:36","49aca292d257f58668169b9fbab864ae","115.60.187.40","Mozilla/5.0 (Linux; U; Android 11; zh-cn; M2006J10C Build/RP1A.200720.011) AppleWebKit/537.36 (KHTML, like Gecko) Version/4.0 Chrome/100.0.4896.127 Mobile Safari/537.36 XiaoMi/MiuiBrowser/17.1.8 swan-mibrowser","Xiaomi","Chrome","100.0.4896.127","AndroidOS","11","null","<div style=""font-size:60px;"">+</div>","null",""
"","","","","","html-button-response","49","72992","0.0-4.0-1.22","36","1","2022-11-27 09:56:36","49aca292d257f58668169b9fbab864ae","115.60.187.40","Mozilla/5.0 (Linux; U; Android 11; zh-cn; M2006J10C Build/RP1A.200720.011) AppleWebKit/537.36 (KHTML, like Gecko) Version/4.0 Chrome/100.0.4896.127 Mobile Safari/537.36 XiaoMi/MiuiBrowser/17.1.8 swan-mibrowser","Xiaomi","Chrome","100.0.4896.127","AndroidOS","11","1114","<p>作为军队的指挥官，你可以选择发射导弹杀死 <strong>2名</strong> 敌国士兵，但会误杀附近的 <strong>1名</strong> 敌国平民。</p> <p>平民照片如下图所示。</p> <p></p> <img src='stimuli/faces/PFF5.jpg', style='max-width: 30%;'> </img> <p><strong>你是否选择发射武器？</strong></p>","1",""
"","","","","","html-keyboard-response","50","74000","0.0-4.0-0.23","36","1","2022-11-27 09:56:36","49aca292d257f58668169b9fbab864ae","115.60.187.40","Mozilla/5.0 (Linux; U; Android 11; zh-cn; M2006J10C Build/RP1A.200720.011) AppleWebKit/537.36 (KHTML, like Gecko) Version/4.0 Chrome/100.0.4896.127 Mobile Safari/537.36 XiaoMi/MiuiBrowser/17.1.8 swan-mibrowser","Xiaomi","Chrome","100.0.4896.127","AndroidOS","11","null","<div style=""font-size:60px;"">+</div>","null",""
"","","","","","html-button-response","51","75064","0.0-4.0-1.23","36","1","2022-11-27 09:56:36","49aca292d257f58668169b9fbab864ae","115.60.187.40","Mozilla/5.0 (Linux; U; Android 11; zh-cn; M2006J10C Build/RP1A.200720.011) AppleWebKit/537.36 (KHTML, like Gecko) Version/4.0 Chrome/100.0.4896.127 Mobile Safari/537.36 XiaoMi/MiuiBrowser/17.1.8 swan-mibrowser","Xiaomi","Chrome","100.0.4896.127","AndroidOS","11","1039","<p>作为军队的指挥官，你可以选择发射导弹杀死 <strong>9名</strong> 敌国士兵，但会误杀附近的 <strong>1名</strong> 敌国平民。</p> <p>平民照片如下图所示。</p> <p></p> <img src='stimuli/faces/PFM2.jpg', style='max-width: 30%;'> </img> <p><strong>你是否选择发射武器？</strong></p>","1",""
"","","","","","html-keyboard-response","52","76073","0.0-4.0-0.24","36","1","2022-11-27 09:56:36","49aca292d257f58668169b9fbab864ae","115.60.187.40","Mozilla/5.0 (Linux; U; Android 11; zh-cn; M2006J10C Build/RP1A.200720.011) AppleWebKit/537.36 (KHTML, like Gecko) Version/4.0 Chrome/100.0.4896.127 Mobile Safari/537.36 XiaoMi/MiuiBrowser/17.1.8 swan-mibrowser","Xiaomi","Chrome","100.0.4896.127","AndroidOS","11","null","<div style=""font-size:60px;"">+</div>","null",""
"","","","","","html-button-response","53","76990","0.0-4.0-1.24","36","1","2022-11-27 09:56:36","49aca292d257f58668169b9fbab864ae","115.60.187.40","Mozilla/5.0 (Linux; U; Android 11; zh-cn; M2006J10C Build/RP1A.200720.011) AppleWebKit/537.36 (KHTML, like Gecko) Version/4.0 Chrome/100.0.4896.127 Mobile Safari/537.36 XiaoMi/MiuiBrowser/17.1.8 swan-mibrowser","Xiaomi","Chrome","100.0.4896.127","AndroidOS","11","870","<p>作为军队的指挥官，你可以选择发射导弹杀死 <strong>2名</strong> 敌国士兵，但会炸毁附近的 <strong>1棵</strong> 敌国树木。</p> <p>树木的照片如下图所示。</p> <p></p> <img src='stimuli/trees/8.png', style='max-width: 30%;'> </img> <p><strong>你是否选择发射武器？</strong></p>","1",""
"","","","","","html-keyboard-response","54","78001","0.0-4.0-0.25","36","1","2022-11-27 09:56:36","49aca292d257f58668169b9fbab864ae","115.60.187.40","Mozilla/5.0 (Linux; U; Android 11; zh-cn; M2006J10C Build/RP1A.200720.011) AppleWebKit/537.36 (KHTML, like Gecko) Version/4.0 Chrome/100.0.4896.127 Mobile Safari/537.36 XiaoMi/MiuiBrowser/17.1.8 swan-mibrowser","Xiaomi","Chrome","100.0.4896.127","AndroidOS","11","null","<div style=""font-size:60px;"">+</div>","null",""
"","","","","","html-button-response","55","78883","0.0-4.0-1.25","36","1","2022-11-27 09:56:36","49aca292d257f58668169b9fbab864ae","115.60.187.40","Mozilla/5.0 (Linux; U; Android 11; zh-cn; M2006J10C Build/RP1A.200720.011) AppleWebKit/537.36 (KHTML, like Gecko) Version/4.0 Chrome/100.0.4896.127 Mobile Safari/537.36 XiaoMi/MiuiBrowser/17.1.8 swan-mibrowser","Xiaomi","Chrome","100.0.4896.127","AndroidOS","11","861","<p>作为军队的指挥官，你可以选择发射导弹杀死 <strong>3名</strong> 敌国士兵，但会炸毁附近的 <strong>1棵</strong> 敌国树木。</p> <p>树木的照片如下图所示。</p> <p></p> <img src='stimuli/trees/2.png', style='max-width: 30%;'> </img> <p><strong>你是否选择发射武器？</strong></p>","1",""
"","","","","","html-keyboard-response","56","79892","0.0-4.0-0.26","36","1","2022-11-27 09:56:36","49aca292d257f58668169b9fbab864ae","115.60.187.40","Mozilla/5.0 (Linux; U; Android 11; zh-cn; M2006J10C Build/RP1A.200720.011) AppleWebKit/537.36 (KHTML, like Gecko) Version/4.0 Chrome/100.0.4896.127 Mobile Safari/537.36 XiaoMi/MiuiBrowser/17.1.8 swan-mibrowser","Xiaomi","Chrome","100.0.4896.127","AndroidOS","11","null","<div style=""font-size:60px;"">+</div>","null",""
"","","","","","html-button-response","57","80955","0.0-4.0-1.26","36","1","2022-11-27 09:56:36","49aca292d257f58668169b9fbab864ae","115.60.187.40","Mozilla/5.0 (Linux; U; Android 11; zh-cn; M2006J10C Build/RP1A.200720.011) AppleWebKit/537.36 (KHTML, like Gecko) Version/4.0 Chrome/100.0.4896.127 Mobile Safari/537.36 XiaoMi/MiuiBrowser/17.1.8 swan-mibrowser","Xiaomi","Chrome","100.0.4896.127","AndroidOS","11","999","<p>作为军队的指挥官，你可以选择发射导弹杀死 <strong>2名</strong> 敌国士兵，但会炸毁附近的 <strong>1棵</strong> 敌国树木。</p> <p>树木的照片如下图所示。</p> <p></p> <img src='stimuli/trees/4.png', style='max-width: 30%;'> </img> <p><strong>你是否选择发射武器？</strong></p>","1",""
"","","","","","html-keyboard-response","58","81965","0.0-4.0-0.27","36","1","2022-11-27 09:56:36","49aca292d257f58668169b9fbab864ae","115.60.187.40","Mozilla/5.0 (Linux; U; Android 11; zh-cn; M2006J10C Build/RP1A.200720.011) AppleWebKit/537.36 (KHTML, like Gecko) Version/4.0 Chrome/100.0.4896.127 Mobile Safari/537.36 XiaoMi/MiuiBrowser/17.1.8 swan-mibrowser","Xiaomi","Chrome","100.0.4896.127","AndroidOS","11","null","<div style=""font-size:60px;"">+</div>","null",""
"","","","","","html-button-response","59","82898","0.0-4.0-1.27","36","1","2022-11-27 09:56:36","49aca292d257f58668169b9fbab864ae","115.60.187.40","Mozilla/5.0 (Linux; U; Android 11; zh-cn; M2006J10C Build/RP1A.200720.011) AppleWebKit/537.36 (KHTML, like Gecko) Version/4.0 Chrome/100.0.4896.127 Mobile Safari/537.36 XiaoMi/MiuiBrowser/17.1.8 swan-mibrowser","Xiaomi","Chrome","100.0.4896.127","AndroidOS","11","883","<p>作为军队的指挥官，你可以选择发射导弹杀死 <strong>3名</strong> 敌国士兵，但会误杀附近的 <strong>1名</strong> 敌国平民。</p> <p>平民照片如下图所示。</p> <p></p> <img src='stimuli/faces/PFF3.jpg', style='max-width: 30%;'> </img> <p><strong>你是否选择发射武器？</strong></p>","1",""
"","","","","","html-keyboard-response","60","83908","0.0-4.0-0.28","36","1","2022-11-27 09:56:36","49aca292d257f58668169b9fbab864ae","115.60.187.40","Mozilla/5.0 (Linux; U; Android 11; zh-cn; M2006J10C Build/RP1A.200720.011) AppleWebKit/537.36 (KHTML, like Gecko) Version/4.0 Chrome/100.0.4896.127 Mobile Safari/537.36 XiaoMi/MiuiBrowser/17.1.8 swan-mibrowser","Xiaomi","Chrome","100.0.4896.127","AndroidOS","11","null","<div style=""font-size:60px;"">+</div>","null",""
"","","","","","html-button-response","61","84949","0.0-4.0-1.28","36","1","2022-11-27 09:56:36","49aca292d257f58668169b9fbab864ae","115.60.187.40","Mozilla/5.0 (Linux; U; Android 11; zh-cn; M2006J10C Build/RP1A.200720.011) AppleWebKit/537.36 (KHTML, like Gecko) Version/4.0 Chrome/100.0.4896.127 Mobile Safari/537.36 XiaoMi/MiuiBrowser/17.1.8 swan-mibrowser","Xiaomi","Chrome","100.0.4896.127","AndroidOS","11","972","<p>作为军队的指挥官，你可以选择发射导弹杀死 <strong>8名</strong> 敌国士兵，但会误杀附近的 <strong>1名</strong> 敌国平民。</p> <p>平民照片如下图所示。</p> <p></p> <img src='stimuli/faces/PFF7.jpg', style='max-width: 30%;'> </img> <p><strong>你是否选择发射武器？</strong></p>","1",""
"","","","","","html-keyboard-response","62","85959","0.0-4.0-0.29","36","1","2022-11-27 09:56:36","49aca292d257f58668169b9fbab864ae","115.60.187.40","Mozilla/5.0 (Linux; U; Android 11; zh-cn; M2006J10C Build/RP1A.200720.011) AppleWebKit/537.36 (KHTML, like Gecko) Version/4.0 Chrome/100.0.4896.127 Mobile Safari/537.36 XiaoMi/MiuiBrowser/17.1.8 swan-mibrowser","Xiaomi","Chrome","100.0.4896.127","AndroidOS","11","null","<div style=""font-size:60px;"">+</div>","null",""
"","","","","","html-button-response","63","86812","0.0-4.0-1.29","36","1","2022-11-27 09:56:36","49aca292d257f58668169b9fbab864ae","115.60.187.40","Mozilla/5.0 (Linux; U; Android 11; zh-cn; M2006J10C Build/RP1A.200720.011) AppleWebKit/537.36 (KHTML, like Gecko) Version/4.0 Chrome/100.0.4896.127 Mobile Safari/537.36 XiaoMi/MiuiBrowser/17.1.8 swan-mibrowser","Xiaomi","Chrome","100.0.4896.127","AndroidOS","11","836","<p>作为军队的指挥官，你可以选择发射导弹杀死 <strong>4名</strong> 敌国士兵，但会误杀附近的 <strong>1名</strong> 敌国平民。</p> <p>平民照片如下图所示。</p> <p></p> <img src='stimuli/faces/PFF2.jpg', style='max-width: 30%;'> </img> <p><strong>你是否选择发射武器？</strong></p>","1",""
"","","","","","html-keyboard-response","64","87822","0.0-4.0-0.30","36","1","2022-11-27 09:56:36","49aca292d257f58668169b9fbab864ae","115.60.187.40","Mozilla/5.0 (Linux; U; Android 11; zh-cn; M2006J10C Build/RP1A.200720.011) AppleWebKit/537.36 (KHTML, like Gecko) Version/4.0 Chrome/100.0.4896.127 Mobile Safari/537.36 XiaoMi/MiuiBrowser/17.1.8 swan-mibrowser","Xiaomi","Chrome","100.0.4896.127","AndroidOS","11","null","<div style=""font-size:60px;"">+</div>","null",""
"","","","","","html-button-response","65","88876","0.0-4.0-1.30","36","1","2022-11-27 09:56:36","49aca292d257f58668169b9fbab864ae","115.60.187.40","Mozilla/5.0 (Linux; U; Android 11; zh-cn; M2006J10C Build/RP1A.200720.011) AppleWebKit/537.36 (KHTML, like Gecko) Version/4.0 Chrome/100.0.4896.127 Mobile Safari/537.36 XiaoMi/MiuiBrowser/17.1.8 swan-mibrowser","Xiaomi","Chrome","100.0.4896.127","AndroidOS","11","1000","<p>作为军队的指挥官，你可以选择发射导弹杀死 <strong>4名</strong> 敌国士兵，但会炸毁附近的 <strong>1棵</strong> 敌国树木。</p> <p>树木的照片如下图所示。</p> <p></p> <img src='stimuli/trees/13.png', style='max-width: 30%;'> </img> <p><strong>你是否选择发射武器？</strong></p>","1",""
"","","","","","html-keyboard-response","66","89885","0.0-4.0-0.31","36","1","2022-11-27 09:56:36","49aca292d257f58668169b9fbab864ae","115.60.187.40","Mozilla/5.0 (Linux; U; Android 11; zh-cn; M2006J10C Build/RP1A.200720.011) AppleWebKit/537.36 (KHTML, like Gecko) Version/4.0 Chrome/100.0.4896.127 Mobile Safari/537.36 XiaoMi/MiuiBrowser/17.1.8 swan-mibrowser","Xiaomi","Chrome","100.0.4896.127","AndroidOS","11","null","<div style=""font-size:60px;"">+</div>","null",""
"","","","","","html-button-response","67","90756","0.0-4.0-1.31","36","1","2022-11-27 09:56:36","49aca292d257f58668169b9fbab864ae","115.60.187.40","Mozilla/5.0 (Linux; U; Android 11; zh-cn; M2006J10C Build/RP1A.200720.011) AppleWebKit/537.36 (KHTML, like Gecko) Version/4.0 Chrome/100.0.4896.127 Mobile Safari/537.36 XiaoMi/MiuiBrowser/17.1.8 swan-mibrowser","Xiaomi","Chrome","100.0.4896.127","AndroidOS","11","846","<p>作为军队的指挥官，你可以选择发射导弹杀死 <strong>5名</strong> 敌国士兵，但会误杀附近的 <strong>1名</strong> 敌国平民。</p> <p>平民照片如下图所示。</p> <p></p> <img src='stimuli/faces/PFF4.jpg', style='max-width: 30%;'> </img> <p><strong>你是否选择发射武器？</strong></p>","1",""
"","","","","","html-keyboard-response","68","91766","0.0-4.0-0.32","36","1","2022-11-27 09:56:36","49aca292d257f58668169b9fbab864ae","115.60.187.40","Mozilla/5.0 (Linux; U; Android 11; zh-cn; M2006J10C Build/RP1A.200720.011) AppleWebKit/537.36 (KHTML, like Gecko) Version/4.0 Chrome/100.0.4896.127 Mobile Safari/537.36 XiaoMi/MiuiBrowser/17.1.8 swan-mibrowser","Xiaomi","Chrome","100.0.4896.127","AndroidOS","11","null","<div style=""font-size:60px;"">+</div>","null",""
"","","","","","html-button-response","69","92732","0.0-4.0-1.32","36","1","2022-11-27 09:56:36","49aca292d257f58668169b9fbab864ae","115.60.187.40","Mozilla/5.0 (Linux; U; Android 11; zh-cn; M2006J10C Build/RP1A.200720.011) AppleWebKit/537.36 (KHTML, like Gecko) Version/4.0 Chrome/100.0.4896.127 Mobile Safari/537.36 XiaoMi/MiuiBrowser/17.1.8 swan-mibrowser","Xiaomi","Chrome","100.0.4896.127","AndroidOS","11","893","<p>作为军队的指挥官，你可以选择发射导弹杀死 <strong>9名</strong> 敌国士兵，但会误杀附近的 <strong>1名</strong> 敌国平民。</p> <p>平民照片如下图所示。</p> <p></p> <img src='stimuli/faces/PFF1.jpg', style='max-width: 30%;'> </img> <p><strong>你是否选择发射武器？</strong></p>","1",""
"","","","","","html-keyboard-response","70","93743","0.0-4.0-0.33","36","1","2022-11-27 09:56:36","49aca292d257f58668169b9fbab864ae","115.60.187.40","Mozilla/5.0 (Linux; U; Android 11; zh-cn; M2006J10C Build/RP1A.200720.011) AppleWebKit/537.36 (KHTML, like Gecko) Version/4.0 Chrome/100.0.4896.127 Mobile Safari/537.36 XiaoMi/MiuiBrowser/17.1.8 swan-mibrowser","Xiaomi","Chrome","100.0.4896.127","AndroidOS","11","null","<div style=""font-size:60px;"">+</div>","null",""
"","","","","","html-button-response","71","94652","0.0-4.0-1.33","36","1","2022-11-27 09:56:36","49aca292d257f58668169b9fbab864ae","115.60.187.40","Mozilla/5.0 (Linux; U; Android 11; zh-cn; M2006J10C Build/RP1A.200720.011) AppleWebKit/537.36 (KHTML, like Gecko) Version/4.0 Chrome/100.0.4896.127 Mobile Safari/537.36 XiaoMi/MiuiBrowser/17.1.8 swan-mibrowser","Xiaomi","Chrome","100.0.4896.127","AndroidOS","11","837","<p>作为军队的指挥官，你可以选择发射导弹杀死 <strong>2名</strong> 敌国士兵，但会误杀附近的 <strong>1名</strong> 敌国平民。</p> <p>平民照片如下图所示。</p> <p></p> <img src='stimuli/faces/PFF7.jpg', style='max-width: 30%;'> </img> <p><strong>你是否选择发射武器？</strong></p>","1",""
"","","","","","html-keyboard-response","72","95694","0.0-4.0-0.34","36","1","2022-11-27 09:56:36","49aca292d257f58668169b9fbab864ae","115.60.187.40","Mozilla/5.0 (Linux; U; Android 11; zh-cn; M2006J10C Build/RP1A.200720.011) AppleWebKit/537.36 (KHTML, like Gecko) Version/4.0 Chrome/100.0.4896.127 Mobile Safari/537.36 XiaoMi/MiuiBrowser/17.1.8 swan-mibrowser","Xiaomi","Chrome","100.0.4896.127","AndroidOS","11","null","<div style=""font-size:60px;"">+</div>","null",""
"","","","","","html-button-response","73","96751","0.0-4.0-1.34","36","1","2022-11-27 09:56:36","49aca292d257f58668169b9fbab864ae","115.60.187.40","Mozilla/5.0 (Linux; U; Android 11; zh-cn; M2006J10C Build/RP1A.200720.011) AppleWebKit/537.36 (KHTML, like Gecko) Version/4.0 Chrome/100.0.4896.127 Mobile Safari/537.36 XiaoMi/MiuiBrowser/17.1.8 swan-mibrowser","Xiaomi","Chrome","100.0.4896.127","AndroidOS","11","990","<p>作为军队的指挥官，你可以选择发射导弹杀死 <strong>3名</strong> 敌国士兵，但会误杀附近的 <strong>1名</strong> 敌国平民。</p> <p>平民照片如下图所示。</p> <p></p> <img src='stimuli/faces/PFF6.jpg', style='max-width: 30%;'> </img> <p><strong>你是否选择发射武器？</strong></p>","1",""
"","","","","","html-keyboard-response","74","97762","0.0-4.0-0.35","36","1","2022-11-27 09:56:36","49aca292d257f58668169b9fbab864ae","115.60.187.40","Mozilla/5.0 (Linux; U; Android 11; zh-cn; M2006J10C Build/RP1A.200720.011) AppleWebKit/537.36 (KHTML, like Gecko) Version/4.0 Chrome/100.0.4896.127 Mobile Safari/537.36 XiaoMi/MiuiBrowser/17.1.8 swan-mibrowser","Xiaomi","Chrome","100.0.4896.127","AndroidOS","11","null","<div style=""font-size:60px;"">+</div>","null",""
"","","","","","html-button-response","75","98824","0.0-4.0-1.35","36","1","2022-11-27 09:56:36","49aca292d257f58668169b9fbab864ae","115.60.187.40","Mozilla/5.0 (Linux; U; Android 11; zh-cn; M2006J10C Build/RP1A.200720.011) AppleWebKit/537.36 (KHTML, like Gecko) Version/4.0 Chrome/100.0.4896.127 Mobile Safari/537.36 XiaoMi/MiuiBrowser/17.1.8 swan-mibrowser","Xiaomi","Chrome","100.0.4896.127","AndroidOS","11","988","<p>作为军队的指挥官，你可以选择发射导弹杀死 <strong>6名</strong> 敌国士兵，但会误杀附近的 <strong>1名</strong> 敌国平民。</p> <p>平民照片如下图所示。</p> <p></p> <img src='stimuli/faces/PFM6.jpg', style='max-width: 30%;'> </img> <p><strong>你是否选择发射武器？</strong></p>","1",""
"","","","","","html-keyboard-response","76","99835","0.0-4.0-0.36","36","1","2022-11-27 09:56:36","49aca292d257f58668169b9fbab864ae","115.60.187.40","Mozilla/5.0 (Linux; U; Android 11; zh-cn; M2006J10C Build/RP1A.200720.011) AppleWebKit/537.36 (KHTML, like Gecko) Version/4.0 Chrome/100.0.4896.127 Mobile Safari/537.36 XiaoMi/MiuiBrowser/17.1.8 swan-mibrowser","Xiaomi","Chrome","100.0.4896.127","AndroidOS","11","null","<div style=""font-size:60px;"">+</div>","null",""
"","","","","","html-button-response","77","100783","0.0-4.0-1.36","36","1","2022-11-27 09:56:36","49aca292d257f58668169b9fbab864ae","115.60.187.40","Mozilla/5.0 (Linux; U; Android 11; zh-cn; M2006J10C Build/RP1A.200720.011) AppleWebKit/537.36 (KHTML, like Gecko) Version/4.0 Chrome/100.0.4896.127 Mobile Safari/537.36 XiaoMi/MiuiBrowser/17.1.8 swan-mibrowser","Xiaomi","Chrome","100.0.4896.127","AndroidOS","11","926","<p>作为军队的指挥官，你可以选择发射导弹杀死 <strong>3名</strong> 敌国士兵，但会误杀附近的 <strong>1名</strong> 敌国平民。</p> <p>平民照片如下图所示。</p> <p></p> <img src='stimuli/faces/PFM3.jpg', style='max-width: 30%;'> </img> <p><strong>你是否选择发射武器？</strong></p>","1",""
"","","","","","html-keyboard-response","78","101794","0.0-4.0-0.37","36","1","2022-11-27 09:56:36","49aca292d257f58668169b9fbab864ae","115.60.187.40","Mozilla/5.0 (Linux; U; Android 11; zh-cn; M2006J10C Build/RP1A.200720.011) AppleWebKit/537.36 (KHTML, like Gecko) Version/4.0 Chrome/100.0.4896.127 Mobile Safari/537.36 XiaoMi/MiuiBrowser/17.1.8 swan-mibrowser","Xiaomi","Chrome","100.0.4896.127","AndroidOS","11","null","<div style=""font-size:60px;"">+</div>","null",""
"","","","","","html-button-response","79","102800","0.0-4.0-1.37","36","1","2022-11-27 09:56:36","49aca292d257f58668169b9fbab864ae","115.60.187.40","Mozilla/5.0 (Linux; U; Android 11; zh-cn; M2006J10C Build/RP1A.200720.011) AppleWebKit/537.36 (KHTML, like Gecko) Version/4.0 Chrome/100.0.4896.127 Mobile Safari/537.36 XiaoMi/MiuiBrowser/17.1.8 swan-mibrowser","Xiaomi","Chrome","100.0.4896.127","AndroidOS","11","952","<p>作为军队的指挥官，你可以选择发射导弹杀死 <strong>10名</strong> 敌国士兵，但会炸毁附近的 <strong>1棵</strong> 敌国树木。</p> <p>树木的照片如下图所示。</p> <p></p> <img src='stimuli/trees/3.png', style='max-width: 30%;'> </img> <p><strong>你是否选择发射武器？</strong></p>","1",""
"","","","","","html-keyboard-response","80","103812","0.0-4.0-0.38","36","1","2022-11-27 09:56:36","49aca292d257f58668169b9fbab864ae","115.60.187.40","Mozilla/5.0 (Linux; U; Android 11; zh-cn; M2006J10C Build/RP1A.200720.011) AppleWebKit/537.36 (KHTML, like Gecko) Version/4.0 Chrome/100.0.4896.127 Mobile Safari/537.36 XiaoMi/MiuiBrowser/17.1.8 swan-mibrowser","Xiaomi","Chrome","100.0.4896.127","AndroidOS","11","null","<div style=""font-size:60px;"">+</div>","null",""
"","","","","","html-button-response","81","104705","0.0-4.0-1.38","36","1","2022-11-27 09:56:36","49aca292d257f58668169b9fbab864ae","115.60.187.40","Mozilla/5.0 (Linux; U; Android 11; zh-cn; M2006J10C Build/RP1A.200720.011) AppleWebKit/537.36 (KHTML, like Gecko) Version/4.0 Chrome/100.0.4896.127 Mobile Safari/537.36 XiaoMi/MiuiBrowser/17.1.8 swan-mibrowser","Xiaomi","Chrome","100.0.4896.127","AndroidOS","11","866","<p>作为军队的指挥官，你可以选择发射导弹杀死 <strong>6名</strong> 敌国士兵，但会炸毁附近的 <strong>1棵</strong> 敌国树木。</p> <p>树木的照片如下图所示。</p> <p></p> <img src='stimuli/trees/11.png', style='max-width: 30%;'> </img> <p><strong>你是否选择发射武器？</strong></p>","1",""
"","","","","","html-keyboard-response","82","105717","0.0-4.0-0.39","36","1","2022-11-27 09:56:36","49aca292d257f58668169b9fbab864ae","115.60.187.40","Mozilla/5.0 (Linux; U; Android 11; zh-cn; M2006J10C Build/RP1A.200720.011) AppleWebKit/537.36 (KHTML, like Gecko) Version/4.0 Chrome/100.0.4896.127 Mobile Safari/537.36 XiaoMi/MiuiBrowser/17.1.8 swan-mibrowser","Xiaomi","Chrome","100.0.4896.127","AndroidOS","11","null","<div style=""font-size:60px;"">+</div>","null",""
"","","","","","html-button-response","83","106532","0.0-4.0-1.39","36","1","2022-11-27 09:56:36","49aca292d257f58668169b9fbab864ae","115.60.187.40","Mozilla/5.0 (Linux; U; Android 11; zh-cn; M2006J10C Build/RP1A.200720.011) AppleWebKit/537.36 (KHTML, like Gecko) Version/4.0 Chrome/100.0.4896.127 Mobile Safari/537.36 XiaoMi/MiuiBrowser/17.1.8 swan-mibrowser","Xiaomi","Chrome","100.0.4896.127","AndroidOS","11","741","<p>作为军队的指挥官，你可以选择发射导弹杀死 <strong>1名</strong> 敌国士兵，但会误杀附近的 <strong>1名</strong> 敌国平民。</p> <p>平民照片如下图所示。</p> <p></p> <img src='stimuli/faces/PFM5.jpg', style='max-width: 30%;'> </img> <p><strong>你是否选择发射武器？</strong></p>","1",""
"","","","","","html-keyboard-response","84","107544","0.0-4.0-0.40","36","1","2022-11-27 09:56:36","49aca292d257f58668169b9fbab864ae","115.60.187.40","Mozilla/5.0 (Linux; U; Android 11; zh-cn; M2006J10C Build/RP1A.200720.011) AppleWebKit/537.36 (KHTML, like Gecko) Version/4.0 Chrome/100.0.4896.127 Mobile Safari/537.36 XiaoMi/MiuiBrowser/17.1.8 swan-mibrowser","Xiaomi","Chrome","100.0.4896.127","AndroidOS","11","null","<div style=""font-size:60px;"">+</div>","null",""
"","","","","","html-button-response","85","108574","0.0-4.0-1.40","36","1","2022-11-27 09:56:36","49aca292d257f58668169b9fbab864ae","115.60.187.40","Mozilla/5.0 (Linux; U; Android 11; zh-cn; M2006J10C Build/RP1A.200720.011) AppleWebKit/537.36 (KHTML, like Gecko) Version/4.0 Chrome/100.0.4896.127 Mobile Safari/537.36 XiaoMi/MiuiBrowser/17.1.8 swan-mibrowser","Xiaomi","Chrome","100.0.4896.127","AndroidOS","11","970","<p>作为军队的指挥官，你可以选择发射导弹杀死 <strong>8名</strong> 敌国士兵，但会误杀附近的 <strong>1名</strong> 敌国平民。</p> <p>平民照片如下图所示。</p> <p></p> <img src='stimuli/faces/PFF2.jpg', style='max-width: 30%;'> </img> <p><strong>你是否选择发射武器？</strong></p>","1",""
"","","","","","html-keyboard-response","86","109586","0.0-4.0-0.41","36","1","2022-11-27 09:56:36","49aca292d257f58668169b9fbab864ae","115.60.187.40","Mozilla/5.0 (Linux; U; Android 11; zh-cn; M2006J10C Build/RP1A.200720.011) AppleWebKit/537.36 (KHTML, like Gecko) Version/4.0 Chrome/100.0.4896.127 Mobile Safari/537.36 XiaoMi/MiuiBrowser/17.1.8 swan-mibrowser","Xiaomi","Chrome","100.0.4896.127","AndroidOS","11","null","<div style=""font-size:60px;"">+</div>","null",""
"","","","","","html-button-response","87","110639","0.0-4.0-1.41","36","1","2022-11-27 09:56:36","49aca292d257f58668169b9fbab864ae","115.60.187.40","Mozilla/5.0 (Linux; U; Android 11; zh-cn; M2006J10C Build/RP1A.200720.011) AppleWebKit/537.36 (KHTML, like Gecko) Version/4.0 Chrome/100.0.4896.127 Mobile Safari/537.36 XiaoMi/MiuiBrowser/17.1.8 swan-mibrowser","Xiaomi","Chrome","100.0.4896.127","AndroidOS","11","1025","<p>作为军队的指挥官，你可以选择发射导弹杀死 <strong>4名</strong> 敌国士兵，但会炸毁附近的 <strong>1棵</strong> 敌国树木。</p> <p>树木的照片如下图所示。</p> <p></p> <img src='stimuli/trees/15.png', style='max-width: 30%;'> </img> <p><strong>你是否选择发射武器？</strong></p>","1",""
"","","","","","html-keyboard-response","88","111652","0.0-4.0-0.42","36","1","2022-11-27 09:56:36","49aca292d257f58668169b9fbab864ae","115.60.187.40","Mozilla/5.0 (Linux; U; Android 11; zh-cn; M2006J10C Build/RP1A.200720.011) AppleWebKit/537.36 (KHTML, like Gecko) Version/4.0 Chrome/100.0.4896.127 Mobile Safari/537.36 XiaoMi/MiuiBrowser/17.1.8 swan-mibrowser","Xiaomi","Chrome","100.0.4896.127","AndroidOS","11","null","<div style=""font-size:60px;"">+</div>","null",""
"","","","","","html-button-response","89","112624","0.0-4.0-1.42","36","1","2022-11-27 09:56:36","49aca292d257f58668169b9fbab864ae","115.60.187.40","Mozilla/5.0 (Linux; U; Android 11; zh-cn; M2006J10C Build/RP1A.200720.011) AppleWebKit/537.36 (KHTML, like Gecko) Version/4.0 Chrome/100.0.4896.127 Mobile Safari/537.36 XiaoMi/MiuiBrowser/17.1.8 swan-mibrowser","Xiaomi","Chrome","100.0.4896.127","AndroidOS","11","880","<p>作为军队的指挥官，你可以选择发射导弹杀死 <strong>3名</strong> 敌国士兵，但会炸毁附近的 <strong>1棵</strong> 敌国树木。</p> <p>树木的照片如下图所示。</p> <p></p> <img src='stimuli/trees/3.png', style='max-width: 30%;'> </img> <p><strong>你是否选择发射武器？</strong></p>","1",""
"","","","","","html-keyboard-response","90","113637","0.0-4.0-0.43","36","1","2022-11-27 09:56:36","49aca292d257f58668169b9fbab864ae","115.60.187.40","Mozilla/5.0 (Linux; U; Android 11; zh-cn; M2006J10C Build/RP1A.200720.011) AppleWebKit/537.36 (KHTML, like Gecko) Version/4.0 Chrome/100.0.4896.127 Mobile Safari/537.36 XiaoMi/MiuiBrowser/17.1.8 swan-mibrowser","Xiaomi","Chrome","100.0.4896.127","AndroidOS","11","null","<div style=""font-size:60px;"">+</div>","null",""
"","","","","","html-button-response","91","114642","0.0-4.0-1.43","36","1","2022-11-27 09:56:36","49aca292d257f58668169b9fbab864ae","115.60.187.40","Mozilla/5.0 (Linux; U; Android 11; zh-cn; M2006J10C Build/RP1A.200720.011) AppleWebKit/537.36 (KHTML, like Gecko) Version/4.0 Chrome/100.0.4896.127 Mobile Safari/537.36 XiaoMi/MiuiBrowser/17.1.8 swan-mibrowser","Xiaomi","Chrome","100.0.4896.127","AndroidOS","11","977","<p>作为军队的指挥官，你可以选择发射导弹杀死 <strong>2名</strong> 敌国士兵，但会炸毁附近的 <strong>1棵</strong> 敌国树木。</p> <p>树木的照片如下图所示。</p> <p></p> <img src='stimuli/trees/12.png', style='max-width: 30%;'> </img> <p><strong>你是否选择发射武器？</strong></p>","1",""
"","","","","","html-keyboard-response","92","115655","0.0-4.0-0.44","36","1","2022-11-27 09:56:36","49aca292d257f58668169b9fbab864ae","115.60.187.40","Mozilla/5.0 (Linux; U; Android 11; zh-cn; M2006J10C Build/RP1A.200720.011) AppleWebKit/537.36 (KHTML, like Gecko) Version/4.0 Chrome/100.0.4896.127 Mobile Safari/537.36 XiaoMi/MiuiBrowser/17.1.8 swan-mibrowser","Xiaomi","Chrome","100.0.4896.127","AndroidOS","11","null","<div style=""font-size:60px;"">+</div>","null",""
"","","","","","html-button-response","93","116659","0.0-4.0-1.44","36","1","2022-11-27 09:56:36","49aca292d257f58668169b9fbab864ae","115.60.187.40","Mozilla/5.0 (Linux; U; Android 11; zh-cn; M2006J10C Build/RP1A.200720.011) AppleWebKit/537.36 (KHTML, like Gecko) Version/4.0 Chrome/100.0.4896.127 Mobile Safari/537.36 XiaoMi/MiuiBrowser/17.1.8 swan-mibrowser","Xiaomi","Chrome","100.0.4896.127","AndroidOS","11","952","<p>作为军队的指挥官，你可以选择发射导弹杀死 <strong>8名</strong> 敌国士兵，但会炸毁附近的 <strong>1棵</strong> 敌国树木。</p> <p>树木的照片如下图所示。</p> <p></p> <img src='stimuli/trees/4.png', style='max-width: 30%;'> </img> <p><strong>你是否选择发射武器？</strong></p>","1",""
"","","","","","html-keyboard-response","94","117673","0.0-4.0-0.45","36","1","2022-11-27 09:56:36","49aca292d257f58668169b9fbab864ae","115.60.187.40","Mozilla/5.0 (Linux; U; Android 11; zh-cn; M2006J10C Build/RP1A.200720.011) AppleWebKit/537.36 (KHTML, like Gecko) Version/4.0 Chrome/100.0.4896.127 Mobile Safari/537.36 XiaoMi/MiuiBrowser/17.1.8 swan-mibrowser","Xiaomi","Chrome","100.0.4896.127","AndroidOS","11","null","<div style=""font-size:60px;"">+</div>","null",""
"","","","","","html-button-response","95","118803","0.0-4.0-1.45","36","1","2022-11-27 09:56:36","49aca292d257f58668169b9fbab864ae","115.60.187.40","Mozilla/5.0 (Linux; U; Android 11; zh-cn; M2006J10C Build/RP1A.200720.011) AppleWebKit/537.36 (KHTML, like Gecko) Version/4.0 Chrome/100.0.4896.127 Mobile Safari/537.36 XiaoMi/MiuiBrowser/17.1.8 swan-mibrowser","Xiaomi","Chrome","100.0.4896.127","AndroidOS","11","1052","<p>作为军队的指挥官，你可以选择发射导弹杀死 <strong>8名</strong> 敌国士兵，但会误杀附近的 <strong>1名</strong> 敌国平民。</p> <p>平民照片如下图所示。</p> <p></p> <img src='stimuli/faces/PFF6.jpg', style='max-width: 30%;'> </img> <p><strong>你是否选择发射武器？</strong></p>","1",""
"","","","","","html-keyboard-response","96","119815","0.0-4.0-0.46","36","1","2022-11-27 09:56:36","49aca292d257f58668169b9fbab864ae","115.60.187.40","Mozilla/5.0 (Linux; U; Android 11; zh-cn; M2006J10C Build/RP1A.200720.011) AppleWebKit/537.36 (KHTML, like Gecko) Version/4.0 Chrome/100.0.4896.127 Mobile Safari/537.36 XiaoMi/MiuiBrowser/17.1.8 swan-mibrowser","Xiaomi","Chrome","100.0.4896.127","AndroidOS","11","null","<div style=""font-size:60px;"">+</div>","null",""
"","","","","","html-button-response","97","120969","0.0-4.0-1.46","36","1","2022-11-27 09:56:36","49aca292d257f58668169b9fbab864ae","115.60.187.40","Mozilla/5.0 (Linux; U; Android 11; zh-cn; M2006J10C Build/RP1A.200720.011) AppleWebKit/537.36 (KHTML, like Gecko) Version/4.0 Chrome/100.0.4896.127 Mobile Safari/537.36 XiaoMi/MiuiBrowser/17.1.8 swan-mibrowser","Xiaomi","Chrome","100.0.4896.127","AndroidOS","11","1066","<p>作为军队的指挥官，你可以选择发射导弹杀死 <strong>9名</strong> 敌国士兵，但会炸毁附近的 <strong>1棵</strong> 敌国树木。</p> <p>树木的照片如下图所示。</p> <p></p> <img src='stimuli/trees/13.png', style='max-width: 30%;'> </img> <p><strong>你是否选择发射武器？</strong></p>","1",""
"","","","","","html-keyboard-response","98","121981","0.0-4.0-0.47","36","1","2022-11-27 09:56:36","49aca292d257f58668169b9fbab864ae","115.60.187.40","Mozilla/5.0 (Linux; U; Android 11; zh-cn; M2006J10C Build/RP1A.200720.011) AppleWebKit/537.36 (KHTML, like Gecko) Version/4.0 Chrome/100.0.4896.127 Mobile Safari/537.36 XiaoMi/MiuiBrowser/17.1.8 swan-mibrowser","Xiaomi","Chrome","100.0.4896.127","AndroidOS","11","null","<div style=""font-size:60px;"">+</div>","null",""
"","","","","","html-button-response","99","123065","0.0-4.0-1.47","36","1","2022-11-27 09:56:36","49aca292d257f58668169b9fbab864ae","115.60.187.40","Mozilla/5.0 (Linux; U; Android 11; zh-cn; M2006J10C Build/RP1A.200720.011) AppleWebKit/537.36 (KHTML, like Gecko) Version/4.0 Chrome/100.0.4896.127 Mobile Safari/537.36 XiaoMi/MiuiBrowser/17.1.8 swan-mibrowser","Xiaomi","Chrome","100.0.4896.127","AndroidOS","11","1063","<p>作为军队的指挥官，你可以选择发射导弹杀死 <strong>9名</strong> 敌国士兵，但会误杀附近的 <strong>1名</strong> 敌国平民。</p> <p>平民照片如下图所示。</p> <p></p> <img src='stimuli/faces/PFF5.jpg', style='max-width: 30%;'> </img> <p><strong>你是否选择发射武器？</strong></p>","1",""
"","","","","","html-keyboard-response","100","124077","0.0-4.0-0.48","36","1","2022-11-27 09:56:36","49aca292d257f58668169b9fbab864ae","115.60.187.40","Mozilla/5.0 (Linux; U; Android 11; zh-cn; M2006J10C Build/RP1A.200720.011) AppleWebKit/537.36 (KHTML, like Gecko) Version/4.0 Chrome/100.0.4896.127 Mobile Safari/537.36 XiaoMi/MiuiBrowser/17.1.8 swan-mibrowser","Xiaomi","Chrome","100.0.4896.127","AndroidOS","11","null","<div style=""font-size:60px;"">+</div>","null",""
"","","","","","html-button-response","101","125159","0.0-4.0-1.48","36","1","2022-11-27 09:56:36","49aca292d257f58668169b9fbab864ae","115.60.187.40","Mozilla/5.0 (Linux; U; Android 11; zh-cn; M2006J10C Build/RP1A.200720.011) AppleWebKit/537.36 (KHTML, like Gecko) Version/4.0 Chrome/100.0.4896.127 Mobile Safari/537.36 XiaoMi/MiuiBrowser/17.1.8 swan-mibrowser","Xiaomi","Chrome","100.0.4896.127","AndroidOS","11","1052","<p>作为军队的指挥官，你可以选择发射导弹杀死 <strong>9名</strong> 敌国士兵，但会误杀附近的 <strong>1名</strong> 敌国平民。</p> <p>平民照片如下图所示。</p> <p></p> <img src='stimuli/faces/PFM7.jpg', style='max-width: 30%;'> </img> <p><strong>你是否选择发射武器？</strong></p>","1",""
"","","","","","html-keyboard-response","102","126174","0.0-4.0-0.49","36","1","2022-11-27 09:56:36","49aca292d257f58668169b9fbab864ae","115.60.187.40","Mozilla/5.0 (Linux; U; Android 11; zh-cn; M2006J10C Build/RP1A.200720.011) AppleWebKit/537.36 (KHTML, like Gecko) Version/4.0 Chrome/100.0.4896.127 Mobile Safari/537.36 XiaoMi/MiuiBrowser/17.1.8 swan-mibrowser","Xiaomi","Chrome","100.0.4896.127","AndroidOS","11","null","<div style=""font-size:60px;"">+</div>","null",""
"","","","","","html-button-response","103","127172","0.0-4.0-1.49","36","1","2022-11-27 09:56:36","49aca292d257f58668169b9fbab864ae","115.60.187.40","Mozilla/5.0 (Linux; U; Android 11; zh-cn; M2006J10C Build/RP1A.200720.011) AppleWebKit/537.36 (KHTML, like Gecko) Version/4.0 Chrome/100.0.4896.127 Mobile Safari/537.36 XiaoMi/MiuiBrowser/17.1.8 swan-mibrowser","Xiaomi","Chrome","100.0.4896.127","AndroidOS","11","967","<p>作为军队的指挥官，你可以选择发射导弹杀死 <strong>4名</strong> 敌国士兵，但会炸毁附近的 <strong>1棵</strong> 敌国树木。</p> <p>树木的照片如下图所示。</p> <p></p> <img src='stimuli/trees/14.png', style='max-width: 30%;'> </img> <p><strong>你是否选择发射武器？</strong></p>","1",""
"","","","","","html-keyboard-response","104","128186","0.0-4.0-0.50","36","1","2022-11-27 09:56:36","49aca292d257f58668169b9fbab864ae","115.60.187.40","Mozilla/5.0 (Linux; U; Android 11; zh-cn; M2006J10C Build/RP1A.200720.011) AppleWebKit/537.36 (KHTML, like Gecko) Version/4.0 Chrome/100.0.4896.127 Mobile Safari/537.36 XiaoMi/MiuiBrowser/17.1.8 swan-mibrowser","Xiaomi","Chrome","100.0.4896.127","AndroidOS","11","null","<div style=""font-size:60px;"">+</div>","null",""
"","","","","","html-button-response","105","129267","0.0-4.0-1.50","36","1","2022-11-27 09:56:36","49aca292d257f58668169b9fbab864ae","115.60.187.40","Mozilla/5.0 (Linux; U; Android 11; zh-cn; M2006J10C Build/RP1A.200720.011) AppleWebKit/537.36 (KHTML, like Gecko) Version/4.0 Chrome/100.0.4896.127 Mobile Safari/537.36 XiaoMi/MiuiBrowser/17.1.8 swan-mibrowser","Xiaomi","Chrome","100.0.4896.127","AndroidOS","11","1053","<p>作为军队的指挥官，你可以选择发射导弹杀死 <strong>3名</strong> 敌国士兵，但会误杀附近的 <strong>1名</strong> 敌国平民。</p> <p>平民照片如下图所示。</p> <p></p> <img src='stimuli/faces/PFF1.jpg', style='max-width: 30%;'> </img> <p><strong>你是否选择发射武器？</strong></p>","1",""
"","","","","","html-keyboard-response","106","130344","0.0-4.0-0.51","36","1","2022-11-27 09:56:36","49aca292d257f58668169b9fbab864ae","115.60.187.40","Mozilla/5.0 (Linux; U; Android 11; zh-cn; M2006J10C Build/RP1A.200720.011) AppleWebKit/537.36 (KHTML, like Gecko) Version/4.0 Chrome/100.0.4896.127 Mobile Safari/537.36 XiaoMi/MiuiBrowser/17.1.8 swan-mibrowser","Xiaomi","Chrome","100.0.4896.127","AndroidOS","11","null","<div style=""font-size:60px;"">+</div>","null",""
"","","","","","html-button-response","107","131623","0.0-4.0-1.51","36","1","2022-11-27 09:56:36","49aca292d257f58668169b9fbab864ae","115.60.187.40","Mozilla/5.0 (Linux; U; Android 11; zh-cn; M2006J10C Build/RP1A.200720.011) AppleWebKit/537.36 (KHTML, like Gecko) Version/4.0 Chrome/100.0.4896.127 Mobile Safari/537.36 XiaoMi/MiuiBrowser/17.1.8 swan-mibrowser","Xiaomi","Chrome","100.0.4896.127","AndroidOS","11","1251","<p>作为军队的指挥官，你可以选择发射导弹杀死 <strong>9名</strong> 敌国士兵，但会炸毁附近的 <strong>1棵</strong> 敌国树木。</p> <p>树木的照片如下图所示。</p> <p></p> <img src='stimuli/trees/8.png', style='max-width: 30%;'> </img> <p><strong>你是否选择发射武器？</strong></p>","1",""
"","","","","","html-keyboard-response","108","132634","0.0-4.0-0.52","36","1","2022-11-27 09:56:36","49aca292d257f58668169b9fbab864ae","115.60.187.40","Mozilla/5.0 (Linux; U; Android 11; zh-cn; M2006J10C Build/RP1A.200720.011) AppleWebKit/537.36 (KHTML, like Gecko) Version/4.0 Chrome/100.0.4896.127 Mobile Safari/537.36 XiaoMi/MiuiBrowser/17.1.8 swan-mibrowser","Xiaomi","Chrome","100.0.4896.127","AndroidOS","11","null","<div style=""font-size:60px;"">+</div>","null",""
"","","","","","html-button-response","109","133791","0.0-4.0-1.52","36","1","2022-11-27 09:56:36","49aca292d257f58668169b9fbab864ae","115.60.187.40","Mozilla/5.0 (Linux; U; Android 11; zh-cn; M2006J10C Build/RP1A.200720.011) AppleWebKit/537.36 (KHTML, like Gecko) Version/4.0 Chrome/100.0.4896.127 Mobile Safari/537.36 XiaoMi/MiuiBrowser/17.1.8 swan-mibrowser","Xiaomi","Chrome","100.0.4896.127","AndroidOS","11","1049","<p>作为军队的指挥官，你可以选择发射导弹杀死 <strong>6名</strong> 敌国士兵，但会误杀附近的 <strong>1名</strong> 敌国平民。</p> <p>平民照片如下图所示。</p> <p></p> <img src='stimuli/faces/PFM3.jpg', style='max-width: 30%;'> </img> <p><strong>你是否选择发射武器？</strong></p>","1",""
"","","","","","html-keyboard-response","110","134802","0.0-4.0-0.53","36","1","2022-11-27 09:56:36","49aca292d257f58668169b9fbab864ae","115.60.187.40","Mozilla/5.0 (Linux; U; Android 11; zh-cn; M2006J10C Build/RP1A.200720.011) AppleWebKit/537.36 (KHTML, like Gecko) Version/4.0 Chrome/100.0.4896.127 Mobile Safari/537.36 XiaoMi/MiuiBrowser/17.1.8 swan-mibrowser","Xiaomi","Chrome","100.0.4896.127","AndroidOS","11","null","<div style=""font-size:60px;"">+</div>","null",""
"","","","","","html-button-response","111","135947","0.0-4.0-1.53","36","1","2022-11-27 09:56:36","49aca292d257f58668169b9fbab864ae","115.60.187.40","Mozilla/5.0 (Linux; U; Android 11; zh-cn; M2006J10C Build/RP1A.200720.011) AppleWebKit/537.36 (KHTML, like Gecko) Version/4.0 Chrome/100.0.4896.127 Mobile Safari/537.36 XiaoMi/MiuiBrowser/17.1.8 swan-mibrowser","Xiaomi","Chrome","100.0.4896.127","AndroidOS","11","1105","<p>作为军队的指挥官，你可以选择发射导弹杀死 <strong>5名</strong> 敌国士兵，但会误杀附近的 <strong>1名</strong> 敌国平民。</p> <p>平民照片如下图所示。</p> <p></p> <img src='stimuli/faces/PFF8.jpg', style='max-width: 30%;'> </img> <p><strong>你是否选择发射武器？</strong></p>","1",""
"","","","","","html-keyboard-response","112","136958","0.0-4.0-0.54","36","1","2022-11-27 09:56:36","49aca292d257f58668169b9fbab864ae","115.60.187.40","Mozilla/5.0 (Linux; U; Android 11; zh-cn; M2006J10C Build/RP1A.200720.011) AppleWebKit/537.36 (KHTML, like Gecko) Version/4.0 Chrome/100.0.4896.127 Mobile Safari/537.36 XiaoMi/MiuiBrowser/17.1.8 swan-mibrowser","Xiaomi","Chrome","100.0.4896.127","AndroidOS","11","null","<div style=""font-size:60px;"">+</div>","null",""
"","","","","","html-button-response","113","138119","0.0-4.0-1.54","36","1","2022-11-27 09:56:36","49aca292d257f58668169b9fbab864ae","115.60.187.40","Mozilla/5.0 (Linux; U; Android 11; zh-cn; M2006J10C Build/RP1A.200720.011) AppleWebKit/537.36 (KHTML, like Gecko) Version/4.0 Chrome/100.0.4896.127 Mobile Safari/537.36 XiaoMi/MiuiBrowser/17.1.8 swan-mibrowser","Xiaomi","Chrome","100.0.4896.127","AndroidOS","11","1068","<p>作为军队的指挥官，你可以选择发射导弹杀死 <strong>1名</strong> 敌国士兵，但会炸毁附近的 <strong>1棵</strong> 敌国树木。</p> <p>树木的照片如下图所示。</p> <p></p> <img src='stimuli/trees/10.png', style='max-width: 30%;'> </img> <p><strong>你是否选择发射武器？</strong></p>","1",""
"","","","","","html-keyboard-response","114","139130","0.0-4.0-0.55","36","1","2022-11-27 09:56:36","49aca292d257f58668169b9fbab864ae","115.60.187.40","Mozilla/5.0 (Linux; U; Android 11; zh-cn; M2006J10C Build/RP1A.200720.011) AppleWebKit/537.36 (KHTML, like Gecko) Version/4.0 Chrome/100.0.4896.127 Mobile Safari/537.36 XiaoMi/MiuiBrowser/17.1.8 swan-mibrowser","Xiaomi","Chrome","100.0.4896.127","AndroidOS","11","null","<div style=""font-size:60px;"">+</div>","null",""
"","","","","","html-button-response","115","140135","0.0-4.0-1.55","36","1","2022-11-27 09:56:36","49aca292d257f58668169b9fbab864ae","115.60.187.40","Mozilla/5.0 (Linux; U; Android 11; zh-cn; M2006J10C Build/RP1A.200720.011) AppleWebKit/537.36 (KHTML, like Gecko) Version/4.0 Chrome/100.0.4896.127 Mobile Safari/537.36 XiaoMi/MiuiBrowser/17.1.8 swan-mibrowser","Xiaomi","Chrome","100.0.4896.127","AndroidOS","11","970","<p>作为军队的指挥官，你可以选择发射导弹杀死 <strong>7名</strong> 敌国士兵，但会误杀附近的 <strong>1名</strong> 敌国平民。</p> <p>平民照片如下图所示。</p> <p></p> <img src='stimuli/faces/PFF4.jpg', style='max-width: 30%;'> </img> <p><strong>你是否选择发射武器？</strong></p>","1",""
"","","","","","html-keyboard-response","116","141145","0.0-4.0-0.56","36","1","2022-11-27 09:56:36","49aca292d257f58668169b9fbab864ae","115.60.187.40","Mozilla/5.0 (Linux; U; Android 11; zh-cn; M2006J10C Build/RP1A.200720.011) AppleWebKit/537.36 (KHTML, like Gecko) Version/4.0 Chrome/100.0.4896.127 Mobile Safari/537.36 XiaoMi/MiuiBrowser/17.1.8 swan-mibrowser","Xiaomi","Chrome","100.0.4896.127","AndroidOS","11","null","<div style=""font-size:60px;"">+</div>","null",""
"","","","","","html-button-response","117","142185","0.0-4.0-1.56","36","1","2022-11-27 09:56:36","49aca292d257f58668169b9fbab864ae","115.60.187.40","Mozilla/5.0 (Linux; U; Android 11; zh-cn; M2006J10C Build/RP1A.200720.011) AppleWebKit/537.36 (KHTML, like Gecko) Version/4.0 Chrome/100.0.4896.127 Mobile Safari/537.36 XiaoMi/MiuiBrowser/17.1.8 swan-mibrowser","Xiaomi","Chrome","100.0.4896.127","AndroidOS","11","1012","<p>作为军队的指挥官，你可以选择发射导弹杀死 <strong>2名</strong> 敌国士兵，但会炸毁附近的 <strong>1棵</strong> 敌国树木。</p> <p>树木的照片如下图所示。</p> <p></p> <img src='stimuli/trees/1.png', style='max-width: 30%;'> </img> <p><strong>你是否选择发射武器？</strong></p>","1",""
"","","","","","html-keyboard-response","118","143196","0.0-4.0-0.57","36","1","2022-11-27 09:56:36","49aca292d257f58668169b9fbab864ae","115.60.187.40","Mozilla/5.0 (Linux; U; Android 11; zh-cn; M2006J10C Build/RP1A.200720.011) AppleWebKit/537.36 (KHTML, like Gecko) Version/4.0 Chrome/100.0.4896.127 Mobile Safari/537.36 XiaoMi/MiuiBrowser/17.1.8 swan-mibrowser","Xiaomi","Chrome","100.0.4896.127","AndroidOS","11","null","<div style=""font-size:60px;"">+</div>","null",""
"","","","","","html-button-response","119","144124","0.0-4.0-1.57","36","1","2022-11-27 09:56:36","49aca292d257f58668169b9fbab864ae","115.60.187.40","Mozilla/5.0 (Linux; U; Android 11; zh-cn; M2006J10C Build/RP1A.200720.011) AppleWebKit/537.36 (KHTML, like Gecko) Version/4.0 Chrome/100.0.4896.127 Mobile Safari/537.36 XiaoMi/MiuiBrowser/17.1.8 swan-mibrowser","Xiaomi","Chrome","100.0.4896.127","AndroidOS","11","868","<p>作为军队的指挥官，你可以选择发射导弹杀死 <strong>4名</strong> 敌国士兵，但会误杀附近的 <strong>1名</strong> 敌国平民。</p> <p>平民照片如下图所示。</p> <p></p> <img src='stimuli/faces/PFM2.jpg', style='max-width: 30%;'> </img> <p><strong>你是否选择发射武器？</strong></p>","1",""
"","","","","","html-keyboard-response","120","145136","0.0-4.0-0.58","36","1","2022-11-27 09:56:36","49aca292d257f58668169b9fbab864ae","115.60.187.40","Mozilla/5.0 (Linux; U; Android 11; zh-cn; M2006J10C Build/RP1A.200720.011) AppleWebKit/537.36 (KHTML, like Gecko) Version/4.0 Chrome/100.0.4896.127 Mobile Safari/537.36 XiaoMi/MiuiBrowser/17.1.8 swan-mibrowser","Xiaomi","Chrome","100.0.4896.127","AndroidOS","11","null","<div style=""font-size:60px;"">+</div>","null",""
"","","","","","html-button-response","121","146330","0.0-4.0-1.58","36","1","2022-11-27 09:56:36","49aca292d257f58668169b9fbab864ae","115.60.187.40","Mozilla/5.0 (Linux; U; Android 11; zh-cn; M2006J10C Build/RP1A.200720.011) AppleWebKit/537.36 (KHTML, like Gecko) Version/4.0 Chrome/100.0.4896.127 Mobile Safari/537.36 XiaoMi/MiuiBrowser/17.1.8 swan-mibrowser","Xiaomi","Chrome","100.0.4896.127","AndroidOS","11","1097","<p>作为军队的指挥官，你可以选择发射导弹杀死 <strong>2名</strong> 敌国士兵，但会炸毁附近的 <strong>1棵</strong> 敌国树木。</p> <p>树木的照片如下图所示。</p> <p></p> <img src='stimuli/trees/16.png', style='max-width: 30%;'> </img> <p><strong>你是否选择发射武器？</strong></p>","1",""
"","","","","","html-keyboard-response","122","147342","0.0-4.0-0.59","36","1","2022-11-27 09:56:36","49aca292d257f58668169b9fbab864ae","115.60.187.40","Mozilla/5.0 (Linux; U; Android 11; zh-cn; M2006J10C Build/RP1A.200720.011) AppleWebKit/537.36 (KHTML, like Gecko) Version/4.0 Chrome/100.0.4896.127 Mobile Safari/537.36 XiaoMi/MiuiBrowser/17.1.8 swan-mibrowser","Xiaomi","Chrome","100.0.4896.127","AndroidOS","11","null","<div style=""font-size:60px;"">+</div>","null",""
"","","","","","html-button-response","123","148747","0.0-4.0-1.59","36","1","2022-11-27 09:56:36","49aca292d257f58668169b9fbab864ae","115.60.187.40","Mozilla/5.0 (Linux; U; Android 11; zh-cn; M2006J10C Build/RP1A.200720.011) AppleWebKit/537.36 (KHTML, like Gecko) Version/4.0 Chrome/100.0.4896.127 Mobile Safari/537.36 XiaoMi/MiuiBrowser/17.1.8 swan-mibrowser","Xiaomi","Chrome","100.0.4896.127","AndroidOS","11","1341","<p>作为军队的指挥官，你可以选择发射导弹杀死 <strong>9名</strong> 敌国士兵，但会误杀附近的 <strong>1名</strong> 敌国平民。</p> <p>平民照片如下图所示。</p> <p></p> <img src='stimuli/faces/PFF3.jpg', style='max-width: 30%;'> </img> <p><strong>你是否选择发射武器？</strong></p>","1",""
"","","","","","html-keyboard-response","124","149762","0.0-4.0-0.60","36","1","2022-11-27 09:56:36","49aca292d257f58668169b9fbab864ae","115.60.187.40","Mozilla/5.0 (Linux; U; Android 11; zh-cn; M2006J10C Build/RP1A.200720.011) AppleWebKit/537.36 (KHTML, like Gecko) Version/4.0 Chrome/100.0.4896.127 Mobile Safari/537.36 XiaoMi/MiuiBrowser/17.1.8 swan-mibrowser","Xiaomi","Chrome","100.0.4896.127","AndroidOS","11","null","<div style=""font-size:60px;"">+</div>","null",""
"","","","","","html-button-response","125","150739","0.0-4.0-1.60","36","1","2022-11-27 09:56:36","49aca292d257f58668169b9fbab864ae","115.60.187.40","Mozilla/5.0 (Linux; U; Android 11; zh-cn; M2006J10C Build/RP1A.200720.011) AppleWebKit/537.36 (KHTML, like Gecko) Version/4.0 Chrome/100.0.4896.127 Mobile Safari/537.36 XiaoMi/MiuiBrowser/17.1.8 swan-mibrowser","Xiaomi","Chrome","100.0.4896.127","AndroidOS","11","885","<p>作为军队的指挥官，你可以选择发射导弹杀死 <strong>5名</strong> 敌国士兵，但会炸毁附近的 <strong>1棵</strong> 敌国树木。</p> <p>树木的照片如下图所示。</p> <p></p> <img src='stimuli/trees/7.png', style='max-width: 30%;'> </img> <p><strong>你是否选择发射武器？</strong></p>","1",""
"","","","","","html-keyboard-response","126","151755","0.0-4.0-0.61","36","1","2022-11-27 09:56:36","49aca292d257f58668169b9fbab864ae","115.60.187.40","Mozilla/5.0 (Linux; U; Android 11; zh-cn; M2006J10C Build/RP1A.200720.011) AppleWebKit/537.36 (KHTML, like Gecko) Version/4.0 Chrome/100.0.4896.127 Mobile Safari/537.36 XiaoMi/MiuiBrowser/17.1.8 swan-mibrowser","Xiaomi","Chrome","100.0.4896.127","AndroidOS","11","null","<div style=""font-size:60px;"">+</div>","null",""
"","","","","","html-button-response","127","153037","0.0-4.0-1.61","36","1","2022-11-27 09:56:36","49aca292d257f58668169b9fbab864ae","115.60.187.40","Mozilla/5.0 (Linux; U; Android 11; zh-cn; M2006J10C Build/RP1A.200720.011) AppleWebKit/537.36 (KHTML, like Gecko) Version/4.0 Chrome/100.0.4896.127 Mobile Safari/537.36 XiaoMi/MiuiBrowser/17.1.8 swan-mibrowser","Xiaomi","Chrome","100.0.4896.127","AndroidOS","11","1172","<p>作为军队的指挥官，你可以选择发射导弹杀死 <strong>7名</strong> 敌国士兵，但会误杀附近的 <strong>1名</strong> 敌国平民。</p> <p>平民照片如下图所示。</p> <p></p> <img src='stimuli/faces/PFF8.jpg', style='max-width: 30%;'> </img> <p><strong>你是否选择发射武器？</strong></p>","1",""
"","","","","","html-keyboard-response","128","154051","0.0-4.0-0.62","36","1","2022-11-27 09:56:36","49aca292d257f58668169b9fbab864ae","115.60.187.40","Mozilla/5.0 (Linux; U; Android 11; zh-cn; M2006J10C Build/RP1A.200720.011) AppleWebKit/537.36 (KHTML, like Gecko) Version/4.0 Chrome/100.0.4896.127 Mobile Safari/537.36 XiaoMi/MiuiBrowser/17.1.8 swan-mibrowser","Xiaomi","Chrome","100.0.4896.127","AndroidOS","11","null","<div style=""font-size:60px;"">+</div>","null",""
"","","","","","html-button-response","129","155369","0.0-4.0-1.62","36","1","2022-11-27 09:56:36","49aca292d257f58668169b9fbab864ae","115.60.187.40","Mozilla/5.0 (Linux; U; Android 11; zh-cn; M2006J10C Build/RP1A.200720.011) AppleWebKit/537.36 (KHTML, like Gecko) Version/4.0 Chrome/100.0.4896.127 Mobile Safari/537.36 XiaoMi/MiuiBrowser/17.1.8 swan-mibrowser","Xiaomi","Chrome","100.0.4896.127","AndroidOS","11","1210","<p>作为军队的指挥官，你可以选择发射导弹杀死 <strong>2名</strong> 敌国士兵，但会误杀附近的 <strong>1名</strong> 敌国平民。</p> <p>平民照片如下图所示。</p> <p></p> <img src='stimuli/faces/PFM7.jpg', style='max-width: 30%;'> </img> <p><strong>你是否选择发射武器？</strong></p>","1",""
"","","","","","html-keyboard-response","130","156383","0.0-4.0-0.63","36","1","2022-11-27 09:56:36","49aca292d257f58668169b9fbab864ae","115.60.187.40","Mozilla/5.0 (Linux; U; Android 11; zh-cn; M2006J10C Build/RP1A.200720.011) AppleWebKit/537.36 (KHTML, like Gecko) Version/4.0 Chrome/100.0.4896.127 Mobile Safari/537.36 XiaoMi/MiuiBrowser/17.1.8 swan-mibrowser","Xiaomi","Chrome","100.0.4896.127","AndroidOS","11","null","<div style=""font-size:60px;"">+</div>","null",""
"","","","","","html-button-response","131","157647","0.0-4.0-1.63","36","1","2022-11-27 09:56:36","49aca292d257f58668169b9fbab864ae","115.60.187.40","Mozilla/5.0 (Linux; U; Android 11; zh-cn; M2006J10C Build/RP1A.200720.011) AppleWebKit/537.36 (KHTML, like Gecko) Version/4.0 Chrome/100.0.4896.127 Mobile Safari/537.36 XiaoMi/MiuiBrowser/17.1.8 swan-mibrowser","Xiaomi","Chrome","100.0.4896.127","AndroidOS","11","1149","<p>作为军队的指挥官，你可以选择发射导弹杀死 <strong>2名</strong> 敌国士兵，但会炸毁附近的 <strong>1棵</strong> 敌国树木。</p> <p>树木的照片如下图所示。</p> <p></p> <img src='stimuli/trees/9.png', style='max-width: 30%;'> </img> <p><strong>你是否选择发射武器？</strong></p>","1",""
"","","","","","survey-multi-choice","132","173818","0.0-5.0","36","1","2022-11-27 09:56:36","49aca292d257f58668169b9fbab864ae","115.60.187.40","Mozilla/5.0 (Linux; U; Android 11; zh-cn; M2006J10C Build/RP1A.200720.011) AppleWebKit/537.36 (KHTML, like Gecko) Version/4.0 Chrome/100.0.4896.127 Mobile Safari/537.36 XiaoMi/MiuiBrowser/17.1.8 swan-mibrowser","Xiaomi","Chrome","100.0.4896.127","AndroidOS","11","16153","","{""Attention1"":""""}","[0]"
"","","","","","html-button-response","133","176918","0.0-6.0","36","1","2022-11-27 09:56:36","49aca292d257f58668169b9fbab864ae","115.60.187.40","Mozilla/5.0 (Linux; U; Android 11; zh-cn; M2006J10C Build/RP1A.200720.011) AppleWebKit/537.36 (KHTML, like Gecko) Version/4.0 Chrome/100.0.4896.127 Mobile Safari/537.36 XiaoMi/MiuiBrowser/17.1.8 swan-mibrowser","Xiaomi","Chrome","100.0.4896.127","AndroidOS","11","3079","<p style=""font-size:20px;font-weight:bold;"">恭喜！</p><p>你已经完成了实验的第一部分。</p><p>请休息放松一下，然后进入第二部分。</p><p>这部分大约需要10分钟。</p>","0",""
"","","","","","survey-text","134","231867","0.0-7.0","36","1","2022-11-27 09:56:36","49aca292d257f58668169b9fbab864ae","115.60.187.40","Mozilla/5.0 (Linux; U; Android 11; zh-cn; M2006J10C Build/RP1A.200720.011) AppleWebKit/537.36 (KHTML, like Gecko) Version/4.0 Chrome/100.0.4896.127 Mobile Safari/537.36 XiaoMi/MiuiBrowser/17.1.8 swan-mibrowser","Xiaomi","Chrome","100.0.4896.127","AndroidOS","11","53884","","{""Age"":""24"",""Nation"":""中国"",""Born"":""河南省信阳市"",""Live"":""河南省郑州市"",""Ethnic"":""汉"",""Alipay"":""15237683197""}",""
"","","","","","survey-multi-choice","135","247216","0.0-8.0","36","1","2022-11-27 09:56:36","49aca292d257f58668169b9fbab864ae","115.60.187.40","Mozilla/5.0 (Linux; U; Android 11; zh-cn; M2006J10C Build/RP1A.200720.011) AppleWebKit/537.36 (KHTML, like Gecko) Version/4.0 Chrome/100.0.4896.127 Mobile Safari/537.36 XiaoMi/MiuiBrowser/17.1.8 swan-mibrowser","Xiaomi","Chrome","100.0.4896.127","AndroidOS","11","15274","","{""Gender"":""男"",""Education"":""本科毕业"",""Income"":""￥270,000-￥489,999"",""Children"":""1"",""Race"":""亚洲人""}","[0,1,2,3,4]"
"","","","","","survey-multi-select","136","260413","0.0-9.0","36","1","2022-11-27 09:56:36","49aca292d257f58668169b9fbab864ae","115.60.187.40","Mozilla/5.0 (Linux; U; Android 11; zh-cn; M2006J10C Build/RP1A.200720.011) AppleWebKit/537.36 (KHTML, like Gecko) Version/4.0 Chrome/100.0.4896.127 Mobile Safari/537.36 XiaoMi/MiuiBrowser/17.1.8 swan-mibrowser","Xiaomi","Chrome","100.0.4896.127","AndroidOS","11","13160","","{""Marriage"":[""已婚""],""Religion"":[""佛教"",""不可知论者""]}","[0,1]"
"","","","","","survey-multi-choice","137","269731","0.0-10.0","36","1","2022-11-27 09:56:36","49aca292d257f58668169b9fbab864ae","115.60.187.40","Mozilla/5.0 (Linux; U; Android 11; zh-cn; M2006J10C Build/RP1A.200720.011) AppleWebKit/537.36 (KHTML, like Gecko) Version/4.0 Chrome/100.0.4896.127 Mobile Safari/537.36 XiaoMi/MiuiBrowser/17.1.8 swan-mibrowser","Xiaomi","Chrome","100.0.4896.127","AndroidOS","11","9297","","{""SES"":""5""}","[0]"
"","","","","","html-button-response","138","271939","0.0-11.0","36","1","2022-11-27 09:56:36","49aca292d257f58668169b9fbab864ae","115.60.187.40","Mozilla/5.0 (Linux; U; Android 11; zh-cn; M2006J10C Build/RP1A.200720.011) AppleWebKit/537.36 (KHTML, like Gecko) Version/4.0 Chrome/100.0.4896.127 Mobile Safari/537.36 XiaoMi/MiuiBrowser/17.1.8 swan-mibrowser","Xiaomi","Chrome","100.0.4896.127","AndroidOS","11","2188","<p><strong>请判断下列陈述在多大程度上可以形容你？</p><p> (1 = ""和我一点都不像"" to 5 = ""非常像我"".)</strong></p>","0",""
"","","","","","survey-likert","139","299355","0.0-12.0","36","1","2022-11-27 09:56:36","49aca292d257f58668169b9fbab864ae","115.60.187.40","Mozilla/5.0 (Linux; U; Android 11; zh-cn; M2006J10C Build/RP1A.200720.011) AppleWebKit/537.36 (KHTML, like Gecko) Version/4.0 Chrome/100.0.4896.127 Mobile Safari/537.36 XiaoMi/MiuiBrowser/17.1.8 swan-mibrowser","Xiaomi","Chrome","100.0.4896.127","AndroidOS","11","27370","","{""Aggression1"":0,""Aggression2"":3,""Aggression3"":3,""Aggression4"":1,""Aggression5"":3,""Aggression6"":3,""Aggression7"":4,""Aggression8"":1,""Aggression9"":0}","[0,1,2,3,4,5,6,7,8]"
"","","","","","html-button-response","140","300619","0.0-13.0","36","1","2022-11-27 09:56:36","49aca292d257f58668169b9fbab864ae","115.60.187.40","Mozilla/5.0 (Linux; U; Android 11; zh-cn; M2006J10C Build/RP1A.200720.011) AppleWebKit/537.36 (KHTML, like Gecko) Version/4.0 Chrome/100.0.4896.127 Mobile Safari/537.36 XiaoMi/MiuiBrowser/17.1.8 swan-mibrowser","Xiaomi","Chrome","100.0.4896.127","AndroidOS","11","1243","<p><strong>请判断你在多大程度上同意下列陈述。</strong></p>","0",""
"","","","","","survey-likert","141","338671","0.0-14.0","36","1","2022-11-27 09:56:36","49aca292d257f58668169b9fbab864ae","115.60.187.40","Mozilla/5.0 (Linux; U; Android 11; zh-cn; M2006J10C Build/RP1A.200720.011) AppleWebKit/537.36 (KHTML, like Gecko) Version/4.0 Chrome/100.0.4896.127 Mobile Safari/537.36 XiaoMi/MiuiBrowser/17.1.8 swan-mibrowser","Xiaomi","Chrome","100.0.4896.127","AndroidOS","11","38023","","{""scale27"":2,""scale10"":3,""scale20"":2,""scale3"":1,""scale12"":3,""scale25"":3,""scale15"":2,""scale16"":3,""scale23"":2,""scale8"":3,""scale2"":2,""scale6"":3,""scale1"":1,""scale26"":1,""scale13"":3,""scale7"":3,""scale11"":1,""scale24"":2,""scale28"":3,""scale9"":3,""scale21"":2,""scale14"":1,""scale17"":2,""scale5"":2,""scale19"":2,""scale4"":3,""scale18"":3,""scale22"":1}","[26,9,19,2,11,24,14,15,22,7,1,5,0,25,12,6,10,23,27,8,20,13,16,4,18,3,17,21]"
"","","","","","html-button-response","142","340255","0.0-15.0","36","1","2022-11-27 09:56:36","49aca292d257f58668169b9fbab864ae","115.60.187.40","Mozilla/5.0 (Linux; U; Android 11; zh-cn; M2006J10C Build/RP1A.200720.011) AppleWebKit/537.36 (KHTML, like Gecko) Version/4.0 Chrome/100.0.4896.127 Mobile Safari/537.36 XiaoMi/MiuiBrowser/17.1.8 swan-mibrowser","Xiaomi","Chrome","100.0.4896.127","AndroidOS","11","1562","<p><strong>请判断你在多大程度上同意下列陈述。</strong></p>","0",""
"","","","","","survey-likert","143","393213","0.0-16.0","36","1","2022-11-27 09:56:36","49aca292d257f58668169b9fbab864ae","115.60.187.40","Mozilla/5.0 (Linux; U; Android 11; zh-cn; M2006J10C Build/RP1A.200720.011) AppleWebKit/537.36 (KHTML, like Gecko) Version/4.0 Chrome/100.0.4896.127 Mobile Safari/537.36 XiaoMi/MiuiBrowser/17.1.8 swan-mibrowser","Xiaomi","Chrome","100.0.4896.127","AndroidOS","11","52934","","{""sdo16"":6,""sdo13"":6,""sdo3"":3,""sdo14"":3,""sdo4"":3,""sdo7"":0,""sdo5"":5,""sdo2"":4,""sdo15"":2,""sdo11"":5,""sdo9"":3,""sdo6"":4,""sdo10"":3,""sdo8"":3,""sdo1"":4,""sdo12"":4}","[15,12,2,13,3,6,4,1,14,10,8,5,9,7,0,11]"
"","","","","","html-button-response","144","394212","0.0-17.0","36","1","2022-11-27 09:56:36","49aca292d257f58668169b9fbab864ae","115.60.187.40","Mozilla/5.0 (Linux; U; Android 11; zh-cn; M2006J10C Build/RP1A.200720.011) AppleWebKit/537.36 (KHTML, like Gecko) Version/4.0 Chrome/100.0.4896.127 Mobile Safari/537.36 XiaoMi/MiuiBrowser/17.1.8 swan-mibrowser","Xiaomi","Chrome","100.0.4896.127","AndroidOS","11","977","<p><strong>请判断你在多大程度上同意下列陈述。</strong></p>","0",""
"","","","","","survey-likert","145","415981","0.0-18.0","36","1","2022-11-27 09:56:36","49aca292d257f58668169b9fbab864ae","115.60.187.40","Mozilla/5.0 (Linux; U; Android 11; zh-cn; M2006J10C Build/RP1A.200720.011) AppleWebKit/537.36 (KHTML, like Gecko) Version/4.0 Chrome/100.0.4896.127 Mobile Safari/537.36 XiaoMi/MiuiBrowser/17.1.8 swan-mibrowser","Xiaomi","Chrome","100.0.4896.127","AndroidOS","11","21745","","{""caring1"":3,""liking1"":2,""caring2"":3,""protection1"":3,""liking2"":2,""caring3"":2,""protection2"":2,""liking3"":2,""protection3"":2,""caring4"":2,""liking4"":2,""protection4"":3,""caring5"":3,""liking5"":3,""protection5"":3}","[0,1,2,3,4,5,6,7,8,9,10,11,12,13,14]"
"","","","","","html-button-response","146","416840","0.0-19.0","36","1","2022-11-27 09:56:36","49aca292d257f58668169b9fbab864ae","115.60.187.40","Mozilla/5.0 (Linux; U; Android 11; zh-cn; M2006J10C Build/RP1A.200720.011) AppleWebKit/537.36 (KHTML, like Gecko) Version/4.0 Chrome/100.0.4896.127 Mobile Safari/537.36 XiaoMi/MiuiBrowser/17.1.8 swan-mibrowser","Xiaomi","Chrome","100.0.4896.127","AndroidOS","11","837","<p><strong>请判断下列场景中你的内心感受有多柔软。</strong></p>","0",""
"","","","","","survey-likert","147","430710","0.0-20.0","36","1","2022-11-27 09:56:36","49aca292d257f58668169b9fbab864ae","115.60.187.40","Mozilla/5.0 (Linux; U; Android 11; zh-cn; M2006J10C Build/RP1A.200720.011) AppleWebKit/537.36 (KHTML, like Gecko) Version/4.0 Chrome/100.0.4896.127 Mobile Safari/537.36 XiaoMi/MiuiBrowser/17.1.8 swan-mibrowser","Xiaomi","Chrome","100.0.4896.127","AndroidOS","11","13849","","{""tenderness-positive1"":3,""tenderness-negative1"":2,""tenderness-negative2"":1,""tenderness-positive2"":3,""tenderness-positive3"":3,""tenderness-negative3"":3,""tenderness-positive4"":3,""tenderness-negative4"":3,""tenderness-negative5"":3,""tenderness-positive5"":3}","[0,1,2,3,4,5,6,7,8,9]"
"","","","","","survey-multi-choice","148","441967","0.0-21.0","36","1","2022-11-27 09:56:36","49aca292d257f58668169b9fbab864ae","115.60.187.40","Mozilla/5.0 (Linux; U; Android 11; zh-cn; M2006J10C Build/RP1A.200720.011) AppleWebKit/537.36 (KHTML, like Gecko) Version/4.0 Chrome/100.0.4896.127 Mobile Safari/537.36 XiaoMi/MiuiBrowser/17.1.8 swan-mibrowser","Xiaomi","Chrome","100.0.4896.127","AndroidOS","11","11235","","{""Attention2"":""其他""}","[0]"
"","","","","","html-button-response","149","443110","0.0-22.0","36","1","2022-11-27 09:56:36","49aca292d257f58668169b9fbab864ae","115.60.187.40","Mozilla/5.0 (Linux; U; Android 11; zh-cn; M2006J10C Build/RP1A.200720.011) AppleWebKit/537.36 (KHTML, like Gecko) Version/4.0 Chrome/100.0.4896.127 Mobile Safari/537.36 XiaoMi/MiuiBrowser/17.1.8 swan-mibrowser","Xiaomi","Chrome","100.0.4896.127","AndroidOS","11","1120","<p><strong>请判断你在多大程度上同意下列陈述。</strong></p>","0",""
"","","","","","survey-likert","150","493850","0.0-23.0","36","1","2022-11-27 09:56:36","49aca292d257f58668169b9fbab864ae","115.60.187.40","Mozilla/5.0 (Linux; U; Android 11; zh-cn; M2006J10C Build/RP1A.200720.011) AppleWebKit/537.36 (KHTML, like Gecko) Version/4.0 Chrome/100.0.4896.127 Mobile Safari/537.36 XiaoMi/MiuiBrowser/17.1.8 swan-mibrowser","Xiaomi","Chrome","100.0.4896.127","AndroidOS","11","50714","","{""Patri6"":3,""Nation1"":2,""Nation3"":1,""Patri9"":1,""Patri7"":3,""Patri12"":4,""Nation8"":3,""Patri10"":1,""Patri1"":2,""Patri11"":3,""Patri8"":4,""Nation5"":4,""Nation6"":4,""Nation4"":3,""Patri5"":3,""Patri4"":2,""Patri2"":2,""Nation7"":3,""Nation2"":3,""Patri3"":3}","[5,12,14,8,6,11,19,9,0,10,7,16,17,15,4,3,1,18,13,2]"
"","","","","","html-button-response","151","494985","0.0-24.0","36","1","2022-11-27 09:56:36","49aca292d257f58668169b9fbab864ae","115.60.187.40","Mozilla/5.0 (Linux; U; Android 11; zh-cn; M2006J10C Build/RP1A.200720.011) AppleWebKit/537.36 (KHTML, like Gecko) Version/4.0 Chrome/100.0.4896.127 Mobile Safari/537.36 XiaoMi/MiuiBrowser/17.1.8 swan-mibrowser","Xiaomi","Chrome","100.0.4896.127","AndroidOS","11","1092","<p><strong>请判断你在多大程度上同意下列陈述。</strong></p>","0",""
"","","","","","survey-likert","152","530889","0.0-25.0","36","1","2022-11-27 09:56:36","49aca292d257f58668169b9fbab864ae","115.60.187.40","Mozilla/5.0 (Linux; U; Android 11; zh-cn; M2006J10C Build/RP1A.200720.011) AppleWebKit/537.36 (KHTML, like Gecko) Version/4.0 Chrome/100.0.4896.127 Mobile Safari/537.36 XiaoMi/MiuiBrowser/17.1.8 swan-mibrowser","Xiaomi","Chrome","100.0.4896.127","AndroidOS","11","35867","","{""hi1"":1,""hi3"":6,""hc1"":4,""hi4"":6,""vi1"":6,""vc3"":6,""vi2"":6,""vc2"":7,""vc1"":7,""hi2"":4,""hc2"":4,""hc3"":4,""hc4"":3,""Robot"":6,""vi4"":5,""vi3"":7,""vc4"":5}","[0,2,9,3,4,15,5,14,13,1,10,11,12,7,8,6,16]"
"","","","","","survey-text","153","545772","0.0-26.0","36","1","2022-11-27 09:56:36","49aca292d257f58668169b9fbab864ae","115.60.187.40","Mozilla/5.0 (Linux; U; Android 11; zh-cn; M2006J10C Build/RP1A.200720.011) AppleWebKit/537.36 (KHTML, like Gecko) Version/4.0 Chrome/100.0.4896.127 Mobile Safari/537.36 XiaoMi/MiuiBrowser/17.1.8 swan-mibrowser","Xiaomi","Chrome","100.0.4896.127","AndroidOS","11","14844","","{""Comments"":""还挺好，""}",""
"","","","","","html-button-response","154","550088","0.0-27.0","36","1","2022-11-27 09:56:36","49aca292d257f58668169b9fbab864ae","115.60.187.40","Mozilla/5.0 (Linux; U; Android 11; zh-cn; M2006J10C Build/RP1A.200720.011) AppleWebKit/537.36 (KHTML, like Gecko) Version/4.0 Chrome/100.0.4896.127 Mobile Safari/537.36 XiaoMi/MiuiBrowser/17.1.8 swan-mibrowser","Xiaomi","Chrome","100.0.4896.127","AndroidOS","11","4297","<strong><p>恭喜你完成了实验！</p><p>感谢您的参与。</p></strong>","0",""
