"success","timeout","failed_images","failed_audio","failed_video","trial_type","trial_index","time_elapsed","internal_node_id","run_id","condition","recorded_at","source_code_version","ip","user_agent","device","browser","browser_version","platform","platform_version","rt","stimulus","response","question_order"
"true","false","[]","[]","[]","preload","0","229","0.0-0.0","39","1","2022-11-27 10:17:10","49aca292d257f58668169b9fbab864ae","223.89.148.208","Mozilla/5.0 (Linux; Android 12; 22021211RC Build/SKQ1.211006.001; wv) AppleWebKit/537.36 (KHTML, like Gecko) Version/4.0 Chrome/86.0.4240.99 XWEB/4343 MMWEBSDK/20220805 Mobile Safari/537.36 MMWEBID/2742 MicroMessenger/8.0.27.2220(0x28001B59) WeChat/arm64 Weixin NetType/WIFI Language/zh_CN ABI/arm64","WebKit","Chrome","86.0.4240.99","AndroidOS","12","","","",""
"true","","","","","fullscreen","1","12350","0.0-1.0","39","1","2022-11-27 10:17:10","49aca292d257f58668169b9fbab864ae","223.89.148.208","Mozilla/5.0 (Linux; Android 12; 22021211RC Build/SKQ1.211006.001; wv) AppleWebKit/537.36 (KHTML, like Gecko) Version/4.0 Chrome/86.0.4240.99 XWEB/4343 MMWEBSDK/20220805 Mobile Safari/537.36 MMWEBID/2742 MicroMessenger/8.0.27.2220(0x28001B59) WeChat/arm64 Weixin NetType/WIFI Language/zh_CN ABI/arm64","WebKit","Chrome","86.0.4240.99","AndroidOS","12","","","",""
"","","","","","html-button-response","2","18363","0.0-2.0","39","1","2022-11-27 10:17:10","49aca292d257f58668169b9fbab864ae","223.89.148.208","Mozilla/5.0 (Linux; Android 12; 22021211RC Build/SKQ1.211006.001; wv) AppleWebKit/537.36 (KHTML, like Gecko) Version/4.0 Chrome/86.0.4240.99 XWEB/4343 MMWEBSDK/20220805 Mobile Safari/537.36 MMWEBID/2742 MicroMessenger/8.0.27.2220(0x28001B59) WeChat/arm64 Weixin NetType/WIFI Language/zh_CN ABI/arm64","WebKit","Chrome","86.0.4240.99","AndroidOS","12","5994","<p style=""font-size:20px;font-weight:bold;"">实验知情同意书</p><p style=""text-align:left;""><strong>实验名称：</strong>社会冲突研究</p><p style=""text-align:left;""><strong>主要研究者：</strong>韩晓春副教授（北京师范大学心理学部）</p><p style=""text-align:left;""><strong>联系方式：</strong>发送邮件至xiaochun.han@bnu.edu.cn</p><p style=""text-align:left;""><strong>研究目的：</strong>研究旨在了解人类面对群体冲突时的决策方式，以及相关的心理学特质。实验调查大约需要20分钟。</p><p style=""text-align:left;""><strong>实验流程：</strong>实验包含两部分。第一部分呈现一系列群体冲突场景，请你决定如何对这些冲突进行反应，大约需要10分钟完成。第二部分包含一系列人口统计学信息收集和心理学问卷，大约需要10分钟完成。</p><p style=""text-align:left;""><strong>参加及退出规则：</strong>参加本实验完全取决于您的个人意愿。在参与过程中，您可以随时退出，并且不用承担任何后果。</p><p style=""text-align:left;""><strong>隐私：</strong>本实验完全匿名进行，不会收集您的姓名或其他能够识别您身份的信息。实验中收集的作答仅用作科学研究使用，可能会在学术期刊/书籍上发表，或者用于教学，您的数据未来可能会和其他研究者或实验室分享，但您的个人身份不会被识别。</p><p style=""text-align:left;""><strong>实验报酬：</strong>实验完成后，您将获得15元人民币报酬，以感谢您的时间和努力。调查问卷中包含几道题目用以测验您作答时的认真度。只有完成全部实验，并且正确回答认真度测验的被试才能获得实验报酬。实验报酬将通过支付宝转账发放。</p><p style=""text-align:left;font-size:20px;""><strong>如果您同意以上实验知情同意书的内容，请点击'同意并且开始实验'按钮；否则请关闭浏览器界面，退出实验。</strong></p>","0",""
"","","","","","html-button-response","3","19852","0.0-3.0","39","1","2022-11-27 10:17:10","49aca292d257f58668169b9fbab864ae","223.89.148.208","Mozilla/5.0 (Linux; Android 12; 22021211RC Build/SKQ1.211006.001; wv) AppleWebKit/537.36 (KHTML, like Gecko) Version/4.0 Chrome/86.0.4240.99 XWEB/4343 MMWEBSDK/20220805 Mobile Safari/537.36 MMWEBID/2742 MicroMessenger/8.0.27.2220(0x28001B59) WeChat/arm64 Weixin NetType/WIFI Language/zh_CN ABI/arm64","WebKit","Chrome","86.0.4240.99","AndroidOS","12","1480","<p ><strong>实验任务一：</strong></p><p>请想象你的国家与另一个国家发生了军事冲突。</p><p>你是国家军队的指挥官，你将如何在冲突中进行决策。</p><p>具体来说，作为军队指挥官，请你决定是否发射导弹进行打击。</p><p>接下来，你会面对一系列场景，请仔细阅读每个场景，然后进行决策。</p><p>这部分实验任务大约需要10分钟。</p><p><strong>实验过程中，请集中注意力。</strong></p>","0",""
"","","","","","html-keyboard-response","4","20861","0.0-4.0-0.0","39","1","2022-11-27 10:17:10","49aca292d257f58668169b9fbab864ae","223.89.148.208","Mozilla/5.0 (Linux; Android 12; 22021211RC Build/SKQ1.211006.001; wv) AppleWebKit/537.36 (KHTML, like Gecko) Version/4.0 Chrome/86.0.4240.99 XWEB/4343 MMWEBSDK/20220805 Mobile Safari/537.36 MMWEBID/2742 MicroMessenger/8.0.27.2220(0x28001B59) WeChat/arm64 Weixin NetType/WIFI Language/zh_CN ABI/arm64","WebKit","Chrome","86.0.4240.99","AndroidOS","12","null","<div style=""font-size:60px;"">+</div>","null",""
"","","","","","html-button-response","5","38114","0.0-4.0-1.0","39","1","2022-11-27 10:17:10","49aca292d257f58668169b9fbab864ae","223.89.148.208","Mozilla/5.0 (Linux; Android 12; 22021211RC Build/SKQ1.211006.001; wv) AppleWebKit/537.36 (KHTML, like Gecko) Version/4.0 Chrome/86.0.4240.99 XWEB/4343 MMWEBSDK/20220805 Mobile Safari/537.36 MMWEBID/2742 MicroMessenger/8.0.27.2220(0x28001B59) WeChat/arm64 Weixin NetType/WIFI Language/zh_CN ABI/arm64","WebKit","Chrome","86.0.4240.99","AndroidOS","12","17230","<p>作为军队的指挥官，你可以选择发射导弹杀死 <strong>9名</strong> 敌国士兵，但会炸毁附近的 <strong>1棵</strong> 敌国树木。</p> <p>树木的照片如下图所示。</p> <p></p> <img src='stimuli/trees/12.png', style='max-width: 30%;'> </img> <p><strong>你是否选择发射武器？</strong></p>","1",""
"","","","","","html-keyboard-response","6","39125","0.0-4.0-0.1","39","1","2022-11-27 10:17:10","49aca292d257f58668169b9fbab864ae","223.89.148.208","Mozilla/5.0 (Linux; Android 12; 22021211RC Build/SKQ1.211006.001; wv) AppleWebKit/537.36 (KHTML, like Gecko) Version/4.0 Chrome/86.0.4240.99 XWEB/4343 MMWEBSDK/20220805 Mobile Safari/537.36 MMWEBID/2742 MicroMessenger/8.0.27.2220(0x28001B59) WeChat/arm64 Weixin NetType/WIFI Language/zh_CN ABI/arm64","WebKit","Chrome","86.0.4240.99","AndroidOS","12","null","<div style=""font-size:60px;"">+</div>","null",""
"","","","","","html-button-response","7","45125","0.0-4.0-1.1","39","1","2022-11-27 10:17:10","49aca292d257f58668169b9fbab864ae","223.89.148.208","Mozilla/5.0 (Linux; Android 12; 22021211RC Build/SKQ1.211006.001; wv) AppleWebKit/537.36 (KHTML, like Gecko) Version/4.0 Chrome/86.0.4240.99 XWEB/4343 MMWEBSDK/20220805 Mobile Safari/537.36 MMWEBID/2742 MicroMessenger/8.0.27.2220(0x28001B59) WeChat/arm64 Weixin NetType/WIFI Language/zh_CN ABI/arm64","WebKit","Chrome","86.0.4240.99","AndroidOS","12","5980","<p>作为军队的指挥官，你可以选择发射导弹杀死 <strong>9名</strong> 敌国士兵，但会误杀附近的 <strong>1名</strong> 敌国平民。</p> <p>平民照片如下图所示。</p> <p></p> <img src='stimuli/faces/PFF3.jpg', style='max-width: 30%;'> </img> <p><strong>你是否选择发射武器？</strong></p>","1",""
"","","","","","html-keyboard-response","8","46133","0.0-4.0-0.2","39","1","2022-11-27 10:17:10","49aca292d257f58668169b9fbab864ae","223.89.148.208","Mozilla/5.0 (Linux; Android 12; 22021211RC Build/SKQ1.211006.001; wv) AppleWebKit/537.36 (KHTML, like Gecko) Version/4.0 Chrome/86.0.4240.99 XWEB/4343 MMWEBSDK/20220805 Mobile Safari/537.36 MMWEBID/2742 MicroMessenger/8.0.27.2220(0x28001B59) WeChat/arm64 Weixin NetType/WIFI Language/zh_CN ABI/arm64","WebKit","Chrome","86.0.4240.99","AndroidOS","12","null","<div style=""font-size:60px;"">+</div>","null",""
"","","","","","html-button-response","9","49262","0.0-4.0-1.2","39","1","2022-11-27 10:17:10","49aca292d257f58668169b9fbab864ae","223.89.148.208","Mozilla/5.0 (Linux; Android 12; 22021211RC Build/SKQ1.211006.001; wv) AppleWebKit/537.36 (KHTML, like Gecko) Version/4.0 Chrome/86.0.4240.99 XWEB/4343 MMWEBSDK/20220805 Mobile Safari/537.36 MMWEBID/2742 MicroMessenger/8.0.27.2220(0x28001B59) WeChat/arm64 Weixin NetType/WIFI Language/zh_CN ABI/arm64","WebKit","Chrome","86.0.4240.99","AndroidOS","12","3110","<p>作为军队的指挥官，你可以选择发射导弹杀死 <strong>2名</strong> 敌国士兵，但会误杀附近的 <strong>1名</strong> 敌国平民。</p> <p>平民照片如下图所示。</p> <p></p> <img src='stimuli/faces/PFF7.jpg', style='max-width: 30%;'> </img> <p><strong>你是否选择发射武器？</strong></p>","1",""
"","","","","","html-keyboard-response","10","50272","0.0-4.0-0.3","39","1","2022-11-27 10:17:10","49aca292d257f58668169b9fbab864ae","223.89.148.208","Mozilla/5.0 (Linux; Android 12; 22021211RC Build/SKQ1.211006.001; wv) AppleWebKit/537.36 (KHTML, like Gecko) Version/4.0 Chrome/86.0.4240.99 XWEB/4343 MMWEBSDK/20220805 Mobile Safari/537.36 MMWEBID/2742 MicroMessenger/8.0.27.2220(0x28001B59) WeChat/arm64 Weixin NetType/WIFI Language/zh_CN ABI/arm64","WebKit","Chrome","86.0.4240.99","AndroidOS","12","null","<div style=""font-size:60px;"">+</div>","null",""
"","","","","","html-button-response","11","53140","0.0-4.0-1.3","39","1","2022-11-27 10:17:10","49aca292d257f58668169b9fbab864ae","223.89.148.208","Mozilla/5.0 (Linux; Android 12; 22021211RC Build/SKQ1.211006.001; wv) AppleWebKit/537.36 (KHTML, like Gecko) Version/4.0 Chrome/86.0.4240.99 XWEB/4343 MMWEBSDK/20220805 Mobile Safari/537.36 MMWEBID/2742 MicroMessenger/8.0.27.2220(0x28001B59) WeChat/arm64 Weixin NetType/WIFI Language/zh_CN ABI/arm64","WebKit","Chrome","86.0.4240.99","AndroidOS","12","2848","<p>作为军队的指挥官，你可以选择发射导弹杀死 <strong>7名</strong> 敌国士兵，但会误杀附近的 <strong>1名</strong> 敌国平民。</p> <p>平民照片如下图所示。</p> <p></p> <img src='stimuli/faces/PFM6.jpg', style='max-width: 30%;'> </img> <p><strong>你是否选择发射武器？</strong></p>","1",""
"","","","","","html-keyboard-response","12","54148","0.0-4.0-0.4","39","1","2022-11-27 10:17:10","49aca292d257f58668169b9fbab864ae","223.89.148.208","Mozilla/5.0 (Linux; Android 12; 22021211RC Build/SKQ1.211006.001; wv) AppleWebKit/537.36 (KHTML, like Gecko) Version/4.0 Chrome/86.0.4240.99 XWEB/4343 MMWEBSDK/20220805 Mobile Safari/537.36 MMWEBID/2742 MicroMessenger/8.0.27.2220(0x28001B59) WeChat/arm64 Weixin NetType/WIFI Language/zh_CN ABI/arm64","WebKit","Chrome","86.0.4240.99","AndroidOS","12","null","<div style=""font-size:60px;"">+</div>","null",""
"","","","","","html-button-response","13","56020","0.0-4.0-1.4","39","1","2022-11-27 10:17:10","49aca292d257f58668169b9fbab864ae","223.89.148.208","Mozilla/5.0 (Linux; Android 12; 22021211RC Build/SKQ1.211006.001; wv) AppleWebKit/537.36 (KHTML, like Gecko) Version/4.0 Chrome/86.0.4240.99 XWEB/4343 MMWEBSDK/20220805 Mobile Safari/537.36 MMWEBID/2742 MicroMessenger/8.0.27.2220(0x28001B59) WeChat/arm64 Weixin NetType/WIFI Language/zh_CN ABI/arm64","WebKit","Chrome","86.0.4240.99","AndroidOS","12","1851","<p>作为军队的指挥官，你可以选择发射导弹杀死 <strong>3名</strong> 敌国士兵，但会误杀附近的 <strong>1名</strong> 敌国平民。</p> <p>平民照片如下图所示。</p> <p></p> <img src='stimuli/faces/PFM2.jpg', style='max-width: 30%;'> </img> <p><strong>你是否选择发射武器？</strong></p>","1",""
"","","","","","html-keyboard-response","14","57033","0.0-4.0-0.5","39","1","2022-11-27 10:17:10","49aca292d257f58668169b9fbab864ae","223.89.148.208","Mozilla/5.0 (Linux; Android 12; 22021211RC Build/SKQ1.211006.001; wv) AppleWebKit/537.36 (KHTML, like Gecko) Version/4.0 Chrome/86.0.4240.99 XWEB/4343 MMWEBSDK/20220805 Mobile Safari/537.36 MMWEBID/2742 MicroMessenger/8.0.27.2220(0x28001B59) WeChat/arm64 Weixin NetType/WIFI Language/zh_CN ABI/arm64","WebKit","Chrome","86.0.4240.99","AndroidOS","12","null","<div style=""font-size:60px;"">+</div>","null",""
"","","","","","html-button-response","15","59915","0.0-4.0-1.5","39","1","2022-11-27 10:17:10","49aca292d257f58668169b9fbab864ae","223.89.148.208","Mozilla/5.0 (Linux; Android 12; 22021211RC Build/SKQ1.211006.001; wv) AppleWebKit/537.36 (KHTML, like Gecko) Version/4.0 Chrome/86.0.4240.99 XWEB/4343 MMWEBSDK/20220805 Mobile Safari/537.36 MMWEBID/2742 MicroMessenger/8.0.27.2220(0x28001B59) WeChat/arm64 Weixin NetType/WIFI Language/zh_CN ABI/arm64","WebKit","Chrome","86.0.4240.99","AndroidOS","12","2862","<p>作为军队的指挥官，你可以选择发射导弹杀死 <strong>4名</strong> 敌国士兵，但会误杀附近的 <strong>1名</strong> 敌国平民。</p> <p>平民照片如下图所示。</p> <p></p> <img src='stimuli/faces/PFM4.jpg', style='max-width: 30%;'> </img> <p><strong>你是否选择发射武器？</strong></p>","1",""
"","","","","","html-keyboard-response","16","60925","0.0-4.0-0.6","39","1","2022-11-27 10:17:10","49aca292d257f58668169b9fbab864ae","223.89.148.208","Mozilla/5.0 (Linux; Android 12; 22021211RC Build/SKQ1.211006.001; wv) AppleWebKit/537.36 (KHTML, like Gecko) Version/4.0 Chrome/86.0.4240.99 XWEB/4343 MMWEBSDK/20220805 Mobile Safari/537.36 MMWEBID/2742 MicroMessenger/8.0.27.2220(0x28001B59) WeChat/arm64 Weixin NetType/WIFI Language/zh_CN ABI/arm64","WebKit","Chrome","86.0.4240.99","AndroidOS","12","null","<div style=""font-size:60px;"">+</div>","null",""
"","","","","","html-button-response","17","62154","0.0-4.0-1.6","39","1","2022-11-27 10:17:10","49aca292d257f58668169b9fbab864ae","223.89.148.208","Mozilla/5.0 (Linux; Android 12; 22021211RC Build/SKQ1.211006.001; wv) AppleWebKit/537.36 (KHTML, like Gecko) Version/4.0 Chrome/86.0.4240.99 XWEB/4343 MMWEBSDK/20220805 Mobile Safari/537.36 MMWEBID/2742 MicroMessenger/8.0.27.2220(0x28001B59) WeChat/arm64 Weixin NetType/WIFI Language/zh_CN ABI/arm64","WebKit","Chrome","86.0.4240.99","AndroidOS","12","1191","<p>作为军队的指挥官，你可以选择发射导弹杀死 <strong>2名</strong> 敌国士兵，但会误杀附近的 <strong>1名</strong> 敌国平民。</p> <p>平民照片如下图所示。</p> <p></p> <img src='stimuli/faces/PFM3.jpg', style='max-width: 30%;'> </img> <p><strong>你是否选择发射武器？</strong></p>","1",""
"","","","","","html-keyboard-response","18","63161","0.0-4.0-0.7","39","1","2022-11-27 10:17:10","49aca292d257f58668169b9fbab864ae","223.89.148.208","Mozilla/5.0 (Linux; Android 12; 22021211RC Build/SKQ1.211006.001; wv) AppleWebKit/537.36 (KHTML, like Gecko) Version/4.0 Chrome/86.0.4240.99 XWEB/4343 MMWEBSDK/20220805 Mobile Safari/537.36 MMWEBID/2742 MicroMessenger/8.0.27.2220(0x28001B59) WeChat/arm64 Weixin NetType/WIFI Language/zh_CN ABI/arm64","WebKit","Chrome","86.0.4240.99","AndroidOS","12","null","<div style=""font-size:60px;"">+</div>","null",""
"","","","","","html-button-response","19","64937","0.0-4.0-1.7","39","1","2022-11-27 10:17:10","49aca292d257f58668169b9fbab864ae","223.89.148.208","Mozilla/5.0 (Linux; Android 12; 22021211RC Build/SKQ1.211006.001; wv) AppleWebKit/537.36 (KHTML, like Gecko) Version/4.0 Chrome/86.0.4240.99 XWEB/4343 MMWEBSDK/20220805 Mobile Safari/537.36 MMWEBID/2742 MicroMessenger/8.0.27.2220(0x28001B59) WeChat/arm64 Weixin NetType/WIFI Language/zh_CN ABI/arm64","WebKit","Chrome","86.0.4240.99","AndroidOS","12","1754","<p>作为军队的指挥官，你可以选择发射导弹杀死 <strong>4名</strong> 敌国士兵，但会误杀附近的 <strong>1名</strong> 敌国平民。</p> <p>平民照片如下图所示。</p> <p></p> <img src='stimuli/faces/PFM8.jpg', style='max-width: 30%;'> </img> <p><strong>你是否选择发射武器？</strong></p>","1",""
"","","","","","html-keyboard-response","20","65945","0.0-4.0-0.8","39","1","2022-11-27 10:17:10","49aca292d257f58668169b9fbab864ae","223.89.148.208","Mozilla/5.0 (Linux; Android 12; 22021211RC Build/SKQ1.211006.001; wv) AppleWebKit/537.36 (KHTML, like Gecko) Version/4.0 Chrome/86.0.4240.99 XWEB/4343 MMWEBSDK/20220805 Mobile Safari/537.36 MMWEBID/2742 MicroMessenger/8.0.27.2220(0x28001B59) WeChat/arm64 Weixin NetType/WIFI Language/zh_CN ABI/arm64","WebKit","Chrome","86.0.4240.99","AndroidOS","12","null","<div style=""font-size:60px;"">+</div>","null",""
"","","","","","html-button-response","21","67300","0.0-4.0-1.8","39","1","2022-11-27 10:17:10","49aca292d257f58668169b9fbab864ae","223.89.148.208","Mozilla/5.0 (Linux; Android 12; 22021211RC Build/SKQ1.211006.001; wv) AppleWebKit/537.36 (KHTML, like Gecko) Version/4.0 Chrome/86.0.4240.99 XWEB/4343 MMWEBSDK/20220805 Mobile Safari/537.36 MMWEBID/2742 MicroMessenger/8.0.27.2220(0x28001B59) WeChat/arm64 Weixin NetType/WIFI Language/zh_CN ABI/arm64","WebKit","Chrome","86.0.4240.99","AndroidOS","12","1332","<p>作为军队的指挥官，你可以选择发射导弹杀死 <strong>7名</strong> 敌国士兵，但会误杀附近的 <strong>1名</strong> 敌国平民。</p> <p>平民照片如下图所示。</p> <p></p> <img src='stimuli/faces/PFM4.jpg', style='max-width: 30%;'> </img> <p><strong>你是否选择发射武器？</strong></p>","1",""
"","","","","","html-keyboard-response","22","68314","0.0-4.0-0.9","39","1","2022-11-27 10:17:10","49aca292d257f58668169b9fbab864ae","223.89.148.208","Mozilla/5.0 (Linux; Android 12; 22021211RC Build/SKQ1.211006.001; wv) AppleWebKit/537.36 (KHTML, like Gecko) Version/4.0 Chrome/86.0.4240.99 XWEB/4343 MMWEBSDK/20220805 Mobile Safari/537.36 MMWEBID/2742 MicroMessenger/8.0.27.2220(0x28001B59) WeChat/arm64 Weixin NetType/WIFI Language/zh_CN ABI/arm64","WebKit","Chrome","86.0.4240.99","AndroidOS","12","null","<div style=""font-size:60px;"">+</div>","null",""
"","","","","","html-button-response","23","71849","0.0-4.0-1.9","39","1","2022-11-27 10:17:10","49aca292d257f58668169b9fbab864ae","223.89.148.208","Mozilla/5.0 (Linux; Android 12; 22021211RC Build/SKQ1.211006.001; wv) AppleWebKit/537.36 (KHTML, like Gecko) Version/4.0 Chrome/86.0.4240.99 XWEB/4343 MMWEBSDK/20220805 Mobile Safari/537.36 MMWEBID/2742 MicroMessenger/8.0.27.2220(0x28001B59) WeChat/arm64 Weixin NetType/WIFI Language/zh_CN ABI/arm64","WebKit","Chrome","86.0.4240.99","AndroidOS","12","3507","<p>作为军队的指挥官，你可以选择发射导弹杀死 <strong>8名</strong> 敌国士兵，但会炸毁附近的 <strong>1棵</strong> 敌国树木。</p> <p>树木的照片如下图所示。</p> <p></p> <img src='stimuli/trees/11.png', style='max-width: 30%;'> </img> <p><strong>你是否选择发射武器？</strong></p>","0",""
"","","","","","html-keyboard-response","24","72857","0.0-4.0-0.10","39","1","2022-11-27 10:17:10","49aca292d257f58668169b9fbab864ae","223.89.148.208","Mozilla/5.0 (Linux; Android 12; 22021211RC Build/SKQ1.211006.001; wv) AppleWebKit/537.36 (KHTML, like Gecko) Version/4.0 Chrome/86.0.4240.99 XWEB/4343 MMWEBSDK/20220805 Mobile Safari/537.36 MMWEBID/2742 MicroMessenger/8.0.27.2220(0x28001B59) WeChat/arm64 Weixin NetType/WIFI Language/zh_CN ABI/arm64","WebKit","Chrome","86.0.4240.99","AndroidOS","12","null","<div style=""font-size:60px;"">+</div>","null",""
"","","","","","html-button-response","25","74011","0.0-4.0-1.10","39","1","2022-11-27 10:17:10","49aca292d257f58668169b9fbab864ae","223.89.148.208","Mozilla/5.0 (Linux; Android 12; 22021211RC Build/SKQ1.211006.001; wv) AppleWebKit/537.36 (KHTML, like Gecko) Version/4.0 Chrome/86.0.4240.99 XWEB/4343 MMWEBSDK/20220805 Mobile Safari/537.36 MMWEBID/2742 MicroMessenger/8.0.27.2220(0x28001B59) WeChat/arm64 Weixin NetType/WIFI Language/zh_CN ABI/arm64","WebKit","Chrome","86.0.4240.99","AndroidOS","12","1128","<p>作为军队的指挥官，你可以选择发射导弹杀死 <strong>6名</strong> 敌国士兵，但会误杀附近的 <strong>1名</strong> 敌国平民。</p> <p>平民照片如下图所示。</p> <p></p> <img src='stimuli/faces/PFF2.jpg', style='max-width: 30%;'> </img> <p><strong>你是否选择发射武器？</strong></p>","1",""
"","","","","","html-keyboard-response","26","75021","0.0-4.0-0.11","39","1","2022-11-27 10:17:10","49aca292d257f58668169b9fbab864ae","223.89.148.208","Mozilla/5.0 (Linux; Android 12; 22021211RC Build/SKQ1.211006.001; wv) AppleWebKit/537.36 (KHTML, like Gecko) Version/4.0 Chrome/86.0.4240.99 XWEB/4343 MMWEBSDK/20220805 Mobile Safari/537.36 MMWEBID/2742 MicroMessenger/8.0.27.2220(0x28001B59) WeChat/arm64 Weixin NetType/WIFI Language/zh_CN ABI/arm64","WebKit","Chrome","86.0.4240.99","AndroidOS","12","null","<div style=""font-size:60px;"">+</div>","null",""
"","","","","","html-button-response","27","76090","0.0-4.0-1.11","39","1","2022-11-27 10:17:10","49aca292d257f58668169b9fbab864ae","223.89.148.208","Mozilla/5.0 (Linux; Android 12; 22021211RC Build/SKQ1.211006.001; wv) AppleWebKit/537.36 (KHTML, like Gecko) Version/4.0 Chrome/86.0.4240.99 XWEB/4343 MMWEBSDK/20220805 Mobile Safari/537.36 MMWEBID/2742 MicroMessenger/8.0.27.2220(0x28001B59) WeChat/arm64 Weixin NetType/WIFI Language/zh_CN ABI/arm64","WebKit","Chrome","86.0.4240.99","AndroidOS","12","1041","<p>作为军队的指挥官，你可以选择发射导弹杀死 <strong>5名</strong> 敌国士兵，但会炸毁附近的 <strong>1棵</strong> 敌国树木。</p> <p>树木的照片如下图所示。</p> <p></p> <img src='stimuli/trees/5.png', style='max-width: 30%;'> </img> <p><strong>你是否选择发射武器？</strong></p>","0",""
"","","","","","html-keyboard-response","28","77098","0.0-4.0-0.12","39","1","2022-11-27 10:17:10","49aca292d257f58668169b9fbab864ae","223.89.148.208","Mozilla/5.0 (Linux; Android 12; 22021211RC Build/SKQ1.211006.001; wv) AppleWebKit/537.36 (KHTML, like Gecko) Version/4.0 Chrome/86.0.4240.99 XWEB/4343 MMWEBSDK/20220805 Mobile Safari/537.36 MMWEBID/2742 MicroMessenger/8.0.27.2220(0x28001B59) WeChat/arm64 Weixin NetType/WIFI Language/zh_CN ABI/arm64","WebKit","Chrome","86.0.4240.99","AndroidOS","12","null","<div style=""font-size:60px;"">+</div>","null",""
"","","","","","html-button-response","29","78164","0.0-4.0-1.12","39","1","2022-11-27 10:17:10","49aca292d257f58668169b9fbab864ae","223.89.148.208","Mozilla/5.0 (Linux; Android 12; 22021211RC Build/SKQ1.211006.001; wv) AppleWebKit/537.36 (KHTML, like Gecko) Version/4.0 Chrome/86.0.4240.99 XWEB/4343 MMWEBSDK/20220805 Mobile Safari/537.36 MMWEBID/2742 MicroMessenger/8.0.27.2220(0x28001B59) WeChat/arm64 Weixin NetType/WIFI Language/zh_CN ABI/arm64","WebKit","Chrome","86.0.4240.99","AndroidOS","12","1055","<p>作为军队的指挥官，你可以选择发射导弹杀死 <strong>2名</strong> 敌国士兵，但会误杀附近的 <strong>1名</strong> 敌国平民。</p> <p>平民照片如下图所示。</p> <p></p> <img src='stimuli/faces/PFF8.jpg', style='max-width: 30%;'> </img> <p><strong>你是否选择发射武器？</strong></p>","1",""
"","","","","","html-keyboard-response","30","79172","0.0-4.0-0.13","39","1","2022-11-27 10:17:10","49aca292d257f58668169b9fbab864ae","223.89.148.208","Mozilla/5.0 (Linux; Android 12; 22021211RC Build/SKQ1.211006.001; wv) AppleWebKit/537.36 (KHTML, like Gecko) Version/4.0 Chrome/86.0.4240.99 XWEB/4343 MMWEBSDK/20220805 Mobile Safari/537.36 MMWEBID/2742 MicroMessenger/8.0.27.2220(0x28001B59) WeChat/arm64 Weixin NetType/WIFI Language/zh_CN ABI/arm64","WebKit","Chrome","86.0.4240.99","AndroidOS","12","null","<div style=""font-size:60px;"">+</div>","null",""
"","","","","","html-button-response","31","81180","0.0-4.0-1.13","39","1","2022-11-27 10:17:10","49aca292d257f58668169b9fbab864ae","223.89.148.208","Mozilla/5.0 (Linux; Android 12; 22021211RC Build/SKQ1.211006.001; wv) AppleWebKit/537.36 (KHTML, like Gecko) Version/4.0 Chrome/86.0.4240.99 XWEB/4343 MMWEBSDK/20220805 Mobile Safari/537.36 MMWEBID/2742 MicroMessenger/8.0.27.2220(0x28001B59) WeChat/arm64 Weixin NetType/WIFI Language/zh_CN ABI/arm64","WebKit","Chrome","86.0.4240.99","AndroidOS","12","1990","<p>作为军队的指挥官，你可以选择发射导弹杀死 <strong>9名</strong> 敌国士兵，但会炸毁附近的 <strong>1棵</strong> 敌国树木。</p> <p>树木的照片如下图所示。</p> <p></p> <img src='stimuli/trees/3.png', style='max-width: 30%;'> </img> <p><strong>你是否选择发射武器？</strong></p>","0",""
"","","","","","html-keyboard-response","32","82190","0.0-4.0-0.14","39","1","2022-11-27 10:17:10","49aca292d257f58668169b9fbab864ae","223.89.148.208","Mozilla/5.0 (Linux; Android 12; 22021211RC Build/SKQ1.211006.001; wv) AppleWebKit/537.36 (KHTML, like Gecko) Version/4.0 Chrome/86.0.4240.99 XWEB/4343 MMWEBSDK/20220805 Mobile Safari/537.36 MMWEBID/2742 MicroMessenger/8.0.27.2220(0x28001B59) WeChat/arm64 Weixin NetType/WIFI Language/zh_CN ABI/arm64","WebKit","Chrome","86.0.4240.99","AndroidOS","12","null","<div style=""font-size:60px;"">+</div>","null",""
"","","","","","html-button-response","33","83126","0.0-4.0-1.14","39","1","2022-11-27 10:17:10","49aca292d257f58668169b9fbab864ae","223.89.148.208","Mozilla/5.0 (Linux; Android 12; 22021211RC Build/SKQ1.211006.001; wv) AppleWebKit/537.36 (KHTML, like Gecko) Version/4.0 Chrome/86.0.4240.99 XWEB/4343 MMWEBSDK/20220805 Mobile Safari/537.36 MMWEBID/2742 MicroMessenger/8.0.27.2220(0x28001B59) WeChat/arm64 Weixin NetType/WIFI Language/zh_CN ABI/arm64","WebKit","Chrome","86.0.4240.99","AndroidOS","12","915","<p>作为军队的指挥官，你可以选择发射导弹杀死 <strong>4名</strong> 敌国士兵，但会炸毁附近的 <strong>1棵</strong> 敌国树木。</p> <p>树木的照片如下图所示。</p> <p></p> <img src='stimuli/trees/9.png', style='max-width: 30%;'> </img> <p><strong>你是否选择发射武器？</strong></p>","0",""
"","","","","","html-keyboard-response","34","84141","0.0-4.0-0.15","39","1","2022-11-27 10:17:10","49aca292d257f58668169b9fbab864ae","223.89.148.208","Mozilla/5.0 (Linux; Android 12; 22021211RC Build/SKQ1.211006.001; wv) AppleWebKit/537.36 (KHTML, like Gecko) Version/4.0 Chrome/86.0.4240.99 XWEB/4343 MMWEBSDK/20220805 Mobile Safari/537.36 MMWEBID/2742 MicroMessenger/8.0.27.2220(0x28001B59) WeChat/arm64 Weixin NetType/WIFI Language/zh_CN ABI/arm64","WebKit","Chrome","86.0.4240.99","AndroidOS","12","null","<div style=""font-size:60px;"">+</div>","null",""
"","","","","","html-button-response","35","85783","0.0-4.0-1.15","39","1","2022-11-27 10:17:10","49aca292d257f58668169b9fbab864ae","223.89.148.208","Mozilla/5.0 (Linux; Android 12; 22021211RC Build/SKQ1.211006.001; wv) AppleWebKit/537.36 (KHTML, like Gecko) Version/4.0 Chrome/86.0.4240.99 XWEB/4343 MMWEBSDK/20220805 Mobile Safari/537.36 MMWEBID/2742 MicroMessenger/8.0.27.2220(0x28001B59) WeChat/arm64 Weixin NetType/WIFI Language/zh_CN ABI/arm64","WebKit","Chrome","86.0.4240.99","AndroidOS","12","1618","<p>作为军队的指挥官，你可以选择发射导弹杀死 <strong>5名</strong> 敌国士兵，但会误杀附近的 <strong>1名</strong> 敌国平民。</p> <p>平民照片如下图所示。</p> <p></p> <img src='stimuli/faces/PFM1.jpg', style='max-width: 30%;'> </img> <p><strong>你是否选择发射武器？</strong></p>","1",""
"","","","","","html-keyboard-response","36","86795","0.0-4.0-0.16","39","1","2022-11-27 10:17:10","49aca292d257f58668169b9fbab864ae","223.89.148.208","Mozilla/5.0 (Linux; Android 12; 22021211RC Build/SKQ1.211006.001; wv) AppleWebKit/537.36 (KHTML, like Gecko) Version/4.0 Chrome/86.0.4240.99 XWEB/4343 MMWEBSDK/20220805 Mobile Safari/537.36 MMWEBID/2742 MicroMessenger/8.0.27.2220(0x28001B59) WeChat/arm64 Weixin NetType/WIFI Language/zh_CN ABI/arm64","WebKit","Chrome","86.0.4240.99","AndroidOS","12","null","<div style=""font-size:60px;"">+</div>","null",""
"","","","","","html-button-response","37","87688","0.0-4.0-1.16","39","1","2022-11-27 10:17:10","49aca292d257f58668169b9fbab864ae","223.89.148.208","Mozilla/5.0 (Linux; Android 12; 22021211RC Build/SKQ1.211006.001; wv) AppleWebKit/537.36 (KHTML, like Gecko) Version/4.0 Chrome/86.0.4240.99 XWEB/4343 MMWEBSDK/20220805 Mobile Safari/537.36 MMWEBID/2742 MicroMessenger/8.0.27.2220(0x28001B59) WeChat/arm64 Weixin NetType/WIFI Language/zh_CN ABI/arm64","WebKit","Chrome","86.0.4240.99","AndroidOS","12","870","<p>作为军队的指挥官，你可以选择发射导弹杀死 <strong>1名</strong> 敌国士兵，但会误杀附近的 <strong>1名</strong> 敌国平民。</p> <p>平民照片如下图所示。</p> <p></p> <img src='stimuli/faces/PFF6.jpg', style='max-width: 30%;'> </img> <p><strong>你是否选择发射武器？</strong></p>","1",""
"","","","","","html-keyboard-response","38","88699","0.0-4.0-0.17","39","1","2022-11-27 10:17:10","49aca292d257f58668169b9fbab864ae","223.89.148.208","Mozilla/5.0 (Linux; Android 12; 22021211RC Build/SKQ1.211006.001; wv) AppleWebKit/537.36 (KHTML, like Gecko) Version/4.0 Chrome/86.0.4240.99 XWEB/4343 MMWEBSDK/20220805 Mobile Safari/537.36 MMWEBID/2742 MicroMessenger/8.0.27.2220(0x28001B59) WeChat/arm64 Weixin NetType/WIFI Language/zh_CN ABI/arm64","WebKit","Chrome","86.0.4240.99","AndroidOS","12","null","<div style=""font-size:60px;"">+</div>","null",""
"","","","","","html-button-response","39","91573","0.0-4.0-1.17","39","1","2022-11-27 10:17:10","49aca292d257f58668169b9fbab864ae","223.89.148.208","Mozilla/5.0 (Linux; Android 12; 22021211RC Build/SKQ1.211006.001; wv) AppleWebKit/537.36 (KHTML, like Gecko) Version/4.0 Chrome/86.0.4240.99 XWEB/4343 MMWEBSDK/20220805 Mobile Safari/537.36 MMWEBID/2742 MicroMessenger/8.0.27.2220(0x28001B59) WeChat/arm64 Weixin NetType/WIFI Language/zh_CN ABI/arm64","WebKit","Chrome","86.0.4240.99","AndroidOS","12","2851","<p>作为军队的指挥官，你可以选择发射导弹杀死 <strong>6名</strong> 敌国士兵，但会炸毁附近的 <strong>1棵</strong> 敌国树木。</p> <p>树木的照片如下图所示。</p> <p></p> <img src='stimuli/trees/5.png', style='max-width: 30%;'> </img> <p><strong>你是否选择发射武器？</strong></p>","0",""
"","","","","","html-keyboard-response","40","92583","0.0-4.0-0.18","39","1","2022-11-27 10:17:10","49aca292d257f58668169b9fbab864ae","223.89.148.208","Mozilla/5.0 (Linux; Android 12; 22021211RC Build/SKQ1.211006.001; wv) AppleWebKit/537.36 (KHTML, like Gecko) Version/4.0 Chrome/86.0.4240.99 XWEB/4343 MMWEBSDK/20220805 Mobile Safari/537.36 MMWEBID/2742 MicroMessenger/8.0.27.2220(0x28001B59) WeChat/arm64 Weixin NetType/WIFI Language/zh_CN ABI/arm64","WebKit","Chrome","86.0.4240.99","AndroidOS","12","null","<div style=""font-size:60px;"">+</div>","null",""
"","","","","","html-button-response","41","93513","0.0-4.0-1.18","39","1","2022-11-27 10:17:10","49aca292d257f58668169b9fbab864ae","223.89.148.208","Mozilla/5.0 (Linux; Android 12; 22021211RC Build/SKQ1.211006.001; wv) AppleWebKit/537.36 (KHTML, like Gecko) Version/4.0 Chrome/86.0.4240.99 XWEB/4343 MMWEBSDK/20220805 Mobile Safari/537.36 MMWEBID/2742 MicroMessenger/8.0.27.2220(0x28001B59) WeChat/arm64 Weixin NetType/WIFI Language/zh_CN ABI/arm64","WebKit","Chrome","86.0.4240.99","AndroidOS","12","899","<p>作为军队的指挥官，你可以选择发射导弹杀死 <strong>9名</strong> 敌国士兵，但会误杀附近的 <strong>1名</strong> 敌国平民。</p> <p>平民照片如下图所示。</p> <p></p> <img src='stimuli/faces/PFF4.jpg', style='max-width: 30%;'> </img> <p><strong>你是否选择发射武器？</strong></p>","1",""
"","","","","","html-keyboard-response","42","94524","0.0-4.0-0.19","39","1","2022-11-27 10:17:10","49aca292d257f58668169b9fbab864ae","223.89.148.208","Mozilla/5.0 (Linux; Android 12; 22021211RC Build/SKQ1.211006.001; wv) AppleWebKit/537.36 (KHTML, like Gecko) Version/4.0 Chrome/86.0.4240.99 XWEB/4343 MMWEBSDK/20220805 Mobile Safari/537.36 MMWEBID/2742 MicroMessenger/8.0.27.2220(0x28001B59) WeChat/arm64 Weixin NetType/WIFI Language/zh_CN ABI/arm64","WebKit","Chrome","86.0.4240.99","AndroidOS","12","null","<div style=""font-size:60px;"">+</div>","null",""
"","","","","","html-button-response","43","97320","0.0-4.0-1.19","39","1","2022-11-27 10:17:10","49aca292d257f58668169b9fbab864ae","223.89.148.208","Mozilla/5.0 (Linux; Android 12; 22021211RC Build/SKQ1.211006.001; wv) AppleWebKit/537.36 (KHTML, like Gecko) Version/4.0 Chrome/86.0.4240.99 XWEB/4343 MMWEBSDK/20220805 Mobile Safari/537.36 MMWEBID/2742 MicroMessenger/8.0.27.2220(0x28001B59) WeChat/arm64 Weixin NetType/WIFI Language/zh_CN ABI/arm64","WebKit","Chrome","86.0.4240.99","AndroidOS","12","2772","<p>作为军队的指挥官，你可以选择发射导弹杀死 <strong>3名</strong> 敌国士兵，但会炸毁附近的 <strong>1棵</strong> 敌国树木。</p> <p>树木的照片如下图所示。</p> <p></p> <img src='stimuli/trees/4.png', style='max-width: 30%;'> </img> <p><strong>你是否选择发射武器？</strong></p>","0",""
"","","","","","html-keyboard-response","44","98332","0.0-4.0-0.20","39","1","2022-11-27 10:17:10","49aca292d257f58668169b9fbab864ae","223.89.148.208","Mozilla/5.0 (Linux; Android 12; 22021211RC Build/SKQ1.211006.001; wv) AppleWebKit/537.36 (KHTML, like Gecko) Version/4.0 Chrome/86.0.4240.99 XWEB/4343 MMWEBSDK/20220805 Mobile Safari/537.36 MMWEBID/2742 MicroMessenger/8.0.27.2220(0x28001B59) WeChat/arm64 Weixin NetType/WIFI Language/zh_CN ABI/arm64","WebKit","Chrome","86.0.4240.99","AndroidOS","12","null","<div style=""font-size:60px;"">+</div>","null",""
"","","","","","html-button-response","45","112786","0.0-4.0-1.20","39","1","2022-11-27 10:17:10","49aca292d257f58668169b9fbab864ae","223.89.148.208","Mozilla/5.0 (Linux; Android 12; 22021211RC Build/SKQ1.211006.001; wv) AppleWebKit/537.36 (KHTML, like Gecko) Version/4.0 Chrome/86.0.4240.99 XWEB/4343 MMWEBSDK/20220805 Mobile Safari/537.36 MMWEBID/2742 MicroMessenger/8.0.27.2220(0x28001B59) WeChat/arm64 Weixin NetType/WIFI Language/zh_CN ABI/arm64","WebKit","Chrome","86.0.4240.99","AndroidOS","12","14426","<p>作为军队的指挥官，你可以选择发射导弹杀死 <strong>5名</strong> 敌国士兵，但会误杀附近的 <strong>1名</strong> 敌国平民。</p> <p>平民照片如下图所示。</p> <p></p> <img src='stimuli/faces/PFM6.jpg', style='max-width: 30%;'> </img> <p><strong>你是否选择发射武器？</strong></p>","1",""
"","","","","","html-keyboard-response","46","113798","0.0-4.0-0.21","39","1","2022-11-27 10:17:10","49aca292d257f58668169b9fbab864ae","223.89.148.208","Mozilla/5.0 (Linux; Android 12; 22021211RC Build/SKQ1.211006.001; wv) AppleWebKit/537.36 (KHTML, like Gecko) Version/4.0 Chrome/86.0.4240.99 XWEB/4343 MMWEBSDK/20220805 Mobile Safari/537.36 MMWEBID/2742 MicroMessenger/8.0.27.2220(0x28001B59) WeChat/arm64 Weixin NetType/WIFI Language/zh_CN ABI/arm64","WebKit","Chrome","86.0.4240.99","AndroidOS","12","null","<div style=""font-size:60px;"">+</div>","null",""
"","","","","","html-button-response","47","119741","0.0-4.0-1.21","39","1","2022-11-27 10:17:10","49aca292d257f58668169b9fbab864ae","223.89.148.208","Mozilla/5.0 (Linux; Android 12; 22021211RC Build/SKQ1.211006.001; wv) AppleWebKit/537.36 (KHTML, like Gecko) Version/4.0 Chrome/86.0.4240.99 XWEB/4343 MMWEBSDK/20220805 Mobile Safari/537.36 MMWEBID/2742 MicroMessenger/8.0.27.2220(0x28001B59) WeChat/arm64 Weixin NetType/WIFI Language/zh_CN ABI/arm64","WebKit","Chrome","86.0.4240.99","AndroidOS","12","5913","<p>作为军队的指挥官，你可以选择发射导弹杀死 <strong>2名</strong> 敌国士兵，但会炸毁附近的 <strong>1棵</strong> 敌国树木。</p> <p>树木的照片如下图所示。</p> <p></p> <img src='stimuli/trees/12.png', style='max-width: 30%;'> </img> <p><strong>你是否选择发射武器？</strong></p>","0",""
"","","","","","html-keyboard-response","48","120757","0.0-4.0-0.22","39","1","2022-11-27 10:17:10","49aca292d257f58668169b9fbab864ae","223.89.148.208","Mozilla/5.0 (Linux; Android 12; 22021211RC Build/SKQ1.211006.001; wv) AppleWebKit/537.36 (KHTML, like Gecko) Version/4.0 Chrome/86.0.4240.99 XWEB/4343 MMWEBSDK/20220805 Mobile Safari/537.36 MMWEBID/2742 MicroMessenger/8.0.27.2220(0x28001B59) WeChat/arm64 Weixin NetType/WIFI Language/zh_CN ABI/arm64","WebKit","Chrome","86.0.4240.99","AndroidOS","12","null","<div style=""font-size:60px;"">+</div>","null",""
"","","","","","html-button-response","49","129193","0.0-4.0-1.22","39","1","2022-11-27 10:17:10","49aca292d257f58668169b9fbab864ae","223.89.148.208","Mozilla/5.0 (Linux; Android 12; 22021211RC Build/SKQ1.211006.001; wv) AppleWebKit/537.36 (KHTML, like Gecko) Version/4.0 Chrome/86.0.4240.99 XWEB/4343 MMWEBSDK/20220805 Mobile Safari/537.36 MMWEBID/2742 MicroMessenger/8.0.27.2220(0x28001B59) WeChat/arm64 Weixin NetType/WIFI Language/zh_CN ABI/arm64","WebKit","Chrome","86.0.4240.99","AndroidOS","12","8411","<p>作为军队的指挥官，你可以选择发射导弹杀死 <strong>2名</strong> 敌国士兵，但会炸毁附近的 <strong>1棵</strong> 敌国树木。</p> <p>树木的照片如下图所示。</p> <p></p> <img src='stimuli/trees/11.png', style='max-width: 30%;'> </img> <p><strong>你是否选择发射武器？</strong></p>","0",""
"","","","","","html-keyboard-response","50","130207","0.0-4.0-0.23","39","1","2022-11-27 10:17:10","49aca292d257f58668169b9fbab864ae","223.89.148.208","Mozilla/5.0 (Linux; Android 12; 22021211RC Build/SKQ1.211006.001; wv) AppleWebKit/537.36 (KHTML, like Gecko) Version/4.0 Chrome/86.0.4240.99 XWEB/4343 MMWEBSDK/20220805 Mobile Safari/537.36 MMWEBID/2742 MicroMessenger/8.0.27.2220(0x28001B59) WeChat/arm64 Weixin NetType/WIFI Language/zh_CN ABI/arm64","WebKit","Chrome","86.0.4240.99","AndroidOS","12","null","<div style=""font-size:60px;"">+</div>","null",""
"","","","","","html-button-response","51","147871","0.0-4.0-1.23","39","1","2022-11-27 10:17:10","49aca292d257f58668169b9fbab864ae","223.89.148.208","Mozilla/5.0 (Linux; Android 12; 22021211RC Build/SKQ1.211006.001; wv) AppleWebKit/537.36 (KHTML, like Gecko) Version/4.0 Chrome/86.0.4240.99 XWEB/4343 MMWEBSDK/20220805 Mobile Safari/537.36 MMWEBID/2742 MicroMessenger/8.0.27.2220(0x28001B59) WeChat/arm64 Weixin NetType/WIFI Language/zh_CN ABI/arm64","WebKit","Chrome","86.0.4240.99","AndroidOS","12","17634","<p>作为军队的指挥官，你可以选择发射导弹杀死 <strong>6名</strong> 敌国士兵，但会误杀附近的 <strong>1名</strong> 敌国平民。</p> <p>平民照片如下图所示。</p> <p></p> <img src='stimuli/faces/PFM1.jpg', style='max-width: 30%;'> </img> <p><strong>你是否选择发射武器？</strong></p>","1",""
"","","","","","html-keyboard-response","52","148883","0.0-4.0-0.24","39","1","2022-11-27 10:17:10","49aca292d257f58668169b9fbab864ae","223.89.148.208","Mozilla/5.0 (Linux; Android 12; 22021211RC Build/SKQ1.211006.001; wv) AppleWebKit/537.36 (KHTML, like Gecko) Version/4.0 Chrome/86.0.4240.99 XWEB/4343 MMWEBSDK/20220805 Mobile Safari/537.36 MMWEBID/2742 MicroMessenger/8.0.27.2220(0x28001B59) WeChat/arm64 Weixin NetType/WIFI Language/zh_CN ABI/arm64","WebKit","Chrome","86.0.4240.99","AndroidOS","12","null","<div style=""font-size:60px;"">+</div>","null",""
"","","","","","html-button-response","53","176138","0.0-4.0-1.24","39","1","2022-11-27 10:17:10","49aca292d257f58668169b9fbab864ae","223.89.148.208","Mozilla/5.0 (Linux; Android 12; 22021211RC Build/SKQ1.211006.001; wv) AppleWebKit/537.36 (KHTML, like Gecko) Version/4.0 Chrome/86.0.4240.99 XWEB/4343 MMWEBSDK/20220805 Mobile Safari/537.36 MMWEBID/2742 MicroMessenger/8.0.27.2220(0x28001B59) WeChat/arm64 Weixin NetType/WIFI Language/zh_CN ABI/arm64","WebKit","Chrome","86.0.4240.99","AndroidOS","12","27212","<p>作为军队的指挥官，你可以选择发射导弹杀死 <strong>5名</strong> 敌国士兵，但会误杀附近的 <strong>1名</strong> 敌国平民。</p> <p>平民照片如下图所示。</p> <p></p> <img src='stimuli/faces/PFF3.jpg', style='max-width: 30%;'> </img> <p><strong>你是否选择发射武器？</strong></p>","1",""
"","","","","","html-keyboard-response","54","177151","0.0-4.0-0.25","39","1","2022-11-27 10:17:10","49aca292d257f58668169b9fbab864ae","223.89.148.208","Mozilla/5.0 (Linux; Android 12; 22021211RC Build/SKQ1.211006.001; wv) AppleWebKit/537.36 (KHTML, like Gecko) Version/4.0 Chrome/86.0.4240.99 XWEB/4343 MMWEBSDK/20220805 Mobile Safari/537.36 MMWEBID/2742 MicroMessenger/8.0.27.2220(0x28001B59) WeChat/arm64 Weixin NetType/WIFI Language/zh_CN ABI/arm64","WebKit","Chrome","86.0.4240.99","AndroidOS","12","null","<div style=""font-size:60px;"">+</div>","null",""
"","","","","","html-button-response","55","178296","0.0-4.0-1.25","39","1","2022-11-27 10:17:10","49aca292d257f58668169b9fbab864ae","223.89.148.208","Mozilla/5.0 (Linux; Android 12; 22021211RC Build/SKQ1.211006.001; wv) AppleWebKit/537.36 (KHTML, like Gecko) Version/4.0 Chrome/86.0.4240.99 XWEB/4343 MMWEBSDK/20220805 Mobile Safari/537.36 MMWEBID/2742 MicroMessenger/8.0.27.2220(0x28001B59) WeChat/arm64 Weixin NetType/WIFI Language/zh_CN ABI/arm64","WebKit","Chrome","86.0.4240.99","AndroidOS","12","1105","<p>作为军队的指挥官，你可以选择发射导弹杀死 <strong>9名</strong> 敌国士兵，但会误杀附近的 <strong>1名</strong> 敌国平民。</p> <p>平民照片如下图所示。</p> <p></p> <img src='stimuli/faces/PFF1.jpg', style='max-width: 30%;'> </img> <p><strong>你是否选择发射武器？</strong></p>","1",""
"","","","","","html-keyboard-response","56","179311","0.0-4.0-0.26","39","1","2022-11-27 10:17:10","49aca292d257f58668169b9fbab864ae","223.89.148.208","Mozilla/5.0 (Linux; Android 12; 22021211RC Build/SKQ1.211006.001; wv) AppleWebKit/537.36 (KHTML, like Gecko) Version/4.0 Chrome/86.0.4240.99 XWEB/4343 MMWEBSDK/20220805 Mobile Safari/537.36 MMWEBID/2742 MicroMessenger/8.0.27.2220(0x28001B59) WeChat/arm64 Weixin NetType/WIFI Language/zh_CN ABI/arm64","WebKit","Chrome","86.0.4240.99","AndroidOS","12","null","<div style=""font-size:60px;"">+</div>","null",""
"","","","","","html-button-response","57","180407","0.0-4.0-1.26","39","1","2022-11-27 10:17:10","49aca292d257f58668169b9fbab864ae","223.89.148.208","Mozilla/5.0 (Linux; Android 12; 22021211RC Build/SKQ1.211006.001; wv) AppleWebKit/537.36 (KHTML, like Gecko) Version/4.0 Chrome/86.0.4240.99 XWEB/4343 MMWEBSDK/20220805 Mobile Safari/537.36 MMWEBID/2742 MicroMessenger/8.0.27.2220(0x28001B59) WeChat/arm64 Weixin NetType/WIFI Language/zh_CN ABI/arm64","WebKit","Chrome","86.0.4240.99","AndroidOS","12","1066","<p>作为军队的指挥官，你可以选择发射导弹杀死 <strong>6名</strong> 敌国士兵，但会炸毁附近的 <strong>1棵</strong> 敌国树木。</p> <p>树木的照片如下图所示。</p> <p></p> <img src='stimuli/trees/4.png', style='max-width: 30%;'> </img> <p><strong>你是否选择发射武器？</strong></p>","0",""
"","","","","","html-keyboard-response","58","181419","0.0-4.0-0.27","39","1","2022-11-27 10:17:10","49aca292d257f58668169b9fbab864ae","223.89.148.208","Mozilla/5.0 (Linux; Android 12; 22021211RC Build/SKQ1.211006.001; wv) AppleWebKit/537.36 (KHTML, like Gecko) Version/4.0 Chrome/86.0.4240.99 XWEB/4343 MMWEBSDK/20220805 Mobile Safari/537.36 MMWEBID/2742 MicroMessenger/8.0.27.2220(0x28001B59) WeChat/arm64 Weixin NetType/WIFI Language/zh_CN ABI/arm64","WebKit","Chrome","86.0.4240.99","AndroidOS","12","null","<div style=""font-size:60px;"">+</div>","null",""
"","","","","","html-button-response","59","185339","0.0-4.0-1.27","39","1","2022-11-27 10:17:10","49aca292d257f58668169b9fbab864ae","223.89.148.208","Mozilla/5.0 (Linux; Android 12; 22021211RC Build/SKQ1.211006.001; wv) AppleWebKit/537.36 (KHTML, like Gecko) Version/4.0 Chrome/86.0.4240.99 XWEB/4343 MMWEBSDK/20220805 Mobile Safari/537.36 MMWEBID/2742 MicroMessenger/8.0.27.2220(0x28001B59) WeChat/arm64 Weixin NetType/WIFI Language/zh_CN ABI/arm64","WebKit","Chrome","86.0.4240.99","AndroidOS","12","3899","<p>作为军队的指挥官，你可以选择发射导弹杀死 <strong>4名</strong> 敌国士兵，但会炸毁附近的 <strong>1棵</strong> 敌国树木。</p> <p>树木的照片如下图所示。</p> <p></p> <img src='stimuli/trees/6.png', style='max-width: 30%;'> </img> <p><strong>你是否选择发射武器？</strong></p>","0",""
"","","","","","html-keyboard-response","60","186355","0.0-4.0-0.28","39","1","2022-11-27 10:17:10","49aca292d257f58668169b9fbab864ae","223.89.148.208","Mozilla/5.0 (Linux; Android 12; 22021211RC Build/SKQ1.211006.001; wv) AppleWebKit/537.36 (KHTML, like Gecko) Version/4.0 Chrome/86.0.4240.99 XWEB/4343 MMWEBSDK/20220805 Mobile Safari/537.36 MMWEBID/2742 MicroMessenger/8.0.27.2220(0x28001B59) WeChat/arm64 Weixin NetType/WIFI Language/zh_CN ABI/arm64","WebKit","Chrome","86.0.4240.99","AndroidOS","12","null","<div style=""font-size:60px;"">+</div>","null",""
"","","","","","html-button-response","61","187507","0.0-4.0-1.28","39","1","2022-11-27 10:17:10","49aca292d257f58668169b9fbab864ae","223.89.148.208","Mozilla/5.0 (Linux; Android 12; 22021211RC Build/SKQ1.211006.001; wv) AppleWebKit/537.36 (KHTML, like Gecko) Version/4.0 Chrome/86.0.4240.99 XWEB/4343 MMWEBSDK/20220805 Mobile Safari/537.36 MMWEBID/2742 MicroMessenger/8.0.27.2220(0x28001B59) WeChat/arm64 Weixin NetType/WIFI Language/zh_CN ABI/arm64","WebKit","Chrome","86.0.4240.99","AndroidOS","12","1120","<p>作为军队的指挥官，你可以选择发射导弹杀死 <strong>3名</strong> 敌国士兵，但会误杀附近的 <strong>1名</strong> 敌国平民。</p> <p>平民照片如下图所示。</p> <p></p> <img src='stimuli/faces/PFF1.jpg', style='max-width: 30%;'> </img> <p><strong>你是否选择发射武器？</strong></p>","1",""
"","","","","","html-keyboard-response","62","188521","0.0-4.0-0.29","39","1","2022-11-27 10:17:10","49aca292d257f58668169b9fbab864ae","223.89.148.208","Mozilla/5.0 (Linux; Android 12; 22021211RC Build/SKQ1.211006.001; wv) AppleWebKit/537.36 (KHTML, like Gecko) Version/4.0 Chrome/86.0.4240.99 XWEB/4343 MMWEBSDK/20220805 Mobile Safari/537.36 MMWEBID/2742 MicroMessenger/8.0.27.2220(0x28001B59) WeChat/arm64 Weixin NetType/WIFI Language/zh_CN ABI/arm64","WebKit","Chrome","86.0.4240.99","AndroidOS","12","null","<div style=""font-size:60px;"">+</div>","null",""
"","","","","","html-button-response","63","193811","0.0-4.0-1.29","39","1","2022-11-27 10:17:10","49aca292d257f58668169b9fbab864ae","223.89.148.208","Mozilla/5.0 (Linux; Android 12; 22021211RC Build/SKQ1.211006.001; wv) AppleWebKit/537.36 (KHTML, like Gecko) Version/4.0 Chrome/86.0.4240.99 XWEB/4343 MMWEBSDK/20220805 Mobile Safari/537.36 MMWEBID/2742 MicroMessenger/8.0.27.2220(0x28001B59) WeChat/arm64 Weixin NetType/WIFI Language/zh_CN ABI/arm64","WebKit","Chrome","86.0.4240.99","AndroidOS","12","5263","<p>作为军队的指挥官，你可以选择发射导弹杀死 <strong>9名</strong> 敌国士兵，但会误杀附近的 <strong>1名</strong> 敌国平民。</p> <p>平民照片如下图所示。</p> <p></p> <img src='stimuli/faces/PFF8.jpg', style='max-width: 30%;'> </img> <p><strong>你是否选择发射武器？</strong></p>","1",""
"","","","","","html-keyboard-response","64","194825","0.0-4.0-0.30","39","1","2022-11-27 10:17:10","49aca292d257f58668169b9fbab864ae","223.89.148.208","Mozilla/5.0 (Linux; Android 12; 22021211RC Build/SKQ1.211006.001; wv) AppleWebKit/537.36 (KHTML, like Gecko) Version/4.0 Chrome/86.0.4240.99 XWEB/4343 MMWEBSDK/20220805 Mobile Safari/537.36 MMWEBID/2742 MicroMessenger/8.0.27.2220(0x28001B59) WeChat/arm64 Weixin NetType/WIFI Language/zh_CN ABI/arm64","WebKit","Chrome","86.0.4240.99","AndroidOS","12","null","<div style=""font-size:60px;"">+</div>","null",""
"","","","","","html-button-response","65","196444","0.0-4.0-1.30","39","1","2022-11-27 10:17:10","49aca292d257f58668169b9fbab864ae","223.89.148.208","Mozilla/5.0 (Linux; Android 12; 22021211RC Build/SKQ1.211006.001; wv) AppleWebKit/537.36 (KHTML, like Gecko) Version/4.0 Chrome/86.0.4240.99 XWEB/4343 MMWEBSDK/20220805 Mobile Safari/537.36 MMWEBID/2742 MicroMessenger/8.0.27.2220(0x28001B59) WeChat/arm64 Weixin NetType/WIFI Language/zh_CN ABI/arm64","WebKit","Chrome","86.0.4240.99","AndroidOS","12","1602","<p>作为军队的指挥官，你可以选择发射导弹杀死 <strong>5名</strong> 敌国士兵，但会误杀附近的 <strong>1名</strong> 敌国平民。</p> <p>平民照片如下图所示。</p> <p></p> <img src='stimuli/faces/PFF5.jpg', style='max-width: 30%;'> </img> <p><strong>你是否选择发射武器？</strong></p>","1",""
"","","","","","html-keyboard-response","66","197455","0.0-4.0-0.31","39","1","2022-11-27 10:17:10","49aca292d257f58668169b9fbab864ae","223.89.148.208","Mozilla/5.0 (Linux; Android 12; 22021211RC Build/SKQ1.211006.001; wv) AppleWebKit/537.36 (KHTML, like Gecko) Version/4.0 Chrome/86.0.4240.99 XWEB/4343 MMWEBSDK/20220805 Mobile Safari/537.36 MMWEBID/2742 MicroMessenger/8.0.27.2220(0x28001B59) WeChat/arm64 Weixin NetType/WIFI Language/zh_CN ABI/arm64","WebKit","Chrome","86.0.4240.99","AndroidOS","12","null","<div style=""font-size:60px;"">+</div>","null",""
"","","","","","html-button-response","67","199392","0.0-4.0-1.31","39","1","2022-11-27 10:17:10","49aca292d257f58668169b9fbab864ae","223.89.148.208","Mozilla/5.0 (Linux; Android 12; 22021211RC Build/SKQ1.211006.001; wv) AppleWebKit/537.36 (KHTML, like Gecko) Version/4.0 Chrome/86.0.4240.99 XWEB/4343 MMWEBSDK/20220805 Mobile Safari/537.36 MMWEBID/2742 MicroMessenger/8.0.27.2220(0x28001B59) WeChat/arm64 Weixin NetType/WIFI Language/zh_CN ABI/arm64","WebKit","Chrome","86.0.4240.99","AndroidOS","12","1903","<p>作为军队的指挥官，你可以选择发射导弹杀死 <strong>1名</strong> 敌国士兵，但会炸毁附近的 <strong>1棵</strong> 敌国树木。</p> <p>树木的照片如下图所示。</p> <p></p> <img src='stimuli/trees/16.png', style='max-width: 30%;'> </img> <p><strong>你是否选择发射武器？</strong></p>","0",""
"","","","","","html-keyboard-response","68","200405","0.0-4.0-0.32","39","1","2022-11-27 10:17:10","49aca292d257f58668169b9fbab864ae","223.89.148.208","Mozilla/5.0 (Linux; Android 12; 22021211RC Build/SKQ1.211006.001; wv) AppleWebKit/537.36 (KHTML, like Gecko) Version/4.0 Chrome/86.0.4240.99 XWEB/4343 MMWEBSDK/20220805 Mobile Safari/537.36 MMWEBID/2742 MicroMessenger/8.0.27.2220(0x28001B59) WeChat/arm64 Weixin NetType/WIFI Language/zh_CN ABI/arm64","WebKit","Chrome","86.0.4240.99","AndroidOS","12","null","<div style=""font-size:60px;"">+</div>","null",""
"","","","","","html-button-response","69","203593","0.0-4.0-1.32","39","1","2022-11-27 10:17:10","49aca292d257f58668169b9fbab864ae","223.89.148.208","Mozilla/5.0 (Linux; Android 12; 22021211RC Build/SKQ1.211006.001; wv) AppleWebKit/537.36 (KHTML, like Gecko) Version/4.0 Chrome/86.0.4240.99 XWEB/4343 MMWEBSDK/20220805 Mobile Safari/537.36 MMWEBID/2742 MicroMessenger/8.0.27.2220(0x28001B59) WeChat/arm64 Weixin NetType/WIFI Language/zh_CN ABI/arm64","WebKit","Chrome","86.0.4240.99","AndroidOS","12","3153","<p>作为军队的指挥官，你可以选择发射导弹杀死 <strong>9名</strong> 敌国士兵，但会误杀附近的 <strong>1名</strong> 敌国平民。</p> <p>平民照片如下图所示。</p> <p></p> <img src='stimuli/faces/PFM3.jpg', style='max-width: 30%;'> </img> <p><strong>你是否选择发射武器？</strong></p>","1",""
"","","","","","html-keyboard-response","70","204607","0.0-4.0-0.33","39","1","2022-11-27 10:17:10","49aca292d257f58668169b9fbab864ae","223.89.148.208","Mozilla/5.0 (Linux; Android 12; 22021211RC Build/SKQ1.211006.001; wv) AppleWebKit/537.36 (KHTML, like Gecko) Version/4.0 Chrome/86.0.4240.99 XWEB/4343 MMWEBSDK/20220805 Mobile Safari/537.36 MMWEBID/2742 MicroMessenger/8.0.27.2220(0x28001B59) WeChat/arm64 Weixin NetType/WIFI Language/zh_CN ABI/arm64","WebKit","Chrome","86.0.4240.99","AndroidOS","12","null","<div style=""font-size:60px;"">+</div>","null",""
"","","","","","html-button-response","71","206166","0.0-4.0-1.33","39","1","2022-11-27 10:17:10","49aca292d257f58668169b9fbab864ae","223.89.148.208","Mozilla/5.0 (Linux; Android 12; 22021211RC Build/SKQ1.211006.001; wv) AppleWebKit/537.36 (KHTML, like Gecko) Version/4.0 Chrome/86.0.4240.99 XWEB/4343 MMWEBSDK/20220805 Mobile Safari/537.36 MMWEBID/2742 MicroMessenger/8.0.27.2220(0x28001B59) WeChat/arm64 Weixin NetType/WIFI Language/zh_CN ABI/arm64","WebKit","Chrome","86.0.4240.99","AndroidOS","12","1539","<p>作为军队的指挥官，你可以选择发射导弹杀死 <strong>7名</strong> 敌国士兵，但会炸毁附近的 <strong>1棵</strong> 敌国树木。</p> <p>树木的照片如下图所示。</p> <p></p> <img src='stimuli/trees/6.png', style='max-width: 30%;'> </img> <p><strong>你是否选择发射武器？</strong></p>","0",""
"","","","","","html-keyboard-response","72","207188","0.0-4.0-0.34","39","1","2022-11-27 10:17:10","49aca292d257f58668169b9fbab864ae","223.89.148.208","Mozilla/5.0 (Linux; Android 12; 22021211RC Build/SKQ1.211006.001; wv) AppleWebKit/537.36 (KHTML, like Gecko) Version/4.0 Chrome/86.0.4240.99 XWEB/4343 MMWEBSDK/20220805 Mobile Safari/537.36 MMWEBID/2742 MicroMessenger/8.0.27.2220(0x28001B59) WeChat/arm64 Weixin NetType/WIFI Language/zh_CN ABI/arm64","WebKit","Chrome","86.0.4240.99","AndroidOS","12","null","<div style=""font-size:60px;"">+</div>","null",""
"","","","","","html-button-response","73","208024","0.0-4.0-1.34","39","1","2022-11-27 10:17:10","49aca292d257f58668169b9fbab864ae","223.89.148.208","Mozilla/5.0 (Linux; Android 12; 22021211RC Build/SKQ1.211006.001; wv) AppleWebKit/537.36 (KHTML, like Gecko) Version/4.0 Chrome/86.0.4240.99 XWEB/4343 MMWEBSDK/20220805 Mobile Safari/537.36 MMWEBID/2742 MicroMessenger/8.0.27.2220(0x28001B59) WeChat/arm64 Weixin NetType/WIFI Language/zh_CN ABI/arm64","WebKit","Chrome","86.0.4240.99","AndroidOS","12","806","<p>作为军队的指挥官，你可以选择发射导弹杀死 <strong>8名</strong> 敌国士兵，但会误杀附近的 <strong>1名</strong> 敌国平民。</p> <p>平民照片如下图所示。</p> <p></p> <img src='stimuli/faces/PFM8.jpg', style='max-width: 30%;'> </img> <p><strong>你是否选择发射武器？</strong></p>","1",""
"","","","","","html-keyboard-response","74","209041","0.0-4.0-0.35","39","1","2022-11-27 10:17:10","49aca292d257f58668169b9fbab864ae","223.89.148.208","Mozilla/5.0 (Linux; Android 12; 22021211RC Build/SKQ1.211006.001; wv) AppleWebKit/537.36 (KHTML, like Gecko) Version/4.0 Chrome/86.0.4240.99 XWEB/4343 MMWEBSDK/20220805 Mobile Safari/537.36 MMWEBID/2742 MicroMessenger/8.0.27.2220(0x28001B59) WeChat/arm64 Weixin NetType/WIFI Language/zh_CN ABI/arm64","WebKit","Chrome","86.0.4240.99","AndroidOS","12","null","<div style=""font-size:60px;"">+</div>","null",""
"","","","","","html-button-response","75","214529","0.0-4.0-1.35","39","1","2022-11-27 10:17:10","49aca292d257f58668169b9fbab864ae","223.89.148.208","Mozilla/5.0 (Linux; Android 12; 22021211RC Build/SKQ1.211006.001; wv) AppleWebKit/537.36 (KHTML, like Gecko) Version/4.0 Chrome/86.0.4240.99 XWEB/4343 MMWEBSDK/20220805 Mobile Safari/537.36 MMWEBID/2742 MicroMessenger/8.0.27.2220(0x28001B59) WeChat/arm64 Weixin NetType/WIFI Language/zh_CN ABI/arm64","WebKit","Chrome","86.0.4240.99","AndroidOS","12","5461","<p>作为军队的指挥官，你可以选择发射导弹杀死 <strong>1名</strong> 敌国士兵，但会误杀附近的 <strong>1名</strong> 敌国平民。</p> <p>平民照片如下图所示。</p> <p></p> <img src='stimuli/faces/PFF4.jpg', style='max-width: 30%;'> </img> <p><strong>你是否选择发射武器？</strong></p>","1",""
"","","","","","html-keyboard-response","76","215543","0.0-4.0-0.36","39","1","2022-11-27 10:17:10","49aca292d257f58668169b9fbab864ae","223.89.148.208","Mozilla/5.0 (Linux; Android 12; 22021211RC Build/SKQ1.211006.001; wv) AppleWebKit/537.36 (KHTML, like Gecko) Version/4.0 Chrome/86.0.4240.99 XWEB/4343 MMWEBSDK/20220805 Mobile Safari/537.36 MMWEBID/2742 MicroMessenger/8.0.27.2220(0x28001B59) WeChat/arm64 Weixin NetType/WIFI Language/zh_CN ABI/arm64","WebKit","Chrome","86.0.4240.99","AndroidOS","12","null","<div style=""font-size:60px;"">+</div>","null",""
"","","","","","html-button-response","77","218054","0.0-4.0-1.36","39","1","2022-11-27 10:17:10","49aca292d257f58668169b9fbab864ae","223.89.148.208","Mozilla/5.0 (Linux; Android 12; 22021211RC Build/SKQ1.211006.001; wv) AppleWebKit/537.36 (KHTML, like Gecko) Version/4.0 Chrome/86.0.4240.99 XWEB/4343 MMWEBSDK/20220805 Mobile Safari/537.36 MMWEBID/2742 MicroMessenger/8.0.27.2220(0x28001B59) WeChat/arm64 Weixin NetType/WIFI Language/zh_CN ABI/arm64","WebKit","Chrome","86.0.4240.99","AndroidOS","12","2474","<p>作为军队的指挥官，你可以选择发射导弹杀死 <strong>6名</strong> 敌国士兵，但会误杀附近的 <strong>1名</strong> 敌国平民。</p> <p>平民照片如下图所示。</p> <p></p> <img src='stimuli/faces/PFM2.jpg', style='max-width: 30%;'> </img> <p><strong>你是否选择发射武器？</strong></p>","1",""
"","","","","","html-keyboard-response","78","219068","0.0-4.0-0.37","39","1","2022-11-27 10:17:10","49aca292d257f58668169b9fbab864ae","223.89.148.208","Mozilla/5.0 (Linux; Android 12; 22021211RC Build/SKQ1.211006.001; wv) AppleWebKit/537.36 (KHTML, like Gecko) Version/4.0 Chrome/86.0.4240.99 XWEB/4343 MMWEBSDK/20220805 Mobile Safari/537.36 MMWEBID/2742 MicroMessenger/8.0.27.2220(0x28001B59) WeChat/arm64 Weixin NetType/WIFI Language/zh_CN ABI/arm64","WebKit","Chrome","86.0.4240.99","AndroidOS","12","null","<div style=""font-size:60px;"">+</div>","null",""
"","","","","","html-button-response","79","219954","0.0-4.0-1.37","39","1","2022-11-27 10:17:10","49aca292d257f58668169b9fbab864ae","223.89.148.208","Mozilla/5.0 (Linux; Android 12; 22021211RC Build/SKQ1.211006.001; wv) AppleWebKit/537.36 (KHTML, like Gecko) Version/4.0 Chrome/86.0.4240.99 XWEB/4343 MMWEBSDK/20220805 Mobile Safari/537.36 MMWEBID/2742 MicroMessenger/8.0.27.2220(0x28001B59) WeChat/arm64 Weixin NetType/WIFI Language/zh_CN ABI/arm64","WebKit","Chrome","86.0.4240.99","AndroidOS","12","857","<p>作为军队的指挥官，你可以选择发射导弹杀死 <strong>1名</strong> 敌国士兵，但会炸毁附近的 <strong>1棵</strong> 敌国树木。</p> <p>树木的照片如下图所示。</p> <p></p> <img src='stimuli/trees/2.png', style='max-width: 30%;'> </img> <p><strong>你是否选择发射武器？</strong></p>","0",""
"","","","","","html-keyboard-response","80","220972","0.0-4.0-0.38","39","1","2022-11-27 10:17:10","49aca292d257f58668169b9fbab864ae","223.89.148.208","Mozilla/5.0 (Linux; Android 12; 22021211RC Build/SKQ1.211006.001; wv) AppleWebKit/537.36 (KHTML, like Gecko) Version/4.0 Chrome/86.0.4240.99 XWEB/4343 MMWEBSDK/20220805 Mobile Safari/537.36 MMWEBID/2742 MicroMessenger/8.0.27.2220(0x28001B59) WeChat/arm64 Weixin NetType/WIFI Language/zh_CN ABI/arm64","WebKit","Chrome","86.0.4240.99","AndroidOS","12","null","<div style=""font-size:60px;"">+</div>","null",""
"","","","","","html-button-response","81","222188","0.0-4.0-1.38","39","1","2022-11-27 10:17:10","49aca292d257f58668169b9fbab864ae","223.89.148.208","Mozilla/5.0 (Linux; Android 12; 22021211RC Build/SKQ1.211006.001; wv) AppleWebKit/537.36 (KHTML, like Gecko) Version/4.0 Chrome/86.0.4240.99 XWEB/4343 MMWEBSDK/20220805 Mobile Safari/537.36 MMWEBID/2742 MicroMessenger/8.0.27.2220(0x28001B59) WeChat/arm64 Weixin NetType/WIFI Language/zh_CN ABI/arm64","WebKit","Chrome","86.0.4240.99","AndroidOS","12","1171","<p>作为军队的指挥官，你可以选择发射导弹杀死 <strong>3名</strong> 敌国士兵，但会炸毁附近的 <strong>1棵</strong> 敌国树木。</p> <p>树木的照片如下图所示。</p> <p></p> <img src='stimuli/trees/13.png', style='max-width: 30%;'> </img> <p><strong>你是否选择发射武器？</strong></p>","0",""
"","","","","","html-keyboard-response","82","223208","0.0-4.0-0.39","39","1","2022-11-27 10:17:10","49aca292d257f58668169b9fbab864ae","223.89.148.208","Mozilla/5.0 (Linux; Android 12; 22021211RC Build/SKQ1.211006.001; wv) AppleWebKit/537.36 (KHTML, like Gecko) Version/4.0 Chrome/86.0.4240.99 XWEB/4343 MMWEBSDK/20220805 Mobile Safari/537.36 MMWEBID/2742 MicroMessenger/8.0.27.2220(0x28001B59) WeChat/arm64 Weixin NetType/WIFI Language/zh_CN ABI/arm64","WebKit","Chrome","86.0.4240.99","AndroidOS","12","null","<div style=""font-size:60px;"">+</div>","null",""
"","","","","","html-button-response","83","225734","0.0-4.0-1.39","39","1","2022-11-27 10:17:10","49aca292d257f58668169b9fbab864ae","223.89.148.208","Mozilla/5.0 (Linux; Android 12; 22021211RC Build/SKQ1.211006.001; wv) AppleWebKit/537.36 (KHTML, like Gecko) Version/4.0 Chrome/86.0.4240.99 XWEB/4343 MMWEBSDK/20220805 Mobile Safari/537.36 MMWEBID/2742 MicroMessenger/8.0.27.2220(0x28001B59) WeChat/arm64 Weixin NetType/WIFI Language/zh_CN ABI/arm64","WebKit","Chrome","86.0.4240.99","AndroidOS","12","2485","<p>作为军队的指挥官，你可以选择发射导弹杀死 <strong>9名</strong> 敌国士兵，但会炸毁附近的 <strong>1棵</strong> 敌国树木。</p> <p>树木的照片如下图所示。</p> <p></p> <img src='stimuli/trees/2.png', style='max-width: 30%;'> </img> <p><strong>你是否选择发射武器？</strong></p>","0",""
"","","","","","html-keyboard-response","84","226759","0.0-4.0-0.40","39","1","2022-11-27 10:17:10","49aca292d257f58668169b9fbab864ae","223.89.148.208","Mozilla/5.0 (Linux; Android 12; 22021211RC Build/SKQ1.211006.001; wv) AppleWebKit/537.36 (KHTML, like Gecko) Version/4.0 Chrome/86.0.4240.99 XWEB/4343 MMWEBSDK/20220805 Mobile Safari/537.36 MMWEBID/2742 MicroMessenger/8.0.27.2220(0x28001B59) WeChat/arm64 Weixin NetType/WIFI Language/zh_CN ABI/arm64","WebKit","Chrome","86.0.4240.99","AndroidOS","12","null","<div style=""font-size:60px;"">+</div>","null",""
"","","","","","html-button-response","85","227987","0.0-4.0-1.40","39","1","2022-11-27 10:17:10","49aca292d257f58668169b9fbab864ae","223.89.148.208","Mozilla/5.0 (Linux; Android 12; 22021211RC Build/SKQ1.211006.001; wv) AppleWebKit/537.36 (KHTML, like Gecko) Version/4.0 Chrome/86.0.4240.99 XWEB/4343 MMWEBSDK/20220805 Mobile Safari/537.36 MMWEBID/2742 MicroMessenger/8.0.27.2220(0x28001B59) WeChat/arm64 Weixin NetType/WIFI Language/zh_CN ABI/arm64","WebKit","Chrome","86.0.4240.99","AndroidOS","12","1195","<p>作为军队的指挥官，你可以选择发射导弹杀死 <strong>9名</strong> 敌国士兵，但会误杀附近的 <strong>1名</strong> 敌国平民。</p> <p>平民照片如下图所示。</p> <p></p> <img src='stimuli/faces/PFF7.jpg', style='max-width: 30%;'> </img> <p><strong>你是否选择发射武器？</strong></p>","1",""
"","","","","","html-keyboard-response","86","229006","0.0-4.0-0.41","39","1","2022-11-27 10:17:10","49aca292d257f58668169b9fbab864ae","223.89.148.208","Mozilla/5.0 (Linux; Android 12; 22021211RC Build/SKQ1.211006.001; wv) AppleWebKit/537.36 (KHTML, like Gecko) Version/4.0 Chrome/86.0.4240.99 XWEB/4343 MMWEBSDK/20220805 Mobile Safari/537.36 MMWEBID/2742 MicroMessenger/8.0.27.2220(0x28001B59) WeChat/arm64 Weixin NetType/WIFI Language/zh_CN ABI/arm64","WebKit","Chrome","86.0.4240.99","AndroidOS","12","null","<div style=""font-size:60px;"">+</div>","null",""
"","","","","","html-button-response","87","230339","0.0-4.0-1.41","39","1","2022-11-27 10:17:10","49aca292d257f58668169b9fbab864ae","223.89.148.208","Mozilla/5.0 (Linux; Android 12; 22021211RC Build/SKQ1.211006.001; wv) AppleWebKit/537.36 (KHTML, like Gecko) Version/4.0 Chrome/86.0.4240.99 XWEB/4343 MMWEBSDK/20220805 Mobile Safari/537.36 MMWEBID/2742 MicroMessenger/8.0.27.2220(0x28001B59) WeChat/arm64 Weixin NetType/WIFI Language/zh_CN ABI/arm64","WebKit","Chrome","86.0.4240.99","AndroidOS","12","1294","<p>作为军队的指挥官，你可以选择发射导弹杀死 <strong>7名</strong> 敌国士兵，但会炸毁附近的 <strong>1棵</strong> 敌国树木。</p> <p>树木的照片如下图所示。</p> <p></p> <img src='stimuli/trees/14.png', style='max-width: 30%;'> </img> <p><strong>你是否选择发射武器？</strong></p>","0",""
"","","","","","html-keyboard-response","88","231359","0.0-4.0-0.42","39","1","2022-11-27 10:17:10","49aca292d257f58668169b9fbab864ae","223.89.148.208","Mozilla/5.0 (Linux; Android 12; 22021211RC Build/SKQ1.211006.001; wv) AppleWebKit/537.36 (KHTML, like Gecko) Version/4.0 Chrome/86.0.4240.99 XWEB/4343 MMWEBSDK/20220805 Mobile Safari/537.36 MMWEBID/2742 MicroMessenger/8.0.27.2220(0x28001B59) WeChat/arm64 Weixin NetType/WIFI Language/zh_CN ABI/arm64","WebKit","Chrome","86.0.4240.99","AndroidOS","12","null","<div style=""font-size:60px;"">+</div>","null",""
"","","","","","html-button-response","89","232195","0.0-4.0-1.42","39","1","2022-11-27 10:17:10","49aca292d257f58668169b9fbab864ae","223.89.148.208","Mozilla/5.0 (Linux; Android 12; 22021211RC Build/SKQ1.211006.001; wv) AppleWebKit/537.36 (KHTML, like Gecko) Version/4.0 Chrome/86.0.4240.99 XWEB/4343 MMWEBSDK/20220805 Mobile Safari/537.36 MMWEBID/2742 MicroMessenger/8.0.27.2220(0x28001B59) WeChat/arm64 Weixin NetType/WIFI Language/zh_CN ABI/arm64","WebKit","Chrome","86.0.4240.99","AndroidOS","12","797","<p>作为军队的指挥官，你可以选择发射导弹杀死 <strong>10名</strong> 敌国士兵，但会误杀附近的 <strong>1名</strong> 敌国平民。</p> <p>平民照片如下图所示。</p> <p></p> <img src='stimuli/faces/PFM5.jpg', style='max-width: 30%;'> </img> <p><strong>你是否选择发射武器？</strong></p>","1",""
"","","","","","html-keyboard-response","90","233213","0.0-4.0-0.43","39","1","2022-11-27 10:17:10","49aca292d257f58668169b9fbab864ae","223.89.148.208","Mozilla/5.0 (Linux; Android 12; 22021211RC Build/SKQ1.211006.001; wv) AppleWebKit/537.36 (KHTML, like Gecko) Version/4.0 Chrome/86.0.4240.99 XWEB/4343 MMWEBSDK/20220805 Mobile Safari/537.36 MMWEBID/2742 MicroMessenger/8.0.27.2220(0x28001B59) WeChat/arm64 Weixin NetType/WIFI Language/zh_CN ABI/arm64","WebKit","Chrome","86.0.4240.99","AndroidOS","12","null","<div style=""font-size:60px;"">+</div>","null",""
"","","","","","html-button-response","91","234258","0.0-4.0-1.43","39","1","2022-11-27 10:17:10","49aca292d257f58668169b9fbab864ae","223.89.148.208","Mozilla/5.0 (Linux; Android 12; 22021211RC Build/SKQ1.211006.001; wv) AppleWebKit/537.36 (KHTML, like Gecko) Version/4.0 Chrome/86.0.4240.99 XWEB/4343 MMWEBSDK/20220805 Mobile Safari/537.36 MMWEBID/2742 MicroMessenger/8.0.27.2220(0x28001B59) WeChat/arm64 Weixin NetType/WIFI Language/zh_CN ABI/arm64","WebKit","Chrome","86.0.4240.99","AndroidOS","12","1015","<p>作为军队的指挥官，你可以选择发射导弹杀死 <strong>5名</strong> 敌国士兵，但会炸毁附近的 <strong>1棵</strong> 敌国树木。</p> <p>树木的照片如下图所示。</p> <p></p> <img src='stimuli/trees/15.png', style='max-width: 30%;'> </img> <p><strong>你是否选择发射武器？</strong></p>","0",""
"","","","","","html-keyboard-response","92","235277","0.0-4.0-0.44","39","1","2022-11-27 10:17:10","49aca292d257f58668169b9fbab864ae","223.89.148.208","Mozilla/5.0 (Linux; Android 12; 22021211RC Build/SKQ1.211006.001; wv) AppleWebKit/537.36 (KHTML, like Gecko) Version/4.0 Chrome/86.0.4240.99 XWEB/4343 MMWEBSDK/20220805 Mobile Safari/537.36 MMWEBID/2742 MicroMessenger/8.0.27.2220(0x28001B59) WeChat/arm64 Weixin NetType/WIFI Language/zh_CN ABI/arm64","WebKit","Chrome","86.0.4240.99","AndroidOS","12","null","<div style=""font-size:60px;"">+</div>","null",""
"","","","","","html-button-response","93","236084","0.0-4.0-1.44","39","1","2022-11-27 10:17:10","49aca292d257f58668169b9fbab864ae","223.89.148.208","Mozilla/5.0 (Linux; Android 12; 22021211RC Build/SKQ1.211006.001; wv) AppleWebKit/537.36 (KHTML, like Gecko) Version/4.0 Chrome/86.0.4240.99 XWEB/4343 MMWEBSDK/20220805 Mobile Safari/537.36 MMWEBID/2742 MicroMessenger/8.0.27.2220(0x28001B59) WeChat/arm64 Weixin NetType/WIFI Language/zh_CN ABI/arm64","WebKit","Chrome","86.0.4240.99","AndroidOS","12","772","<p>作为军队的指挥官，你可以选择发射导弹杀死 <strong>9名</strong> 敌国士兵，但会误杀附近的 <strong>1名</strong> 敌国平民。</p> <p>平民照片如下图所示。</p> <p></p> <img src='stimuli/faces/PFF6.jpg', style='max-width: 30%;'> </img> <p><strong>你是否选择发射武器？</strong></p>","1",""
"","","","","","html-keyboard-response","94","237105","0.0-4.0-0.45","39","1","2022-11-27 10:17:10","49aca292d257f58668169b9fbab864ae","223.89.148.208","Mozilla/5.0 (Linux; Android 12; 22021211RC Build/SKQ1.211006.001; wv) AppleWebKit/537.36 (KHTML, like Gecko) Version/4.0 Chrome/86.0.4240.99 XWEB/4343 MMWEBSDK/20220805 Mobile Safari/537.36 MMWEBID/2742 MicroMessenger/8.0.27.2220(0x28001B59) WeChat/arm64 Weixin NetType/WIFI Language/zh_CN ABI/arm64","WebKit","Chrome","86.0.4240.99","AndroidOS","12","null","<div style=""font-size:60px;"">+</div>","null",""
"","","","","","html-button-response","95","239861","0.0-4.0-1.45","39","1","2022-11-27 10:17:10","49aca292d257f58668169b9fbab864ae","223.89.148.208","Mozilla/5.0 (Linux; Android 12; 22021211RC Build/SKQ1.211006.001; wv) AppleWebKit/537.36 (KHTML, like Gecko) Version/4.0 Chrome/86.0.4240.99 XWEB/4343 MMWEBSDK/20220805 Mobile Safari/537.36 MMWEBID/2742 MicroMessenger/8.0.27.2220(0x28001B59) WeChat/arm64 Weixin NetType/WIFI Language/zh_CN ABI/arm64","WebKit","Chrome","86.0.4240.99","AndroidOS","12","2718","<p>作为军队的指挥官，你可以选择发射导弹杀死 <strong>8名</strong> 敌国士兵，但会误杀附近的 <strong>1名</strong> 敌国平民。</p> <p>平民照片如下图所示。</p> <p></p> <img src='stimuli/faces/PFF5.jpg', style='max-width: 30%;'> </img> <p><strong>你是否选择发射武器？</strong></p>","1",""
"","","","","","html-keyboard-response","96","240877","0.0-4.0-0.46","39","1","2022-11-27 10:17:10","49aca292d257f58668169b9fbab864ae","223.89.148.208","Mozilla/5.0 (Linux; Android 12; 22021211RC Build/SKQ1.211006.001; wv) AppleWebKit/537.36 (KHTML, like Gecko) Version/4.0 Chrome/86.0.4240.99 XWEB/4343 MMWEBSDK/20220805 Mobile Safari/537.36 MMWEBID/2742 MicroMessenger/8.0.27.2220(0x28001B59) WeChat/arm64 Weixin NetType/WIFI Language/zh_CN ABI/arm64","WebKit","Chrome","86.0.4240.99","AndroidOS","12","null","<div style=""font-size:60px;"">+</div>","null",""
"","","","","","html-button-response","97","241954","0.0-4.0-1.46","39","1","2022-11-27 10:17:10","49aca292d257f58668169b9fbab864ae","223.89.148.208","Mozilla/5.0 (Linux; Android 12; 22021211RC Build/SKQ1.211006.001; wv) AppleWebKit/537.36 (KHTML, like Gecko) Version/4.0 Chrome/86.0.4240.99 XWEB/4343 MMWEBSDK/20220805 Mobile Safari/537.36 MMWEBID/2742 MicroMessenger/8.0.27.2220(0x28001B59) WeChat/arm64 Weixin NetType/WIFI Language/zh_CN ABI/arm64","WebKit","Chrome","86.0.4240.99","AndroidOS","12","1053","<p>作为军队的指挥官，你可以选择发射导弹杀死 <strong>10名</strong> 敌国士兵，但会误杀附近的 <strong>1名</strong> 敌国平民。</p> <p>平民照片如下图所示。</p> <p></p> <img src='stimuli/faces/PFM7.jpg', style='max-width: 30%;'> </img> <p><strong>你是否选择发射武器？</strong></p>","0",""
"","","","","","html-keyboard-response","98","242973","0.0-4.0-0.47","39","1","2022-11-27 10:17:10","49aca292d257f58668169b9fbab864ae","223.89.148.208","Mozilla/5.0 (Linux; Android 12; 22021211RC Build/SKQ1.211006.001; wv) AppleWebKit/537.36 (KHTML, like Gecko) Version/4.0 Chrome/86.0.4240.99 XWEB/4343 MMWEBSDK/20220805 Mobile Safari/537.36 MMWEBID/2742 MicroMessenger/8.0.27.2220(0x28001B59) WeChat/arm64 Weixin NetType/WIFI Language/zh_CN ABI/arm64","WebKit","Chrome","86.0.4240.99","AndroidOS","12","null","<div style=""font-size:60px;"">+</div>","null",""
"","","","","","html-button-response","99","244102","0.0-4.0-1.47","39","1","2022-11-27 10:17:10","49aca292d257f58668169b9fbab864ae","223.89.148.208","Mozilla/5.0 (Linux; Android 12; 22021211RC Build/SKQ1.211006.001; wv) AppleWebKit/537.36 (KHTML, like Gecko) Version/4.0 Chrome/86.0.4240.99 XWEB/4343 MMWEBSDK/20220805 Mobile Safari/537.36 MMWEBID/2742 MicroMessenger/8.0.27.2220(0x28001B59) WeChat/arm64 Weixin NetType/WIFI Language/zh_CN ABI/arm64","WebKit","Chrome","86.0.4240.99","AndroidOS","12","1094","<p>作为军队的指挥官，你可以选择发射导弹杀死 <strong>3名</strong> 敌国士兵，但会炸毁附近的 <strong>1棵</strong> 敌国树木。</p> <p>树木的照片如下图所示。</p> <p></p> <img src='stimuli/trees/8.png', style='max-width: 30%;'> </img> <p><strong>你是否选择发射武器？</strong></p>","1",""
"","","","","","html-keyboard-response","100","245119","0.0-4.0-0.48","39","1","2022-11-27 10:17:10","49aca292d257f58668169b9fbab864ae","223.89.148.208","Mozilla/5.0 (Linux; Android 12; 22021211RC Build/SKQ1.211006.001; wv) AppleWebKit/537.36 (KHTML, like Gecko) Version/4.0 Chrome/86.0.4240.99 XWEB/4343 MMWEBSDK/20220805 Mobile Safari/537.36 MMWEBID/2742 MicroMessenger/8.0.27.2220(0x28001B59) WeChat/arm64 Weixin NetType/WIFI Language/zh_CN ABI/arm64","WebKit","Chrome","86.0.4240.99","AndroidOS","12","null","<div style=""font-size:60px;"">+</div>","null",""
"","","","","","html-button-response","101","245908","0.0-4.0-1.48","39","1","2022-11-27 10:17:10","49aca292d257f58668169b9fbab864ae","223.89.148.208","Mozilla/5.0 (Linux; Android 12; 22021211RC Build/SKQ1.211006.001; wv) AppleWebKit/537.36 (KHTML, like Gecko) Version/4.0 Chrome/86.0.4240.99 XWEB/4343 MMWEBSDK/20220805 Mobile Safari/537.36 MMWEBID/2742 MicroMessenger/8.0.27.2220(0x28001B59) WeChat/arm64 Weixin NetType/WIFI Language/zh_CN ABI/arm64","WebKit","Chrome","86.0.4240.99","AndroidOS","12","744","<p>作为军队的指挥官，你可以选择发射导弹杀死 <strong>7名</strong> 敌国士兵，但会炸毁附近的 <strong>1棵</strong> 敌国树木。</p> <p>树木的照片如下图所示。</p> <p></p> <img src='stimuli/trees/13.png', style='max-width: 30%;'> </img> <p><strong>你是否选择发射武器？</strong></p>","0",""
"","","","","","html-keyboard-response","102","246923","0.0-4.0-0.49","39","1","2022-11-27 10:17:10","49aca292d257f58668169b9fbab864ae","223.89.148.208","Mozilla/5.0 (Linux; Android 12; 22021211RC Build/SKQ1.211006.001; wv) AppleWebKit/537.36 (KHTML, like Gecko) Version/4.0 Chrome/86.0.4240.99 XWEB/4343 MMWEBSDK/20220805 Mobile Safari/537.36 MMWEBID/2742 MicroMessenger/8.0.27.2220(0x28001B59) WeChat/arm64 Weixin NetType/WIFI Language/zh_CN ABI/arm64","WebKit","Chrome","86.0.4240.99","AndroidOS","12","null","<div style=""font-size:60px;"">+</div>","null",""
"","","","","","html-button-response","103","248387","0.0-4.0-1.49","39","1","2022-11-27 10:17:10","49aca292d257f58668169b9fbab864ae","223.89.148.208","Mozilla/5.0 (Linux; Android 12; 22021211RC Build/SKQ1.211006.001; wv) AppleWebKit/537.36 (KHTML, like Gecko) Version/4.0 Chrome/86.0.4240.99 XWEB/4343 MMWEBSDK/20220805 Mobile Safari/537.36 MMWEBID/2742 MicroMessenger/8.0.27.2220(0x28001B59) WeChat/arm64 Weixin NetType/WIFI Language/zh_CN ABI/arm64","WebKit","Chrome","86.0.4240.99","AndroidOS","12","1425","<p>作为军队的指挥官，你可以选择发射导弹杀死 <strong>9名</strong> 敌国士兵，但会炸毁附近的 <strong>1棵</strong> 敌国树木。</p> <p>树木的照片如下图所示。</p> <p></p> <img src='stimuli/trees/15.png', style='max-width: 30%;'> </img> <p><strong>你是否选择发射武器？</strong></p>","0",""
"","","","","","html-keyboard-response","104","249410","0.0-4.0-0.50","39","1","2022-11-27 10:17:10","49aca292d257f58668169b9fbab864ae","223.89.148.208","Mozilla/5.0 (Linux; Android 12; 22021211RC Build/SKQ1.211006.001; wv) AppleWebKit/537.36 (KHTML, like Gecko) Version/4.0 Chrome/86.0.4240.99 XWEB/4343 MMWEBSDK/20220805 Mobile Safari/537.36 MMWEBID/2742 MicroMessenger/8.0.27.2220(0x28001B59) WeChat/arm64 Weixin NetType/WIFI Language/zh_CN ABI/arm64","WebKit","Chrome","86.0.4240.99","AndroidOS","12","null","<div style=""font-size:60px;"">+</div>","null",""
"","","","","","html-button-response","105","253130","0.0-4.0-1.50","39","1","2022-11-27 10:17:10","49aca292d257f58668169b9fbab864ae","223.89.148.208","Mozilla/5.0 (Linux; Android 12; 22021211RC Build/SKQ1.211006.001; wv) AppleWebKit/537.36 (KHTML, like Gecko) Version/4.0 Chrome/86.0.4240.99 XWEB/4343 MMWEBSDK/20220805 Mobile Safari/537.36 MMWEBID/2742 MicroMessenger/8.0.27.2220(0x28001B59) WeChat/arm64 Weixin NetType/WIFI Language/zh_CN ABI/arm64","WebKit","Chrome","86.0.4240.99","AndroidOS","12","3686","<p>作为军队的指挥官，你可以选择发射导弹杀死 <strong>7名</strong> 敌国士兵，但会炸毁附近的 <strong>1棵</strong> 敌国树木。</p> <p>树木的照片如下图所示。</p> <p></p> <img src='stimuli/trees/8.png', style='max-width: 30%;'> </img> <p><strong>你是否选择发射武器？</strong></p>","1",""
"","","","","","html-keyboard-response","106","254149","0.0-4.0-0.51","39","1","2022-11-27 10:17:10","49aca292d257f58668169b9fbab864ae","223.89.148.208","Mozilla/5.0 (Linux; Android 12; 22021211RC Build/SKQ1.211006.001; wv) AppleWebKit/537.36 (KHTML, like Gecko) Version/4.0 Chrome/86.0.4240.99 XWEB/4343 MMWEBSDK/20220805 Mobile Safari/537.36 MMWEBID/2742 MicroMessenger/8.0.27.2220(0x28001B59) WeChat/arm64 Weixin NetType/WIFI Language/zh_CN ABI/arm64","WebKit","Chrome","86.0.4240.99","AndroidOS","12","null","<div style=""font-size:60px;"">+</div>","null",""
"","","","","","html-button-response","107","255307","0.0-4.0-1.51","39","1","2022-11-27 10:17:10","49aca292d257f58668169b9fbab864ae","223.89.148.208","Mozilla/5.0 (Linux; Android 12; 22021211RC Build/SKQ1.211006.001; wv) AppleWebKit/537.36 (KHTML, like Gecko) Version/4.0 Chrome/86.0.4240.99 XWEB/4343 MMWEBSDK/20220805 Mobile Safari/537.36 MMWEBID/2742 MicroMessenger/8.0.27.2220(0x28001B59) WeChat/arm64 Weixin NetType/WIFI Language/zh_CN ABI/arm64","WebKit","Chrome","86.0.4240.99","AndroidOS","12","1115","<p>作为军队的指挥官，你可以选择发射导弹杀死 <strong>4名</strong> 敌国士兵，但会误杀附近的 <strong>1名</strong> 敌国平民。</p> <p>平民照片如下图所示。</p> <p></p> <img src='stimuli/faces/PFF2.jpg', style='max-width: 30%;'> </img> <p><strong>你是否选择发射武器？</strong></p>","1",""
"","","","","","html-keyboard-response","108","256330","0.0-4.0-0.52","39","1","2022-11-27 10:17:10","49aca292d257f58668169b9fbab864ae","223.89.148.208","Mozilla/5.0 (Linux; Android 12; 22021211RC Build/SKQ1.211006.001; wv) AppleWebKit/537.36 (KHTML, like Gecko) Version/4.0 Chrome/86.0.4240.99 XWEB/4343 MMWEBSDK/20220805 Mobile Safari/537.36 MMWEBID/2742 MicroMessenger/8.0.27.2220(0x28001B59) WeChat/arm64 Weixin NetType/WIFI Language/zh_CN ABI/arm64","WebKit","Chrome","86.0.4240.99","AndroidOS","12","null","<div style=""font-size:60px;"">+</div>","null",""
"","","","","","html-button-response","109","257543","0.0-4.0-1.52","39","1","2022-11-27 10:17:10","49aca292d257f58668169b9fbab864ae","223.89.148.208","Mozilla/5.0 (Linux; Android 12; 22021211RC Build/SKQ1.211006.001; wv) AppleWebKit/537.36 (KHTML, like Gecko) Version/4.0 Chrome/86.0.4240.99 XWEB/4343 MMWEBSDK/20220805 Mobile Safari/537.36 MMWEBID/2742 MicroMessenger/8.0.27.2220(0x28001B59) WeChat/arm64 Weixin NetType/WIFI Language/zh_CN ABI/arm64","WebKit","Chrome","86.0.4240.99","AndroidOS","12","1187","<p>作为军队的指挥官，你可以选择发射导弹杀死 <strong>8名</strong> 敌国士兵，但会炸毁附近的 <strong>1棵</strong> 敌国树木。</p> <p>树木的照片如下图所示。</p> <p></p> <img src='stimuli/trees/7.png', style='max-width: 30%;'> </img> <p><strong>你是否选择发射武器？</strong></p>","0",""
"","","","","","html-keyboard-response","110","258561","0.0-4.0-0.53","39","1","2022-11-27 10:17:10","49aca292d257f58668169b9fbab864ae","223.89.148.208","Mozilla/5.0 (Linux; Android 12; 22021211RC Build/SKQ1.211006.001; wv) AppleWebKit/537.36 (KHTML, like Gecko) Version/4.0 Chrome/86.0.4240.99 XWEB/4343 MMWEBSDK/20220805 Mobile Safari/537.36 MMWEBID/2742 MicroMessenger/8.0.27.2220(0x28001B59) WeChat/arm64 Weixin NetType/WIFI Language/zh_CN ABI/arm64","WebKit","Chrome","86.0.4240.99","AndroidOS","12","null","<div style=""font-size:60px;"">+</div>","null",""
"","","","","","html-button-response","111","260646","0.0-4.0-1.53","39","1","2022-11-27 10:17:10","49aca292d257f58668169b9fbab864ae","223.89.148.208","Mozilla/5.0 (Linux; Android 12; 22021211RC Build/SKQ1.211006.001; wv) AppleWebKit/537.36 (KHTML, like Gecko) Version/4.0 Chrome/86.0.4240.99 XWEB/4343 MMWEBSDK/20220805 Mobile Safari/537.36 MMWEBID/2742 MicroMessenger/8.0.27.2220(0x28001B59) WeChat/arm64 Weixin NetType/WIFI Language/zh_CN ABI/arm64","WebKit","Chrome","86.0.4240.99","AndroidOS","12","2051","<p>作为军队的指挥官，你可以选择发射导弹杀死 <strong>1名</strong> 敌国士兵，但会炸毁附近的 <strong>1棵</strong> 敌国树木。</p> <p>树木的照片如下图所示。</p> <p></p> <img src='stimuli/trees/10.png', style='max-width: 30%;'> </img> <p><strong>你是否选择发射武器？</strong></p>","0",""
"","","","","","html-keyboard-response","112","261667","0.0-4.0-0.54","39","1","2022-11-27 10:17:10","49aca292d257f58668169b9fbab864ae","223.89.148.208","Mozilla/5.0 (Linux; Android 12; 22021211RC Build/SKQ1.211006.001; wv) AppleWebKit/537.36 (KHTML, like Gecko) Version/4.0 Chrome/86.0.4240.99 XWEB/4343 MMWEBSDK/20220805 Mobile Safari/537.36 MMWEBID/2742 MicroMessenger/8.0.27.2220(0x28001B59) WeChat/arm64 Weixin NetType/WIFI Language/zh_CN ABI/arm64","WebKit","Chrome","86.0.4240.99","AndroidOS","12","null","<div style=""font-size:60px;"">+</div>","null",""
"","","","","","html-button-response","113","263646","0.0-4.0-1.54","39","1","2022-11-27 10:17:10","49aca292d257f58668169b9fbab864ae","223.89.148.208","Mozilla/5.0 (Linux; Android 12; 22021211RC Build/SKQ1.211006.001; wv) AppleWebKit/537.36 (KHTML, like Gecko) Version/4.0 Chrome/86.0.4240.99 XWEB/4343 MMWEBSDK/20220805 Mobile Safari/537.36 MMWEBID/2742 MicroMessenger/8.0.27.2220(0x28001B59) WeChat/arm64 Weixin NetType/WIFI Language/zh_CN ABI/arm64","WebKit","Chrome","86.0.4240.99","AndroidOS","12","1939","<p>作为军队的指挥官，你可以选择发射导弹杀死 <strong>1名</strong> 敌国士兵，但会炸毁附近的 <strong>1棵</strong> 敌国树木。</p> <p>树木的照片如下图所示。</p> <p></p> <img src='stimuli/trees/14.png', style='max-width: 30%;'> </img> <p><strong>你是否选择发射武器？</strong></p>","0",""
"","","","","","html-keyboard-response","114","264660","0.0-4.0-0.55","39","1","2022-11-27 10:17:10","49aca292d257f58668169b9fbab864ae","223.89.148.208","Mozilla/5.0 (Linux; Android 12; 22021211RC Build/SKQ1.211006.001; wv) AppleWebKit/537.36 (KHTML, like Gecko) Version/4.0 Chrome/86.0.4240.99 XWEB/4343 MMWEBSDK/20220805 Mobile Safari/537.36 MMWEBID/2742 MicroMessenger/8.0.27.2220(0x28001B59) WeChat/arm64 Weixin NetType/WIFI Language/zh_CN ABI/arm64","WebKit","Chrome","86.0.4240.99","AndroidOS","12","null","<div style=""font-size:60px;"">+</div>","null",""
"","","","","","html-button-response","115","265961","0.0-4.0-1.55","39","1","2022-11-27 10:17:10","49aca292d257f58668169b9fbab864ae","223.89.148.208","Mozilla/5.0 (Linux; Android 12; 22021211RC Build/SKQ1.211006.001; wv) AppleWebKit/537.36 (KHTML, like Gecko) Version/4.0 Chrome/86.0.4240.99 XWEB/4343 MMWEBSDK/20220805 Mobile Safari/537.36 MMWEBID/2742 MicroMessenger/8.0.27.2220(0x28001B59) WeChat/arm64 Weixin NetType/WIFI Language/zh_CN ABI/arm64","WebKit","Chrome","86.0.4240.99","AndroidOS","12","1273","<p>作为军队的指挥官，你可以选择发射导弹杀死 <strong>10名</strong> 敌国士兵，但会炸毁附近的 <strong>1棵</strong> 敌国树木。</p> <p>树木的照片如下图所示。</p> <p></p> <img src='stimuli/trees/9.png', style='max-width: 30%;'> </img> <p><strong>你是否选择发射武器？</strong></p>","0",""
"","","","","","html-keyboard-response","116","266983","0.0-4.0-0.56","39","1","2022-11-27 10:17:10","49aca292d257f58668169b9fbab864ae","223.89.148.208","Mozilla/5.0 (Linux; Android 12; 22021211RC Build/SKQ1.211006.001; wv) AppleWebKit/537.36 (KHTML, like Gecko) Version/4.0 Chrome/86.0.4240.99 XWEB/4343 MMWEBSDK/20220805 Mobile Safari/537.36 MMWEBID/2742 MicroMessenger/8.0.27.2220(0x28001B59) WeChat/arm64 Weixin NetType/WIFI Language/zh_CN ABI/arm64","WebKit","Chrome","86.0.4240.99","AndroidOS","12","null","<div style=""font-size:60px;"">+</div>","null",""
"","","","","","html-button-response","117","267936","0.0-4.0-1.56","39","1","2022-11-27 10:17:10","49aca292d257f58668169b9fbab864ae","223.89.148.208","Mozilla/5.0 (Linux; Android 12; 22021211RC Build/SKQ1.211006.001; wv) AppleWebKit/537.36 (KHTML, like Gecko) Version/4.0 Chrome/86.0.4240.99 XWEB/4343 MMWEBSDK/20220805 Mobile Safari/537.36 MMWEBID/2742 MicroMessenger/8.0.27.2220(0x28001B59) WeChat/arm64 Weixin NetType/WIFI Language/zh_CN ABI/arm64","WebKit","Chrome","86.0.4240.99","AndroidOS","12","911","<p>作为军队的指挥官，你可以选择发射导弹杀死 <strong>2名</strong> 敌国士兵，但会炸毁附近的 <strong>1棵</strong> 敌国树木。</p> <p>树木的照片如下图所示。</p> <p></p> <img src='stimuli/trees/3.png', style='max-width: 30%;'> </img> <p><strong>你是否选择发射武器？</strong></p>","0",""
"","","","","","html-keyboard-response","118","268958","0.0-4.0-0.57","39","1","2022-11-27 10:17:10","49aca292d257f58668169b9fbab864ae","223.89.148.208","Mozilla/5.0 (Linux; Android 12; 22021211RC Build/SKQ1.211006.001; wv) AppleWebKit/537.36 (KHTML, like Gecko) Version/4.0 Chrome/86.0.4240.99 XWEB/4343 MMWEBSDK/20220805 Mobile Safari/537.36 MMWEBID/2742 MicroMessenger/8.0.27.2220(0x28001B59) WeChat/arm64 Weixin NetType/WIFI Language/zh_CN ABI/arm64","WebKit","Chrome","86.0.4240.99","AndroidOS","12","null","<div style=""font-size:60px;"">+</div>","null",""
"","","","","","html-button-response","119","271910","0.0-4.0-1.57","39","1","2022-11-27 10:17:10","49aca292d257f58668169b9fbab864ae","223.89.148.208","Mozilla/5.0 (Linux; Android 12; 22021211RC Build/SKQ1.211006.001; wv) AppleWebKit/537.36 (KHTML, like Gecko) Version/4.0 Chrome/86.0.4240.99 XWEB/4343 MMWEBSDK/20220805 Mobile Safari/537.36 MMWEBID/2742 MicroMessenger/8.0.27.2220(0x28001B59) WeChat/arm64 Weixin NetType/WIFI Language/zh_CN ABI/arm64","WebKit","Chrome","86.0.4240.99","AndroidOS","12","2924","<p>作为军队的指挥官，你可以选择发射导弹杀死 <strong>7名</strong> 敌国士兵，但会炸毁附近的 <strong>1棵</strong> 敌国树木。</p> <p>树木的照片如下图所示。</p> <p></p> <img src='stimuli/trees/16.png', style='max-width: 30%;'> </img> <p><strong>你是否选择发射武器？</strong></p>","0",""
"","","","","","html-keyboard-response","120","272932","0.0-4.0-0.58","39","1","2022-11-27 10:17:10","49aca292d257f58668169b9fbab864ae","223.89.148.208","Mozilla/5.0 (Linux; Android 12; 22021211RC Build/SKQ1.211006.001; wv) AppleWebKit/537.36 (KHTML, like Gecko) Version/4.0 Chrome/86.0.4240.99 XWEB/4343 MMWEBSDK/20220805 Mobile Safari/537.36 MMWEBID/2742 MicroMessenger/8.0.27.2220(0x28001B59) WeChat/arm64 Weixin NetType/WIFI Language/zh_CN ABI/arm64","WebKit","Chrome","86.0.4240.99","AndroidOS","12","null","<div style=""font-size:60px;"">+</div>","null",""
"","","","","","html-button-response","121","273753","0.0-4.0-1.58","39","1","2022-11-27 10:17:10","49aca292d257f58668169b9fbab864ae","223.89.148.208","Mozilla/5.0 (Linux; Android 12; 22021211RC Build/SKQ1.211006.001; wv) AppleWebKit/537.36 (KHTML, like Gecko) Version/4.0 Chrome/86.0.4240.99 XWEB/4343 MMWEBSDK/20220805 Mobile Safari/537.36 MMWEBID/2742 MicroMessenger/8.0.27.2220(0x28001B59) WeChat/arm64 Weixin NetType/WIFI Language/zh_CN ABI/arm64","WebKit","Chrome","86.0.4240.99","AndroidOS","12","789","<p>作为军队的指挥官，你可以选择发射导弹杀死 <strong>5名</strong> 敌国士兵，但会炸毁附近的 <strong>1棵</strong> 敌国树木。</p> <p>树木的照片如下图所示。</p> <p></p> <img src='stimuli/trees/7.png', style='max-width: 30%;'> </img> <p><strong>你是否选择发射武器？</strong></p>","1",""
"","","","","","html-keyboard-response","122","274769","0.0-4.0-0.59","39","1","2022-11-27 10:17:10","49aca292d257f58668169b9fbab864ae","223.89.148.208","Mozilla/5.0 (Linux; Android 12; 22021211RC Build/SKQ1.211006.001; wv) AppleWebKit/537.36 (KHTML, like Gecko) Version/4.0 Chrome/86.0.4240.99 XWEB/4343 MMWEBSDK/20220805 Mobile Safari/537.36 MMWEBID/2742 MicroMessenger/8.0.27.2220(0x28001B59) WeChat/arm64 Weixin NetType/WIFI Language/zh_CN ABI/arm64","WebKit","Chrome","86.0.4240.99","AndroidOS","12","null","<div style=""font-size:60px;"">+</div>","null",""
"","","","","","html-button-response","123","275473","0.0-4.0-1.59","39","1","2022-11-27 10:17:10","49aca292d257f58668169b9fbab864ae","223.89.148.208","Mozilla/5.0 (Linux; Android 12; 22021211RC Build/SKQ1.211006.001; wv) AppleWebKit/537.36 (KHTML, like Gecko) Version/4.0 Chrome/86.0.4240.99 XWEB/4343 MMWEBSDK/20220805 Mobile Safari/537.36 MMWEBID/2742 MicroMessenger/8.0.27.2220(0x28001B59) WeChat/arm64 Weixin NetType/WIFI Language/zh_CN ABI/arm64","WebKit","Chrome","86.0.4240.99","AndroidOS","12","677","<p>作为军队的指挥官，你可以选择发射导弹杀死 <strong>9名</strong> 敌国士兵，但会炸毁附近的 <strong>1棵</strong> 敌国树木。</p> <p>树木的照片如下图所示。</p> <p></p> <img src='stimuli/trees/10.png', style='max-width: 30%;'> </img> <p><strong>你是否选择发射武器？</strong></p>","0",""
"","","","","","html-keyboard-response","124","276488","0.0-4.0-0.60","39","1","2022-11-27 10:17:10","49aca292d257f58668169b9fbab864ae","223.89.148.208","Mozilla/5.0 (Linux; Android 12; 22021211RC Build/SKQ1.211006.001; wv) AppleWebKit/537.36 (KHTML, like Gecko) Version/4.0 Chrome/86.0.4240.99 XWEB/4343 MMWEBSDK/20220805 Mobile Safari/537.36 MMWEBID/2742 MicroMessenger/8.0.27.2220(0x28001B59) WeChat/arm64 Weixin NetType/WIFI Language/zh_CN ABI/arm64","WebKit","Chrome","86.0.4240.99","AndroidOS","12","null","<div style=""font-size:60px;"">+</div>","null",""
"","","","","","html-button-response","125","279542","0.0-4.0-1.60","39","1","2022-11-27 10:17:10","49aca292d257f58668169b9fbab864ae","223.89.148.208","Mozilla/5.0 (Linux; Android 12; 22021211RC Build/SKQ1.211006.001; wv) AppleWebKit/537.36 (KHTML, like Gecko) Version/4.0 Chrome/86.0.4240.99 XWEB/4343 MMWEBSDK/20220805 Mobile Safari/537.36 MMWEBID/2742 MicroMessenger/8.0.27.2220(0x28001B59) WeChat/arm64 Weixin NetType/WIFI Language/zh_CN ABI/arm64","WebKit","Chrome","86.0.4240.99","AndroidOS","12","3035","<p>作为军队的指挥官，你可以选择发射导弹杀死 <strong>5名</strong> 敌国士兵，但会炸毁附近的 <strong>1棵</strong> 敌国树木。</p> <p>树木的照片如下图所示。</p> <p></p> <img src='stimuli/trees/1.png', style='max-width: 30%;'> </img> <p><strong>你是否选择发射武器？</strong></p>","1",""
"","","","","","html-keyboard-response","126","280571","0.0-4.0-0.61","39","1","2022-11-27 10:17:10","49aca292d257f58668169b9fbab864ae","223.89.148.208","Mozilla/5.0 (Linux; Android 12; 22021211RC Build/SKQ1.211006.001; wv) AppleWebKit/537.36 (KHTML, like Gecko) Version/4.0 Chrome/86.0.4240.99 XWEB/4343 MMWEBSDK/20220805 Mobile Safari/537.36 MMWEBID/2742 MicroMessenger/8.0.27.2220(0x28001B59) WeChat/arm64 Weixin NetType/WIFI Language/zh_CN ABI/arm64","WebKit","Chrome","86.0.4240.99","AndroidOS","12","null","<div style=""font-size:60px;"">+</div>","null",""
"","","","","","html-button-response","127","281979","0.0-4.0-1.61","39","1","2022-11-27 10:17:10","49aca292d257f58668169b9fbab864ae","223.89.148.208","Mozilla/5.0 (Linux; Android 12; 22021211RC Build/SKQ1.211006.001; wv) AppleWebKit/537.36 (KHTML, like Gecko) Version/4.0 Chrome/86.0.4240.99 XWEB/4343 MMWEBSDK/20220805 Mobile Safari/537.36 MMWEBID/2742 MicroMessenger/8.0.27.2220(0x28001B59) WeChat/arm64 Weixin NetType/WIFI Language/zh_CN ABI/arm64","WebKit","Chrome","86.0.4240.99","AndroidOS","12","1370","<p>作为军队的指挥官，你可以选择发射导弹杀死 <strong>1名</strong> 敌国士兵，但会误杀附近的 <strong>1名</strong> 敌国平民。</p> <p>平民照片如下图所示。</p> <p></p> <img src='stimuli/faces/PFM7.jpg', style='max-width: 30%;'> </img> <p><strong>你是否选择发射武器？</strong></p>","0",""
"","","","","","html-keyboard-response","128","283002","0.0-4.0-0.62","39","1","2022-11-27 10:17:10","49aca292d257f58668169b9fbab864ae","223.89.148.208","Mozilla/5.0 (Linux; Android 12; 22021211RC Build/SKQ1.211006.001; wv) AppleWebKit/537.36 (KHTML, like Gecko) Version/4.0 Chrome/86.0.4240.99 XWEB/4343 MMWEBSDK/20220805 Mobile Safari/537.36 MMWEBID/2742 MicroMessenger/8.0.27.2220(0x28001B59) WeChat/arm64 Weixin NetType/WIFI Language/zh_CN ABI/arm64","WebKit","Chrome","86.0.4240.99","AndroidOS","12","null","<div style=""font-size:60px;"">+</div>","null",""
"","","","","","html-button-response","129","284893","0.0-4.0-1.62","39","1","2022-11-27 10:17:10","49aca292d257f58668169b9fbab864ae","223.89.148.208","Mozilla/5.0 (Linux; Android 12; 22021211RC Build/SKQ1.211006.001; wv) AppleWebKit/537.36 (KHTML, like Gecko) Version/4.0 Chrome/86.0.4240.99 XWEB/4343 MMWEBSDK/20220805 Mobile Safari/537.36 MMWEBID/2742 MicroMessenger/8.0.27.2220(0x28001B59) WeChat/arm64 Weixin NetType/WIFI Language/zh_CN ABI/arm64","WebKit","Chrome","86.0.4240.99","AndroidOS","12","1849","<p>作为军队的指挥官，你可以选择发射导弹杀死 <strong>8名</strong> 敌国士兵，但会炸毁附近的 <strong>1棵</strong> 敌国树木。</p> <p>树木的照片如下图所示。</p> <p></p> <img src='stimuli/trees/1.png', style='max-width: 30%;'> </img> <p><strong>你是否选择发射武器？</strong></p>","1",""
"","","","","","html-keyboard-response","130","285912","0.0-4.0-0.63","39","1","2022-11-27 10:17:10","49aca292d257f58668169b9fbab864ae","223.89.148.208","Mozilla/5.0 (Linux; Android 12; 22021211RC Build/SKQ1.211006.001; wv) AppleWebKit/537.36 (KHTML, like Gecko) Version/4.0 Chrome/86.0.4240.99 XWEB/4343 MMWEBSDK/20220805 Mobile Safari/537.36 MMWEBID/2742 MicroMessenger/8.0.27.2220(0x28001B59) WeChat/arm64 Weixin NetType/WIFI Language/zh_CN ABI/arm64","WebKit","Chrome","86.0.4240.99","AndroidOS","12","null","<div style=""font-size:60px;"">+</div>","null",""
"","","","","","html-button-response","131","286981","0.0-4.0-1.63","39","1","2022-11-27 10:17:10","49aca292d257f58668169b9fbab864ae","223.89.148.208","Mozilla/5.0 (Linux; Android 12; 22021211RC Build/SKQ1.211006.001; wv) AppleWebKit/537.36 (KHTML, like Gecko) Version/4.0 Chrome/86.0.4240.99 XWEB/4343 MMWEBSDK/20220805 Mobile Safari/537.36 MMWEBID/2742 MicroMessenger/8.0.27.2220(0x28001B59) WeChat/arm64 Weixin NetType/WIFI Language/zh_CN ABI/arm64","WebKit","Chrome","86.0.4240.99","AndroidOS","12","1029","<p>作为军队的指挥官，你可以选择发射导弹杀死 <strong>1名</strong> 敌国士兵，但会误杀附近的 <strong>1名</strong> 敌国平民。</p> <p>平民照片如下图所示。</p> <p></p> <img src='stimuli/faces/PFM5.jpg', style='max-width: 30%;'> </img> <p><strong>你是否选择发射武器？</strong></p>","1",""
"","","","","","survey-multi-choice","132","356947","0.0-5.0","39","1","2022-11-27 10:17:10","49aca292d257f58668169b9fbab864ae","223.89.148.208","Mozilla/5.0 (Linux; Android 12; 22021211RC Build/SKQ1.211006.001; wv) AppleWebKit/537.36 (KHTML, like Gecko) Version/4.0 Chrome/86.0.4240.99 XWEB/4343 MMWEBSDK/20220805 Mobile Safari/537.36 MMWEBID/2742 MicroMessenger/8.0.27.2220(0x28001B59) WeChat/arm64 Weixin NetType/WIFI Language/zh_CN ABI/arm64","WebKit","Chrome","86.0.4240.99","AndroidOS","12","69942","","{""Attention1"":""""}","[0]"
"","","","","","html-button-response","133","362642","0.0-6.0","39","1","2022-11-27 10:17:10","49aca292d257f58668169b9fbab864ae","223.89.148.208","Mozilla/5.0 (Linux; Android 12; 22021211RC Build/SKQ1.211006.001; wv) AppleWebKit/537.36 (KHTML, like Gecko) Version/4.0 Chrome/86.0.4240.99 XWEB/4343 MMWEBSDK/20220805 Mobile Safari/537.36 MMWEBID/2742 MicroMessenger/8.0.27.2220(0x28001B59) WeChat/arm64 Weixin NetType/WIFI Language/zh_CN ABI/arm64","WebKit","Chrome","86.0.4240.99","AndroidOS","12","5660","<p style=""font-size:20px;font-weight:bold;"">恭喜！</p><p>你已经完成了实验的第一部分。</p><p>请休息放松一下，然后进入第二部分。</p><p>这部分大约需要10分钟。</p>","0",""
"","","","","","survey-text","134","415461","0.0-7.0","39","1","2022-11-27 10:17:10","49aca292d257f58668169b9fbab864ae","223.89.148.208","Mozilla/5.0 (Linux; Android 12; 22021211RC Build/SKQ1.211006.001; wv) AppleWebKit/537.36 (KHTML, like Gecko) Version/4.0 Chrome/86.0.4240.99 XWEB/4343 MMWEBSDK/20220805 Mobile Safari/537.36 MMWEBID/2742 MicroMessenger/8.0.27.2220(0x28001B59) WeChat/arm64 Weixin NetType/WIFI Language/zh_CN ABI/arm64","WebKit","Chrome","86.0.4240.99","AndroidOS","12","51773","","{""Age"":""26"",""Nation"":""中国"",""Born"":""河南"",""Live"":""河南"",""Ethnic"":""汉族"",""Alipay"":""17339662627""}",""
"","","","","","survey-multi-choice","135","433955","0.0-8.0","39","1","2022-11-27 10:17:10","49aca292d257f58668169b9fbab864ae","223.89.148.208","Mozilla/5.0 (Linux; Android 12; 22021211RC Build/SKQ1.211006.001; wv) AppleWebKit/537.36 (KHTML, like Gecko) Version/4.0 Chrome/86.0.4240.99 XWEB/4343 MMWEBSDK/20220805 Mobile Safari/537.36 MMWEBID/2742 MicroMessenger/8.0.27.2220(0x28001B59) WeChat/arm64 Weixin NetType/WIFI Language/zh_CN ABI/arm64","WebKit","Chrome","86.0.4240.99","AndroidOS","12","18464","","{""Gender"":""男"",""Education"":""本科毕业"",""Income"":""￥700,000-￥874,999"",""Children"":""0"",""Race"":""亚洲人""}","[0,1,2,3,4]"
"","","","","","survey-multi-select","136","440037","0.0-9.0","39","1","2022-11-27 10:17:10","49aca292d257f58668169b9fbab864ae","223.89.148.208","Mozilla/5.0 (Linux; Android 12; 22021211RC Build/SKQ1.211006.001; wv) AppleWebKit/537.36 (KHTML, like Gecko) Version/4.0 Chrome/86.0.4240.99 XWEB/4343 MMWEBSDK/20220805 Mobile Safari/537.36 MMWEBID/2742 MicroMessenger/8.0.27.2220(0x28001B59) WeChat/arm64 Weixin NetType/WIFI Language/zh_CN ABI/arm64","WebKit","Chrome","86.0.4240.99","AndroidOS","12","6015","","{""Marriage"":[""未婚""],""Religion"":[""无宗教信仰""]}","[0,1]"
"","","","","","survey-multi-choice","137","445838","0.0-10.0","39","1","2022-11-27 10:17:10","49aca292d257f58668169b9fbab864ae","223.89.148.208","Mozilla/5.0 (Linux; Android 12; 22021211RC Build/SKQ1.211006.001; wv) AppleWebKit/537.36 (KHTML, like Gecko) Version/4.0 Chrome/86.0.4240.99 XWEB/4343 MMWEBSDK/20220805 Mobile Safari/537.36 MMWEBID/2742 MicroMessenger/8.0.27.2220(0x28001B59) WeChat/arm64 Weixin NetType/WIFI Language/zh_CN ABI/arm64","WebKit","Chrome","86.0.4240.99","AndroidOS","12","5770","","{""SES"":""6""}","[0]"
"","","","","","html-button-response","138","447596","0.0-11.0","39","1","2022-11-27 10:17:10","49aca292d257f58668169b9fbab864ae","223.89.148.208","Mozilla/5.0 (Linux; Android 12; 22021211RC Build/SKQ1.211006.001; wv) AppleWebKit/537.36 (KHTML, like Gecko) Version/4.0 Chrome/86.0.4240.99 XWEB/4343 MMWEBSDK/20220805 Mobile Safari/537.36 MMWEBID/2742 MicroMessenger/8.0.27.2220(0x28001B59) WeChat/arm64 Weixin NetType/WIFI Language/zh_CN ABI/arm64","WebKit","Chrome","86.0.4240.99","AndroidOS","12","1728","<p><strong>请判断下列陈述在多大程度上可以形容你？</p><p> (1 = ""和我一点都不像"" to 5 = ""非常像我"".)</strong></p>","0",""
"","","","","","survey-likert","139","535710","0.0-12.0","39","1","2022-11-27 10:17:10","49aca292d257f58668169b9fbab864ae","223.89.148.208","Mozilla/5.0 (Linux; Android 12; 22021211RC Build/SKQ1.211006.001; wv) AppleWebKit/537.36 (KHTML, like Gecko) Version/4.0 Chrome/86.0.4240.99 XWEB/4343 MMWEBSDK/20220805 Mobile Safari/537.36 MMWEBID/2742 MicroMessenger/8.0.27.2220(0x28001B59) WeChat/arm64 Weixin NetType/WIFI Language/zh_CN ABI/arm64","WebKit","Chrome","86.0.4240.99","AndroidOS","12","88069","","{""Aggression1"":1,""Aggression2"":2,""Aggression3"":3,""Aggression4"":1,""Aggression5"":2,""Aggression6"":2,""Aggression7"":1,""Aggression8"":1,""Aggression9"":3}","[0,1,2,3,4,5,6,7,8]"
"","","","","","html-button-response","140","537122","0.0-13.0","39","1","2022-11-27 10:17:10","49aca292d257f58668169b9fbab864ae","223.89.148.208","Mozilla/5.0 (Linux; Android 12; 22021211RC Build/SKQ1.211006.001; wv) AppleWebKit/537.36 (KHTML, like Gecko) Version/4.0 Chrome/86.0.4240.99 XWEB/4343 MMWEBSDK/20220805 Mobile Safari/537.36 MMWEBID/2742 MicroMessenger/8.0.27.2220(0x28001B59) WeChat/arm64 Weixin NetType/WIFI Language/zh_CN ABI/arm64","WebKit","Chrome","86.0.4240.99","AndroidOS","12","1382","<p><strong>请判断你在多大程度上同意下列陈述。</strong></p>","0",""
"","","","","","survey-likert","141","636253","0.0-14.0","39","1","2022-11-27 10:17:10","49aca292d257f58668169b9fbab864ae","223.89.148.208","Mozilla/5.0 (Linux; Android 12; 22021211RC Build/SKQ1.211006.001; wv) AppleWebKit/537.36 (KHTML, like Gecko) Version/4.0 Chrome/86.0.4240.99 XWEB/4343 MMWEBSDK/20220805 Mobile Safari/537.36 MMWEBID/2742 MicroMessenger/8.0.27.2220(0x28001B59) WeChat/arm64 Weixin NetType/WIFI Language/zh_CN ABI/arm64","WebKit","Chrome","86.0.4240.99","AndroidOS","12","99058","","{""scale7"":2,""scale2"":3,""scale6"":3,""scale10"":2,""scale23"":3,""scale21"":2,""scale8"":3,""scale4"":2,""scale27"":1,""scale13"":2,""scale11"":3,""scale1"":1,""scale16"":2,""scale17"":2,""scale12"":3,""scale9"":3,""scale18"":3,""scale22"":2,""scale24"":3,""scale19"":2,""scale15"":3,""scale3"":3,""scale28"":2,""scale14"":3,""scale5"":2,""scale25"":3,""scale20"":2,""scale26"":1}","[6,1,5,9,22,20,7,3,26,12,10,0,15,16,11,8,17,21,23,18,14,2,27,13,4,24,19,25]"
"","","","","","html-button-response","142","637510","0.0-15.0","39","1","2022-11-27 10:17:10","49aca292d257f58668169b9fbab864ae","223.89.148.208","Mozilla/5.0 (Linux; Android 12; 22021211RC Build/SKQ1.211006.001; wv) AppleWebKit/537.36 (KHTML, like Gecko) Version/4.0 Chrome/86.0.4240.99 XWEB/4343 MMWEBSDK/20220805 Mobile Safari/537.36 MMWEBID/2742 MicroMessenger/8.0.27.2220(0x28001B59) WeChat/arm64 Weixin NetType/WIFI Language/zh_CN ABI/arm64","WebKit","Chrome","86.0.4240.99","AndroidOS","12","1238","<p><strong>请判断你在多大程度上同意下列陈述。</strong></p>","0",""
"","","","","","survey-likert","143","693376","0.0-16.0","39","1","2022-11-27 10:17:10","49aca292d257f58668169b9fbab864ae","223.89.148.208","Mozilla/5.0 (Linux; Android 12; 22021211RC Build/SKQ1.211006.001; wv) AppleWebKit/537.36 (KHTML, like Gecko) Version/4.0 Chrome/86.0.4240.99 XWEB/4343 MMWEBSDK/20220805 Mobile Safari/537.36 MMWEBID/2742 MicroMessenger/8.0.27.2220(0x28001B59) WeChat/arm64 Weixin NetType/WIFI Language/zh_CN ABI/arm64","WebKit","Chrome","86.0.4240.99","AndroidOS","12","55796","","{""sdo15"":4,""sdo16"":6,""sdo14"":5,""sdo12"":4,""sdo2"":1,""sdo10"":5,""sdo8"":4,""sdo6"":1,""sdo4"":2,""sdo1"":2,""sdo11"":3,""sdo7"":1,""sdo9"":4,""sdo13"":5,""sdo5"":4,""sdo3"":4}","[14,15,13,11,1,9,7,5,3,0,10,6,8,12,4,2]"
"","","","","","html-button-response","144","694309","0.0-17.0","39","1","2022-11-27 10:17:10","49aca292d257f58668169b9fbab864ae","223.89.148.208","Mozilla/5.0 (Linux; Android 12; 22021211RC Build/SKQ1.211006.001; wv) AppleWebKit/537.36 (KHTML, like Gecko) Version/4.0 Chrome/86.0.4240.99 XWEB/4343 MMWEBSDK/20220805 Mobile Safari/537.36 MMWEBID/2742 MicroMessenger/8.0.27.2220(0x28001B59) WeChat/arm64 Weixin NetType/WIFI Language/zh_CN ABI/arm64","WebKit","Chrome","86.0.4240.99","AndroidOS","12","915","<p><strong>请判断你在多大程度上同意下列陈述。</strong></p>","0",""
"","","","","","survey-likert","145","735371","0.0-18.0","39","1","2022-11-27 10:17:10","49aca292d257f58668169b9fbab864ae","223.89.148.208","Mozilla/5.0 (Linux; Android 12; 22021211RC Build/SKQ1.211006.001; wv) AppleWebKit/537.36 (KHTML, like Gecko) Version/4.0 Chrome/86.0.4240.99 XWEB/4343 MMWEBSDK/20220805 Mobile Safari/537.36 MMWEBID/2742 MicroMessenger/8.0.27.2220(0x28001B59) WeChat/arm64 Weixin NetType/WIFI Language/zh_CN ABI/arm64","WebKit","Chrome","86.0.4240.99","AndroidOS","12","41026","","{""caring1"":3,""liking1"":0,""caring2"":3,""protection1"":2,""liking2"":1,""caring3"":3,""protection2"":2,""liking3"":1,""protection3"":3,""caring4"":3,""liking4"":1,""protection4"":3,""caring5"":3,""liking5"":1,""protection5"":1}","[0,1,2,3,4,5,6,7,8,9,10,11,12,13,14]"
"","","","","","html-button-response","146","736301","0.0-19.0","39","1","2022-11-27 10:17:10","49aca292d257f58668169b9fbab864ae","223.89.148.208","Mozilla/5.0 (Linux; Android 12; 22021211RC Build/SKQ1.211006.001; wv) AppleWebKit/537.36 (KHTML, like Gecko) Version/4.0 Chrome/86.0.4240.99 XWEB/4343 MMWEBSDK/20220805 Mobile Safari/537.36 MMWEBID/2742 MicroMessenger/8.0.27.2220(0x28001B59) WeChat/arm64 Weixin NetType/WIFI Language/zh_CN ABI/arm64","WebKit","Chrome","86.0.4240.99","AndroidOS","12","907","<p><strong>请判断下列场景中你的内心感受有多柔软。</strong></p>","0",""
"","","","","","survey-likert","147","763600","0.0-20.0","39","1","2022-11-27 10:17:10","49aca292d257f58668169b9fbab864ae","223.89.148.208","Mozilla/5.0 (Linux; Android 12; 22021211RC Build/SKQ1.211006.001; wv) AppleWebKit/537.36 (KHTML, like Gecko) Version/4.0 Chrome/86.0.4240.99 XWEB/4343 MMWEBSDK/20220805 Mobile Safari/537.36 MMWEBID/2742 MicroMessenger/8.0.27.2220(0x28001B59) WeChat/arm64 Weixin NetType/WIFI Language/zh_CN ABI/arm64","WebKit","Chrome","86.0.4240.99","AndroidOS","12","27252","","{""tenderness-positive1"":3,""tenderness-negative1"":2,""tenderness-negative2"":3,""tenderness-positive2"":3,""tenderness-positive3"":3,""tenderness-negative3"":3,""tenderness-positive4"":4,""tenderness-negative4"":2,""tenderness-negative5"":2,""tenderness-positive5"":3}","[0,1,2,3,4,5,6,7,8,9]"
"","","","","","survey-multi-choice","148","793701","0.0-21.0","39","1","2022-11-27 10:17:10","49aca292d257f58668169b9fbab864ae","223.89.148.208","Mozilla/5.0 (Linux; Android 12; 22021211RC Build/SKQ1.211006.001; wv) AppleWebKit/537.36 (KHTML, like Gecko) Version/4.0 Chrome/86.0.4240.99 XWEB/4343 MMWEBSDK/20220805 Mobile Safari/537.36 MMWEBID/2742 MicroMessenger/8.0.27.2220(0x28001B59) WeChat/arm64 Weixin NetType/WIFI Language/zh_CN ABI/arm64","WebKit","Chrome","86.0.4240.99","AndroidOS","12","30071","","{""Attention2"":""其他""}","[0]"
"","","","","","html-button-response","149","794833","0.0-22.0","39","1","2022-11-27 10:17:10","49aca292d257f58668169b9fbab864ae","223.89.148.208","Mozilla/5.0 (Linux; Android 12; 22021211RC Build/SKQ1.211006.001; wv) AppleWebKit/537.36 (KHTML, like Gecko) Version/4.0 Chrome/86.0.4240.99 XWEB/4343 MMWEBSDK/20220805 Mobile Safari/537.36 MMWEBID/2742 MicroMessenger/8.0.27.2220(0x28001B59) WeChat/arm64 Weixin NetType/WIFI Language/zh_CN ABI/arm64","WebKit","Chrome","86.0.4240.99","AndroidOS","12","1092","<p><strong>请判断你在多大程度上同意下列陈述。</strong></p>","0",""
"","","","","","survey-likert","150","850909","0.0-23.0","39","1","2022-11-27 10:17:10","49aca292d257f58668169b9fbab864ae","223.89.148.208","Mozilla/5.0 (Linux; Android 12; 22021211RC Build/SKQ1.211006.001; wv) AppleWebKit/537.36 (KHTML, like Gecko) Version/4.0 Chrome/86.0.4240.99 XWEB/4343 MMWEBSDK/20220805 Mobile Safari/537.36 MMWEBID/2742 MicroMessenger/8.0.27.2220(0x28001B59) WeChat/arm64 Weixin NetType/WIFI Language/zh_CN ABI/arm64","WebKit","Chrome","86.0.4240.99","AndroidOS","12","56006","","{""Patri2"":3,""Patri7"":3,""Patri10"":0,""Patri11"":1,""Patri5"":3,""Patri3"":2,""Patri6"":1,""Nation5"":3,""Nation1"":3,""Patri12"":4,""Patri8"":3,""Nation7"":4,""Nation2"":3,""Nation3"":4,""Patri9"":1,""Nation4"":3,""Nation8"":1,""Patri1"":4,""Patri4"":4,""Nation6"":3}","[1,6,9,10,4,2,5,16,12,11,7,18,13,14,8,15,19,0,3,17]"
"","","","","","html-button-response","151","852002","0.0-24.0","39","1","2022-11-27 10:17:10","49aca292d257f58668169b9fbab864ae","223.89.148.208","Mozilla/5.0 (Linux; Android 12; 22021211RC Build/SKQ1.211006.001; wv) AppleWebKit/537.36 (KHTML, like Gecko) Version/4.0 Chrome/86.0.4240.99 XWEB/4343 MMWEBSDK/20220805 Mobile Safari/537.36 MMWEBID/2742 MicroMessenger/8.0.27.2220(0x28001B59) WeChat/arm64 Weixin NetType/WIFI Language/zh_CN ABI/arm64","WebKit","Chrome","86.0.4240.99","AndroidOS","12","1067","<p><strong>请判断你在多大程度上同意下列陈述。</strong></p>","0",""
