"success","timeout","failed_images","failed_audio","failed_video","trial_type","trial_index","time_elapsed","internal_node_id","run_id","condition","recorded_at","source_code_version","ip","user_agent","device","browser","browser_version","platform","platform_version","rt","stimulus","response","question_order"
"true","false","[]","[]","[]","preload","0","4501","0.0-0.0","46","1","2022-11-27 11:01:47","49aca292d257f58668169b9fbab864ae","39.149.130.65","Mozilla/5.0 (Linux; Android 11; PEGM00 Build/RKQ1.200903.002; wv) AppleWebKit/537.36 (KHTML, like Gecko) Version/4.0 Chrome/83.0.4103.106 Mobile Safari/537.36","WebKit","Chrome","83.0.4103.106","AndroidOS","11","","","",""
"true","","","","","fullscreen","1","8613","0.0-1.0","46","1","2022-11-27 11:01:47","49aca292d257f58668169b9fbab864ae","39.149.130.65","Mozilla/5.0 (Linux; Android 11; PEGM00 Build/RKQ1.200903.002; wv) AppleWebKit/537.36 (KHTML, like Gecko) Version/4.0 Chrome/83.0.4103.106 Mobile Safari/537.36","WebKit","Chrome","83.0.4103.106","AndroidOS","11","","","",""
"","","","","","html-button-response","2","24200","0.0-2.0","46","1","2022-11-27 11:01:47","49aca292d257f58668169b9fbab864ae","39.149.130.65","Mozilla/5.0 (Linux; Android 11; PEGM00 Build/RKQ1.200903.002; wv) AppleWebKit/537.36 (KHTML, like Gecko) Version/4.0 Chrome/83.0.4103.106 Mobile Safari/537.36","WebKit","Chrome","83.0.4103.106","AndroidOS","11","15580","<p style=""font-size:20px;font-weight:bold;"">实验知情同意书</p><p style=""text-align:left;""><strong>实验名称：</strong>社会冲突研究</p><p style=""text-align:left;""><strong>主要研究者：</strong>韩晓春副教授（北京师范大学心理学部）</p><p style=""text-align:left;""><strong>联系方式：</strong>发送邮件至xiaochun.han@bnu.edu.cn</p><p style=""text-align:left;""><strong>研究目的：</strong>研究旨在了解人类面对群体冲突时的决策方式，以及相关的心理学特质。实验调查大约需要20分钟。</p><p style=""text-align:left;""><strong>实验流程：</strong>实验包含两部分。第一部分呈现一系列群体冲突场景，请你决定如何对这些冲突进行反应，大约需要10分钟完成。第二部分包含一系列人口统计学信息收集和心理学问卷，大约需要10分钟完成。</p><p style=""text-align:left;""><strong>参加及退出规则：</strong>参加本实验完全取决于您的个人意愿。在参与过程中，您可以随时退出，并且不用承担任何后果。</p><p style=""text-align:left;""><strong>隐私：</strong>本实验完全匿名进行，不会收集您的姓名或其他能够识别您身份的信息。实验中收集的作答仅用作科学研究使用，可能会在学术期刊/书籍上发表，或者用于教学，您的数据未来可能会和其他研究者或实验室分享，但您的个人身份不会被识别。</p><p style=""text-align:left;""><strong>实验报酬：</strong>实验完成后，您将获得15元人民币报酬，以感谢您的时间和努力。调查问卷中包含几道题目用以测验您作答时的认真度。只有完成全部实验，并且正确回答认真度测验的被试才能获得实验报酬。实验报酬将通过支付宝转账发放。</p><p style=""text-align:left;font-size:20px;""><strong>如果您同意以上实验知情同意书的内容，请点击'同意并且开始实验'按钮；否则请关闭浏览器界面，退出实验。</strong></p>","0",""
"","","","","","html-button-response","3","68924","0.0-3.0","46","1","2022-11-27 11:01:47","49aca292d257f58668169b9fbab864ae","39.149.130.65","Mozilla/5.0 (Linux; Android 11; PEGM00 Build/RKQ1.200903.002; wv) AppleWebKit/537.36 (KHTML, like Gecko) Version/4.0 Chrome/83.0.4103.106 Mobile Safari/537.36","WebKit","Chrome","83.0.4103.106","AndroidOS","11","29194","<p ><strong>实验任务一：</strong></p><p>请想象你的国家与另一个国家发生了军事冲突。</p><p>你是国家军队的指挥官，你将如何在冲突中进行决策。</p><p>具体来说，作为军队指挥官，请你决定是否发射导弹进行打击。</p><p>接下来，你会面对一系列场景，请仔细阅读每个场景，然后进行决策。</p><p>这部分实验任务大约需要10分钟。</p><p><strong>实验过程中，请集中注意力。</strong></p>","0",""
"","","","","","html-keyboard-response","4","69929","0.0-4.0-0.0","46","1","2022-11-27 11:01:47","49aca292d257f58668169b9fbab864ae","39.149.130.65","Mozilla/5.0 (Linux; Android 11; PEGM00 Build/RKQ1.200903.002; wv) AppleWebKit/537.36 (KHTML, like Gecko) Version/4.0 Chrome/83.0.4103.106 Mobile Safari/537.36","WebKit","Chrome","83.0.4103.106","AndroidOS","11","null","<div style=""font-size:60px;"">+</div>","null",""
"","","","","","html-button-response","5","80793","0.0-4.0-1.0","46","1","2022-11-27 11:01:47","49aca292d257f58668169b9fbab864ae","39.149.130.65","Mozilla/5.0 (Linux; Android 11; PEGM00 Build/RKQ1.200903.002; wv) AppleWebKit/537.36 (KHTML, like Gecko) Version/4.0 Chrome/83.0.4103.106 Mobile Safari/537.36","WebKit","Chrome","83.0.4103.106","AndroidOS","11","10847","<p>作为军队的指挥官，你可以选择发射导弹杀死 <strong>10名</strong> 敌国士兵，但会误杀附近的 <strong>1名</strong> 敌国平民。</p> <p>平民照片如下图所示。</p> <p></p> <img src='stimuli/faces/PFM6.jpg', style='max-width: 30%;'> </img> <p><strong>你是否选择发射武器？</strong></p>","0",""
"","","","","","html-keyboard-response","6","81802","0.0-4.0-0.1","46","1","2022-11-27 11:01:47","49aca292d257f58668169b9fbab864ae","39.149.130.65","Mozilla/5.0 (Linux; Android 11; PEGM00 Build/RKQ1.200903.002; wv) AppleWebKit/537.36 (KHTML, like Gecko) Version/4.0 Chrome/83.0.4103.106 Mobile Safari/537.36","WebKit","Chrome","83.0.4103.106","AndroidOS","11","null","<div style=""font-size:60px;"">+</div>","null",""
"","","","","","html-button-response","7","90097","0.0-4.0-1.1","46","1","2022-11-27 11:01:47","49aca292d257f58668169b9fbab864ae","39.149.130.65","Mozilla/5.0 (Linux; Android 11; PEGM00 Build/RKQ1.200903.002; wv) AppleWebKit/537.36 (KHTML, like Gecko) Version/4.0 Chrome/83.0.4103.106 Mobile Safari/537.36","WebKit","Chrome","83.0.4103.106","AndroidOS","11","8278","<p>作为军队的指挥官，你可以选择发射导弹杀死 <strong>10名</strong> 敌国士兵，但会炸毁附近的 <strong>1棵</strong> 敌国树木。</p> <p>树木的照片如下图所示。</p> <p></p> <img src='stimuli/trees/8.png', style='max-width: 30%;'> </img> <p><strong>你是否选择发射武器？</strong></p>","0",""
"","","","","","html-keyboard-response","8","91106","0.0-4.0-0.2","46","1","2022-11-27 11:01:47","49aca292d257f58668169b9fbab864ae","39.149.130.65","Mozilla/5.0 (Linux; Android 11; PEGM00 Build/RKQ1.200903.002; wv) AppleWebKit/537.36 (KHTML, like Gecko) Version/4.0 Chrome/83.0.4103.106 Mobile Safari/537.36","WebKit","Chrome","83.0.4103.106","AndroidOS","11","null","<div style=""font-size:60px;"">+</div>","null",""
"","","","","","html-button-response","9","96513","0.0-4.0-1.2","46","1","2022-11-27 11:01:47","49aca292d257f58668169b9fbab864ae","39.149.130.65","Mozilla/5.0 (Linux; Android 11; PEGM00 Build/RKQ1.200903.002; wv) AppleWebKit/537.36 (KHTML, like Gecko) Version/4.0 Chrome/83.0.4103.106 Mobile Safari/537.36","WebKit","Chrome","83.0.4103.106","AndroidOS","11","5388","<p>作为军队的指挥官，你可以选择发射导弹杀死 <strong>8名</strong> 敌国士兵，但会误杀附近的 <strong>1名</strong> 敌国平民。</p> <p>平民照片如下图所示。</p> <p></p> <img src='stimuli/faces/PFM5.jpg', style='max-width: 30%;'> </img> <p><strong>你是否选择发射武器？</strong></p>","0",""
"","","","","","html-keyboard-response","10","97520","0.0-4.0-0.3","46","1","2022-11-27 11:01:47","49aca292d257f58668169b9fbab864ae","39.149.130.65","Mozilla/5.0 (Linux; Android 11; PEGM00 Build/RKQ1.200903.002; wv) AppleWebKit/537.36 (KHTML, like Gecko) Version/4.0 Chrome/83.0.4103.106 Mobile Safari/537.36","WebKit","Chrome","83.0.4103.106","AndroidOS","11","null","<div style=""font-size:60px;"">+</div>","null",""
"","","","","","html-button-response","11","101273","0.0-4.0-1.3","46","1","2022-11-27 11:01:47","49aca292d257f58668169b9fbab864ae","39.149.130.65","Mozilla/5.0 (Linux; Android 11; PEGM00 Build/RKQ1.200903.002; wv) AppleWebKit/537.36 (KHTML, like Gecko) Version/4.0 Chrome/83.0.4103.106 Mobile Safari/537.36","WebKit","Chrome","83.0.4103.106","AndroidOS","11","3712","<p>作为军队的指挥官，你可以选择发射导弹杀死 <strong>2名</strong> 敌国士兵，但会炸毁附近的 <strong>1棵</strong> 敌国树木。</p> <p>树木的照片如下图所示。</p> <p></p> <img src='stimuli/trees/8.png', style='max-width: 30%;'> </img> <p><strong>你是否选择发射武器？</strong></p>","0",""
"","","","","","html-keyboard-response","12","102280","0.0-4.0-0.4","46","1","2022-11-27 11:01:47","49aca292d257f58668169b9fbab864ae","39.149.130.65","Mozilla/5.0 (Linux; Android 11; PEGM00 Build/RKQ1.200903.002; wv) AppleWebKit/537.36 (KHTML, like Gecko) Version/4.0 Chrome/83.0.4103.106 Mobile Safari/537.36","WebKit","Chrome","83.0.4103.106","AndroidOS","11","null","<div style=""font-size:60px;"">+</div>","null",""
"","","","","","html-button-response","13","106006","0.0-4.0-1.4","46","1","2022-11-27 11:01:47","49aca292d257f58668169b9fbab864ae","39.149.130.65","Mozilla/5.0 (Linux; Android 11; PEGM00 Build/RKQ1.200903.002; wv) AppleWebKit/537.36 (KHTML, like Gecko) Version/4.0 Chrome/83.0.4103.106 Mobile Safari/537.36","WebKit","Chrome","83.0.4103.106","AndroidOS","11","3708","<p>作为军队的指挥官，你可以选择发射导弹杀死 <strong>7名</strong> 敌国士兵，但会误杀附近的 <strong>1名</strong> 敌国平民。</p> <p>平民照片如下图所示。</p> <p></p> <img src='stimuli/faces/PFF5.jpg', style='max-width: 30%;'> </img> <p><strong>你是否选择发射武器？</strong></p>","0",""
"","","","","","html-keyboard-response","14","107014","0.0-4.0-0.5","46","1","2022-11-27 11:01:47","49aca292d257f58668169b9fbab864ae","39.149.130.65","Mozilla/5.0 (Linux; Android 11; PEGM00 Build/RKQ1.200903.002; wv) AppleWebKit/537.36 (KHTML, like Gecko) Version/4.0 Chrome/83.0.4103.106 Mobile Safari/537.36","WebKit","Chrome","83.0.4103.106","AndroidOS","11","null","<div style=""font-size:60px;"">+</div>","null",""
"","","","","","html-button-response","15","110402","0.0-4.0-1.5","46","1","2022-11-27 11:01:47","49aca292d257f58668169b9fbab864ae","39.149.130.65","Mozilla/5.0 (Linux; Android 11; PEGM00 Build/RKQ1.200903.002; wv) AppleWebKit/537.36 (KHTML, like Gecko) Version/4.0 Chrome/83.0.4103.106 Mobile Safari/537.36","WebKit","Chrome","83.0.4103.106","AndroidOS","11","3362","<p>作为军队的指挥官，你可以选择发射导弹杀死 <strong>10名</strong> 敌国士兵，但会炸毁附近的 <strong>1棵</strong> 敌国树木。</p> <p>树木的照片如下图所示。</p> <p></p> <img src='stimuli/trees/1.png', style='max-width: 30%;'> </img> <p><strong>你是否选择发射武器？</strong></p>","0",""
"","","","","","html-keyboard-response","16","111428","0.0-4.0-0.6","46","1","2022-11-27 11:01:47","49aca292d257f58668169b9fbab864ae","39.149.130.65","Mozilla/5.0 (Linux; Android 11; PEGM00 Build/RKQ1.200903.002; wv) AppleWebKit/537.36 (KHTML, like Gecko) Version/4.0 Chrome/83.0.4103.106 Mobile Safari/537.36","WebKit","Chrome","83.0.4103.106","AndroidOS","11","null","<div style=""font-size:60px;"">+</div>","null",""
"","","","","","html-button-response","17","115705","0.0-4.0-1.6","46","1","2022-11-27 11:01:47","49aca292d257f58668169b9fbab864ae","39.149.130.65","Mozilla/5.0 (Linux; Android 11; PEGM00 Build/RKQ1.200903.002; wv) AppleWebKit/537.36 (KHTML, like Gecko) Version/4.0 Chrome/83.0.4103.106 Mobile Safari/537.36","WebKit","Chrome","83.0.4103.106","AndroidOS","11","4270","<p>作为军队的指挥官，你可以选择发射导弹杀死 <strong>5名</strong> 敌国士兵，但会误杀附近的 <strong>1名</strong> 敌国平民。</p> <p>平民照片如下图所示。</p> <p></p> <img src='stimuli/faces/PFF5.jpg', style='max-width: 30%;'> </img> <p><strong>你是否选择发射武器？</strong></p>","0",""
"","","","","","html-keyboard-response","18","116712","0.0-4.0-0.7","46","1","2022-11-27 11:01:47","49aca292d257f58668169b9fbab864ae","39.149.130.65","Mozilla/5.0 (Linux; Android 11; PEGM00 Build/RKQ1.200903.002; wv) AppleWebKit/537.36 (KHTML, like Gecko) Version/4.0 Chrome/83.0.4103.106 Mobile Safari/537.36","WebKit","Chrome","83.0.4103.106","AndroidOS","11","null","<div style=""font-size:60px;"">+</div>","null",""
"","","","","","html-button-response","19","118762","0.0-4.0-1.7","46","1","2022-11-27 11:01:47","49aca292d257f58668169b9fbab864ae","39.149.130.65","Mozilla/5.0 (Linux; Android 11; PEGM00 Build/RKQ1.200903.002; wv) AppleWebKit/537.36 (KHTML, like Gecko) Version/4.0 Chrome/83.0.4103.106 Mobile Safari/537.36","WebKit","Chrome","83.0.4103.106","AndroidOS","11","2032","<p>作为军队的指挥官，你可以选择发射导弹杀死 <strong>3名</strong> 敌国士兵，但会炸毁附近的 <strong>1棵</strong> 敌国树木。</p> <p>树木的照片如下图所示。</p> <p></p> <img src='stimuli/trees/3.png', style='max-width: 30%;'> </img> <p><strong>你是否选择发射武器？</strong></p>","0",""
"","","","","","html-keyboard-response","20","119770","0.0-4.0-0.8","46","1","2022-11-27 11:01:47","49aca292d257f58668169b9fbab864ae","39.149.130.65","Mozilla/5.0 (Linux; Android 11; PEGM00 Build/RKQ1.200903.002; wv) AppleWebKit/537.36 (KHTML, like Gecko) Version/4.0 Chrome/83.0.4103.106 Mobile Safari/537.36","WebKit","Chrome","83.0.4103.106","AndroidOS","11","null","<div style=""font-size:60px;"">+</div>","null",""
"","","","","","html-button-response","21","122435","0.0-4.0-1.8","46","1","2022-11-27 11:01:47","49aca292d257f58668169b9fbab864ae","39.149.130.65","Mozilla/5.0 (Linux; Android 11; PEGM00 Build/RKQ1.200903.002; wv) AppleWebKit/537.36 (KHTML, like Gecko) Version/4.0 Chrome/83.0.4103.106 Mobile Safari/537.36","WebKit","Chrome","83.0.4103.106","AndroidOS","11","2649","<p>作为军队的指挥官，你可以选择发射导弹杀死 <strong>4名</strong> 敌国士兵，但会炸毁附近的 <strong>1棵</strong> 敌国树木。</p> <p>树木的照片如下图所示。</p> <p></p> <img src='stimuli/trees/5.png', style='max-width: 30%;'> </img> <p><strong>你是否选择发射武器？</strong></p>","0",""
"","","","","","html-keyboard-response","22","123443","0.0-4.0-0.9","46","1","2022-11-27 11:01:47","49aca292d257f58668169b9fbab864ae","39.149.130.65","Mozilla/5.0 (Linux; Android 11; PEGM00 Build/RKQ1.200903.002; wv) AppleWebKit/537.36 (KHTML, like Gecko) Version/4.0 Chrome/83.0.4103.106 Mobile Safari/537.36","WebKit","Chrome","83.0.4103.106","AndroidOS","11","null","<div style=""font-size:60px;"">+</div>","null",""
"","","","","","html-button-response","23","126778","0.0-4.0-1.9","46","1","2022-11-27 11:01:47","49aca292d257f58668169b9fbab864ae","39.149.130.65","Mozilla/5.0 (Linux; Android 11; PEGM00 Build/RKQ1.200903.002; wv) AppleWebKit/537.36 (KHTML, like Gecko) Version/4.0 Chrome/83.0.4103.106 Mobile Safari/537.36","WebKit","Chrome","83.0.4103.106","AndroidOS","11","3311","<p>作为军队的指挥官，你可以选择发射导弹杀死 <strong>10名</strong> 敌国士兵，但会炸毁附近的 <strong>1棵</strong> 敌国树木。</p> <p>树木的照片如下图所示。</p> <p></p> <img src='stimuli/trees/7.png', style='max-width: 30%;'> </img> <p><strong>你是否选择发射武器？</strong></p>","0",""
"","","","","","html-keyboard-response","24","127784","0.0-4.0-0.10","46","1","2022-11-27 11:01:47","49aca292d257f58668169b9fbab864ae","39.149.130.65","Mozilla/5.0 (Linux; Android 11; PEGM00 Build/RKQ1.200903.002; wv) AppleWebKit/537.36 (KHTML, like Gecko) Version/4.0 Chrome/83.0.4103.106 Mobile Safari/537.36","WebKit","Chrome","83.0.4103.106","AndroidOS","11","null","<div style=""font-size:60px;"">+</div>","null",""
"","","","","","html-button-response","25","129544","0.0-4.0-1.10","46","1","2022-11-27 11:01:47","49aca292d257f58668169b9fbab864ae","39.149.130.65","Mozilla/5.0 (Linux; Android 11; PEGM00 Build/RKQ1.200903.002; wv) AppleWebKit/537.36 (KHTML, like Gecko) Version/4.0 Chrome/83.0.4103.106 Mobile Safari/537.36","WebKit","Chrome","83.0.4103.106","AndroidOS","11","1751","<p>作为军队的指挥官，你可以选择发射导弹杀死 <strong>7名</strong> 敌国士兵，但会炸毁附近的 <strong>1棵</strong> 敌国树木。</p> <p>树木的照片如下图所示。</p> <p></p> <img src='stimuli/trees/5.png', style='max-width: 30%;'> </img> <p><strong>你是否选择发射武器？</strong></p>","0",""
"","","","","","html-keyboard-response","26","130554","0.0-4.0-0.11","46","1","2022-11-27 11:01:47","49aca292d257f58668169b9fbab864ae","39.149.130.65","Mozilla/5.0 (Linux; Android 11; PEGM00 Build/RKQ1.200903.002; wv) AppleWebKit/537.36 (KHTML, like Gecko) Version/4.0 Chrome/83.0.4103.106 Mobile Safari/537.36","WebKit","Chrome","83.0.4103.106","AndroidOS","11","null","<div style=""font-size:60px;"">+</div>","null",""
"","","","","","html-button-response","27","131933","0.0-4.0-1.11","46","1","2022-11-27 11:01:47","49aca292d257f58668169b9fbab864ae","39.149.130.65","Mozilla/5.0 (Linux; Android 11; PEGM00 Build/RKQ1.200903.002; wv) AppleWebKit/537.36 (KHTML, like Gecko) Version/4.0 Chrome/83.0.4103.106 Mobile Safari/537.36","WebKit","Chrome","83.0.4103.106","AndroidOS","11","1362","<p>作为军队的指挥官，你可以选择发射导弹杀死 <strong>3名</strong> 敌国士兵，但会炸毁附近的 <strong>1棵</strong> 敌国树木。</p> <p>树木的照片如下图所示。</p> <p></p> <img src='stimuli/trees/16.png', style='max-width: 30%;'> </img> <p><strong>你是否选择发射武器？</strong></p>","0",""
"","","","","","html-keyboard-response","28","132942","0.0-4.0-0.12","46","1","2022-11-27 11:01:47","49aca292d257f58668169b9fbab864ae","39.149.130.65","Mozilla/5.0 (Linux; Android 11; PEGM00 Build/RKQ1.200903.002; wv) AppleWebKit/537.36 (KHTML, like Gecko) Version/4.0 Chrome/83.0.4103.106 Mobile Safari/537.36","WebKit","Chrome","83.0.4103.106","AndroidOS","11","null","<div style=""font-size:60px;"">+</div>","null",""
"","","","","","html-button-response","29","136713","0.0-4.0-1.12","46","1","2022-11-27 11:01:47","49aca292d257f58668169b9fbab864ae","39.149.130.65","Mozilla/5.0 (Linux; Android 11; PEGM00 Build/RKQ1.200903.002; wv) AppleWebKit/537.36 (KHTML, like Gecko) Version/4.0 Chrome/83.0.4103.106 Mobile Safari/537.36","WebKit","Chrome","83.0.4103.106","AndroidOS","11","3753","<p>作为军队的指挥官，你可以选择发射导弹杀死 <strong>3名</strong> 敌国士兵，但会炸毁附近的 <strong>1棵</strong> 敌国树木。</p> <p>树木的照片如下图所示。</p> <p></p> <img src='stimuli/trees/10.png', style='max-width: 30%;'> </img> <p><strong>你是否选择发射武器？</strong></p>","0",""
"","","","","","html-keyboard-response","30","137722","0.0-4.0-0.13","46","1","2022-11-27 11:01:47","49aca292d257f58668169b9fbab864ae","39.149.130.65","Mozilla/5.0 (Linux; Android 11; PEGM00 Build/RKQ1.200903.002; wv) AppleWebKit/537.36 (KHTML, like Gecko) Version/4.0 Chrome/83.0.4103.106 Mobile Safari/537.36","WebKit","Chrome","83.0.4103.106","AndroidOS","11","null","<div style=""font-size:60px;"">+</div>","null",""
"","","","","","html-button-response","31","140951","0.0-4.0-1.13","46","1","2022-11-27 11:01:47","49aca292d257f58668169b9fbab864ae","39.149.130.65","Mozilla/5.0 (Linux; Android 11; PEGM00 Build/RKQ1.200903.002; wv) AppleWebKit/537.36 (KHTML, like Gecko) Version/4.0 Chrome/83.0.4103.106 Mobile Safari/537.36","WebKit","Chrome","83.0.4103.106","AndroidOS","11","3209","<p>作为军队的指挥官，你可以选择发射导弹杀死 <strong>8名</strong> 敌国士兵，但会误杀附近的 <strong>1名</strong> 敌国平民。</p> <p>平民照片如下图所示。</p> <p></p> <img src='stimuli/faces/PFM3.jpg', style='max-width: 30%;'> </img> <p><strong>你是否选择发射武器？</strong></p>","0",""
"","","","","","html-keyboard-response","32","141961","0.0-4.0-0.14","46","1","2022-11-27 11:01:47","49aca292d257f58668169b9fbab864ae","39.149.130.65","Mozilla/5.0 (Linux; Android 11; PEGM00 Build/RKQ1.200903.002; wv) AppleWebKit/537.36 (KHTML, like Gecko) Version/4.0 Chrome/83.0.4103.106 Mobile Safari/537.36","WebKit","Chrome","83.0.4103.106","AndroidOS","11","null","<div style=""font-size:60px;"">+</div>","null",""
"","","","","","html-button-response","33","145614","0.0-4.0-1.14","46","1","2022-11-27 11:01:47","49aca292d257f58668169b9fbab864ae","39.149.130.65","Mozilla/5.0 (Linux; Android 11; PEGM00 Build/RKQ1.200903.002; wv) AppleWebKit/537.36 (KHTML, like Gecko) Version/4.0 Chrome/83.0.4103.106 Mobile Safari/537.36","WebKit","Chrome","83.0.4103.106","AndroidOS","11","3632","<p>作为军队的指挥官，你可以选择发射导弹杀死 <strong>6名</strong> 敌国士兵，但会误杀附近的 <strong>1名</strong> 敌国平民。</p> <p>平民照片如下图所示。</p> <p></p> <img src='stimuli/faces/PFF4.jpg', style='max-width: 30%;'> </img> <p><strong>你是否选择发射武器？</strong></p>","1",""
"","","","","","html-keyboard-response","34","146622","0.0-4.0-0.15","46","1","2022-11-27 11:01:47","49aca292d257f58668169b9fbab864ae","39.149.130.65","Mozilla/5.0 (Linux; Android 11; PEGM00 Build/RKQ1.200903.002; wv) AppleWebKit/537.36 (KHTML, like Gecko) Version/4.0 Chrome/83.0.4103.106 Mobile Safari/537.36","WebKit","Chrome","83.0.4103.106","AndroidOS","11","null","<div style=""font-size:60px;"">+</div>","null",""
"","","","","","html-button-response","35","149290","0.0-4.0-1.15","46","1","2022-11-27 11:01:47","49aca292d257f58668169b9fbab864ae","39.149.130.65","Mozilla/5.0 (Linux; Android 11; PEGM00 Build/RKQ1.200903.002; wv) AppleWebKit/537.36 (KHTML, like Gecko) Version/4.0 Chrome/83.0.4103.106 Mobile Safari/537.36","WebKit","Chrome","83.0.4103.106","AndroidOS","11","2658","<p>作为军队的指挥官，你可以选择发射导弹杀死 <strong>6名</strong> 敌国士兵，但会误杀附近的 <strong>1名</strong> 敌国平民。</p> <p>平民照片如下图所示。</p> <p></p> <img src='stimuli/faces/PFF6.jpg', style='max-width: 30%;'> </img> <p><strong>你是否选择发射武器？</strong></p>","0",""
"","","","","","html-keyboard-response","36","150301","0.0-4.0-0.16","46","1","2022-11-27 11:01:47","49aca292d257f58668169b9fbab864ae","39.149.130.65","Mozilla/5.0 (Linux; Android 11; PEGM00 Build/RKQ1.200903.002; wv) AppleWebKit/537.36 (KHTML, like Gecko) Version/4.0 Chrome/83.0.4103.106 Mobile Safari/537.36","WebKit","Chrome","83.0.4103.106","AndroidOS","11","null","<div style=""font-size:60px;"">+</div>","null",""
"","","","","","html-button-response","37","153668","0.0-4.0-1.16","46","1","2022-11-27 11:01:47","49aca292d257f58668169b9fbab864ae","39.149.130.65","Mozilla/5.0 (Linux; Android 11; PEGM00 Build/RKQ1.200903.002; wv) AppleWebKit/537.36 (KHTML, like Gecko) Version/4.0 Chrome/83.0.4103.106 Mobile Safari/537.36","WebKit","Chrome","83.0.4103.106","AndroidOS","11","3348","<p>作为军队的指挥官，你可以选择发射导弹杀死 <strong>9名</strong> 敌国士兵，但会炸毁附近的 <strong>1棵</strong> 敌国树木。</p> <p>树木的照片如下图所示。</p> <p></p> <img src='stimuli/trees/3.png', style='max-width: 30%;'> </img> <p><strong>你是否选择发射武器？</strong></p>","0",""
"","","","","","html-keyboard-response","38","154679","0.0-4.0-0.17","46","1","2022-11-27 11:01:47","49aca292d257f58668169b9fbab864ae","39.149.130.65","Mozilla/5.0 (Linux; Android 11; PEGM00 Build/RKQ1.200903.002; wv) AppleWebKit/537.36 (KHTML, like Gecko) Version/4.0 Chrome/83.0.4103.106 Mobile Safari/537.36","WebKit","Chrome","83.0.4103.106","AndroidOS","11","null","<div style=""font-size:60px;"">+</div>","null",""
"","","","","","html-button-response","39","160929","0.0-4.0-1.17","46","1","2022-11-27 11:01:47","49aca292d257f58668169b9fbab864ae","39.149.130.65","Mozilla/5.0 (Linux; Android 11; PEGM00 Build/RKQ1.200903.002; wv) AppleWebKit/537.36 (KHTML, like Gecko) Version/4.0 Chrome/83.0.4103.106 Mobile Safari/537.36","WebKit","Chrome","83.0.4103.106","AndroidOS","11","6237","<p>作为军队的指挥官，你可以选择发射导弹杀死 <strong>7名</strong> 敌国士兵，但会误杀附近的 <strong>1名</strong> 敌国平民。</p> <p>平民照片如下图所示。</p> <p></p> <img src='stimuli/faces/PFF3.jpg', style='max-width: 30%;'> </img> <p><strong>你是否选择发射武器？</strong></p>","0",""
"","","","","","html-keyboard-response","40","161941","0.0-4.0-0.18","46","1","2022-11-27 11:01:47","49aca292d257f58668169b9fbab864ae","39.149.130.65","Mozilla/5.0 (Linux; Android 11; PEGM00 Build/RKQ1.200903.002; wv) AppleWebKit/537.36 (KHTML, like Gecko) Version/4.0 Chrome/83.0.4103.106 Mobile Safari/537.36","WebKit","Chrome","83.0.4103.106","AndroidOS","11","null","<div style=""font-size:60px;"">+</div>","null",""
"","","","","","html-button-response","41","165214","0.0-4.0-1.18","46","1","2022-11-27 11:01:47","49aca292d257f58668169b9fbab864ae","39.149.130.65","Mozilla/5.0 (Linux; Android 11; PEGM00 Build/RKQ1.200903.002; wv) AppleWebKit/537.36 (KHTML, like Gecko) Version/4.0 Chrome/83.0.4103.106 Mobile Safari/537.36","WebKit","Chrome","83.0.4103.106","AndroidOS","11","3254","<p>作为军队的指挥官，你可以选择发射导弹杀死 <strong>2名</strong> 敌国士兵，但会误杀附近的 <strong>1名</strong> 敌国平民。</p> <p>平民照片如下图所示。</p> <p></p> <img src='stimuli/faces/PFF4.jpg', style='max-width: 30%;'> </img> <p><strong>你是否选择发射武器？</strong></p>","0",""
"","","","","","html-keyboard-response","42","166223","0.0-4.0-0.19","46","1","2022-11-27 11:01:47","49aca292d257f58668169b9fbab864ae","39.149.130.65","Mozilla/5.0 (Linux; Android 11; PEGM00 Build/RKQ1.200903.002; wv) AppleWebKit/537.36 (KHTML, like Gecko) Version/4.0 Chrome/83.0.4103.106 Mobile Safari/537.36","WebKit","Chrome","83.0.4103.106","AndroidOS","11","null","<div style=""font-size:60px;"">+</div>","null",""
"","","","","","html-button-response","43","170478","0.0-4.0-1.19","46","1","2022-11-27 11:01:47","49aca292d257f58668169b9fbab864ae","39.149.130.65","Mozilla/5.0 (Linux; Android 11; PEGM00 Build/RKQ1.200903.002; wv) AppleWebKit/537.36 (KHTML, like Gecko) Version/4.0 Chrome/83.0.4103.106 Mobile Safari/537.36","WebKit","Chrome","83.0.4103.106","AndroidOS","11","4231","<p>作为军队的指挥官，你可以选择发射导弹杀死 <strong>5名</strong> 敌国士兵，但会误杀附近的 <strong>1名</strong> 敌国平民。</p> <p>平民照片如下图所示。</p> <p></p> <img src='stimuli/faces/PFM4.jpg', style='max-width: 30%;'> </img> <p><strong>你是否选择发射武器？</strong></p>","0",""
"","","","","","html-keyboard-response","44","171486","0.0-4.0-0.20","46","1","2022-11-27 11:01:47","49aca292d257f58668169b9fbab864ae","39.149.130.65","Mozilla/5.0 (Linux; Android 11; PEGM00 Build/RKQ1.200903.002; wv) AppleWebKit/537.36 (KHTML, like Gecko) Version/4.0 Chrome/83.0.4103.106 Mobile Safari/537.36","WebKit","Chrome","83.0.4103.106","AndroidOS","11","null","<div style=""font-size:60px;"">+</div>","null",""
"","","","","","html-button-response","45","174365","0.0-4.0-1.20","46","1","2022-11-27 11:01:47","49aca292d257f58668169b9fbab864ae","39.149.130.65","Mozilla/5.0 (Linux; Android 11; PEGM00 Build/RKQ1.200903.002; wv) AppleWebKit/537.36 (KHTML, like Gecko) Version/4.0 Chrome/83.0.4103.106 Mobile Safari/537.36","WebKit","Chrome","83.0.4103.106","AndroidOS","11","2865","<p>作为军队的指挥官，你可以选择发射导弹杀死 <strong>3名</strong> 敌国士兵，但会误杀附近的 <strong>1名</strong> 敌国平民。</p> <p>平民照片如下图所示。</p> <p></p> <img src='stimuli/faces/PFF7.jpg', style='max-width: 30%;'> </img> <p><strong>你是否选择发射武器？</strong></p>","0",""
"","","","","","html-keyboard-response","46","175375","0.0-4.0-0.21","46","1","2022-11-27 11:01:47","49aca292d257f58668169b9fbab864ae","39.149.130.65","Mozilla/5.0 (Linux; Android 11; PEGM00 Build/RKQ1.200903.002; wv) AppleWebKit/537.36 (KHTML, like Gecko) Version/4.0 Chrome/83.0.4103.106 Mobile Safari/537.36","WebKit","Chrome","83.0.4103.106","AndroidOS","11","null","<div style=""font-size:60px;"">+</div>","null",""
"","","","","","html-button-response","47","177018","0.0-4.0-1.21","46","1","2022-11-27 11:01:47","49aca292d257f58668169b9fbab864ae","39.149.130.65","Mozilla/5.0 (Linux; Android 11; PEGM00 Build/RKQ1.200903.002; wv) AppleWebKit/537.36 (KHTML, like Gecko) Version/4.0 Chrome/83.0.4103.106 Mobile Safari/537.36","WebKit","Chrome","83.0.4103.106","AndroidOS","11","1627","<p>作为军队的指挥官，你可以选择发射导弹杀死 <strong>9名</strong> 敌国士兵，但会误杀附近的 <strong>1名</strong> 敌国平民。</p> <p>平民照片如下图所示。</p> <p></p> <img src='stimuli/faces/PFM8.jpg', style='max-width: 30%;'> </img> <p><strong>你是否选择发射武器？</strong></p>","0",""
"","","","","","html-keyboard-response","48","178027","0.0-4.0-0.22","46","1","2022-11-27 11:01:47","49aca292d257f58668169b9fbab864ae","39.149.130.65","Mozilla/5.0 (Linux; Android 11; PEGM00 Build/RKQ1.200903.002; wv) AppleWebKit/537.36 (KHTML, like Gecko) Version/4.0 Chrome/83.0.4103.106 Mobile Safari/537.36","WebKit","Chrome","83.0.4103.106","AndroidOS","11","null","<div style=""font-size:60px;"">+</div>","null",""
"","","","","","html-button-response","49","181158","0.0-4.0-1.22","46","1","2022-11-27 11:01:47","49aca292d257f58668169b9fbab864ae","39.149.130.65","Mozilla/5.0 (Linux; Android 11; PEGM00 Build/RKQ1.200903.002; wv) AppleWebKit/537.36 (KHTML, like Gecko) Version/4.0 Chrome/83.0.4103.106 Mobile Safari/537.36","WebKit","Chrome","83.0.4103.106","AndroidOS","11","3113","<p>作为军队的指挥官，你可以选择发射导弹杀死 <strong>6名</strong> 敌国士兵，但会炸毁附近的 <strong>1棵</strong> 敌国树木。</p> <p>树木的照片如下图所示。</p> <p></p> <img src='stimuli/trees/12.png', style='max-width: 30%;'> </img> <p><strong>你是否选择发射武器？</strong></p>","0",""
"","","","","","html-keyboard-response","50","182167","0.0-4.0-0.23","46","1","2022-11-27 11:01:47","49aca292d257f58668169b9fbab864ae","39.149.130.65","Mozilla/5.0 (Linux; Android 11; PEGM00 Build/RKQ1.200903.002; wv) AppleWebKit/537.36 (KHTML, like Gecko) Version/4.0 Chrome/83.0.4103.106 Mobile Safari/537.36","WebKit","Chrome","83.0.4103.106","AndroidOS","11","null","<div style=""font-size:60px;"">+</div>","null",""
"","","","","","html-button-response","51","183914","0.0-4.0-1.23","46","1","2022-11-27 11:01:47","49aca292d257f58668169b9fbab864ae","39.149.130.65","Mozilla/5.0 (Linux; Android 11; PEGM00 Build/RKQ1.200903.002; wv) AppleWebKit/537.36 (KHTML, like Gecko) Version/4.0 Chrome/83.0.4103.106 Mobile Safari/537.36","WebKit","Chrome","83.0.4103.106","AndroidOS","11","1714","<p>作为军队的指挥官，你可以选择发射导弹杀死 <strong>4名</strong> 敌国士兵，但会炸毁附近的 <strong>1棵</strong> 敌国树木。</p> <p>树木的照片如下图所示。</p> <p></p> <img src='stimuli/trees/6.png', style='max-width: 30%;'> </img> <p><strong>你是否选择发射武器？</strong></p>","0",""
"","","","","","html-keyboard-response","52","184927","0.0-4.0-0.24","46","1","2022-11-27 11:01:47","49aca292d257f58668169b9fbab864ae","39.149.130.65","Mozilla/5.0 (Linux; Android 11; PEGM00 Build/RKQ1.200903.002; wv) AppleWebKit/537.36 (KHTML, like Gecko) Version/4.0 Chrome/83.0.4103.106 Mobile Safari/537.36","WebKit","Chrome","83.0.4103.106","AndroidOS","11","null","<div style=""font-size:60px;"">+</div>","null",""
"","","","","","html-button-response","53","192584","0.0-4.0-1.24","46","1","2022-11-27 11:01:47","49aca292d257f58668169b9fbab864ae","39.149.130.65","Mozilla/5.0 (Linux; Android 11; PEGM00 Build/RKQ1.200903.002; wv) AppleWebKit/537.36 (KHTML, like Gecko) Version/4.0 Chrome/83.0.4103.106 Mobile Safari/537.36","WebKit","Chrome","83.0.4103.106","AndroidOS","11","7626","<p>作为军队的指挥官，你可以选择发射导弹杀死 <strong>1名</strong> 敌国士兵，但会误杀附近的 <strong>1名</strong> 敌国平民。</p> <p>平民照片如下图所示。</p> <p></p> <img src='stimuli/faces/PFM2.jpg', style='max-width: 30%;'> </img> <p><strong>你是否选择发射武器？</strong></p>","1",""
"","","","","","html-keyboard-response","54","193598","0.0-4.0-0.25","46","1","2022-11-27 11:01:47","49aca292d257f58668169b9fbab864ae","39.149.130.65","Mozilla/5.0 (Linux; Android 11; PEGM00 Build/RKQ1.200903.002; wv) AppleWebKit/537.36 (KHTML, like Gecko) Version/4.0 Chrome/83.0.4103.106 Mobile Safari/537.36","WebKit","Chrome","83.0.4103.106","AndroidOS","11","null","<div style=""font-size:60px;"">+</div>","null",""
"","","","","","html-button-response","55","196287","0.0-4.0-1.25","46","1","2022-11-27 11:01:47","49aca292d257f58668169b9fbab864ae","39.149.130.65","Mozilla/5.0 (Linux; Android 11; PEGM00 Build/RKQ1.200903.002; wv) AppleWebKit/537.36 (KHTML, like Gecko) Version/4.0 Chrome/83.0.4103.106 Mobile Safari/537.36","WebKit","Chrome","83.0.4103.106","AndroidOS","11","2653","<p>作为军队的指挥官，你可以选择发射导弹杀死 <strong>9名</strong> 敌国士兵，但会误杀附近的 <strong>1名</strong> 敌国平民。</p> <p>平民照片如下图所示。</p> <p></p> <img src='stimuli/faces/PFF8.jpg', style='max-width: 30%;'> </img> <p><strong>你是否选择发射武器？</strong></p>","0",""
"","","","","","html-keyboard-response","56","197301","0.0-4.0-0.26","46","1","2022-11-27 11:01:47","49aca292d257f58668169b9fbab864ae","39.149.130.65","Mozilla/5.0 (Linux; Android 11; PEGM00 Build/RKQ1.200903.002; wv) AppleWebKit/537.36 (KHTML, like Gecko) Version/4.0 Chrome/83.0.4103.106 Mobile Safari/537.36","WebKit","Chrome","83.0.4103.106","AndroidOS","11","null","<div style=""font-size:60px;"">+</div>","null",""
"","","","","","html-button-response","57","199623","0.0-4.0-1.26","46","1","2022-11-27 11:01:47","49aca292d257f58668169b9fbab864ae","39.149.130.65","Mozilla/5.0 (Linux; Android 11; PEGM00 Build/RKQ1.200903.002; wv) AppleWebKit/537.36 (KHTML, like Gecko) Version/4.0 Chrome/83.0.4103.106 Mobile Safari/537.36","WebKit","Chrome","83.0.4103.106","AndroidOS","11","2291","<p>作为军队的指挥官，你可以选择发射导弹杀死 <strong>7名</strong> 敌国士兵，但会误杀附近的 <strong>1名</strong> 敌国平民。</p> <p>平民照片如下图所示。</p> <p></p> <img src='stimuli/faces/PFM4.jpg', style='max-width: 30%;'> </img> <p><strong>你是否选择发射武器？</strong></p>","0",""
"","","","","","html-keyboard-response","58","200634","0.0-4.0-0.27","46","1","2022-11-27 11:01:47","49aca292d257f58668169b9fbab864ae","39.149.130.65","Mozilla/5.0 (Linux; Android 11; PEGM00 Build/RKQ1.200903.002; wv) AppleWebKit/537.36 (KHTML, like Gecko) Version/4.0 Chrome/83.0.4103.106 Mobile Safari/537.36","WebKit","Chrome","83.0.4103.106","AndroidOS","11","null","<div style=""font-size:60px;"">+</div>","null",""
"","","","","","html-button-response","59","202480","0.0-4.0-1.27","46","1","2022-11-27 11:01:47","49aca292d257f58668169b9fbab864ae","39.149.130.65","Mozilla/5.0 (Linux; Android 11; PEGM00 Build/RKQ1.200903.002; wv) AppleWebKit/537.36 (KHTML, like Gecko) Version/4.0 Chrome/83.0.4103.106 Mobile Safari/537.36","WebKit","Chrome","83.0.4103.106","AndroidOS","11","1832","<p>作为军队的指挥官，你可以选择发射导弹杀死 <strong>9名</strong> 敌国士兵，但会炸毁附近的 <strong>1棵</strong> 敌国树木。</p> <p>树木的照片如下图所示。</p> <p></p> <img src='stimuli/trees/13.png', style='max-width: 30%;'> </img> <p><strong>你是否选择发射武器？</strong></p>","0",""
"","","","","","html-keyboard-response","60","203495","0.0-4.0-0.28","46","1","2022-11-27 11:01:47","49aca292d257f58668169b9fbab864ae","39.149.130.65","Mozilla/5.0 (Linux; Android 11; PEGM00 Build/RKQ1.200903.002; wv) AppleWebKit/537.36 (KHTML, like Gecko) Version/4.0 Chrome/83.0.4103.106 Mobile Safari/537.36","WebKit","Chrome","83.0.4103.106","AndroidOS","11","null","<div style=""font-size:60px;"">+</div>","null",""
"","","","","","html-button-response","61","205783","0.0-4.0-1.28","46","1","2022-11-27 11:01:47","49aca292d257f58668169b9fbab864ae","39.149.130.65","Mozilla/5.0 (Linux; Android 11; PEGM00 Build/RKQ1.200903.002; wv) AppleWebKit/537.36 (KHTML, like Gecko) Version/4.0 Chrome/83.0.4103.106 Mobile Safari/537.36","WebKit","Chrome","83.0.4103.106","AndroidOS","11","2263","<p>作为军队的指挥官，你可以选择发射导弹杀死 <strong>5名</strong> 敌国士兵，但会误杀附近的 <strong>1名</strong> 敌国平民。</p> <p>平民照片如下图所示。</p> <p></p> <img src='stimuli/faces/PFM6.jpg', style='max-width: 30%;'> </img> <p><strong>你是否选择发射武器？</strong></p>","0",""
"","","","","","html-keyboard-response","62","206792","0.0-4.0-0.29","46","1","2022-11-27 11:01:47","49aca292d257f58668169b9fbab864ae","39.149.130.65","Mozilla/5.0 (Linux; Android 11; PEGM00 Build/RKQ1.200903.002; wv) AppleWebKit/537.36 (KHTML, like Gecko) Version/4.0 Chrome/83.0.4103.106 Mobile Safari/537.36","WebKit","Chrome","83.0.4103.106","AndroidOS","11","null","<div style=""font-size:60px;"">+</div>","null",""
"","","","","","html-button-response","63","208438","0.0-4.0-1.29","46","1","2022-11-27 11:01:47","49aca292d257f58668169b9fbab864ae","39.149.130.65","Mozilla/5.0 (Linux; Android 11; PEGM00 Build/RKQ1.200903.002; wv) AppleWebKit/537.36 (KHTML, like Gecko) Version/4.0 Chrome/83.0.4103.106 Mobile Safari/537.36","WebKit","Chrome","83.0.4103.106","AndroidOS","11","1633","<p>作为军队的指挥官，你可以选择发射导弹杀死 <strong>6名</strong> 敌国士兵，但会误杀附近的 <strong>1名</strong> 敌国平民。</p> <p>平民照片如下图所示。</p> <p></p> <img src='stimuli/faces/PFM7.jpg', style='max-width: 30%;'> </img> <p><strong>你是否选择发射武器？</strong></p>","0",""
"","","","","","html-keyboard-response","64","209450","0.0-4.0-0.30","46","1","2022-11-27 11:01:47","49aca292d257f58668169b9fbab864ae","39.149.130.65","Mozilla/5.0 (Linux; Android 11; PEGM00 Build/RKQ1.200903.002; wv) AppleWebKit/537.36 (KHTML, like Gecko) Version/4.0 Chrome/83.0.4103.106 Mobile Safari/537.36","WebKit","Chrome","83.0.4103.106","AndroidOS","11","null","<div style=""font-size:60px;"">+</div>","null",""
"","","","","","html-button-response","65","211445","0.0-4.0-1.30","46","1","2022-11-27 11:01:47","49aca292d257f58668169b9fbab864ae","39.149.130.65","Mozilla/5.0 (Linux; Android 11; PEGM00 Build/RKQ1.200903.002; wv) AppleWebKit/537.36 (KHTML, like Gecko) Version/4.0 Chrome/83.0.4103.106 Mobile Safari/537.36","WebKit","Chrome","83.0.4103.106","AndroidOS","11","1966","<p>作为军队的指挥官，你可以选择发射导弹杀死 <strong>3名</strong> 敌国士兵，但会误杀附近的 <strong>1名</strong> 敌国平民。</p> <p>平民照片如下图所示。</p> <p></p> <img src='stimuli/faces/PFM3.jpg', style='max-width: 30%;'> </img> <p><strong>你是否选择发射武器？</strong></p>","1",""
"","","","","","html-keyboard-response","66","212457","0.0-4.0-0.31","46","1","2022-11-27 11:01:47","49aca292d257f58668169b9fbab864ae","39.149.130.65","Mozilla/5.0 (Linux; Android 11; PEGM00 Build/RKQ1.200903.002; wv) AppleWebKit/537.36 (KHTML, like Gecko) Version/4.0 Chrome/83.0.4103.106 Mobile Safari/537.36","WebKit","Chrome","83.0.4103.106","AndroidOS","11","null","<div style=""font-size:60px;"">+</div>","null",""
"","","","","","html-button-response","67","213966","0.0-4.0-1.31","46","1","2022-11-27 11:01:47","49aca292d257f58668169b9fbab864ae","39.149.130.65","Mozilla/5.0 (Linux; Android 11; PEGM00 Build/RKQ1.200903.002; wv) AppleWebKit/537.36 (KHTML, like Gecko) Version/4.0 Chrome/83.0.4103.106 Mobile Safari/537.36","WebKit","Chrome","83.0.4103.106","AndroidOS","11","1486","<p>作为军队的指挥官，你可以选择发射导弹杀死 <strong>6名</strong> 敌国士兵，但会炸毁附近的 <strong>1棵</strong> 敌国树木。</p> <p>树木的照片如下图所示。</p> <p></p> <img src='stimuli/trees/6.png', style='max-width: 30%;'> </img> <p><strong>你是否选择发射武器？</strong></p>","0",""
"","","","","","html-keyboard-response","68","214984","0.0-4.0-0.32","46","1","2022-11-27 11:01:47","49aca292d257f58668169b9fbab864ae","39.149.130.65","Mozilla/5.0 (Linux; Android 11; PEGM00 Build/RKQ1.200903.002; wv) AppleWebKit/537.36 (KHTML, like Gecko) Version/4.0 Chrome/83.0.4103.106 Mobile Safari/537.36","WebKit","Chrome","83.0.4103.106","AndroidOS","11","null","<div style=""font-size:60px;"">+</div>","null",""
"","","","","","html-button-response","69","216578","0.0-4.0-1.32","46","1","2022-11-27 11:01:47","49aca292d257f58668169b9fbab864ae","39.149.130.65","Mozilla/5.0 (Linux; Android 11; PEGM00 Build/RKQ1.200903.002; wv) AppleWebKit/537.36 (KHTML, like Gecko) Version/4.0 Chrome/83.0.4103.106 Mobile Safari/537.36","WebKit","Chrome","83.0.4103.106","AndroidOS","11","1562","<p>作为军队的指挥官，你可以选择发射导弹杀死 <strong>9名</strong> 敌国士兵，但会误杀附近的 <strong>1名</strong> 敌国平民。</p> <p>平民照片如下图所示。</p> <p></p> <img src='stimuli/faces/PFM1.jpg', style='max-width: 30%;'> </img> <p><strong>你是否选择发射武器？</strong></p>","0",""
"","","","","","html-keyboard-response","70","217591","0.0-4.0-0.33","46","1","2022-11-27 11:01:47","49aca292d257f58668169b9fbab864ae","39.149.130.65","Mozilla/5.0 (Linux; Android 11; PEGM00 Build/RKQ1.200903.002; wv) AppleWebKit/537.36 (KHTML, like Gecko) Version/4.0 Chrome/83.0.4103.106 Mobile Safari/537.36","WebKit","Chrome","83.0.4103.106","AndroidOS","11","null","<div style=""font-size:60px;"">+</div>","null",""
"","","","","","html-button-response","71","219709","0.0-4.0-1.33","46","1","2022-11-27 11:01:47","49aca292d257f58668169b9fbab864ae","39.149.130.65","Mozilla/5.0 (Linux; Android 11; PEGM00 Build/RKQ1.200903.002; wv) AppleWebKit/537.36 (KHTML, like Gecko) Version/4.0 Chrome/83.0.4103.106 Mobile Safari/537.36","WebKit","Chrome","83.0.4103.106","AndroidOS","11","2089","<p>作为军队的指挥官，你可以选择发射导弹杀死 <strong>5名</strong> 敌国士兵，但会炸毁附近的 <strong>1棵</strong> 敌国树木。</p> <p>树木的照片如下图所示。</p> <p></p> <img src='stimuli/trees/12.png', style='max-width: 30%;'> </img> <p><strong>你是否选择发射武器？</strong></p>","0",""
"","","","","","html-keyboard-response","72","220723","0.0-4.0-0.34","46","1","2022-11-27 11:01:47","49aca292d257f58668169b9fbab864ae","39.149.130.65","Mozilla/5.0 (Linux; Android 11; PEGM00 Build/RKQ1.200903.002; wv) AppleWebKit/537.36 (KHTML, like Gecko) Version/4.0 Chrome/83.0.4103.106 Mobile Safari/537.36","WebKit","Chrome","83.0.4103.106","AndroidOS","11","null","<div style=""font-size:60px;"">+</div>","null",""
"","","","","","html-button-response","73","222149","0.0-4.0-1.34","46","1","2022-11-27 11:01:47","49aca292d257f58668169b9fbab864ae","39.149.130.65","Mozilla/5.0 (Linux; Android 11; PEGM00 Build/RKQ1.200903.002; wv) AppleWebKit/537.36 (KHTML, like Gecko) Version/4.0 Chrome/83.0.4103.106 Mobile Safari/537.36","WebKit","Chrome","83.0.4103.106","AndroidOS","11","1413","<p>作为军队的指挥官，你可以选择发射导弹杀死 <strong>9名</strong> 敌国士兵，但会炸毁附近的 <strong>1棵</strong> 敌国树木。</p> <p>树木的照片如下图所示。</p> <p></p> <img src='stimuli/trees/10.png', style='max-width: 30%;'> </img> <p><strong>你是否选择发射武器？</strong></p>","0",""
"","","","","","html-keyboard-response","74","223162","0.0-4.0-0.35","46","1","2022-11-27 11:01:47","49aca292d257f58668169b9fbab864ae","39.149.130.65","Mozilla/5.0 (Linux; Android 11; PEGM00 Build/RKQ1.200903.002; wv) AppleWebKit/537.36 (KHTML, like Gecko) Version/4.0 Chrome/83.0.4103.106 Mobile Safari/537.36","WebKit","Chrome","83.0.4103.106","AndroidOS","11","null","<div style=""font-size:60px;"">+</div>","null",""
"","","","","","html-button-response","75","224776","0.0-4.0-1.35","46","1","2022-11-27 11:01:47","49aca292d257f58668169b9fbab864ae","39.149.130.65","Mozilla/5.0 (Linux; Android 11; PEGM00 Build/RKQ1.200903.002; wv) AppleWebKit/537.36 (KHTML, like Gecko) Version/4.0 Chrome/83.0.4103.106 Mobile Safari/537.36","WebKit","Chrome","83.0.4103.106","AndroidOS","11","1598","<p>作为军队的指挥官，你可以选择发射导弹杀死 <strong>8名</strong> 敌国士兵，但会炸毁附近的 <strong>1棵</strong> 敌国树木。</p> <p>树木的照片如下图所示。</p> <p></p> <img src='stimuli/trees/9.png', style='max-width: 30%;'> </img> <p><strong>你是否选择发射武器？</strong></p>","0",""
"","","","","","html-keyboard-response","76","225790","0.0-4.0-0.36","46","1","2022-11-27 11:01:47","49aca292d257f58668169b9fbab864ae","39.149.130.65","Mozilla/5.0 (Linux; Android 11; PEGM00 Build/RKQ1.200903.002; wv) AppleWebKit/537.36 (KHTML, like Gecko) Version/4.0 Chrome/83.0.4103.106 Mobile Safari/537.36","WebKit","Chrome","83.0.4103.106","AndroidOS","11","null","<div style=""font-size:60px;"">+</div>","null",""
"","","","","","html-button-response","77","227902","0.0-4.0-1.36","46","1","2022-11-27 11:01:47","49aca292d257f58668169b9fbab864ae","39.149.130.65","Mozilla/5.0 (Linux; Android 11; PEGM00 Build/RKQ1.200903.002; wv) AppleWebKit/537.36 (KHTML, like Gecko) Version/4.0 Chrome/83.0.4103.106 Mobile Safari/537.36","WebKit","Chrome","83.0.4103.106","AndroidOS","11","2079","<p>作为军队的指挥官，你可以选择发射导弹杀死 <strong>4名</strong> 敌国士兵，但会误杀附近的 <strong>1名</strong> 敌国平民。</p> <p>平民照片如下图所示。</p> <p></p> <img src='stimuli/faces/PFF3.jpg', style='max-width: 30%;'> </img> <p><strong>你是否选择发射武器？</strong></p>","1",""
"","","","","","html-keyboard-response","78","228918","0.0-4.0-0.37","46","1","2022-11-27 11:01:47","49aca292d257f58668169b9fbab864ae","39.149.130.65","Mozilla/5.0 (Linux; Android 11; PEGM00 Build/RKQ1.200903.002; wv) AppleWebKit/537.36 (KHTML, like Gecko) Version/4.0 Chrome/83.0.4103.106 Mobile Safari/537.36","WebKit","Chrome","83.0.4103.106","AndroidOS","11","null","<div style=""font-size:60px;"">+</div>","null",""
"","","","","","html-button-response","79","233480","0.0-4.0-1.37","46","1","2022-11-27 11:01:47","49aca292d257f58668169b9fbab864ae","39.149.130.65","Mozilla/5.0 (Linux; Android 11; PEGM00 Build/RKQ1.200903.002; wv) AppleWebKit/537.36 (KHTML, like Gecko) Version/4.0 Chrome/83.0.4103.106 Mobile Safari/537.36","WebKit","Chrome","83.0.4103.106","AndroidOS","11","4529","<p>作为军队的指挥官，你可以选择发射导弹杀死 <strong>1名</strong> 敌国士兵，但会炸毁附近的 <strong>1棵</strong> 敌国树木。</p> <p>树木的照片如下图所示。</p> <p></p> <img src='stimuli/trees/1.png', style='max-width: 30%;'> </img> <p><strong>你是否选择发射武器？</strong></p>","1",""
"","","","","","html-keyboard-response","80","234492","0.0-4.0-0.38","46","1","2022-11-27 11:01:47","49aca292d257f58668169b9fbab864ae","39.149.130.65","Mozilla/5.0 (Linux; Android 11; PEGM00 Build/RKQ1.200903.002; wv) AppleWebKit/537.36 (KHTML, like Gecko) Version/4.0 Chrome/83.0.4103.106 Mobile Safari/537.36","WebKit","Chrome","83.0.4103.106","AndroidOS","11","null","<div style=""font-size:60px;"">+</div>","null",""
"","","","","","html-button-response","81","239505","0.0-4.0-1.38","46","1","2022-11-27 11:01:47","49aca292d257f58668169b9fbab864ae","39.149.130.65","Mozilla/5.0 (Linux; Android 11; PEGM00 Build/RKQ1.200903.002; wv) AppleWebKit/537.36 (KHTML, like Gecko) Version/4.0 Chrome/83.0.4103.106 Mobile Safari/537.36","WebKit","Chrome","83.0.4103.106","AndroidOS","11","4978","<p>作为军队的指挥官，你可以选择发射导弹杀死 <strong>10名</strong> 敌国士兵，但会炸毁附近的 <strong>1棵</strong> 敌国树木。</p> <p>树木的照片如下图所示。</p> <p></p> <img src='stimuli/trees/16.png', style='max-width: 30%;'> </img> <p><strong>你是否选择发射武器？</strong></p>","0",""
"","","","","","html-keyboard-response","82","240524","0.0-4.0-0.39","46","1","2022-11-27 11:01:47","49aca292d257f58668169b9fbab864ae","39.149.130.65","Mozilla/5.0 (Linux; Android 11; PEGM00 Build/RKQ1.200903.002; wv) AppleWebKit/537.36 (KHTML, like Gecko) Version/4.0 Chrome/83.0.4103.106 Mobile Safari/537.36","WebKit","Chrome","83.0.4103.106","AndroidOS","11","null","<div style=""font-size:60px;"">+</div>","null",""
"","","","","","html-button-response","83","242265","0.0-4.0-1.39","46","1","2022-11-27 11:01:47","49aca292d257f58668169b9fbab864ae","39.149.130.65","Mozilla/5.0 (Linux; Android 11; PEGM00 Build/RKQ1.200903.002; wv) AppleWebKit/537.36 (KHTML, like Gecko) Version/4.0 Chrome/83.0.4103.106 Mobile Safari/537.36","WebKit","Chrome","83.0.4103.106","AndroidOS","11","1708","<p>作为军队的指挥官，你可以选择发射导弹杀死 <strong>6名</strong> 敌国士兵，但会误杀附近的 <strong>1名</strong> 敌国平民。</p> <p>平民照片如下图所示。</p> <p></p> <img src='stimuli/faces/PFF1.jpg', style='max-width: 30%;'> </img> <p><strong>你是否选择发射武器？</strong></p>","0",""
"","","","","","html-keyboard-response","84","243279","0.0-4.0-0.40","46","1","2022-11-27 11:01:47","49aca292d257f58668169b9fbab864ae","39.149.130.65","Mozilla/5.0 (Linux; Android 11; PEGM00 Build/RKQ1.200903.002; wv) AppleWebKit/537.36 (KHTML, like Gecko) Version/4.0 Chrome/83.0.4103.106 Mobile Safari/537.36","WebKit","Chrome","83.0.4103.106","AndroidOS","11","null","<div style=""font-size:60px;"">+</div>","null",""
"","","","","","html-button-response","85","244690","0.0-4.0-1.40","46","1","2022-11-27 11:01:47","49aca292d257f58668169b9fbab864ae","39.149.130.65","Mozilla/5.0 (Linux; Android 11; PEGM00 Build/RKQ1.200903.002; wv) AppleWebKit/537.36 (KHTML, like Gecko) Version/4.0 Chrome/83.0.4103.106 Mobile Safari/537.36","WebKit","Chrome","83.0.4103.106","AndroidOS","11","1378","<p>作为军队的指挥官，你可以选择发射导弹杀死 <strong>10名</strong> 敌国士兵，但会炸毁附近的 <strong>1棵</strong> 敌国树木。</p> <p>树木的照片如下图所示。</p> <p></p> <img src='stimuli/trees/15.png', style='max-width: 30%;'> </img> <p><strong>你是否选择发射武器？</strong></p>","0",""
"","","","","","html-keyboard-response","86","245711","0.0-4.0-0.41","46","1","2022-11-27 11:01:47","49aca292d257f58668169b9fbab864ae","39.149.130.65","Mozilla/5.0 (Linux; Android 11; PEGM00 Build/RKQ1.200903.002; wv) AppleWebKit/537.36 (KHTML, like Gecko) Version/4.0 Chrome/83.0.4103.106 Mobile Safari/537.36","WebKit","Chrome","83.0.4103.106","AndroidOS","11","null","<div style=""font-size:60px;"">+</div>","null",""
"","","","","","html-button-response","87","246986","0.0-4.0-1.41","46","1","2022-11-27 11:01:47","49aca292d257f58668169b9fbab864ae","39.149.130.65","Mozilla/5.0 (Linux; Android 11; PEGM00 Build/RKQ1.200903.002; wv) AppleWebKit/537.36 (KHTML, like Gecko) Version/4.0 Chrome/83.0.4103.106 Mobile Safari/537.36","WebKit","Chrome","83.0.4103.106","AndroidOS","11","1246","<p>作为军队的指挥官，你可以选择发射导弹杀死 <strong>10名</strong> 敌国士兵，但会炸毁附近的 <strong>1棵</strong> 敌国树木。</p> <p>树木的照片如下图所示。</p> <p></p> <img src='stimuli/trees/14.png', style='max-width: 30%;'> </img> <p><strong>你是否选择发射武器？</strong></p>","0",""
"","","","","","html-keyboard-response","88","248001","0.0-4.0-0.42","46","1","2022-11-27 11:01:47","49aca292d257f58668169b9fbab864ae","39.149.130.65","Mozilla/5.0 (Linux; Android 11; PEGM00 Build/RKQ1.200903.002; wv) AppleWebKit/537.36 (KHTML, like Gecko) Version/4.0 Chrome/83.0.4103.106 Mobile Safari/537.36","WebKit","Chrome","83.0.4103.106","AndroidOS","11","null","<div style=""font-size:60px;"">+</div>","null",""
"","","","","","html-button-response","89","250174","0.0-4.0-1.42","46","1","2022-11-27 11:01:47","49aca292d257f58668169b9fbab864ae","39.149.130.65","Mozilla/5.0 (Linux; Android 11; PEGM00 Build/RKQ1.200903.002; wv) AppleWebKit/537.36 (KHTML, like Gecko) Version/4.0 Chrome/83.0.4103.106 Mobile Safari/537.36","WebKit","Chrome","83.0.4103.106","AndroidOS","11","2143","<p>作为军队的指挥官，你可以选择发射导弹杀死 <strong>4名</strong> 敌国士兵，但会误杀附近的 <strong>1名</strong> 敌国平民。</p> <p>平民照片如下图所示。</p> <p></p> <img src='stimuli/faces/PFM7.jpg', style='max-width: 30%;'> </img> <p><strong>你是否选择发射武器？</strong></p>","0",""
"","","","","","html-keyboard-response","90","251187","0.0-4.0-0.43","46","1","2022-11-27 11:01:47","49aca292d257f58668169b9fbab864ae","39.149.130.65","Mozilla/5.0 (Linux; Android 11; PEGM00 Build/RKQ1.200903.002; wv) AppleWebKit/537.36 (KHTML, like Gecko) Version/4.0 Chrome/83.0.4103.106 Mobile Safari/537.36","WebKit","Chrome","83.0.4103.106","AndroidOS","11","null","<div style=""font-size:60px;"">+</div>","null",""
"","","","","","html-button-response","91","252622","0.0-4.0-1.43","46","1","2022-11-27 11:01:47","49aca292d257f58668169b9fbab864ae","39.149.130.65","Mozilla/5.0 (Linux; Android 11; PEGM00 Build/RKQ1.200903.002; wv) AppleWebKit/537.36 (KHTML, like Gecko) Version/4.0 Chrome/83.0.4103.106 Mobile Safari/537.36","WebKit","Chrome","83.0.4103.106","AndroidOS","11","1398","<p>作为军队的指挥官，你可以选择发射导弹杀死 <strong>1名</strong> 敌国士兵，但会误杀附近的 <strong>1名</strong> 敌国平民。</p> <p>平民照片如下图所示。</p> <p></p> <img src='stimuli/faces/PFF1.jpg', style='max-width: 30%;'> </img> <p><strong>你是否选择发射武器？</strong></p>","1",""
"","","","","","html-keyboard-response","92","253640","0.0-4.0-0.44","46","1","2022-11-27 11:01:47","49aca292d257f58668169b9fbab864ae","39.149.130.65","Mozilla/5.0 (Linux; Android 11; PEGM00 Build/RKQ1.200903.002; wv) AppleWebKit/537.36 (KHTML, like Gecko) Version/4.0 Chrome/83.0.4103.106 Mobile Safari/537.36","WebKit","Chrome","83.0.4103.106","AndroidOS","11","null","<div style=""font-size:60px;"">+</div>","null",""
"","","","","","html-button-response","93","255905","0.0-4.0-1.44","46","1","2022-11-27 11:01:47","49aca292d257f58668169b9fbab864ae","39.149.130.65","Mozilla/5.0 (Linux; Android 11; PEGM00 Build/RKQ1.200903.002; wv) AppleWebKit/537.36 (KHTML, like Gecko) Version/4.0 Chrome/83.0.4103.106 Mobile Safari/537.36","WebKit","Chrome","83.0.4103.106","AndroidOS","11","2232","<p>作为军队的指挥官，你可以选择发射导弹杀死 <strong>3名</strong> 敌国士兵，但会误杀附近的 <strong>1名</strong> 敌国平民。</p> <p>平民照片如下图所示。</p> <p></p> <img src='stimuli/faces/PFM5.jpg', style='max-width: 30%;'> </img> <p><strong>你是否选择发射武器？</strong></p>","1",""
"","","","","","html-keyboard-response","94","256920","0.0-4.0-0.45","46","1","2022-11-27 11:01:47","49aca292d257f58668169b9fbab864ae","39.149.130.65","Mozilla/5.0 (Linux; Android 11; PEGM00 Build/RKQ1.200903.002; wv) AppleWebKit/537.36 (KHTML, like Gecko) Version/4.0 Chrome/83.0.4103.106 Mobile Safari/537.36","WebKit","Chrome","83.0.4103.106","AndroidOS","11","null","<div style=""font-size:60px;"">+</div>","null",""
"","","","","","html-button-response","95","258971","0.0-4.0-1.45","46","1","2022-11-27 11:01:47","49aca292d257f58668169b9fbab864ae","39.149.130.65","Mozilla/5.0 (Linux; Android 11; PEGM00 Build/RKQ1.200903.002; wv) AppleWebKit/537.36 (KHTML, like Gecko) Version/4.0 Chrome/83.0.4103.106 Mobile Safari/537.36","WebKit","Chrome","83.0.4103.106","AndroidOS","11","2020","<p>作为军队的指挥官，你可以选择发射导弹杀死 <strong>3名</strong> 敌国士兵，但会误杀附近的 <strong>1名</strong> 敌国平民。</p> <p>平民照片如下图所示。</p> <p></p> <img src='stimuli/faces/PFM8.jpg', style='max-width: 30%;'> </img> <p><strong>你是否选择发射武器？</strong></p>","1",""
"","","","","","html-keyboard-response","96","259985","0.0-4.0-0.46","46","1","2022-11-27 11:01:47","49aca292d257f58668169b9fbab864ae","39.149.130.65","Mozilla/5.0 (Linux; Android 11; PEGM00 Build/RKQ1.200903.002; wv) AppleWebKit/537.36 (KHTML, like Gecko) Version/4.0 Chrome/83.0.4103.106 Mobile Safari/537.36","WebKit","Chrome","83.0.4103.106","AndroidOS","11","null","<div style=""font-size:60px;"">+</div>","null",""
"","","","","","html-button-response","97","261583","0.0-4.0-1.46","46","1","2022-11-27 11:01:47","49aca292d257f58668169b9fbab864ae","39.149.130.65","Mozilla/5.0 (Linux; Android 11; PEGM00 Build/RKQ1.200903.002; wv) AppleWebKit/537.36 (KHTML, like Gecko) Version/4.0 Chrome/83.0.4103.106 Mobile Safari/537.36","WebKit","Chrome","83.0.4103.106","AndroidOS","11","1582","<p>作为军队的指挥官，你可以选择发射导弹杀死 <strong>4名</strong> 敌国士兵，但会炸毁附近的 <strong>1棵</strong> 敌国树木。</p> <p>树木的照片如下图所示。</p> <p></p> <img src='stimuli/trees/13.png', style='max-width: 30%;'> </img> <p><strong>你是否选择发射武器？</strong></p>","0",""
"","","","","","html-keyboard-response","98","262601","0.0-4.0-0.47","46","1","2022-11-27 11:01:47","49aca292d257f58668169b9fbab864ae","39.149.130.65","Mozilla/5.0 (Linux; Android 11; PEGM00 Build/RKQ1.200903.002; wv) AppleWebKit/537.36 (KHTML, like Gecko) Version/4.0 Chrome/83.0.4103.106 Mobile Safari/537.36","WebKit","Chrome","83.0.4103.106","AndroidOS","11","null","<div style=""font-size:60px;"">+</div>","null",""
"","","","","","html-button-response","99","263932","0.0-4.0-1.47","46","1","2022-11-27 11:01:47","49aca292d257f58668169b9fbab864ae","39.149.130.65","Mozilla/5.0 (Linux; Android 11; PEGM00 Build/RKQ1.200903.002; wv) AppleWebKit/537.36 (KHTML, like Gecko) Version/4.0 Chrome/83.0.4103.106 Mobile Safari/537.36","WebKit","Chrome","83.0.4103.106","AndroidOS","11","1311","<p>作为军队的指挥官，你可以选择发射导弹杀死 <strong>6名</strong> 敌国士兵，但会误杀附近的 <strong>1名</strong> 敌国平民。</p> <p>平民照片如下图所示。</p> <p></p> <img src='stimuli/faces/PFF2.jpg', style='max-width: 30%;'> </img> <p><strong>你是否选择发射武器？</strong></p>","0",""
"","","","","","html-keyboard-response","100","264947","0.0-4.0-0.48","46","1","2022-11-27 11:01:47","49aca292d257f58668169b9fbab864ae","39.149.130.65","Mozilla/5.0 (Linux; Android 11; PEGM00 Build/RKQ1.200903.002; wv) AppleWebKit/537.36 (KHTML, like Gecko) Version/4.0 Chrome/83.0.4103.106 Mobile Safari/537.36","WebKit","Chrome","83.0.4103.106","AndroidOS","11","null","<div style=""font-size:60px;"">+</div>","null",""
"","","","","","html-button-response","101","266370","0.0-4.0-1.48","46","1","2022-11-27 11:01:47","49aca292d257f58668169b9fbab864ae","39.149.130.65","Mozilla/5.0 (Linux; Android 11; PEGM00 Build/RKQ1.200903.002; wv) AppleWebKit/537.36 (KHTML, like Gecko) Version/4.0 Chrome/83.0.4103.106 Mobile Safari/537.36","WebKit","Chrome","83.0.4103.106","AndroidOS","11","1394","<p>作为军队的指挥官，你可以选择发射导弹杀死 <strong>2名</strong> 敌国士兵，但会误杀附近的 <strong>1名</strong> 敌国平民。</p> <p>平民照片如下图所示。</p> <p></p> <img src='stimuli/faces/PFF8.jpg', style='max-width: 30%;'> </img> <p><strong>你是否选择发射武器？</strong></p>","1",""
"","","","","","html-keyboard-response","102","267387","0.0-4.0-0.49","46","1","2022-11-27 11:01:47","49aca292d257f58668169b9fbab864ae","39.149.130.65","Mozilla/5.0 (Linux; Android 11; PEGM00 Build/RKQ1.200903.002; wv) AppleWebKit/537.36 (KHTML, like Gecko) Version/4.0 Chrome/83.0.4103.106 Mobile Safari/537.36","WebKit","Chrome","83.0.4103.106","AndroidOS","11","null","<div style=""font-size:60px;"">+</div>","null",""
"","","","","","html-button-response","103","271983","0.0-4.0-1.49","46","1","2022-11-27 11:01:47","49aca292d257f58668169b9fbab864ae","39.149.130.65","Mozilla/5.0 (Linux; Android 11; PEGM00 Build/RKQ1.200903.002; wv) AppleWebKit/537.36 (KHTML, like Gecko) Version/4.0 Chrome/83.0.4103.106 Mobile Safari/537.36","WebKit","Chrome","83.0.4103.106","AndroidOS","11","4569","<p>作为军队的指挥官，你可以选择发射导弹杀死 <strong>2名</strong> 敌国士兵，但会炸毁附近的 <strong>1棵</strong> 敌国树木。</p> <p>树木的照片如下图所示。</p> <p></p> <img src='stimuli/trees/14.png', style='max-width: 30%;'> </img> <p><strong>你是否选择发射武器？</strong></p>","0",""
"","","","","","html-keyboard-response","104","272997","0.0-4.0-0.50","46","1","2022-11-27 11:01:47","49aca292d257f58668169b9fbab864ae","39.149.130.65","Mozilla/5.0 (Linux; Android 11; PEGM00 Build/RKQ1.200903.002; wv) AppleWebKit/537.36 (KHTML, like Gecko) Version/4.0 Chrome/83.0.4103.106 Mobile Safari/537.36","WebKit","Chrome","83.0.4103.106","AndroidOS","11","null","<div style=""font-size:60px;"">+</div>","null",""
"","","","","","html-button-response","105","274724","0.0-4.0-1.50","46","1","2022-11-27 11:01:47","49aca292d257f58668169b9fbab864ae","39.149.130.65","Mozilla/5.0 (Linux; Android 11; PEGM00 Build/RKQ1.200903.002; wv) AppleWebKit/537.36 (KHTML, like Gecko) Version/4.0 Chrome/83.0.4103.106 Mobile Safari/537.36","WebKit","Chrome","83.0.4103.106","AndroidOS","11","1704","<p>作为军队的指挥官，你可以选择发射导弹杀死 <strong>1名</strong> 敌国士兵，但会误杀附近的 <strong>1名</strong> 敌国平民。</p> <p>平民照片如下图所示。</p> <p></p> <img src='stimuli/faces/PFF6.jpg', style='max-width: 30%;'> </img> <p><strong>你是否选择发射武器？</strong></p>","1",""
"","","","","","html-keyboard-response","106","275741","0.0-4.0-0.51","46","1","2022-11-27 11:01:47","49aca292d257f58668169b9fbab864ae","39.149.130.65","Mozilla/5.0 (Linux; Android 11; PEGM00 Build/RKQ1.200903.002; wv) AppleWebKit/537.36 (KHTML, like Gecko) Version/4.0 Chrome/83.0.4103.106 Mobile Safari/537.36","WebKit","Chrome","83.0.4103.106","AndroidOS","11","null","<div style=""font-size:60px;"">+</div>","null",""
"","","","","","html-button-response","107","277363","0.0-4.0-1.51","46","1","2022-11-27 11:01:47","49aca292d257f58668169b9fbab864ae","39.149.130.65","Mozilla/5.0 (Linux; Android 11; PEGM00 Build/RKQ1.200903.002; wv) AppleWebKit/537.36 (KHTML, like Gecko) Version/4.0 Chrome/83.0.4103.106 Mobile Safari/537.36","WebKit","Chrome","83.0.4103.106","AndroidOS","11","1606","<p>作为军队的指挥官，你可以选择发射导弹杀死 <strong>6名</strong> 敌国士兵，但会炸毁附近的 <strong>1棵</strong> 敌国树木。</p> <p>树木的照片如下图所示。</p> <p></p> <img src='stimuli/trees/11.png', style='max-width: 30%;'> </img> <p><strong>你是否选择发射武器？</strong></p>","0",""
"","","","","","html-keyboard-response","108","278383","0.0-4.0-0.52","46","1","2022-11-27 11:01:47","49aca292d257f58668169b9fbab864ae","39.149.130.65","Mozilla/5.0 (Linux; Android 11; PEGM00 Build/RKQ1.200903.002; wv) AppleWebKit/537.36 (KHTML, like Gecko) Version/4.0 Chrome/83.0.4103.106 Mobile Safari/537.36","WebKit","Chrome","83.0.4103.106","AndroidOS","11","null","<div style=""font-size:60px;"">+</div>","null",""
"","","","","","html-button-response","109","279869","0.0-4.0-1.52","46","1","2022-11-27 11:01:47","49aca292d257f58668169b9fbab864ae","39.149.130.65","Mozilla/5.0 (Linux; Android 11; PEGM00 Build/RKQ1.200903.002; wv) AppleWebKit/537.36 (KHTML, like Gecko) Version/4.0 Chrome/83.0.4103.106 Mobile Safari/537.36","WebKit","Chrome","83.0.4103.106","AndroidOS","11","1450","<p>作为军队的指挥官，你可以选择发射导弹杀死 <strong>2名</strong> 敌国士兵，但会炸毁附近的 <strong>1棵</strong> 敌国树木。</p> <p>树木的照片如下图所示。</p> <p></p> <img src='stimuli/trees/11.png', style='max-width: 30%;'> </img> <p><strong>你是否选择发射武器？</strong></p>","1",""
"","","","","","html-keyboard-response","110","280887","0.0-4.0-0.53","46","1","2022-11-27 11:01:47","49aca292d257f58668169b9fbab864ae","39.149.130.65","Mozilla/5.0 (Linux; Android 11; PEGM00 Build/RKQ1.200903.002; wv) AppleWebKit/537.36 (KHTML, like Gecko) Version/4.0 Chrome/83.0.4103.106 Mobile Safari/537.36","WebKit","Chrome","83.0.4103.106","AndroidOS","11","null","<div style=""font-size:60px;"">+</div>","null",""
"","","","","","html-button-response","111","282148","0.0-4.0-1.53","46","1","2022-11-27 11:01:47","49aca292d257f58668169b9fbab864ae","39.149.130.65","Mozilla/5.0 (Linux; Android 11; PEGM00 Build/RKQ1.200903.002; wv) AppleWebKit/537.36 (KHTML, like Gecko) Version/4.0 Chrome/83.0.4103.106 Mobile Safari/537.36","WebKit","Chrome","83.0.4103.106","AndroidOS","11","1215","<p>作为军队的指挥官，你可以选择发射导弹杀死 <strong>8名</strong> 敌国士兵，但会炸毁附近的 <strong>1棵</strong> 敌国树木。</p> <p>树木的照片如下图所示。</p> <p></p> <img src='stimuli/trees/2.png', style='max-width: 30%;'> </img> <p><strong>你是否选择发射武器？</strong></p>","0",""
"","","","","","html-keyboard-response","112","283166","0.0-4.0-0.54","46","1","2022-11-27 11:01:47","49aca292d257f58668169b9fbab864ae","39.149.130.65","Mozilla/5.0 (Linux; Android 11; PEGM00 Build/RKQ1.200903.002; wv) AppleWebKit/537.36 (KHTML, like Gecko) Version/4.0 Chrome/83.0.4103.106 Mobile Safari/537.36","WebKit","Chrome","83.0.4103.106","AndroidOS","11","null","<div style=""font-size:60px;"">+</div>","null",""
"","","","","","html-button-response","113","285118","0.0-4.0-1.54","46","1","2022-11-27 11:01:47","49aca292d257f58668169b9fbab864ae","39.149.130.65","Mozilla/5.0 (Linux; Android 11; PEGM00 Build/RKQ1.200903.002; wv) AppleWebKit/537.36 (KHTML, like Gecko) Version/4.0 Chrome/83.0.4103.106 Mobile Safari/537.36","WebKit","Chrome","83.0.4103.106","AndroidOS","11","1908","<p>作为军队的指挥官，你可以选择发射导弹杀死 <strong>1名</strong> 敌国士兵，但会炸毁附近的 <strong>1棵</strong> 敌国树木。</p> <p>树木的照片如下图所示。</p> <p></p> <img src='stimuli/trees/9.png', style='max-width: 30%;'> </img> <p><strong>你是否选择发射武器？</strong></p>","0",""
"","","","","","html-keyboard-response","114","286135","0.0-4.0-0.55","46","1","2022-11-27 11:01:47","49aca292d257f58668169b9fbab864ae","39.149.130.65","Mozilla/5.0 (Linux; Android 11; PEGM00 Build/RKQ1.200903.002; wv) AppleWebKit/537.36 (KHTML, like Gecko) Version/4.0 Chrome/83.0.4103.106 Mobile Safari/537.36","WebKit","Chrome","83.0.4103.106","AndroidOS","11","null","<div style=""font-size:60px;"">+</div>","null",""
"","","","","","html-button-response","115","287676","0.0-4.0-1.55","46","1","2022-11-27 11:01:47","49aca292d257f58668169b9fbab864ae","39.149.130.65","Mozilla/5.0 (Linux; Android 11; PEGM00 Build/RKQ1.200903.002; wv) AppleWebKit/537.36 (KHTML, like Gecko) Version/4.0 Chrome/83.0.4103.106 Mobile Safari/537.36","WebKit","Chrome","83.0.4103.106","AndroidOS","11","1518","<p>作为军队的指挥官，你可以选择发射导弹杀死 <strong>1名</strong> 敌国士兵，但会误杀附近的 <strong>1名</strong> 敌国平民。</p> <p>平民照片如下图所示。</p> <p></p> <img src='stimuli/faces/PFF2.jpg', style='max-width: 30%;'> </img> <p><strong>你是否选择发射武器？</strong></p>","1",""
"","","","","","html-keyboard-response","116","288690","0.0-4.0-0.56","46","1","2022-11-27 11:01:47","49aca292d257f58668169b9fbab864ae","39.149.130.65","Mozilla/5.0 (Linux; Android 11; PEGM00 Build/RKQ1.200903.002; wv) AppleWebKit/537.36 (KHTML, like Gecko) Version/4.0 Chrome/83.0.4103.106 Mobile Safari/537.36","WebKit","Chrome","83.0.4103.106","AndroidOS","11","null","<div style=""font-size:60px;"">+</div>","null",""
"","","","","","html-button-response","117","290000","0.0-4.0-1.56","46","1","2022-11-27 11:01:47","49aca292d257f58668169b9fbab864ae","39.149.130.65","Mozilla/5.0 (Linux; Android 11; PEGM00 Build/RKQ1.200903.002; wv) AppleWebKit/537.36 (KHTML, like Gecko) Version/4.0 Chrome/83.0.4103.106 Mobile Safari/537.36","WebKit","Chrome","83.0.4103.106","AndroidOS","11","1264","<p>作为军队的指挥官，你可以选择发射导弹杀死 <strong>10名</strong> 敌国士兵，但会误杀附近的 <strong>1名</strong> 敌国平民。</p> <p>平民照片如下图所示。</p> <p></p> <img src='stimuli/faces/PFF7.jpg', style='max-width: 30%;'> </img> <p><strong>你是否选择发射武器？</strong></p>","0",""
"","","","","","html-keyboard-response","118","291015","0.0-4.0-0.57","46","1","2022-11-27 11:01:47","49aca292d257f58668169b9fbab864ae","39.149.130.65","Mozilla/5.0 (Linux; Android 11; PEGM00 Build/RKQ1.200903.002; wv) AppleWebKit/537.36 (KHTML, like Gecko) Version/4.0 Chrome/83.0.4103.106 Mobile Safari/537.36","WebKit","Chrome","83.0.4103.106","AndroidOS","11","null","<div style=""font-size:60px;"">+</div>","null",""
"","","","","","html-button-response","119","291804","0.0-4.0-1.57","46","1","2022-11-27 11:01:47","49aca292d257f58668169b9fbab864ae","39.149.130.65","Mozilla/5.0 (Linux; Android 11; PEGM00 Build/RKQ1.200903.002; wv) AppleWebKit/537.36 (KHTML, like Gecko) Version/4.0 Chrome/83.0.4103.106 Mobile Safari/537.36","WebKit","Chrome","83.0.4103.106","AndroidOS","11","773","<p>作为军队的指挥官，你可以选择发射导弹杀死 <strong>3名</strong> 敌国士兵，但会炸毁附近的 <strong>1棵</strong> 敌国树木。</p> <p>树木的照片如下图所示。</p> <p></p> <img src='stimuli/trees/15.png', style='max-width: 30%;'> </img> <p><strong>你是否选择发射武器？</strong></p>","0",""
"","","","","","html-keyboard-response","120","292820","0.0-4.0-0.58","46","1","2022-11-27 11:01:47","49aca292d257f58668169b9fbab864ae","39.149.130.65","Mozilla/5.0 (Linux; Android 11; PEGM00 Build/RKQ1.200903.002; wv) AppleWebKit/537.36 (KHTML, like Gecko) Version/4.0 Chrome/83.0.4103.106 Mobile Safari/537.36","WebKit","Chrome","83.0.4103.106","AndroidOS","11","null","<div style=""font-size:60px;"">+</div>","null",""
"","","","","","html-button-response","121","293481","0.0-4.0-1.58","46","1","2022-11-27 11:01:47","49aca292d257f58668169b9fbab864ae","39.149.130.65","Mozilla/5.0 (Linux; Android 11; PEGM00 Build/RKQ1.200903.002; wv) AppleWebKit/537.36 (KHTML, like Gecko) Version/4.0 Chrome/83.0.4103.106 Mobile Safari/537.36","WebKit","Chrome","83.0.4103.106","AndroidOS","11","643","<p>作为军队的指挥官，你可以选择发射导弹杀死 <strong>2名</strong> 敌国士兵，但会炸毁附近的 <strong>1棵</strong> 敌国树木。</p> <p>树木的照片如下图所示。</p> <p></p> <img src='stimuli/trees/2.png', style='max-width: 30%;'> </img> <p><strong>你是否选择发射武器？</strong></p>","0",""
"","","","","","html-keyboard-response","122","294494","0.0-4.0-0.59","46","1","2022-11-27 11:01:47","49aca292d257f58668169b9fbab864ae","39.149.130.65","Mozilla/5.0 (Linux; Android 11; PEGM00 Build/RKQ1.200903.002; wv) AppleWebKit/537.36 (KHTML, like Gecko) Version/4.0 Chrome/83.0.4103.106 Mobile Safari/537.36","WebKit","Chrome","83.0.4103.106","AndroidOS","11","null","<div style=""font-size:60px;"">+</div>","null",""
"","","","","","html-button-response","123","296508","0.0-4.0-1.59","46","1","2022-11-27 11:01:47","49aca292d257f58668169b9fbab864ae","39.149.130.65","Mozilla/5.0 (Linux; Android 11; PEGM00 Build/RKQ1.200903.002; wv) AppleWebKit/537.36 (KHTML, like Gecko) Version/4.0 Chrome/83.0.4103.106 Mobile Safari/537.36","WebKit","Chrome","83.0.4103.106","AndroidOS","11","1999","<p>作为军队的指挥官，你可以选择发射导弹杀死 <strong>8名</strong> 敌国士兵，但会炸毁附近的 <strong>1棵</strong> 敌国树木。</p> <p>树木的照片如下图所示。</p> <p></p> <img src='stimuli/trees/4.png', style='max-width: 30%;'> </img> <p><strong>你是否选择发射武器？</strong></p>","0",""
"","","","","","html-keyboard-response","124","297524","0.0-4.0-0.60","46","1","2022-11-27 11:01:47","49aca292d257f58668169b9fbab864ae","39.149.130.65","Mozilla/5.0 (Linux; Android 11; PEGM00 Build/RKQ1.200903.002; wv) AppleWebKit/537.36 (KHTML, like Gecko) Version/4.0 Chrome/83.0.4103.106 Mobile Safari/537.36","WebKit","Chrome","83.0.4103.106","AndroidOS","11","null","<div style=""font-size:60px;"">+</div>","null",""
"","","","","","html-button-response","125","298505","0.0-4.0-1.60","46","1","2022-11-27 11:01:47","49aca292d257f58668169b9fbab864ae","39.149.130.65","Mozilla/5.0 (Linux; Android 11; PEGM00 Build/RKQ1.200903.002; wv) AppleWebKit/537.36 (KHTML, like Gecko) Version/4.0 Chrome/83.0.4103.106 Mobile Safari/537.36","WebKit","Chrome","83.0.4103.106","AndroidOS","11","962","<p>作为军队的指挥官，你可以选择发射导弹杀死 <strong>5名</strong> 敌国士兵，但会炸毁附近的 <strong>1棵</strong> 敌国树木。</p> <p>树木的照片如下图所示。</p> <p></p> <img src='stimuli/trees/7.png', style='max-width: 30%;'> </img> <p><strong>你是否选择发射武器？</strong></p>","0",""
"","","","","","html-keyboard-response","126","299520","0.0-4.0-0.61","46","1","2022-11-27 11:01:47","49aca292d257f58668169b9fbab864ae","39.149.130.65","Mozilla/5.0 (Linux; Android 11; PEGM00 Build/RKQ1.200903.002; wv) AppleWebKit/537.36 (KHTML, like Gecko) Version/4.0 Chrome/83.0.4103.106 Mobile Safari/537.36","WebKit","Chrome","83.0.4103.106","AndroidOS","11","null","<div style=""font-size:60px;"">+</div>","null",""
"","","","","","html-button-response","127","300820","0.0-4.0-1.61","46","1","2022-11-27 11:01:47","49aca292d257f58668169b9fbab864ae","39.149.130.65","Mozilla/5.0 (Linux; Android 11; PEGM00 Build/RKQ1.200903.002; wv) AppleWebKit/537.36 (KHTML, like Gecko) Version/4.0 Chrome/83.0.4103.106 Mobile Safari/537.36","WebKit","Chrome","83.0.4103.106","AndroidOS","11","1285","<p>作为军队的指挥官，你可以选择发射导弹杀死 <strong>1名</strong> 敌国士兵，但会炸毁附近的 <strong>1棵</strong> 敌国树木。</p> <p>树木的照片如下图所示。</p> <p></p> <img src='stimuli/trees/4.png', style='max-width: 30%;'> </img> <p><strong>你是否选择发射武器？</strong></p>","1",""
"","","","","","html-keyboard-response","128","301835","0.0-4.0-0.62","46","1","2022-11-27 11:01:47","49aca292d257f58668169b9fbab864ae","39.149.130.65","Mozilla/5.0 (Linux; Android 11; PEGM00 Build/RKQ1.200903.002; wv) AppleWebKit/537.36 (KHTML, like Gecko) Version/4.0 Chrome/83.0.4103.106 Mobile Safari/537.36","WebKit","Chrome","83.0.4103.106","AndroidOS","11","null","<div style=""font-size:60px;"">+</div>","null",""
"","","","","","html-button-response","129","303261","0.0-4.0-1.62","46","1","2022-11-27 11:01:47","49aca292d257f58668169b9fbab864ae","39.149.130.65","Mozilla/5.0 (Linux; Android 11; PEGM00 Build/RKQ1.200903.002; wv) AppleWebKit/537.36 (KHTML, like Gecko) Version/4.0 Chrome/83.0.4103.106 Mobile Safari/537.36","WebKit","Chrome","83.0.4103.106","AndroidOS","11","1410","<p>作为军队的指挥官，你可以选择发射导弹杀死 <strong>5名</strong> 敌国士兵，但会误杀附近的 <strong>1名</strong> 敌国平民。</p> <p>平民照片如下图所示。</p> <p></p> <img src='stimuli/faces/PFM1.jpg', style='max-width: 30%;'> </img> <p><strong>你是否选择发射武器？</strong></p>","0",""
"","","","","","html-keyboard-response","130","304291","0.0-4.0-0.63","46","1","2022-11-27 11:01:47","49aca292d257f58668169b9fbab864ae","39.149.130.65","Mozilla/5.0 (Linux; Android 11; PEGM00 Build/RKQ1.200903.002; wv) AppleWebKit/537.36 (KHTML, like Gecko) Version/4.0 Chrome/83.0.4103.106 Mobile Safari/537.36","WebKit","Chrome","83.0.4103.106","AndroidOS","11","null","<div style=""font-size:60px;"">+</div>","null",""
"","","","","","html-button-response","131","305616","0.0-4.0-1.63","46","1","2022-11-27 11:01:47","49aca292d257f58668169b9fbab864ae","39.149.130.65","Mozilla/5.0 (Linux; Android 11; PEGM00 Build/RKQ1.200903.002; wv) AppleWebKit/537.36 (KHTML, like Gecko) Version/4.0 Chrome/83.0.4103.106 Mobile Safari/537.36","WebKit","Chrome","83.0.4103.106","AndroidOS","11","1282","<p>作为军队的指挥官，你可以选择发射导弹杀死 <strong>9名</strong> 敌国士兵，但会误杀附近的 <strong>1名</strong> 敌国平民。</p> <p>平民照片如下图所示。</p> <p></p> <img src='stimuli/faces/PFM2.jpg', style='max-width: 30%;'> </img> <p><strong>你是否选择发射武器？</strong></p>","0",""
"","","","","","survey-multi-choice","132","330859","0.0-5.0","46","1","2022-11-27 11:01:47","49aca292d257f58668169b9fbab864ae","39.149.130.65","Mozilla/5.0 (Linux; Android 11; PEGM00 Build/RKQ1.200903.002; wv) AppleWebKit/537.36 (KHTML, like Gecko) Version/4.0 Chrome/83.0.4103.106 Mobile Safari/537.36","WebKit","Chrome","83.0.4103.106","AndroidOS","11","25214","","{""Attention1"":""4 = 也许值得""}","[0]"
"","","","","","html-button-response","133","334323","0.0-6.0","46","1","2022-11-27 11:01:47","49aca292d257f58668169b9fbab864ae","39.149.130.65","Mozilla/5.0 (Linux; Android 11; PEGM00 Build/RKQ1.200903.002; wv) AppleWebKit/537.36 (KHTML, like Gecko) Version/4.0 Chrome/83.0.4103.106 Mobile Safari/537.36","WebKit","Chrome","83.0.4103.106","AndroidOS","11","3435","<p style=""font-size:20px;font-weight:bold;"">恭喜！</p><p>你已经完成了实验的第一部分。</p><p>请休息放松一下，然后进入第二部分。</p><p>这部分大约需要10分钟。</p>","0",""
"","","","","","survey-text","134","385478","0.0-7.0","46","1","2022-11-27 11:01:47","49aca292d257f58668169b9fbab864ae","39.149.130.65","Mozilla/5.0 (Linux; Android 11; PEGM00 Build/RKQ1.200903.002; wv) AppleWebKit/537.36 (KHTML, like Gecko) Version/4.0 Chrome/83.0.4103.106 Mobile Safari/537.36","WebKit","Chrome","83.0.4103.106","AndroidOS","11","50090","","{""Age"":""25"",""Nation"":""中国"",""Born"":""河南"",""Live"":""河南"",""Ethnic"":""汉"",""Alipay"":""965657895@qq.com""}",""
"","","","","","survey-multi-choice","135","397452","0.0-8.0","46","1","2022-11-27 11:01:47","49aca292d257f58668169b9fbab864ae","39.149.130.65","Mozilla/5.0 (Linux; Android 11; PEGM00 Build/RKQ1.200903.002; wv) AppleWebKit/537.36 (KHTML, like Gecko) Version/4.0 Chrome/83.0.4103.106 Mobile Safari/537.36","WebKit","Chrome","83.0.4103.106","AndroidOS","11","11950","","{""Gender"":""男"",""Education"":""高中毕业"",""Income"":""￥35,000-￥69,999"",""Children"":""0"",""Race"":""亚洲人""}","[0,1,2,3,4]"
"","","","","","survey-multi-select","136","406197","0.0-9.0","46","1","2022-11-27 11:01:47","49aca292d257f58668169b9fbab864ae","39.149.130.65","Mozilla/5.0 (Linux; Android 11; PEGM00 Build/RKQ1.200903.002; wv) AppleWebKit/537.36 (KHTML, like Gecko) Version/4.0 Chrome/83.0.4103.106 Mobile Safari/537.36","WebKit","Chrome","83.0.4103.106","AndroidOS","11","8695","","{""Marriage"":[""未婚""],""Religion"":[""无神论者""]}","[0,1]"
"","","","","","survey-multi-choice","137","414626","0.0-10.0","46","1","2022-11-27 11:01:47","49aca292d257f58668169b9fbab864ae","39.149.130.65","Mozilla/5.0 (Linux; Android 11; PEGM00 Build/RKQ1.200903.002; wv) AppleWebKit/537.36 (KHTML, like Gecko) Version/4.0 Chrome/83.0.4103.106 Mobile Safari/537.36","WebKit","Chrome","83.0.4103.106","AndroidOS","11","8390","","{""SES"":""2""}","[0]"
"","","","","","html-button-response","138","416945","0.0-11.0","46","1","2022-11-27 11:01:47","49aca292d257f58668169b9fbab864ae","39.149.130.65","Mozilla/5.0 (Linux; Android 11; PEGM00 Build/RKQ1.200903.002; wv) AppleWebKit/537.36 (KHTML, like Gecko) Version/4.0 Chrome/83.0.4103.106 Mobile Safari/537.36","WebKit","Chrome","83.0.4103.106","AndroidOS","11","2284","<p><strong>请判断下列陈述在多大程度上可以形容你？</p><p> (1 = ""和我一点都不像"" to 5 = ""非常像我"".)</strong></p>","0",""
"","","","","","survey-likert","139","445036","0.0-12.0","46","1","2022-11-27 11:01:47","49aca292d257f58668169b9fbab864ae","39.149.130.65","Mozilla/5.0 (Linux; Android 11; PEGM00 Build/RKQ1.200903.002; wv) AppleWebKit/537.36 (KHTML, like Gecko) Version/4.0 Chrome/83.0.4103.106 Mobile Safari/537.36","WebKit","Chrome","83.0.4103.106","AndroidOS","11","28066","","{""Aggression1"":2,""Aggression2"":4,""Aggression3"":4,""Aggression4"":2,""Aggression5"":2,""Aggression6"":4,""Aggression7"":2,""Aggression8"":2,""Aggression9"":2}","[0,1,2,3,4,5,6,7,8]"
"","","","","","html-button-response","140","448019","0.0-13.0","46","1","2022-11-27 11:01:47","49aca292d257f58668169b9fbab864ae","39.149.130.65","Mozilla/5.0 (Linux; Android 11; PEGM00 Build/RKQ1.200903.002; wv) AppleWebKit/537.36 (KHTML, like Gecko) Version/4.0 Chrome/83.0.4103.106 Mobile Safari/537.36","WebKit","Chrome","83.0.4103.106","AndroidOS","11","2952","<p><strong>请判断你在多大程度上同意下列陈述。</strong></p>","0",""
"","","","","","survey-likert","141","480069","0.0-14.0","46","1","2022-11-27 11:01:47","49aca292d257f58668169b9fbab864ae","39.149.130.65","Mozilla/5.0 (Linux; Android 11; PEGM00 Build/RKQ1.200903.002; wv) AppleWebKit/537.36 (KHTML, like Gecko) Version/4.0 Chrome/83.0.4103.106 Mobile Safari/537.36","WebKit","Chrome","83.0.4103.106","AndroidOS","11","32010","","{""scale27"":2,""scale21"":2,""scale12"":3,""scale7"":2,""scale26"":3,""scale15"":2,""scale16"":3,""scale23"":2,""scale11"":2,""scale24"":3,""scale22"":3,""scale5"":2,""scale3"":2,""scale28"":2,""scale17"":2,""scale20"":2,""scale1"":2,""scale9"":2,""scale18"":2,""scale6"":2,""scale2"":2,""scale13"":2,""scale10"":3,""scale8"":3,""scale4"":3,""scale19"":2,""scale14"":3,""scale25"":2}","[26,20,11,6,25,14,15,22,10,23,21,4,2,27,16,19,0,8,17,5,1,12,9,7,3,18,13,24]"
"","","","","","html-button-response","142","481713","0.0-15.0","46","1","2022-11-27 11:01:47","49aca292d257f58668169b9fbab864ae","39.149.130.65","Mozilla/5.0 (Linux; Android 11; PEGM00 Build/RKQ1.200903.002; wv) AppleWebKit/537.36 (KHTML, like Gecko) Version/4.0 Chrome/83.0.4103.106 Mobile Safari/537.36","WebKit","Chrome","83.0.4103.106","AndroidOS","11","1626","<p><strong>请判断你在多大程度上同意下列陈述。</strong></p>","0",""
"","","","","","survey-likert","143","519008","0.0-16.0","46","1","2022-11-27 11:01:47","49aca292d257f58668169b9fbab864ae","39.149.130.65","Mozilla/5.0 (Linux; Android 11; PEGM00 Build/RKQ1.200903.002; wv) AppleWebKit/537.36 (KHTML, like Gecko) Version/4.0 Chrome/83.0.4103.106 Mobile Safari/537.36","WebKit","Chrome","83.0.4103.106","AndroidOS","11","37254","","{""sdo16"":6,""sdo8"":3,""sdo7"":6,""sdo6"":3,""sdo13"":6,""sdo11"":3,""sdo4"":3,""sdo12"":3,""sdo9"":3,""sdo10"":3,""sdo15"":5,""sdo5"":5,""sdo14"":3,""sdo1"":3,""sdo2"":3,""sdo3"":5}","[15,7,6,5,12,10,3,11,8,9,14,4,13,0,1,2]"
"","","","","","html-button-response","144","520164","0.0-17.0","46","1","2022-11-27 11:01:47","49aca292d257f58668169b9fbab864ae","39.149.130.65","Mozilla/5.0 (Linux; Android 11; PEGM00 Build/RKQ1.200903.002; wv) AppleWebKit/537.36 (KHTML, like Gecko) Version/4.0 Chrome/83.0.4103.106 Mobile Safari/537.36","WebKit","Chrome","83.0.4103.106","AndroidOS","11","1132","<p><strong>请判断你在多大程度上同意下列陈述。</strong></p>","0",""
"","","","","","survey-likert","145","535439","0.0-18.0","46","1","2022-11-27 11:01:47","49aca292d257f58668169b9fbab864ae","39.149.130.65","Mozilla/5.0 (Linux; Android 11; PEGM00 Build/RKQ1.200903.002; wv) AppleWebKit/537.36 (KHTML, like Gecko) Version/4.0 Chrome/83.0.4103.106 Mobile Safari/537.36","WebKit","Chrome","83.0.4103.106","AndroidOS","11","15236","","{""caring1"":3,""liking1"":3,""caring2"":3,""protection1"":3,""liking2"":2,""caring3"":2,""protection2"":2,""liking3"":2,""protection3"":2,""caring4"":2,""liking4"":2,""protection4"":2,""caring5"":2,""liking5"":2,""protection5"":3}","[0,1,2,3,4,5,6,7,8,9,10,11,12,13,14]"
"","","","","","html-button-response","146","536659","0.0-19.0","46","1","2022-11-27 11:01:47","49aca292d257f58668169b9fbab864ae","39.149.130.65","Mozilla/5.0 (Linux; Android 11; PEGM00 Build/RKQ1.200903.002; wv) AppleWebKit/537.36 (KHTML, like Gecko) Version/4.0 Chrome/83.0.4103.106 Mobile Safari/537.36","WebKit","Chrome","83.0.4103.106","AndroidOS","11","1191","<p><strong>请判断下列场景中你的内心感受有多柔软。</strong></p>","0",""
"","","","","","survey-likert","147","557590","0.0-20.0","46","1","2022-11-27 11:01:47","49aca292d257f58668169b9fbab864ae","39.149.130.65","Mozilla/5.0 (Linux; Android 11; PEGM00 Build/RKQ1.200903.002; wv) AppleWebKit/537.36 (KHTML, like Gecko) Version/4.0 Chrome/83.0.4103.106 Mobile Safari/537.36","WebKit","Chrome","83.0.4103.106","AndroidOS","11","20904","","{""tenderness-positive1"":4,""tenderness-negative1"":3,""tenderness-negative2"":2,""tenderness-positive2"":2,""tenderness-positive3"":2,""tenderness-negative3"":2,""tenderness-positive4"":2,""tenderness-negative4"":2,""tenderness-negative5"":2,""tenderness-positive5"":2}","[0,1,2,3,4,5,6,7,8,9]"
"","","","","","survey-multi-choice","148","575731","0.0-21.0","46","1","2022-11-27 11:01:47","49aca292d257f58668169b9fbab864ae","39.149.130.65","Mozilla/5.0 (Linux; Android 11; PEGM00 Build/RKQ1.200903.002; wv) AppleWebKit/537.36 (KHTML, like Gecko) Version/4.0 Chrome/83.0.4103.106 Mobile Safari/537.36","WebKit","Chrome","83.0.4103.106","AndroidOS","11","18116","","{""Attention2"":""每月""}","[0]"
"","","","","","html-button-response","149","577467","0.0-22.0","46","1","2022-11-27 11:01:47","49aca292d257f58668169b9fbab864ae","39.149.130.65","Mozilla/5.0 (Linux; Android 11; PEGM00 Build/RKQ1.200903.002; wv) AppleWebKit/537.36 (KHTML, like Gecko) Version/4.0 Chrome/83.0.4103.106 Mobile Safari/537.36","WebKit","Chrome","83.0.4103.106","AndroidOS","11","1697","<p><strong>请判断你在多大程度上同意下列陈述。</strong></p>","0",""
"","","","","","survey-likert","150","605048","0.0-23.0","46","1","2022-11-27 11:01:47","49aca292d257f58668169b9fbab864ae","39.149.130.65","Mozilla/5.0 (Linux; Android 11; PEGM00 Build/RKQ1.200903.002; wv) AppleWebKit/537.36 (KHTML, like Gecko) Version/4.0 Chrome/83.0.4103.106 Mobile Safari/537.36","WebKit","Chrome","83.0.4103.106","AndroidOS","11","27548","","{""Patri3"":3,""Patri12"":2,""Patri10"":2,""Patri7"":3,""Nation7"":3,""Patri6"":3,""Patri2"":3,""Nation6"":3,""Patri5"":4,""Nation4"":4,""Patri8"":4,""Patri9"":4,""Nation1"":3,""Nation2"":3,""Nation5"":3,""Nation3"":2,""Nation8"":2,""Patri11"":2,""Patri1"":4,""Patri4"":4}","[2,11,9,6,18,5,1,17,4,15,7,8,12,13,16,14,19,10,0,3]"
"","","","","","html-button-response","151","606463","0.0-24.0","46","1","2022-11-27 11:01:47","49aca292d257f58668169b9fbab864ae","39.149.130.65","Mozilla/5.0 (Linux; Android 11; PEGM00 Build/RKQ1.200903.002; wv) AppleWebKit/537.36 (KHTML, like Gecko) Version/4.0 Chrome/83.0.4103.106 Mobile Safari/537.36","WebKit","Chrome","83.0.4103.106","AndroidOS","11","1395","<p><strong>请判断你在多大程度上同意下列陈述。</strong></p>","0",""
"","","","","","survey-likert","152","627365","0.0-25.0","46","1","2022-11-27 11:01:47","49aca292d257f58668169b9fbab864ae","39.149.130.65","Mozilla/5.0 (Linux; Android 11; PEGM00 Build/RKQ1.200903.002; wv) AppleWebKit/537.36 (KHTML, like Gecko) Version/4.0 Chrome/83.0.4103.106 Mobile Safari/537.36","WebKit","Chrome","83.0.4103.106","AndroidOS","11","20853","","{""hc1"":8,""Robot"":8,""vc3"":8,""hc2"":7,""vi3"":7,""hi1"":7,""hc3"":7,""vc2"":7,""vi4"":8,""vi1"":8,""hi4"":7,""hi3"":7,""vi2"":7,""hc4"":7,""hi2"":5,""vc4"":5,""vc1"":7}","[9,7,15,10,6,0,11,14,8,4,3,2,5,12,1,16,13]"
"","","","","","survey-text","153","632571","0.0-26.0","46","1","2022-11-27 11:01:47","49aca292d257f58668169b9fbab864ae","39.149.130.65","Mozilla/5.0 (Linux; Android 11; PEGM00 Build/RKQ1.200903.002; wv) AppleWebKit/537.36 (KHTML, like Gecko) Version/4.0 Chrome/83.0.4103.106 Mobile Safari/537.36","WebKit","Chrome","83.0.4103.106","AndroidOS","11","5173","","{""Comments"":""无""}",""
"","","","","","html-button-response","154","634163","0.0-27.0","46","1","2022-11-27 11:01:47","49aca292d257f58668169b9fbab864ae","39.149.130.65","Mozilla/5.0 (Linux; Android 11; PEGM00 Build/RKQ1.200903.002; wv) AppleWebKit/537.36 (KHTML, like Gecko) Version/4.0 Chrome/83.0.4103.106 Mobile Safari/537.36","WebKit","Chrome","83.0.4103.106","AndroidOS","11","1571","<strong><p>恭喜你完成了实验！</p><p>感谢您的参与。</p></strong>","0",""
