"success","timeout","failed_images","failed_audio","failed_video","trial_type","trial_index","time_elapsed","internal_node_id","run_id","condition","recorded_at","source_code_version","ip","user_agent","device","browser","browser_version","platform","platform_version","rt","stimulus","response","question_order"
"true","false","[]","[]","[]","preload","0","4277","0.0-0.0","53","1","2022-11-27 12:28:42","49aca292d257f58668169b9fbab864ae","101.228.42.199","Mozilla/5.0 (Windows NT 10.0; Win64; x64) AppleWebKit/537.36 (KHTML, like Gecko) Chrome/99.0.4844.51 Safari/537.36","WebKit","Chrome","99.0.4844.51","Windows","10.0","","","",""
"true","","","","","fullscreen","1","14057","0.0-1.0","53","1","2022-11-27 12:28:42","49aca292d257f58668169b9fbab864ae","101.228.42.199","Mozilla/5.0 (Windows NT 10.0; Win64; x64) AppleWebKit/537.36 (KHTML, like Gecko) Chrome/99.0.4844.51 Safari/537.36","WebKit","Chrome","99.0.4844.51","Windows","10.0","","","",""
"","","","","","html-button-response","2","110872","0.0-2.0","53","1","2022-11-27 12:28:42","49aca292d257f58668169b9fbab864ae","101.228.42.199","Mozilla/5.0 (Windows NT 10.0; Win64; x64) AppleWebKit/537.36 (KHTML, like Gecko) Chrome/99.0.4844.51 Safari/537.36","WebKit","Chrome","99.0.4844.51","Windows","10.0","96813","<p style=""font-size:20px;font-weight:bold;"">实验知情同意书</p><p style=""text-align:left;""><strong>实验名称：</strong>社会冲突研究</p><p style=""text-align:left;""><strong>主要研究者：</strong>韩晓春副教授（北京师范大学心理学部）</p><p style=""text-align:left;""><strong>联系方式：</strong>发送邮件至xiaochun.han@bnu.edu.cn</p><p style=""text-align:left;""><strong>研究目的：</strong>研究旨在了解人类面对群体冲突时的决策方式，以及相关的心理学特质。实验调查大约需要20分钟。</p><p style=""text-align:left;""><strong>实验流程：</strong>实验包含两部分。第一部分呈现一系列群体冲突场景，请你决定如何对这些冲突进行反应，大约需要10分钟完成。第二部分包含一系列人口统计学信息收集和心理学问卷，大约需要10分钟完成。</p><p style=""text-align:left;""><strong>参加及退出规则：</strong>参加本实验完全取决于您的个人意愿。在参与过程中，您可以随时退出，并且不用承担任何后果。</p><p style=""text-align:left;""><strong>隐私：</strong>本实验完全匿名进行，不会收集您的姓名或其他能够识别您身份的信息。实验中收集的作答仅用作科学研究使用，可能会在学术期刊/书籍上发表，或者用于教学，您的数据未来可能会和其他研究者或实验室分享，但您的个人身份不会被识别。</p><p style=""text-align:left;""><strong>实验报酬：</strong>实验完成后，您将获得15元人民币报酬，以感谢您的时间和努力。调查问卷中包含几道题目用以测验您作答时的认真度。只有完成全部实验，并且正确回答认真度测验的被试才能获得实验报酬。实验报酬将通过支付宝转账发放。</p><p style=""text-align:left;font-size:20px;""><strong>如果您同意以上实验知情同意书的内容，请点击'同意并且开始实验'按钮；否则请关闭浏览器界面，退出实验。</strong></p>","0",""
"","","","","","html-button-response","3","123176","0.0-3.0","53","1","2022-11-27 12:28:42","49aca292d257f58668169b9fbab864ae","101.228.42.199","Mozilla/5.0 (Windows NT 10.0; Win64; x64) AppleWebKit/537.36 (KHTML, like Gecko) Chrome/99.0.4844.51 Safari/537.36","WebKit","Chrome","99.0.4844.51","Windows","10.0","12302","<p ><strong>实验任务一：</strong></p><p>请想象你的国家与另一个国家发生了军事冲突。</p><p>你是国家军队的指挥官，你将如何在冲突中进行决策。</p><p>具体来说，作为军队指挥官，请你决定是否发射导弹进行打击。</p><p>接下来，你会面对一系列场景，请仔细阅读每个场景，然后进行决策。</p><p>这部分实验任务大约需要10分钟。</p><p><strong>实验过程中，请集中注意力。</strong></p>","0",""
"","","","","","html-keyboard-response","4","124194","0.0-4.0-0.0","53","1","2022-11-27 12:28:42","49aca292d257f58668169b9fbab864ae","101.228.42.199","Mozilla/5.0 (Windows NT 10.0; Win64; x64) AppleWebKit/537.36 (KHTML, like Gecko) Chrome/99.0.4844.51 Safari/537.36","WebKit","Chrome","99.0.4844.51","Windows","10.0","null","<div style=""font-size:60px;"">+</div>","null",""
"","","","","","html-button-response","5","131576","0.0-4.0-1.0","53","1","2022-11-27 12:28:42","49aca292d257f58668169b9fbab864ae","101.228.42.199","Mozilla/5.0 (Windows NT 10.0; Win64; x64) AppleWebKit/537.36 (KHTML, like Gecko) Chrome/99.0.4844.51 Safari/537.36","WebKit","Chrome","99.0.4844.51","Windows","10.0","7380","<p>作为军队的指挥官，你可以选择发射导弹杀死 <strong>6名</strong> 敌国士兵，但会炸毁附近的 <strong>1棵</strong> 敌国树木。</p> <p>树木的照片如下图所示。</p> <p></p> <img src='stimuli/trees/11.png', style='max-width: 30%;'> </img> <p><strong>你是否选择发射武器？</strong></p>","0",""
"","","","","","html-keyboard-response","6","132579","0.0-4.0-0.1","53","1","2022-11-27 12:28:42","49aca292d257f58668169b9fbab864ae","101.228.42.199","Mozilla/5.0 (Windows NT 10.0; Win64; x64) AppleWebKit/537.36 (KHTML, like Gecko) Chrome/99.0.4844.51 Safari/537.36","WebKit","Chrome","99.0.4844.51","Windows","10.0","null","<div style=""font-size:60px;"">+</div>","null",""
"","","","","","html-button-response","7","137184","0.0-4.0-1.1","53","1","2022-11-27 12:28:42","49aca292d257f58668169b9fbab864ae","101.228.42.199","Mozilla/5.0 (Windows NT 10.0; Win64; x64) AppleWebKit/537.36 (KHTML, like Gecko) Chrome/99.0.4844.51 Safari/537.36","WebKit","Chrome","99.0.4844.51","Windows","10.0","4604","<p>作为军队的指挥官，你可以选择发射导弹杀死 <strong>2名</strong> 敌国士兵，但会误杀附近的 <strong>1名</strong> 敌国平民。</p> <p>平民照片如下图所示。</p> <p></p> <img src='stimuli/faces/PFM8.jpg', style='max-width: 30%;'> </img> <p><strong>你是否选择发射武器？</strong></p>","1",""
"","","","","","html-keyboard-response","8","138186","0.0-4.0-0.2","53","1","2022-11-27 12:28:42","49aca292d257f58668169b9fbab864ae","101.228.42.199","Mozilla/5.0 (Windows NT 10.0; Win64; x64) AppleWebKit/537.36 (KHTML, like Gecko) Chrome/99.0.4844.51 Safari/537.36","WebKit","Chrome","99.0.4844.51","Windows","10.0","null","<div style=""font-size:60px;"">+</div>","null",""
"","","","","","html-button-response","9","140448","0.0-4.0-1.2","53","1","2022-11-27 12:28:42","49aca292d257f58668169b9fbab864ae","101.228.42.199","Mozilla/5.0 (Windows NT 10.0; Win64; x64) AppleWebKit/537.36 (KHTML, like Gecko) Chrome/99.0.4844.51 Safari/537.36","WebKit","Chrome","99.0.4844.51","Windows","10.0","2261","<p>作为军队的指挥官，你可以选择发射导弹杀死 <strong>4名</strong> 敌国士兵，但会炸毁附近的 <strong>1棵</strong> 敌国树木。</p> <p>树木的照片如下图所示。</p> <p></p> <img src='stimuli/trees/5.png', style='max-width: 30%;'> </img> <p><strong>你是否选择发射武器？</strong></p>","1",""
"","","","","","html-keyboard-response","10","141465","0.0-4.0-0.3","53","1","2022-11-27 12:28:42","49aca292d257f58668169b9fbab864ae","101.228.42.199","Mozilla/5.0 (Windows NT 10.0; Win64; x64) AppleWebKit/537.36 (KHTML, like Gecko) Chrome/99.0.4844.51 Safari/537.36","WebKit","Chrome","99.0.4844.51","Windows","10.0","null","<div style=""font-size:60px;"">+</div>","null",""
"","","","","","html-button-response","11","145072","0.0-4.0-1.3","53","1","2022-11-27 12:28:42","49aca292d257f58668169b9fbab864ae","101.228.42.199","Mozilla/5.0 (Windows NT 10.0; Win64; x64) AppleWebKit/537.36 (KHTML, like Gecko) Chrome/99.0.4844.51 Safari/537.36","WebKit","Chrome","99.0.4844.51","Windows","10.0","3606","<p>作为军队的指挥官，你可以选择发射导弹杀死 <strong>2名</strong> 敌国士兵，但会误杀附近的 <strong>1名</strong> 敌国平民。</p> <p>平民照片如下图所示。</p> <p></p> <img src='stimuli/faces/PFF1.jpg', style='max-width: 30%;'> </img> <p><strong>你是否选择发射武器？</strong></p>","1",""
"","","","","","html-keyboard-response","12","146074","0.0-4.0-0.4","53","1","2022-11-27 12:28:42","49aca292d257f58668169b9fbab864ae","101.228.42.199","Mozilla/5.0 (Windows NT 10.0; Win64; x64) AppleWebKit/537.36 (KHTML, like Gecko) Chrome/99.0.4844.51 Safari/537.36","WebKit","Chrome","99.0.4844.51","Windows","10.0","null","<div style=""font-size:60px;"">+</div>","null",""
"","","","","","html-button-response","13","148592","0.0-4.0-1.4","53","1","2022-11-27 12:28:42","49aca292d257f58668169b9fbab864ae","101.228.42.199","Mozilla/5.0 (Windows NT 10.0; Win64; x64) AppleWebKit/537.36 (KHTML, like Gecko) Chrome/99.0.4844.51 Safari/537.36","WebKit","Chrome","99.0.4844.51","Windows","10.0","2517","<p>作为军队的指挥官，你可以选择发射导弹杀死 <strong>9名</strong> 敌国士兵，但会炸毁附近的 <strong>1棵</strong> 敌国树木。</p> <p>树木的照片如下图所示。</p> <p></p> <img src='stimuli/trees/12.png', style='max-width: 30%;'> </img> <p><strong>你是否选择发射武器？</strong></p>","0",""
"","","","","","html-keyboard-response","14","149595","0.0-4.0-0.5","53","1","2022-11-27 12:28:42","49aca292d257f58668169b9fbab864ae","101.228.42.199","Mozilla/5.0 (Windows NT 10.0; Win64; x64) AppleWebKit/537.36 (KHTML, like Gecko) Chrome/99.0.4844.51 Safari/537.36","WebKit","Chrome","99.0.4844.51","Windows","10.0","null","<div style=""font-size:60px;"">+</div>","null",""
"","","","","","html-button-response","15","161712","0.0-4.0-1.5","53","1","2022-11-27 12:28:42","49aca292d257f58668169b9fbab864ae","101.228.42.199","Mozilla/5.0 (Windows NT 10.0; Win64; x64) AppleWebKit/537.36 (KHTML, like Gecko) Chrome/99.0.4844.51 Safari/537.36","WebKit","Chrome","99.0.4844.51","Windows","10.0","12116","<p>作为军队的指挥官，你可以选择发射导弹杀死 <strong>5名</strong> 敌国士兵，但会炸毁附近的 <strong>1棵</strong> 敌国树木。</p> <p>树木的照片如下图所示。</p> <p></p> <img src='stimuli/trees/13.png', style='max-width: 30%;'> </img> <p><strong>你是否选择发射武器？</strong></p>","1",""
"","","","","","html-keyboard-response","16","162713","0.0-4.0-0.6","53","1","2022-11-27 12:28:42","49aca292d257f58668169b9fbab864ae","101.228.42.199","Mozilla/5.0 (Windows NT 10.0; Win64; x64) AppleWebKit/537.36 (KHTML, like Gecko) Chrome/99.0.4844.51 Safari/537.36","WebKit","Chrome","99.0.4844.51","Windows","10.0","null","<div style=""font-size:60px;"">+</div>","null",""
"","","","","","html-button-response","17","165072","0.0-4.0-1.6","53","1","2022-11-27 12:28:42","49aca292d257f58668169b9fbab864ae","101.228.42.199","Mozilla/5.0 (Windows NT 10.0; Win64; x64) AppleWebKit/537.36 (KHTML, like Gecko) Chrome/99.0.4844.51 Safari/537.36","WebKit","Chrome","99.0.4844.51","Windows","10.0","2358","<p>作为军队的指挥官，你可以选择发射导弹杀死 <strong>10名</strong> 敌国士兵，但会误杀附近的 <strong>1名</strong> 敌国平民。</p> <p>平民照片如下图所示。</p> <p></p> <img src='stimuli/faces/PFM2.jpg', style='max-width: 30%;'> </img> <p><strong>你是否选择发射武器？</strong></p>","0",""
"","","","","","html-keyboard-response","18","166080","0.0-4.0-0.7","53","1","2022-11-27 12:28:42","49aca292d257f58668169b9fbab864ae","101.228.42.199","Mozilla/5.0 (Windows NT 10.0; Win64; x64) AppleWebKit/537.36 (KHTML, like Gecko) Chrome/99.0.4844.51 Safari/537.36","WebKit","Chrome","99.0.4844.51","Windows","10.0","null","<div style=""font-size:60px;"">+</div>","null",""
"","","","","","html-button-response","19","168849","0.0-4.0-1.7","53","1","2022-11-27 12:28:42","49aca292d257f58668169b9fbab864ae","101.228.42.199","Mozilla/5.0 (Windows NT 10.0; Win64; x64) AppleWebKit/537.36 (KHTML, like Gecko) Chrome/99.0.4844.51 Safari/537.36","WebKit","Chrome","99.0.4844.51","Windows","10.0","2767","<p>作为军队的指挥官，你可以选择发射导弹杀死 <strong>8名</strong> 敌国士兵，但会炸毁附近的 <strong>1棵</strong> 敌国树木。</p> <p>树木的照片如下图所示。</p> <p></p> <img src='stimuli/trees/3.png', style='max-width: 30%;'> </img> <p><strong>你是否选择发射武器？</strong></p>","0",""
"","","","","","html-keyboard-response","20","169851","0.0-4.0-0.8","53","1","2022-11-27 12:28:42","49aca292d257f58668169b9fbab864ae","101.228.42.199","Mozilla/5.0 (Windows NT 10.0; Win64; x64) AppleWebKit/537.36 (KHTML, like Gecko) Chrome/99.0.4844.51 Safari/537.36","WebKit","Chrome","99.0.4844.51","Windows","10.0","null","<div style=""font-size:60px;"">+</div>","null",""
"","","","","","html-button-response","21","184224","0.0-4.0-1.8","53","1","2022-11-27 12:28:42","49aca292d257f58668169b9fbab864ae","101.228.42.199","Mozilla/5.0 (Windows NT 10.0; Win64; x64) AppleWebKit/537.36 (KHTML, like Gecko) Chrome/99.0.4844.51 Safari/537.36","WebKit","Chrome","99.0.4844.51","Windows","10.0","14372","<p>作为军队的指挥官，你可以选择发射导弹杀死 <strong>7名</strong> 敌国士兵，但会误杀附近的 <strong>1名</strong> 敌国平民。</p> <p>平民照片如下图所示。</p> <p></p> <img src='stimuli/faces/PFM8.jpg', style='max-width: 30%;'> </img> <p><strong>你是否选择发射武器？</strong></p>","0",""
"","","","","","html-keyboard-response","22","185228","0.0-4.0-0.9","53","1","2022-11-27 12:28:42","49aca292d257f58668169b9fbab864ae","101.228.42.199","Mozilla/5.0 (Windows NT 10.0; Win64; x64) AppleWebKit/537.36 (KHTML, like Gecko) Chrome/99.0.4844.51 Safari/537.36","WebKit","Chrome","99.0.4844.51","Windows","10.0","null","<div style=""font-size:60px;"">+</div>","null",""
"","","","","","html-button-response","23","203208","0.0-4.0-1.9","53","1","2022-11-27 12:28:42","49aca292d257f58668169b9fbab864ae","101.228.42.199","Mozilla/5.0 (Windows NT 10.0; Win64; x64) AppleWebKit/537.36 (KHTML, like Gecko) Chrome/99.0.4844.51 Safari/537.36","WebKit","Chrome","99.0.4844.51","Windows","10.0","17976","<p>作为军队的指挥官，你可以选择发射导弹杀死 <strong>3名</strong> 敌国士兵，但会误杀附近的 <strong>1名</strong> 敌国平民。</p> <p>平民照片如下图所示。</p> <p></p> <img src='stimuli/faces/PFM5.jpg', style='max-width: 30%;'> </img> <p><strong>你是否选择发射武器？</strong></p>","1",""
"","","","","","html-keyboard-response","24","204209","0.0-4.0-0.10","53","1","2022-11-27 12:28:42","49aca292d257f58668169b9fbab864ae","101.228.42.199","Mozilla/5.0 (Windows NT 10.0; Win64; x64) AppleWebKit/537.36 (KHTML, like Gecko) Chrome/99.0.4844.51 Safari/537.36","WebKit","Chrome","99.0.4844.51","Windows","10.0","null","<div style=""font-size:60px;"">+</div>","null",""
"","","","","","html-button-response","25","213616","0.0-4.0-1.10","53","1","2022-11-27 12:28:42","49aca292d257f58668169b9fbab864ae","101.228.42.199","Mozilla/5.0 (Windows NT 10.0; Win64; x64) AppleWebKit/537.36 (KHTML, like Gecko) Chrome/99.0.4844.51 Safari/537.36","WebKit","Chrome","99.0.4844.51","Windows","10.0","9403","<p>作为军队的指挥官，你可以选择发射导弹杀死 <strong>2名</strong> 敌国士兵，但会炸毁附近的 <strong>1棵</strong> 敌国树木。</p> <p>树木的照片如下图所示。</p> <p></p> <img src='stimuli/trees/14.png', style='max-width: 30%;'> </img> <p><strong>你是否选择发射武器？</strong></p>","1",""
"","","","","","html-keyboard-response","26","214617","0.0-4.0-0.11","53","1","2022-11-27 12:28:42","49aca292d257f58668169b9fbab864ae","101.228.42.199","Mozilla/5.0 (Windows NT 10.0; Win64; x64) AppleWebKit/537.36 (KHTML, like Gecko) Chrome/99.0.4844.51 Safari/537.36","WebKit","Chrome","99.0.4844.51","Windows","10.0","null","<div style=""font-size:60px;"">+</div>","null",""
"","","","","","html-button-response","27","217976","0.0-4.0-1.11","53","1","2022-11-27 12:28:42","49aca292d257f58668169b9fbab864ae","101.228.42.199","Mozilla/5.0 (Windows NT 10.0; Win64; x64) AppleWebKit/537.36 (KHTML, like Gecko) Chrome/99.0.4844.51 Safari/537.36","WebKit","Chrome","99.0.4844.51","Windows","10.0","3353","<p>作为军队的指挥官，你可以选择发射导弹杀死 <strong>3名</strong> 敌国士兵，但会炸毁附近的 <strong>1棵</strong> 敌国树木。</p> <p>树木的照片如下图所示。</p> <p></p> <img src='stimuli/trees/2.png', style='max-width: 30%;'> </img> <p><strong>你是否选择发射武器？</strong></p>","1",""
"","","","","","html-keyboard-response","28","218991","0.0-4.0-0.12","53","1","2022-11-27 12:28:42","49aca292d257f58668169b9fbab864ae","101.228.42.199","Mozilla/5.0 (Windows NT 10.0; Win64; x64) AppleWebKit/537.36 (KHTML, like Gecko) Chrome/99.0.4844.51 Safari/537.36","WebKit","Chrome","99.0.4844.51","Windows","10.0","null","<div style=""font-size:60px;"">+</div>","null",""
"","","","","","html-button-response","29","224080","0.0-4.0-1.12","53","1","2022-11-27 12:28:42","49aca292d257f58668169b9fbab864ae","101.228.42.199","Mozilla/5.0 (Windows NT 10.0; Win64; x64) AppleWebKit/537.36 (KHTML, like Gecko) Chrome/99.0.4844.51 Safari/537.36","WebKit","Chrome","99.0.4844.51","Windows","10.0","5085","<p>作为军队的指挥官，你可以选择发射导弹杀死 <strong>9名</strong> 敌国士兵，但会误杀附近的 <strong>1名</strong> 敌国平民。</p> <p>平民照片如下图所示。</p> <p></p> <img src='stimuli/faces/PFM3.jpg', style='max-width: 30%;'> </img> <p><strong>你是否选择发射武器？</strong></p>","0",""
"","","","","","html-keyboard-response","30","225081","0.0-4.0-0.13","53","1","2022-11-27 12:28:42","49aca292d257f58668169b9fbab864ae","101.228.42.199","Mozilla/5.0 (Windows NT 10.0; Win64; x64) AppleWebKit/537.36 (KHTML, like Gecko) Chrome/99.0.4844.51 Safari/537.36","WebKit","Chrome","99.0.4844.51","Windows","10.0","null","<div style=""font-size:60px;"">+</div>","null",""
"","","","","","html-button-response","31","227480","0.0-4.0-1.13","53","1","2022-11-27 12:28:42","49aca292d257f58668169b9fbab864ae","101.228.42.199","Mozilla/5.0 (Windows NT 10.0; Win64; x64) AppleWebKit/537.36 (KHTML, like Gecko) Chrome/99.0.4844.51 Safari/537.36","WebKit","Chrome","99.0.4844.51","Windows","10.0","2395","<p>作为军队的指挥官，你可以选择发射导弹杀死 <strong>8名</strong> 敌国士兵，但会炸毁附近的 <strong>1棵</strong> 敌国树木。</p> <p>树木的照片如下图所示。</p> <p></p> <img src='stimuli/trees/10.png', style='max-width: 30%;'> </img> <p><strong>你是否选择发射武器？</strong></p>","0",""
"","","","","","html-keyboard-response","32","228489","0.0-4.0-0.14","53","1","2022-11-27 12:28:42","49aca292d257f58668169b9fbab864ae","101.228.42.199","Mozilla/5.0 (Windows NT 10.0; Win64; x64) AppleWebKit/537.36 (KHTML, like Gecko) Chrome/99.0.4844.51 Safari/537.36","WebKit","Chrome","99.0.4844.51","Windows","10.0","null","<div style=""font-size:60px;"">+</div>","null",""
"","","","","","html-button-response","33","232264","0.0-4.0-1.14","53","1","2022-11-27 12:28:42","49aca292d257f58668169b9fbab864ae","101.228.42.199","Mozilla/5.0 (Windows NT 10.0; Win64; x64) AppleWebKit/537.36 (KHTML, like Gecko) Chrome/99.0.4844.51 Safari/537.36","WebKit","Chrome","99.0.4844.51","Windows","10.0","3771","<p>作为军队的指挥官，你可以选择发射导弹杀死 <strong>7名</strong> 敌国士兵，但会炸毁附近的 <strong>1棵</strong> 敌国树木。</p> <p>树木的照片如下图所示。</p> <p></p> <img src='stimuli/trees/7.png', style='max-width: 30%;'> </img> <p><strong>你是否选择发射武器？</strong></p>","0",""
"","","","","","html-keyboard-response","34","233271","0.0-4.0-0.15","53","1","2022-11-27 12:28:42","49aca292d257f58668169b9fbab864ae","101.228.42.199","Mozilla/5.0 (Windows NT 10.0; Win64; x64) AppleWebKit/537.36 (KHTML, like Gecko) Chrome/99.0.4844.51 Safari/537.36","WebKit","Chrome","99.0.4844.51","Windows","10.0","null","<div style=""font-size:60px;"">+</div>","null",""
"","","","","","html-button-response","35","238441","0.0-4.0-1.15","53","1","2022-11-27 12:28:42","49aca292d257f58668169b9fbab864ae","101.228.42.199","Mozilla/5.0 (Windows NT 10.0; Win64; x64) AppleWebKit/537.36 (KHTML, like Gecko) Chrome/99.0.4844.51 Safari/537.36","WebKit","Chrome","99.0.4844.51","Windows","10.0","5166","<p>作为军队的指挥官，你可以选择发射导弹杀死 <strong>9名</strong> 敌国士兵，但会误杀附近的 <strong>1名</strong> 敌国平民。</p> <p>平民照片如下图所示。</p> <p></p> <img src='stimuli/faces/PFM4.jpg', style='max-width: 30%;'> </img> <p><strong>你是否选择发射武器？</strong></p>","0",""
"","","","","","html-keyboard-response","36","239443","0.0-4.0-0.16","53","1","2022-11-27 12:28:42","49aca292d257f58668169b9fbab864ae","101.228.42.199","Mozilla/5.0 (Windows NT 10.0; Win64; x64) AppleWebKit/537.36 (KHTML, like Gecko) Chrome/99.0.4844.51 Safari/537.36","WebKit","Chrome","99.0.4844.51","Windows","10.0","null","<div style=""font-size:60px;"">+</div>","null",""
"","","","","","html-button-response","37","243488","0.0-4.0-1.16","53","1","2022-11-27 12:28:42","49aca292d257f58668169b9fbab864ae","101.228.42.199","Mozilla/5.0 (Windows NT 10.0; Win64; x64) AppleWebKit/537.36 (KHTML, like Gecko) Chrome/99.0.4844.51 Safari/537.36","WebKit","Chrome","99.0.4844.51","Windows","10.0","4040","<p>作为军队的指挥官，你可以选择发射导弹杀死 <strong>4名</strong> 敌国士兵，但会炸毁附近的 <strong>1棵</strong> 敌国树木。</p> <p>树木的照片如下图所示。</p> <p></p> <img src='stimuli/trees/4.png', style='max-width: 30%;'> </img> <p><strong>你是否选择发射武器？</strong></p>","1",""
"","","","","","html-keyboard-response","38","244489","0.0-4.0-0.17","53","1","2022-11-27 12:28:42","49aca292d257f58668169b9fbab864ae","101.228.42.199","Mozilla/5.0 (Windows NT 10.0; Win64; x64) AppleWebKit/537.36 (KHTML, like Gecko) Chrome/99.0.4844.51 Safari/537.36","WebKit","Chrome","99.0.4844.51","Windows","10.0","null","<div style=""font-size:60px;"">+</div>","null",""
"","","","","","html-button-response","39","247496","0.0-4.0-1.17","53","1","2022-11-27 12:28:42","49aca292d257f58668169b9fbab864ae","101.228.42.199","Mozilla/5.0 (Windows NT 10.0; Win64; x64) AppleWebKit/537.36 (KHTML, like Gecko) Chrome/99.0.4844.51 Safari/537.36","WebKit","Chrome","99.0.4844.51","Windows","10.0","3002","<p>作为军队的指挥官，你可以选择发射导弹杀死 <strong>9名</strong> 敌国士兵，但会误杀附近的 <strong>1名</strong> 敌国平民。</p> <p>平民照片如下图所示。</p> <p></p> <img src='stimuli/faces/PFF3.jpg', style='max-width: 30%;'> </img> <p><strong>你是否选择发射武器？</strong></p>","0",""
"","","","","","html-keyboard-response","40","248497","0.0-4.0-0.18","53","1","2022-11-27 12:28:42","49aca292d257f58668169b9fbab864ae","101.228.42.199","Mozilla/5.0 (Windows NT 10.0; Win64; x64) AppleWebKit/537.36 (KHTML, like Gecko) Chrome/99.0.4844.51 Safari/537.36","WebKit","Chrome","99.0.4844.51","Windows","10.0","null","<div style=""font-size:60px;"">+</div>","null",""
"","","","","","html-button-response","41","251344","0.0-4.0-1.18","53","1","2022-11-27 12:28:42","49aca292d257f58668169b9fbab864ae","101.228.42.199","Mozilla/5.0 (Windows NT 10.0; Win64; x64) AppleWebKit/537.36 (KHTML, like Gecko) Chrome/99.0.4844.51 Safari/537.36","WebKit","Chrome","99.0.4844.51","Windows","10.0","2843","<p>作为军队的指挥官，你可以选择发射导弹杀死 <strong>8名</strong> 敌国士兵，但会炸毁附近的 <strong>1棵</strong> 敌国树木。</p> <p>树木的照片如下图所示。</p> <p></p> <img src='stimuli/trees/9.png', style='max-width: 30%;'> </img> <p><strong>你是否选择发射武器？</strong></p>","0",""
"","","","","","html-keyboard-response","42","252345","0.0-4.0-0.19","53","1","2022-11-27 12:28:42","49aca292d257f58668169b9fbab864ae","101.228.42.199","Mozilla/5.0 (Windows NT 10.0; Win64; x64) AppleWebKit/537.36 (KHTML, like Gecko) Chrome/99.0.4844.51 Safari/537.36","WebKit","Chrome","99.0.4844.51","Windows","10.0","null","<div style=""font-size:60px;"">+</div>","null",""
"","","","","","html-button-response","43","256055","0.0-4.0-1.19","53","1","2022-11-27 12:28:42","49aca292d257f58668169b9fbab864ae","101.228.42.199","Mozilla/5.0 (Windows NT 10.0; Win64; x64) AppleWebKit/537.36 (KHTML, like Gecko) Chrome/99.0.4844.51 Safari/537.36","WebKit","Chrome","99.0.4844.51","Windows","10.0","3705","<p>作为军队的指挥官，你可以选择发射导弹杀死 <strong>5名</strong> 敌国士兵，但会误杀附近的 <strong>1名</strong> 敌国平民。</p> <p>平民照片如下图所示。</p> <p></p> <img src='stimuli/faces/PFM4.jpg', style='max-width: 30%;'> </img> <p><strong>你是否选择发射武器？</strong></p>","0",""
"","","","","","html-keyboard-response","44","257061","0.0-4.0-0.20","53","1","2022-11-27 12:28:42","49aca292d257f58668169b9fbab864ae","101.228.42.199","Mozilla/5.0 (Windows NT 10.0; Win64; x64) AppleWebKit/537.36 (KHTML, like Gecko) Chrome/99.0.4844.51 Safari/537.36","WebKit","Chrome","99.0.4844.51","Windows","10.0","null","<div style=""font-size:60px;"">+</div>","null",""
"","","","","","html-button-response","45","264639","0.0-4.0-1.20","53","1","2022-11-27 12:28:42","49aca292d257f58668169b9fbab864ae","101.228.42.199","Mozilla/5.0 (Windows NT 10.0; Win64; x64) AppleWebKit/537.36 (KHTML, like Gecko) Chrome/99.0.4844.51 Safari/537.36","WebKit","Chrome","99.0.4844.51","Windows","10.0","7574","<p>作为军队的指挥官，你可以选择发射导弹杀死 <strong>5名</strong> 敌国士兵，但会炸毁附近的 <strong>1棵</strong> 敌国树木。</p> <p>树木的照片如下图所示。</p> <p></p> <img src='stimuli/trees/3.png', style='max-width: 30%;'> </img> <p><strong>你是否选择发射武器？</strong></p>","0",""
"","","","","","html-keyboard-response","46","265655","0.0-4.0-0.21","53","1","2022-11-27 12:28:42","49aca292d257f58668169b9fbab864ae","101.228.42.199","Mozilla/5.0 (Windows NT 10.0; Win64; x64) AppleWebKit/537.36 (KHTML, like Gecko) Chrome/99.0.4844.51 Safari/537.36","WebKit","Chrome","99.0.4844.51","Windows","10.0","null","<div style=""font-size:60px;"">+</div>","null",""
"","","","","","html-button-response","47","268591","0.0-4.0-1.21","53","1","2022-11-27 12:28:42","49aca292d257f58668169b9fbab864ae","101.228.42.199","Mozilla/5.0 (Windows NT 10.0; Win64; x64) AppleWebKit/537.36 (KHTML, like Gecko) Chrome/99.0.4844.51 Safari/537.36","WebKit","Chrome","99.0.4844.51","Windows","10.0","2931","<p>作为军队的指挥官，你可以选择发射导弹杀死 <strong>9名</strong> 敌国士兵，但会误杀附近的 <strong>1名</strong> 敌国平民。</p> <p>平民照片如下图所示。</p> <p></p> <img src='stimuli/faces/PFM6.jpg', style='max-width: 30%;'> </img> <p><strong>你是否选择发射武器？</strong></p>","0",""
"","","","","","html-keyboard-response","48","269601","0.0-4.0-0.22","53","1","2022-11-27 12:28:42","49aca292d257f58668169b9fbab864ae","101.228.42.199","Mozilla/5.0 (Windows NT 10.0; Win64; x64) AppleWebKit/537.36 (KHTML, like Gecko) Chrome/99.0.4844.51 Safari/537.36","WebKit","Chrome","99.0.4844.51","Windows","10.0","null","<div style=""font-size:60px;"">+</div>","null",""
"","","","","","html-button-response","49","271327","0.0-4.0-1.22","53","1","2022-11-27 12:28:42","49aca292d257f58668169b9fbab864ae","101.228.42.199","Mozilla/5.0 (Windows NT 10.0; Win64; x64) AppleWebKit/537.36 (KHTML, like Gecko) Chrome/99.0.4844.51 Safari/537.36","WebKit","Chrome","99.0.4844.51","Windows","10.0","1720","<p>作为军队的指挥官，你可以选择发射导弹杀死 <strong>7名</strong> 敌国士兵，但会炸毁附近的 <strong>1棵</strong> 敌国树木。</p> <p>树木的照片如下图所示。</p> <p></p> <img src='stimuli/trees/13.png', style='max-width: 30%;'> </img> <p><strong>你是否选择发射武器？</strong></p>","0",""
"","","","","","html-keyboard-response","50","272332","0.0-4.0-0.23","53","1","2022-11-27 12:28:42","49aca292d257f58668169b9fbab864ae","101.228.42.199","Mozilla/5.0 (Windows NT 10.0; Win64; x64) AppleWebKit/537.36 (KHTML, like Gecko) Chrome/99.0.4844.51 Safari/537.36","WebKit","Chrome","99.0.4844.51","Windows","10.0","null","<div style=""font-size:60px;"">+</div>","null",""
"","","","","","html-button-response","51","275864","0.0-4.0-1.23","53","1","2022-11-27 12:28:42","49aca292d257f58668169b9fbab864ae","101.228.42.199","Mozilla/5.0 (Windows NT 10.0; Win64; x64) AppleWebKit/537.36 (KHTML, like Gecko) Chrome/99.0.4844.51 Safari/537.36","WebKit","Chrome","99.0.4844.51","Windows","10.0","3527","<p>作为军队的指挥官，你可以选择发射导弹杀死 <strong>6名</strong> 敌国士兵，但会炸毁附近的 <strong>1棵</strong> 敌国树木。</p> <p>树木的照片如下图所示。</p> <p></p> <img src='stimuli/trees/1.png', style='max-width: 30%;'> </img> <p><strong>你是否选择发射武器？</strong></p>","0",""
"","","","","","html-keyboard-response","52","276878","0.0-4.0-0.24","53","1","2022-11-27 12:28:42","49aca292d257f58668169b9fbab864ae","101.228.42.199","Mozilla/5.0 (Windows NT 10.0; Win64; x64) AppleWebKit/537.36 (KHTML, like Gecko) Chrome/99.0.4844.51 Safari/537.36","WebKit","Chrome","99.0.4844.51","Windows","10.0","null","<div style=""font-size:60px;"">+</div>","null",""
"","","","","","html-button-response","53","278991","0.0-4.0-1.24","53","1","2022-11-27 12:28:42","49aca292d257f58668169b9fbab864ae","101.228.42.199","Mozilla/5.0 (Windows NT 10.0; Win64; x64) AppleWebKit/537.36 (KHTML, like Gecko) Chrome/99.0.4844.51 Safari/537.36","WebKit","Chrome","99.0.4844.51","Windows","10.0","2109","<p>作为军队的指挥官，你可以选择发射导弹杀死 <strong>4名</strong> 敌国士兵，但会误杀附近的 <strong>1名</strong> 敌国平民。</p> <p>平民照片如下图所示。</p> <p></p> <img src='stimuli/faces/PFF5.jpg', style='max-width: 30%;'> </img> <p><strong>你是否选择发射武器？</strong></p>","1",""
"","","","","","html-keyboard-response","54","280004","0.0-4.0-0.25","53","1","2022-11-27 12:28:42","49aca292d257f58668169b9fbab864ae","101.228.42.199","Mozilla/5.0 (Windows NT 10.0; Win64; x64) AppleWebKit/537.36 (KHTML, like Gecko) Chrome/99.0.4844.51 Safari/537.36","WebKit","Chrome","99.0.4844.51","Windows","10.0","null","<div style=""font-size:60px;"">+</div>","null",""
"","","","","","html-button-response","55","287487","0.0-4.0-1.25","53","1","2022-11-27 12:28:42","49aca292d257f58668169b9fbab864ae","101.228.42.199","Mozilla/5.0 (Windows NT 10.0; Win64; x64) AppleWebKit/537.36 (KHTML, like Gecko) Chrome/99.0.4844.51 Safari/537.36","WebKit","Chrome","99.0.4844.51","Windows","10.0","7478","<p>作为军队的指挥官，你可以选择发射导弹杀死 <strong>8名</strong> 敌国士兵，但会炸毁附近的 <strong>1棵</strong> 敌国树木。</p> <p>树木的照片如下图所示。</p> <p></p> <img src='stimuli/trees/5.png', style='max-width: 30%;'> </img> <p><strong>你是否选择发射武器？</strong></p>","0",""
"","","","","","html-keyboard-response","56","288494","0.0-4.0-0.26","53","1","2022-11-27 12:28:42","49aca292d257f58668169b9fbab864ae","101.228.42.199","Mozilla/5.0 (Windows NT 10.0; Win64; x64) AppleWebKit/537.36 (KHTML, like Gecko) Chrome/99.0.4844.51 Safari/537.36","WebKit","Chrome","99.0.4844.51","Windows","10.0","null","<div style=""font-size:60px;"">+</div>","null",""
"","","","","","html-button-response","57","310728","0.0-4.0-1.26","53","1","2022-11-27 12:28:42","49aca292d257f58668169b9fbab864ae","101.228.42.199","Mozilla/5.0 (Windows NT 10.0; Win64; x64) AppleWebKit/537.36 (KHTML, like Gecko) Chrome/99.0.4844.51 Safari/537.36","WebKit","Chrome","99.0.4844.51","Windows","10.0","22226","<p>作为军队的指挥官，你可以选择发射导弹杀死 <strong>10名</strong> 敌国士兵，但会炸毁附近的 <strong>1棵</strong> 敌国树木。</p> <p>树木的照片如下图所示。</p> <p></p> <img src='stimuli/trees/8.png', style='max-width: 30%;'> </img> <p><strong>你是否选择发射武器？</strong></p>","1",""
"","","","","","html-keyboard-response","58","311742","0.0-4.0-0.27","53","1","2022-11-27 12:28:42","49aca292d257f58668169b9fbab864ae","101.228.42.199","Mozilla/5.0 (Windows NT 10.0; Win64; x64) AppleWebKit/537.36 (KHTML, like Gecko) Chrome/99.0.4844.51 Safari/537.36","WebKit","Chrome","99.0.4844.51","Windows","10.0","null","<div style=""font-size:60px;"">+</div>","null",""
"","","","","","html-button-response","59","315400","0.0-4.0-1.27","53","1","2022-11-27 12:28:42","49aca292d257f58668169b9fbab864ae","101.228.42.199","Mozilla/5.0 (Windows NT 10.0; Win64; x64) AppleWebKit/537.36 (KHTML, like Gecko) Chrome/99.0.4844.51 Safari/537.36","WebKit","Chrome","99.0.4844.51","Windows","10.0","3651","<p>作为军队的指挥官，你可以选择发射导弹杀死 <strong>2名</strong> 敌国士兵，但会误杀附近的 <strong>1名</strong> 敌国平民。</p> <p>平民照片如下图所示。</p> <p></p> <img src='stimuli/faces/PFM1.jpg', style='max-width: 30%;'> </img> <p><strong>你是否选择发射武器？</strong></p>","0",""
"","","","","","html-keyboard-response","60","316403","0.0-4.0-0.28","53","1","2022-11-27 12:28:42","49aca292d257f58668169b9fbab864ae","101.228.42.199","Mozilla/5.0 (Windows NT 10.0; Win64; x64) AppleWebKit/537.36 (KHTML, like Gecko) Chrome/99.0.4844.51 Safari/537.36","WebKit","Chrome","99.0.4844.51","Windows","10.0","null","<div style=""font-size:60px;"">+</div>","null",""
"","","","","","html-button-response","61","328976","0.0-4.0-1.28","53","1","2022-11-27 12:28:42","49aca292d257f58668169b9fbab864ae","101.228.42.199","Mozilla/5.0 (Windows NT 10.0; Win64; x64) AppleWebKit/537.36 (KHTML, like Gecko) Chrome/99.0.4844.51 Safari/537.36","WebKit","Chrome","99.0.4844.51","Windows","10.0","12570","<p>作为军队的指挥官，你可以选择发射导弹杀死 <strong>8名</strong> 敌国士兵，但会误杀附近的 <strong>1名</strong> 敌国平民。</p> <p>平民照片如下图所示。</p> <p></p> <img src='stimuli/faces/PFF8.jpg', style='max-width: 30%;'> </img> <p><strong>你是否选择发射武器？</strong></p>","0",""
"","","","","","html-keyboard-response","62","329979","0.0-4.0-0.29","53","1","2022-11-27 12:28:42","49aca292d257f58668169b9fbab864ae","101.228.42.199","Mozilla/5.0 (Windows NT 10.0; Win64; x64) AppleWebKit/537.36 (KHTML, like Gecko) Chrome/99.0.4844.51 Safari/537.36","WebKit","Chrome","99.0.4844.51","Windows","10.0","null","<div style=""font-size:60px;"">+</div>","null",""
"","","","","","html-button-response","63","331616","0.0-4.0-1.29","53","1","2022-11-27 12:28:42","49aca292d257f58668169b9fbab864ae","101.228.42.199","Mozilla/5.0 (Windows NT 10.0; Win64; x64) AppleWebKit/537.36 (KHTML, like Gecko) Chrome/99.0.4844.51 Safari/537.36","WebKit","Chrome","99.0.4844.51","Windows","10.0","1630","<p>作为军队的指挥官，你可以选择发射导弹杀死 <strong>9名</strong> 敌国士兵，但会误杀附近的 <strong>1名</strong> 敌国平民。</p> <p>平民照片如下图所示。</p> <p></p> <img src='stimuli/faces/PFF4.jpg', style='max-width: 30%;'> </img> <p><strong>你是否选择发射武器？</strong></p>","0",""
"","","","","","html-keyboard-response","64","332632","0.0-4.0-0.30","53","1","2022-11-27 12:28:42","49aca292d257f58668169b9fbab864ae","101.228.42.199","Mozilla/5.0 (Windows NT 10.0; Win64; x64) AppleWebKit/537.36 (KHTML, like Gecko) Chrome/99.0.4844.51 Safari/537.36","WebKit","Chrome","99.0.4844.51","Windows","10.0","null","<div style=""font-size:60px;"">+</div>","null",""
"","","","","","html-button-response","65","334649","0.0-4.0-1.30","53","1","2022-11-27 12:28:42","49aca292d257f58668169b9fbab864ae","101.228.42.199","Mozilla/5.0 (Windows NT 10.0; Win64; x64) AppleWebKit/537.36 (KHTML, like Gecko) Chrome/99.0.4844.51 Safari/537.36","WebKit","Chrome","99.0.4844.51","Windows","10.0","2012","<p>作为军队的指挥官，你可以选择发射导弹杀死 <strong>10名</strong> 敌国士兵，但会炸毁附近的 <strong>1棵</strong> 敌国树木。</p> <p>树木的照片如下图所示。</p> <p></p> <img src='stimuli/trees/15.png', style='max-width: 30%;'> </img> <p><strong>你是否选择发射武器？</strong></p>","0",""
"","","","","","html-keyboard-response","66","335652","0.0-4.0-0.31","53","1","2022-11-27 12:28:42","49aca292d257f58668169b9fbab864ae","101.228.42.199","Mozilla/5.0 (Windows NT 10.0; Win64; x64) AppleWebKit/537.36 (KHTML, like Gecko) Chrome/99.0.4844.51 Safari/537.36","WebKit","Chrome","99.0.4844.51","Windows","10.0","null","<div style=""font-size:60px;"">+</div>","null",""
"","","","","","html-button-response","67","338656","0.0-4.0-1.31","53","1","2022-11-27 12:28:42","49aca292d257f58668169b9fbab864ae","101.228.42.199","Mozilla/5.0 (Windows NT 10.0; Win64; x64) AppleWebKit/537.36 (KHTML, like Gecko) Chrome/99.0.4844.51 Safari/537.36","WebKit","Chrome","99.0.4844.51","Windows","10.0","2999","<p>作为军队的指挥官，你可以选择发射导弹杀死 <strong>4名</strong> 敌国士兵，但会炸毁附近的 <strong>1棵</strong> 敌国树木。</p> <p>树木的照片如下图所示。</p> <p></p> <img src='stimuli/trees/6.png', style='max-width: 30%;'> </img> <p><strong>你是否选择发射武器？</strong></p>","1",""
"","","","","","html-keyboard-response","68","339658","0.0-4.0-0.32","53","1","2022-11-27 12:28:42","49aca292d257f58668169b9fbab864ae","101.228.42.199","Mozilla/5.0 (Windows NT 10.0; Win64; x64) AppleWebKit/537.36 (KHTML, like Gecko) Chrome/99.0.4844.51 Safari/537.36","WebKit","Chrome","99.0.4844.51","Windows","10.0","null","<div style=""font-size:60px;"">+</div>","null",""
"","","","","","html-button-response","69","344737","0.0-4.0-1.32","53","1","2022-11-27 12:28:42","49aca292d257f58668169b9fbab864ae","101.228.42.199","Mozilla/5.0 (Windows NT 10.0; Win64; x64) AppleWebKit/537.36 (KHTML, like Gecko) Chrome/99.0.4844.51 Safari/537.36","WebKit","Chrome","99.0.4844.51","Windows","10.0","5072","<p>作为军队的指挥官，你可以选择发射导弹杀死 <strong>1名</strong> 敌国士兵，但会误杀附近的 <strong>1名</strong> 敌国平民。</p> <p>平民照片如下图所示。</p> <p></p> <img src='stimuli/faces/PFM6.jpg', style='max-width: 30%;'> </img> <p><strong>你是否选择发射武器？</strong></p>","1",""
"","","","","","html-keyboard-response","70","345746","0.0-4.0-0.33","53","1","2022-11-27 12:28:42","49aca292d257f58668169b9fbab864ae","101.228.42.199","Mozilla/5.0 (Windows NT 10.0; Win64; x64) AppleWebKit/537.36 (KHTML, like Gecko) Chrome/99.0.4844.51 Safari/537.36","WebKit","Chrome","99.0.4844.51","Windows","10.0","null","<div style=""font-size:60px;"">+</div>","null",""
"","","","","","html-button-response","71","349512","0.0-4.0-1.33","53","1","2022-11-27 12:28:42","49aca292d257f58668169b9fbab864ae","101.228.42.199","Mozilla/5.0 (Windows NT 10.0; Win64; x64) AppleWebKit/537.36 (KHTML, like Gecko) Chrome/99.0.4844.51 Safari/537.36","WebKit","Chrome","99.0.4844.51","Windows","10.0","3760","<p>作为军队的指挥官，你可以选择发射导弹杀死 <strong>5名</strong> 敌国士兵，但会误杀附近的 <strong>1名</strong> 敌国平民。</p> <p>平民照片如下图所示。</p> <p></p> <img src='stimuli/faces/PFF6.jpg', style='max-width: 30%;'> </img> <p><strong>你是否选择发射武器？</strong></p>","0",""
"","","","","","html-keyboard-response","72","350528","0.0-4.0-0.34","53","1","2022-11-27 12:28:42","49aca292d257f58668169b9fbab864ae","101.228.42.199","Mozilla/5.0 (Windows NT 10.0; Win64; x64) AppleWebKit/537.36 (KHTML, like Gecko) Chrome/99.0.4844.51 Safari/537.36","WebKit","Chrome","99.0.4844.51","Windows","10.0","null","<div style=""font-size:60px;"">+</div>","null",""
"","","","","","html-button-response","73","352448","0.0-4.0-1.34","53","1","2022-11-27 12:28:42","49aca292d257f58668169b9fbab864ae","101.228.42.199","Mozilla/5.0 (Windows NT 10.0; Win64; x64) AppleWebKit/537.36 (KHTML, like Gecko) Chrome/99.0.4844.51 Safari/537.36","WebKit","Chrome","99.0.4844.51","Windows","10.0","1914","<p>作为军队的指挥官，你可以选择发射导弹杀死 <strong>2名</strong> 敌国士兵，但会炸毁附近的 <strong>1棵</strong> 敌国树木。</p> <p>树木的照片如下图所示。</p> <p></p> <img src='stimuli/trees/12.png', style='max-width: 30%;'> </img> <p><strong>你是否选择发射武器？</strong></p>","1",""
"","","","","","html-keyboard-response","74","353450","0.0-4.0-0.35","53","1","2022-11-27 12:28:42","49aca292d257f58668169b9fbab864ae","101.228.42.199","Mozilla/5.0 (Windows NT 10.0; Win64; x64) AppleWebKit/537.36 (KHTML, like Gecko) Chrome/99.0.4844.51 Safari/537.36","WebKit","Chrome","99.0.4844.51","Windows","10.0","null","<div style=""font-size:60px;"">+</div>","null",""
"","","","","","html-button-response","75","354888","0.0-4.0-1.35","53","1","2022-11-27 12:28:42","49aca292d257f58668169b9fbab864ae","101.228.42.199","Mozilla/5.0 (Windows NT 10.0; Win64; x64) AppleWebKit/537.36 (KHTML, like Gecko) Chrome/99.0.4844.51 Safari/537.36","WebKit","Chrome","99.0.4844.51","Windows","10.0","1432","<p>作为军队的指挥官，你可以选择发射导弹杀死 <strong>2名</strong> 敌国士兵，但会误杀附近的 <strong>1名</strong> 敌国平民。</p> <p>平民照片如下图所示。</p> <p></p> <img src='stimuli/faces/PFF7.jpg', style='max-width: 30%;'> </img> <p><strong>你是否选择发射武器？</strong></p>","1",""
"","","","","","html-keyboard-response","76","355890","0.0-4.0-0.36","53","1","2022-11-27 12:28:42","49aca292d257f58668169b9fbab864ae","101.228.42.199","Mozilla/5.0 (Windows NT 10.0; Win64; x64) AppleWebKit/537.36 (KHTML, like Gecko) Chrome/99.0.4844.51 Safari/537.36","WebKit","Chrome","99.0.4844.51","Windows","10.0","null","<div style=""font-size:60px;"">+</div>","null",""
"","","","","","html-button-response","77","358968","0.0-4.0-1.36","53","1","2022-11-27 12:28:42","49aca292d257f58668169b9fbab864ae","101.228.42.199","Mozilla/5.0 (Windows NT 10.0; Win64; x64) AppleWebKit/537.36 (KHTML, like Gecko) Chrome/99.0.4844.51 Safari/537.36","WebKit","Chrome","99.0.4844.51","Windows","10.0","3076","<p>作为军队的指挥官，你可以选择发射导弹杀死 <strong>5名</strong> 敌国士兵，但会炸毁附近的 <strong>1棵</strong> 敌国树木。</p> <p>树木的照片如下图所示。</p> <p></p> <img src='stimuli/trees/9.png', style='max-width: 30%;'> </img> <p><strong>你是否选择发射武器？</strong></p>","1",""
"","","","","","html-keyboard-response","78","359970","0.0-4.0-0.37","53","1","2022-11-27 12:28:42","49aca292d257f58668169b9fbab864ae","101.228.42.199","Mozilla/5.0 (Windows NT 10.0; Win64; x64) AppleWebKit/537.36 (KHTML, like Gecko) Chrome/99.0.4844.51 Safari/537.36","WebKit","Chrome","99.0.4844.51","Windows","10.0","null","<div style=""font-size:60px;"">+</div>","null",""
"","","","","","html-button-response","79","363152","0.0-4.0-1.37","53","1","2022-11-27 12:28:42","49aca292d257f58668169b9fbab864ae","101.228.42.199","Mozilla/5.0 (Windows NT 10.0; Win64; x64) AppleWebKit/537.36 (KHTML, like Gecko) Chrome/99.0.4844.51 Safari/537.36","WebKit","Chrome","99.0.4844.51","Windows","10.0","3175","<p>作为军队的指挥官，你可以选择发射导弹杀死 <strong>5名</strong> 敌国士兵，但会误杀附近的 <strong>1名</strong> 敌国平民。</p> <p>平民照片如下图所示。</p> <p></p> <img src='stimuli/faces/PFM2.jpg', style='max-width: 30%;'> </img> <p><strong>你是否选择发射武器？</strong></p>","0",""
"","","","","","html-keyboard-response","80","364168","0.0-4.0-0.38","53","1","2022-11-27 12:28:42","49aca292d257f58668169b9fbab864ae","101.228.42.199","Mozilla/5.0 (Windows NT 10.0; Win64; x64) AppleWebKit/537.36 (KHTML, like Gecko) Chrome/99.0.4844.51 Safari/537.36","WebKit","Chrome","99.0.4844.51","Windows","10.0","null","<div style=""font-size:60px;"">+</div>","null",""
"","","","","","html-button-response","81","365784","0.0-4.0-1.38","53","1","2022-11-27 12:28:42","49aca292d257f58668169b9fbab864ae","101.228.42.199","Mozilla/5.0 (Windows NT 10.0; Win64; x64) AppleWebKit/537.36 (KHTML, like Gecko) Chrome/99.0.4844.51 Safari/537.36","WebKit","Chrome","99.0.4844.51","Windows","10.0","1607","<p>作为军队的指挥官，你可以选择发射导弹杀死 <strong>4名</strong> 敌国士兵，但会炸毁附近的 <strong>1棵</strong> 敌国树木。</p> <p>树木的照片如下图所示。</p> <p></p> <img src='stimuli/trees/7.png', style='max-width: 30%;'> </img> <p><strong>你是否选择发射武器？</strong></p>","1",""
"","","","","","html-keyboard-response","82","366800","0.0-4.0-0.39","53","1","2022-11-27 12:28:42","49aca292d257f58668169b9fbab864ae","101.228.42.199","Mozilla/5.0 (Windows NT 10.0; Win64; x64) AppleWebKit/537.36 (KHTML, like Gecko) Chrome/99.0.4844.51 Safari/537.36","WebKit","Chrome","99.0.4844.51","Windows","10.0","null","<div style=""font-size:60px;"">+</div>","null",""
"","","","","","html-button-response","83","368688","0.0-4.0-1.39","53","1","2022-11-27 12:28:42","49aca292d257f58668169b9fbab864ae","101.228.42.199","Mozilla/5.0 (Windows NT 10.0; Win64; x64) AppleWebKit/537.36 (KHTML, like Gecko) Chrome/99.0.4844.51 Safari/537.36","WebKit","Chrome","99.0.4844.51","Windows","10.0","1881","<p>作为军队的指挥官，你可以选择发射导弹杀死 <strong>2名</strong> 敌国士兵，但会炸毁附近的 <strong>1棵</strong> 敌国树木。</p> <p>树木的照片如下图所示。</p> <p></p> <img src='stimuli/trees/10.png', style='max-width: 30%;'> </img> <p><strong>你是否选择发射武器？</strong></p>","1",""
"","","","","","html-keyboard-response","84","369690","0.0-4.0-0.40","53","1","2022-11-27 12:28:42","49aca292d257f58668169b9fbab864ae","101.228.42.199","Mozilla/5.0 (Windows NT 10.0; Win64; x64) AppleWebKit/537.36 (KHTML, like Gecko) Chrome/99.0.4844.51 Safari/537.36","WebKit","Chrome","99.0.4844.51","Windows","10.0","null","<div style=""font-size:60px;"">+</div>","null",""
"","","","","","html-button-response","85","371351","0.0-4.0-1.40","53","1","2022-11-27 12:28:42","49aca292d257f58668169b9fbab864ae","101.228.42.199","Mozilla/5.0 (Windows NT 10.0; Win64; x64) AppleWebKit/537.36 (KHTML, like Gecko) Chrome/99.0.4844.51 Safari/537.36","WebKit","Chrome","99.0.4844.51","Windows","10.0","1655","<p>作为军队的指挥官，你可以选择发射导弹杀死 <strong>3名</strong> 敌国士兵，但会误杀附近的 <strong>1名</strong> 敌国平民。</p> <p>平民照片如下图所示。</p> <p></p> <img src='stimuli/faces/PFF3.jpg', style='max-width: 30%;'> </img> <p><strong>你是否选择发射武器？</strong></p>","1",""
"","","","","","html-keyboard-response","86","372364","0.0-4.0-0.41","53","1","2022-11-27 12:28:42","49aca292d257f58668169b9fbab864ae","101.228.42.199","Mozilla/5.0 (Windows NT 10.0; Win64; x64) AppleWebKit/537.36 (KHTML, like Gecko) Chrome/99.0.4844.51 Safari/537.36","WebKit","Chrome","99.0.4844.51","Windows","10.0","null","<div style=""font-size:60px;"">+</div>","null",""
"","","","","","html-button-response","87","377015","0.0-4.0-1.41","53","1","2022-11-27 12:28:42","49aca292d257f58668169b9fbab864ae","101.228.42.199","Mozilla/5.0 (Windows NT 10.0; Win64; x64) AppleWebKit/537.36 (KHTML, like Gecko) Chrome/99.0.4844.51 Safari/537.36","WebKit","Chrome","99.0.4844.51","Windows","10.0","4643","<p>作为军队的指挥官，你可以选择发射导弹杀死 <strong>4名</strong> 敌国士兵，但会误杀附近的 <strong>1名</strong> 敌国平民。</p> <p>平民照片如下图所示。</p> <p></p> <img src='stimuli/faces/PFF8.jpg', style='max-width: 30%;'> </img> <p><strong>你是否选择发射武器？</strong></p>","0",""
"","","","","","html-keyboard-response","88","378018","0.0-4.0-0.42","53","1","2022-11-27 12:28:42","49aca292d257f58668169b9fbab864ae","101.228.42.199","Mozilla/5.0 (Windows NT 10.0; Win64; x64) AppleWebKit/537.36 (KHTML, like Gecko) Chrome/99.0.4844.51 Safari/537.36","WebKit","Chrome","99.0.4844.51","Windows","10.0","null","<div style=""font-size:60px;"">+</div>","null",""
"","","","","","html-button-response","89","379655","0.0-4.0-1.42","53","1","2022-11-27 12:28:42","49aca292d257f58668169b9fbab864ae","101.228.42.199","Mozilla/5.0 (Windows NT 10.0; Win64; x64) AppleWebKit/537.36 (KHTML, like Gecko) Chrome/99.0.4844.51 Safari/537.36","WebKit","Chrome","99.0.4844.51","Windows","10.0","1635","<p>作为军队的指挥官，你可以选择发射导弹杀死 <strong>3名</strong> 敌国士兵，但会炸毁附近的 <strong>1棵</strong> 敌国树木。</p> <p>树木的照片如下图所示。</p> <p></p> <img src='stimuli/trees/11.png', style='max-width: 30%;'> </img> <p><strong>你是否选择发射武器？</strong></p>","1",""
"","","","","","html-keyboard-response","90","380669","0.0-4.0-0.43","53","1","2022-11-27 12:28:42","49aca292d257f58668169b9fbab864ae","101.228.42.199","Mozilla/5.0 (Windows NT 10.0; Win64; x64) AppleWebKit/537.36 (KHTML, like Gecko) Chrome/99.0.4844.51 Safari/537.36","WebKit","Chrome","99.0.4844.51","Windows","10.0","null","<div style=""font-size:60px;"">+</div>","null",""
"","","","","","html-button-response","91","382479","0.0-4.0-1.43","53","1","2022-11-27 12:28:42","49aca292d257f58668169b9fbab864ae","101.228.42.199","Mozilla/5.0 (Windows NT 10.0; Win64; x64) AppleWebKit/537.36 (KHTML, like Gecko) Chrome/99.0.4844.51 Safari/537.36","WebKit","Chrome","99.0.4844.51","Windows","10.0","1802","<p>作为军队的指挥官，你可以选择发射导弹杀死 <strong>7名</strong> 敌国士兵，但会炸毁附近的 <strong>1棵</strong> 敌国树木。</p> <p>树木的照片如下图所示。</p> <p></p> <img src='stimuli/trees/6.png', style='max-width: 30%;'> </img> <p><strong>你是否选择发射武器？</strong></p>","0",""
"","","","","","html-keyboard-response","92","383482","0.0-4.0-0.44","53","1","2022-11-27 12:28:42","49aca292d257f58668169b9fbab864ae","101.228.42.199","Mozilla/5.0 (Windows NT 10.0; Win64; x64) AppleWebKit/537.36 (KHTML, like Gecko) Chrome/99.0.4844.51 Safari/537.36","WebKit","Chrome","99.0.4844.51","Windows","10.0","null","<div style=""font-size:60px;"">+</div>","null",""
"","","","","","html-button-response","93","386112","0.0-4.0-1.44","53","1","2022-11-27 12:28:42","49aca292d257f58668169b9fbab864ae","101.228.42.199","Mozilla/5.0 (Windows NT 10.0; Win64; x64) AppleWebKit/537.36 (KHTML, like Gecko) Chrome/99.0.4844.51 Safari/537.36","WebKit","Chrome","99.0.4844.51","Windows","10.0","2623","<p>作为军队的指挥官，你可以选择发射导弹杀死 <strong>5名</strong> 敌国士兵，但会炸毁附近的 <strong>1棵</strong> 敌国树木。</p> <p>树木的照片如下图所示。</p> <p></p> <img src='stimuli/trees/16.png', style='max-width: 30%;'> </img> <p><strong>你是否选择发射武器？</strong></p>","1",""
"","","","","","html-keyboard-response","94","387130","0.0-4.0-0.45","53","1","2022-11-27 12:28:42","49aca292d257f58668169b9fbab864ae","101.228.42.199","Mozilla/5.0 (Windows NT 10.0; Win64; x64) AppleWebKit/537.36 (KHTML, like Gecko) Chrome/99.0.4844.51 Safari/537.36","WebKit","Chrome","99.0.4844.51","Windows","10.0","null","<div style=""font-size:60px;"">+</div>","null",""
"","","","","","html-button-response","95","398959","0.0-4.0-1.45","53","1","2022-11-27 12:28:42","49aca292d257f58668169b9fbab864ae","101.228.42.199","Mozilla/5.0 (Windows NT 10.0; Win64; x64) AppleWebKit/537.36 (KHTML, like Gecko) Chrome/99.0.4844.51 Safari/537.36","WebKit","Chrome","99.0.4844.51","Windows","10.0","11821","<p>作为军队的指挥官，你可以选择发射导弹杀死 <strong>8名</strong> 敌国士兵，但会误杀附近的 <strong>1名</strong> 敌国平民。</p> <p>平民照片如下图所示。</p> <p></p> <img src='stimuli/faces/PFM1.jpg', style='max-width: 30%;'> </img> <p><strong>你是否选择发射武器？</strong></p>","0",""
"","","","","","html-keyboard-response","96","399970","0.0-4.0-0.46","53","1","2022-11-27 12:28:42","49aca292d257f58668169b9fbab864ae","101.228.42.199","Mozilla/5.0 (Windows NT 10.0; Win64; x64) AppleWebKit/537.36 (KHTML, like Gecko) Chrome/99.0.4844.51 Safari/537.36","WebKit","Chrome","99.0.4844.51","Windows","10.0","null","<div style=""font-size:60px;"">+</div>","null",""
"","","","","","html-button-response","97","401943","0.0-4.0-1.46","53","1","2022-11-27 12:28:42","49aca292d257f58668169b9fbab864ae","101.228.42.199","Mozilla/5.0 (Windows NT 10.0; Win64; x64) AppleWebKit/537.36 (KHTML, like Gecko) Chrome/99.0.4844.51 Safari/537.36","WebKit","Chrome","99.0.4844.51","Windows","10.0","1964","<p>作为军队的指挥官，你可以选择发射导弹杀死 <strong>4名</strong> 敌国士兵，但会误杀附近的 <strong>1名</strong> 敌国平民。</p> <p>平民照片如下图所示。</p> <p></p> <img src='stimuli/faces/PFF2.jpg', style='max-width: 30%;'> </img> <p><strong>你是否选择发射武器？</strong></p>","1",""
"","","","","","html-keyboard-response","98","402953","0.0-4.0-0.47","53","1","2022-11-27 12:28:42","49aca292d257f58668169b9fbab864ae","101.228.42.199","Mozilla/5.0 (Windows NT 10.0; Win64; x64) AppleWebKit/537.36 (KHTML, like Gecko) Chrome/99.0.4844.51 Safari/537.36","WebKit","Chrome","99.0.4844.51","Windows","10.0","null","<div style=""font-size:60px;"">+</div>","null",""
"","","","","","html-button-response","99","404575","0.0-4.0-1.47","53","1","2022-11-27 12:28:42","49aca292d257f58668169b9fbab864ae","101.228.42.199","Mozilla/5.0 (Windows NT 10.0; Win64; x64) AppleWebKit/537.36 (KHTML, like Gecko) Chrome/99.0.4844.51 Safari/537.36","WebKit","Chrome","99.0.4844.51","Windows","10.0","1614","<p>作为军队的指挥官，你可以选择发射导弹杀死 <strong>2名</strong> 敌国士兵，但会炸毁附近的 <strong>1棵</strong> 敌国树木。</p> <p>树木的照片如下图所示。</p> <p></p> <img src='stimuli/trees/8.png', style='max-width: 30%;'> </img> <p><strong>你是否选择发射武器？</strong></p>","1",""
"","","","","","html-keyboard-response","100","405580","0.0-4.0-0.48","53","1","2022-11-27 12:28:42","49aca292d257f58668169b9fbab864ae","101.228.42.199","Mozilla/5.0 (Windows NT 10.0; Win64; x64) AppleWebKit/537.36 (KHTML, like Gecko) Chrome/99.0.4844.51 Safari/537.36","WebKit","Chrome","99.0.4844.51","Windows","10.0","null","<div style=""font-size:60px;"">+</div>","null",""
"","","","","","html-button-response","101","409407","0.0-4.0-1.48","53","1","2022-11-27 12:28:42","49aca292d257f58668169b9fbab864ae","101.228.42.199","Mozilla/5.0 (Windows NT 10.0; Win64; x64) AppleWebKit/537.36 (KHTML, like Gecko) Chrome/99.0.4844.51 Safari/537.36","WebKit","Chrome","99.0.4844.51","Windows","10.0","3820","<p>作为军队的指挥官，你可以选择发射导弹杀死 <strong>6名</strong> 敌国士兵，但会炸毁附近的 <strong>1棵</strong> 敌国树木。</p> <p>树木的照片如下图所示。</p> <p></p> <img src='stimuli/trees/4.png', style='max-width: 30%;'> </img> <p><strong>你是否选择发射武器？</strong></p>","1",""
"","","","","","html-keyboard-response","102","410412","0.0-4.0-0.49","53","1","2022-11-27 12:28:42","49aca292d257f58668169b9fbab864ae","101.228.42.199","Mozilla/5.0 (Windows NT 10.0; Win64; x64) AppleWebKit/537.36 (KHTML, like Gecko) Chrome/99.0.4844.51 Safari/537.36","WebKit","Chrome","99.0.4844.51","Windows","10.0","null","<div style=""font-size:60px;"">+</div>","null",""
"","","","","","html-button-response","103","414631","0.0-4.0-1.49","53","1","2022-11-27 12:28:42","49aca292d257f58668169b9fbab864ae","101.228.42.199","Mozilla/5.0 (Windows NT 10.0; Win64; x64) AppleWebKit/537.36 (KHTML, like Gecko) Chrome/99.0.4844.51 Safari/537.36","WebKit","Chrome","99.0.4844.51","Windows","10.0","4211","<p>作为军队的指挥官，你可以选择发射导弹杀死 <strong>2名</strong> 敌国士兵，但会误杀附近的 <strong>1名</strong> 敌国平民。</p> <p>平民照片如下图所示。</p> <p></p> <img src='stimuli/faces/PFF4.jpg', style='max-width: 30%;'> </img> <p><strong>你是否选择发射武器？</strong></p>","1",""
"","","","","","html-keyboard-response","104","415636","0.0-4.0-0.50","53","1","2022-11-27 12:28:42","49aca292d257f58668169b9fbab864ae","101.228.42.199","Mozilla/5.0 (Windows NT 10.0; Win64; x64) AppleWebKit/537.36 (KHTML, like Gecko) Chrome/99.0.4844.51 Safari/537.36","WebKit","Chrome","99.0.4844.51","Windows","10.0","null","<div style=""font-size:60px;"">+</div>","null",""
"","","","","","html-button-response","105","417879","0.0-4.0-1.50","53","1","2022-11-27 12:28:42","49aca292d257f58668169b9fbab864ae","101.228.42.199","Mozilla/5.0 (Windows NT 10.0; Win64; x64) AppleWebKit/537.36 (KHTML, like Gecko) Chrome/99.0.4844.51 Safari/537.36","WebKit","Chrome","99.0.4844.51","Windows","10.0","2234","<p>作为军队的指挥官，你可以选择发射导弹杀死 <strong>9名</strong> 敌国士兵，但会误杀附近的 <strong>1名</strong> 敌国平民。</p> <p>平民照片如下图所示。</p> <p></p> <img src='stimuli/faces/PFF7.jpg', style='max-width: 30%;'> </img> <p><strong>你是否选择发射武器？</strong></p>","0",""
"","","","","","html-keyboard-response","106","418882","0.0-4.0-0.51","53","1","2022-11-27 12:28:42","49aca292d257f58668169b9fbab864ae","101.228.42.199","Mozilla/5.0 (Windows NT 10.0; Win64; x64) AppleWebKit/537.36 (KHTML, like Gecko) Chrome/99.0.4844.51 Safari/537.36","WebKit","Chrome","99.0.4844.51","Windows","10.0","null","<div style=""font-size:60px;"">+</div>","null",""
"","","","","","html-button-response","107","420431","0.0-4.0-1.51","53","1","2022-11-27 12:28:42","49aca292d257f58668169b9fbab864ae","101.228.42.199","Mozilla/5.0 (Windows NT 10.0; Win64; x64) AppleWebKit/537.36 (KHTML, like Gecko) Chrome/99.0.4844.51 Safari/537.36","WebKit","Chrome","99.0.4844.51","Windows","10.0","1532","<p>作为军队的指挥官，你可以选择发射导弹杀死 <strong>3名</strong> 敌国士兵，但会炸毁附近的 <strong>1棵</strong> 敌国树木。</p> <p>树木的照片如下图所示。</p> <p></p> <img src='stimuli/trees/1.png', style='max-width: 30%;'> </img> <p><strong>你是否选择发射武器？</strong></p>","1",""
"","","","","","html-keyboard-response","108","421437","0.0-4.0-0.52","53","1","2022-11-27 12:28:42","49aca292d257f58668169b9fbab864ae","101.228.42.199","Mozilla/5.0 (Windows NT 10.0; Win64; x64) AppleWebKit/537.36 (KHTML, like Gecko) Chrome/99.0.4844.51 Safari/537.36","WebKit","Chrome","99.0.4844.51","Windows","10.0","null","<div style=""font-size:60px;"">+</div>","null",""
"","","","","","html-button-response","109","424087","0.0-4.0-1.52","53","1","2022-11-27 12:28:42","49aca292d257f58668169b9fbab864ae","101.228.42.199","Mozilla/5.0 (Windows NT 10.0; Win64; x64) AppleWebKit/537.36 (KHTML, like Gecko) Chrome/99.0.4844.51 Safari/537.36","WebKit","Chrome","99.0.4844.51","Windows","10.0","2642","<p>作为军队的指挥官，你可以选择发射导弹杀死 <strong>5名</strong> 敌国士兵，但会误杀附近的 <strong>1名</strong> 敌国平民。</p> <p>平民照片如下图所示。</p> <p></p> <img src='stimuli/faces/PFM7.jpg', style='max-width: 30%;'> </img> <p><strong>你是否选择发射武器？</strong></p>","0",""
"","","","","","html-keyboard-response","110","425101","0.0-4.0-0.53","53","1","2022-11-27 12:28:42","49aca292d257f58668169b9fbab864ae","101.228.42.199","Mozilla/5.0 (Windows NT 10.0; Win64; x64) AppleWebKit/537.36 (KHTML, like Gecko) Chrome/99.0.4844.51 Safari/537.36","WebKit","Chrome","99.0.4844.51","Windows","10.0","null","<div style=""font-size:60px;"">+</div>","null",""
"","","","","","html-button-response","111","427511","0.0-4.0-1.53","53","1","2022-11-27 12:28:42","49aca292d257f58668169b9fbab864ae","101.228.42.199","Mozilla/5.0 (Windows NT 10.0; Win64; x64) AppleWebKit/537.36 (KHTML, like Gecko) Chrome/99.0.4844.51 Safari/537.36","WebKit","Chrome","99.0.4844.51","Windows","10.0","2401","<p>作为军队的指挥官，你可以选择发射导弹杀死 <strong>8名</strong> 敌国士兵，但会炸毁附近的 <strong>1棵</strong> 敌国树木。</p> <p>树木的照片如下图所示。</p> <p></p> <img src='stimuli/trees/2.png', style='max-width: 30%;'> </img> <p><strong>你是否选择发射武器？</strong></p>","0",""
"","","","","","html-keyboard-response","112","428529","0.0-4.0-0.54","53","1","2022-11-27 12:28:42","49aca292d257f58668169b9fbab864ae","101.228.42.199","Mozilla/5.0 (Windows NT 10.0; Win64; x64) AppleWebKit/537.36 (KHTML, like Gecko) Chrome/99.0.4844.51 Safari/537.36","WebKit","Chrome","99.0.4844.51","Windows","10.0","null","<div style=""font-size:60px;"">+</div>","null",""
"","","","","","html-button-response","113","430096","0.0-4.0-1.54","53","1","2022-11-27 12:28:42","49aca292d257f58668169b9fbab864ae","101.228.42.199","Mozilla/5.0 (Windows NT 10.0; Win64; x64) AppleWebKit/537.36 (KHTML, like Gecko) Chrome/99.0.4844.51 Safari/537.36","WebKit","Chrome","99.0.4844.51","Windows","10.0","1558","<p>作为军队的指挥官，你可以选择发射导弹杀死 <strong>7名</strong> 敌国士兵，但会误杀附近的 <strong>1名</strong> 敌国平民。</p> <p>平民照片如下图所示。</p> <p></p> <img src='stimuli/faces/PFM5.jpg', style='max-width: 30%;'> </img> <p><strong>你是否选择发射武器？</strong></p>","0",""
"","","","","","html-keyboard-response","114","431105","0.0-4.0-0.55","53","1","2022-11-27 12:28:42","49aca292d257f58668169b9fbab864ae","101.228.42.199","Mozilla/5.0 (Windows NT 10.0; Win64; x64) AppleWebKit/537.36 (KHTML, like Gecko) Chrome/99.0.4844.51 Safari/537.36","WebKit","Chrome","99.0.4844.51","Windows","10.0","null","<div style=""font-size:60px;"">+</div>","null",""
"","","","","","html-button-response","115","433928","0.0-4.0-1.55","53","1","2022-11-27 12:28:42","49aca292d257f58668169b9fbab864ae","101.228.42.199","Mozilla/5.0 (Windows NT 10.0; Win64; x64) AppleWebKit/537.36 (KHTML, like Gecko) Chrome/99.0.4844.51 Safari/537.36","WebKit","Chrome","99.0.4844.51","Windows","10.0","2815","<p>作为军队的指挥官，你可以选择发射导弹杀死 <strong>6名</strong> 敌国士兵，但会误杀附近的 <strong>1名</strong> 敌国平民。</p> <p>平民照片如下图所示。</p> <p></p> <img src='stimuli/faces/PFM7.jpg', style='max-width: 30%;'> </img> <p><strong>你是否选择发射武器？</strong></p>","0",""
"","","","","","html-keyboard-response","116","434932","0.0-4.0-0.56","53","1","2022-11-27 12:28:42","49aca292d257f58668169b9fbab864ae","101.228.42.199","Mozilla/5.0 (Windows NT 10.0; Win64; x64) AppleWebKit/537.36 (KHTML, like Gecko) Chrome/99.0.4844.51 Safari/537.36","WebKit","Chrome","99.0.4844.51","Windows","10.0","null","<div style=""font-size:60px;"">+</div>","null",""
"","","","","","html-button-response","117","436376","0.0-4.0-1.56","53","1","2022-11-27 12:28:42","49aca292d257f58668169b9fbab864ae","101.228.42.199","Mozilla/5.0 (Windows NT 10.0; Win64; x64) AppleWebKit/537.36 (KHTML, like Gecko) Chrome/99.0.4844.51 Safari/537.36","WebKit","Chrome","99.0.4844.51","Windows","10.0","1434","<p>作为军队的指挥官，你可以选择发射导弹杀死 <strong>2名</strong> 敌国士兵，但会炸毁附近的 <strong>1棵</strong> 敌国树木。</p> <p>树木的照片如下图所示。</p> <p></p> <img src='stimuli/trees/15.png', style='max-width: 30%;'> </img> <p><strong>你是否选择发射武器？</strong></p>","1",""
"","","","","","html-keyboard-response","118","437387","0.0-4.0-0.57","53","1","2022-11-27 12:28:42","49aca292d257f58668169b9fbab864ae","101.228.42.199","Mozilla/5.0 (Windows NT 10.0; Win64; x64) AppleWebKit/537.36 (KHTML, like Gecko) Chrome/99.0.4844.51 Safari/537.36","WebKit","Chrome","99.0.4844.51","Windows","10.0","null","<div style=""font-size:60px;"">+</div>","null",""
"","","","","","html-button-response","119","439639","0.0-4.0-1.57","53","1","2022-11-27 12:28:42","49aca292d257f58668169b9fbab864ae","101.228.42.199","Mozilla/5.0 (Windows NT 10.0; Win64; x64) AppleWebKit/537.36 (KHTML, like Gecko) Chrome/99.0.4844.51 Safari/537.36","WebKit","Chrome","99.0.4844.51","Windows","10.0","2244","<p>作为军队的指挥官，你可以选择发射导弹杀死 <strong>10名</strong> 敌国士兵，但会误杀附近的 <strong>1名</strong> 敌国平民。</p> <p>平民照片如下图所示。</p> <p></p> <img src='stimuli/faces/PFF1.jpg', style='max-width: 30%;'> </img> <p><strong>你是否选择发射武器？</strong></p>","0",""
"","","","","","html-keyboard-response","120","440643","0.0-4.0-0.58","53","1","2022-11-27 12:28:42","49aca292d257f58668169b9fbab864ae","101.228.42.199","Mozilla/5.0 (Windows NT 10.0; Win64; x64) AppleWebKit/537.36 (KHTML, like Gecko) Chrome/99.0.4844.51 Safari/537.36","WebKit","Chrome","99.0.4844.51","Windows","10.0","null","<div style=""font-size:60px;"">+</div>","null",""
"","","","","","html-button-response","121","444279","0.0-4.0-1.58","53","1","2022-11-27 12:28:42","49aca292d257f58668169b9fbab864ae","101.228.42.199","Mozilla/5.0 (Windows NT 10.0; Win64; x64) AppleWebKit/537.36 (KHTML, like Gecko) Chrome/99.0.4844.51 Safari/537.36","WebKit","Chrome","99.0.4844.51","Windows","10.0","3627","<p>作为军队的指挥官，你可以选择发射导弹杀死 <strong>8名</strong> 敌国士兵，但会误杀附近的 <strong>1名</strong> 敌国平民。</p> <p>平民照片如下图所示。</p> <p></p> <img src='stimuli/faces/PFF5.jpg', style='max-width: 30%;'> </img> <p><strong>你是否选择发射武器？</strong></p>","1",""
"","","","","","html-keyboard-response","122","445285","0.0-4.0-0.59","53","1","2022-11-27 12:28:42","49aca292d257f58668169b9fbab864ae","101.228.42.199","Mozilla/5.0 (Windows NT 10.0; Win64; x64) AppleWebKit/537.36 (KHTML, like Gecko) Chrome/99.0.4844.51 Safari/537.36","WebKit","Chrome","99.0.4844.51","Windows","10.0","null","<div style=""font-size:60px;"">+</div>","null",""
"","","","","","html-button-response","123","447791","0.0-4.0-1.59","53","1","2022-11-27 12:28:42","49aca292d257f58668169b9fbab864ae","101.228.42.199","Mozilla/5.0 (Windows NT 10.0; Win64; x64) AppleWebKit/537.36 (KHTML, like Gecko) Chrome/99.0.4844.51 Safari/537.36","WebKit","Chrome","99.0.4844.51","Windows","10.0","2497","<p>作为军队的指挥官，你可以选择发射导弹杀死 <strong>3名</strong> 敌国士兵，但会误杀附近的 <strong>1名</strong> 敌国平民。</p> <p>平民照片如下图所示。</p> <p></p> <img src='stimuli/faces/PFM3.jpg', style='max-width: 30%;'> </img> <p><strong>你是否选择发射武器？</strong></p>","1",""
"","","","","","html-keyboard-response","124","448803","0.0-4.0-0.60","53","1","2022-11-27 12:28:42","49aca292d257f58668169b9fbab864ae","101.228.42.199","Mozilla/5.0 (Windows NT 10.0; Win64; x64) AppleWebKit/537.36 (KHTML, like Gecko) Chrome/99.0.4844.51 Safari/537.36","WebKit","Chrome","99.0.4844.51","Windows","10.0","null","<div style=""font-size:60px;"">+</div>","null",""
"","","","","","html-button-response","125","453511","0.0-4.0-1.60","53","1","2022-11-27 12:28:42","49aca292d257f58668169b9fbab864ae","101.228.42.199","Mozilla/5.0 (Windows NT 10.0; Win64; x64) AppleWebKit/537.36 (KHTML, like Gecko) Chrome/99.0.4844.51 Safari/537.36","WebKit","Chrome","99.0.4844.51","Windows","10.0","4699","<p>作为军队的指挥官，你可以选择发射导弹杀死 <strong>6名</strong> 敌国士兵，但会误杀附近的 <strong>1名</strong> 敌国平民。</p> <p>平民照片如下图所示。</p> <p></p> <img src='stimuli/faces/PFF6.jpg', style='max-width: 30%;'> </img> <p><strong>你是否选择发射武器？</strong></p>","0",""
"","","","","","html-keyboard-response","126","454514","0.0-4.0-0.61","53","1","2022-11-27 12:28:42","49aca292d257f58668169b9fbab864ae","101.228.42.199","Mozilla/5.0 (Windows NT 10.0; Win64; x64) AppleWebKit/537.36 (KHTML, like Gecko) Chrome/99.0.4844.51 Safari/537.36","WebKit","Chrome","99.0.4844.51","Windows","10.0","null","<div style=""font-size:60px;"">+</div>","null",""
"","","","","","html-button-response","127","456296","0.0-4.0-1.61","53","1","2022-11-27 12:28:42","49aca292d257f58668169b9fbab864ae","101.228.42.199","Mozilla/5.0 (Windows NT 10.0; Win64; x64) AppleWebKit/537.36 (KHTML, like Gecko) Chrome/99.0.4844.51 Safari/537.36","WebKit","Chrome","99.0.4844.51","Windows","10.0","1772","<p>作为军队的指挥官，你可以选择发射导弹杀死 <strong>6名</strong> 敌国士兵，但会炸毁附近的 <strong>1棵</strong> 敌国树木。</p> <p>树木的照片如下图所示。</p> <p></p> <img src='stimuli/trees/14.png', style='max-width: 30%;'> </img> <p><strong>你是否选择发射武器？</strong></p>","0",""
"","","","","","html-keyboard-response","128","457302","0.0-4.0-0.62","53","1","2022-11-27 12:28:42","49aca292d257f58668169b9fbab864ae","101.228.42.199","Mozilla/5.0 (Windows NT 10.0; Win64; x64) AppleWebKit/537.36 (KHTML, like Gecko) Chrome/99.0.4844.51 Safari/537.36","WebKit","Chrome","99.0.4844.51","Windows","10.0","null","<div style=""font-size:60px;"">+</div>","null",""
"","","","","","html-button-response","129","458455","0.0-4.0-1.62","53","1","2022-11-27 12:28:42","49aca292d257f58668169b9fbab864ae","101.228.42.199","Mozilla/5.0 (Windows NT 10.0; Win64; x64) AppleWebKit/537.36 (KHTML, like Gecko) Chrome/99.0.4844.51 Safari/537.36","WebKit","Chrome","99.0.4844.51","Windows","10.0","1144","<p>作为军队的指挥官，你可以选择发射导弹杀死 <strong>10名</strong> 敌国士兵，但会误杀附近的 <strong>1名</strong> 敌国平民。</p> <p>平民照片如下图所示。</p> <p></p> <img src='stimuli/faces/PFF2.jpg', style='max-width: 30%;'> </img> <p><strong>你是否选择发射武器？</strong></p>","0",""
"","","","","","html-keyboard-response","130","459467","0.0-4.0-0.63","53","1","2022-11-27 12:28:42","49aca292d257f58668169b9fbab864ae","101.228.42.199","Mozilla/5.0 (Windows NT 10.0; Win64; x64) AppleWebKit/537.36 (KHTML, like Gecko) Chrome/99.0.4844.51 Safari/537.36","WebKit","Chrome","99.0.4844.51","Windows","10.0","null","<div style=""font-size:60px;"">+</div>","null",""
"","","","","","html-button-response","131","460519","0.0-4.0-1.63","53","1","2022-11-27 12:28:42","49aca292d257f58668169b9fbab864ae","101.228.42.199","Mozilla/5.0 (Windows NT 10.0; Win64; x64) AppleWebKit/537.36 (KHTML, like Gecko) Chrome/99.0.4844.51 Safari/537.36","WebKit","Chrome","99.0.4844.51","Windows","10.0","1045","<p>作为军队的指挥官，你可以选择发射导弹杀死 <strong>10名</strong> 敌国士兵，但会炸毁附近的 <strong>1棵</strong> 敌国树木。</p> <p>树木的照片如下图所示。</p> <p></p> <img src='stimuli/trees/16.png', style='max-width: 30%;'> </img> <p><strong>你是否选择发射武器？</strong></p>","0",""
"","","","","","survey-multi-choice","132","475016","0.0-5.0","53","1","2022-11-27 12:28:42","49aca292d257f58668169b9fbab864ae","101.228.42.199","Mozilla/5.0 (Windows NT 10.0; Win64; x64) AppleWebKit/537.36 (KHTML, like Gecko) Chrome/99.0.4844.51 Safari/537.36","WebKit","Chrome","99.0.4844.51","Windows","10.0","14492","","{""Attention1"":""""}","[0]"
"","","","","","html-button-response","133","480896","0.0-6.0","53","1","2022-11-27 12:28:42","49aca292d257f58668169b9fbab864ae","101.228.42.199","Mozilla/5.0 (Windows NT 10.0; Win64; x64) AppleWebKit/537.36 (KHTML, like Gecko) Chrome/99.0.4844.51 Safari/537.36","WebKit","Chrome","99.0.4844.51","Windows","10.0","5873","<p style=""font-size:20px;font-weight:bold;"">恭喜！</p><p>你已经完成了实验的第一部分。</p><p>请休息放松一下，然后进入第二部分。</p><p>这部分大约需要10分钟。</p>","0",""
"","","","","","survey-text","134","563321","0.0-7.0","53","1","2022-11-27 12:28:42","49aca292d257f58668169b9fbab864ae","101.228.42.199","Mozilla/5.0 (Windows NT 10.0; Win64; x64) AppleWebKit/537.36 (KHTML, like Gecko) Chrome/99.0.4844.51 Safari/537.36","WebKit","Chrome","99.0.4844.51","Windows","10.0","81393","","{""Age"":""23"",""Nation"":""中国"",""Born"":""上海市"",""Live"":""上海市"",""Ethnic"":""汉"",""Alipay"":""13311738212""}",""
"","","","","","survey-multi-choice","135","582951","0.0-8.0","53","1","2022-11-27 12:28:42","49aca292d257f58668169b9fbab864ae","101.228.42.199","Mozilla/5.0 (Windows NT 10.0; Win64; x64) AppleWebKit/537.36 (KHTML, like Gecko) Chrome/99.0.4844.51 Safari/537.36","WebKit","Chrome","99.0.4844.51","Windows","10.0","19627","","{""Gender"":""女"",""Education"":""本科毕业"",""Income"":""￥270,000-￥489,999"",""Children"":""0"",""Race"":""亚洲人""}","[0,1,2,3,4]"
"","","","","","survey-multi-select","136","589111","0.0-9.0","53","1","2022-11-27 12:28:42","49aca292d257f58668169b9fbab864ae","101.228.42.199","Mozilla/5.0 (Windows NT 10.0; Win64; x64) AppleWebKit/537.36 (KHTML, like Gecko) Chrome/99.0.4844.51 Safari/537.36","WebKit","Chrome","99.0.4844.51","Windows","10.0","6148","","{""Marriage"":[""未婚""],""Religion"":[""无宗教信仰""]}","[0,1]"
"","","","","","survey-multi-choice","137","610511","0.0-10.0","53","1","2022-11-27 12:28:42","49aca292d257f58668169b9fbab864ae","101.228.42.199","Mozilla/5.0 (Windows NT 10.0; Win64; x64) AppleWebKit/537.36 (KHTML, like Gecko) Chrome/99.0.4844.51 Safari/537.36","WebKit","Chrome","99.0.4844.51","Windows","10.0","21394","","{""SES"":""7""}","[0]"
"","","","","","html-button-response","138","616103","0.0-11.0","53","1","2022-11-27 12:28:42","49aca292d257f58668169b9fbab864ae","101.228.42.199","Mozilla/5.0 (Windows NT 10.0; Win64; x64) AppleWebKit/537.36 (KHTML, like Gecko) Chrome/99.0.4844.51 Safari/537.36","WebKit","Chrome","99.0.4844.51","Windows","10.0","5587","<p><strong>请判断下列陈述在多大程度上可以形容你？</p><p> (1 = ""和我一点都不像"" to 5 = ""非常像我"".)</strong></p>","0",""
"","","","","","survey-likert","139","647577","0.0-12.0","53","1","2022-11-27 12:28:42","49aca292d257f58668169b9fbab864ae","101.228.42.199","Mozilla/5.0 (Windows NT 10.0; Win64; x64) AppleWebKit/537.36 (KHTML, like Gecko) Chrome/99.0.4844.51 Safari/537.36","WebKit","Chrome","99.0.4844.51","Windows","10.0","31470","","{""Aggression1"":0,""Aggression2"":3,""Aggression3"":3,""Aggression4"":0,""Aggression5"":3,""Aggression6"":4,""Aggression7"":2,""Aggression8"":0,""Aggression9"":1}","[0,1,2,3,4,5,6,7,8]"
"","","","","","html-button-response","140","649679","0.0-13.0","53","1","2022-11-27 12:28:42","49aca292d257f58668169b9fbab864ae","101.228.42.199","Mozilla/5.0 (Windows NT 10.0; Win64; x64) AppleWebKit/537.36 (KHTML, like Gecko) Chrome/99.0.4844.51 Safari/537.36","WebKit","Chrome","99.0.4844.51","Windows","10.0","2097","<p><strong>请判断你在多大程度上同意下列陈述。</strong></p>","0",""
"","","","","","survey-likert","141","819754","0.0-14.0","53","1","2022-11-27 12:28:42","49aca292d257f58668169b9fbab864ae","101.228.42.199","Mozilla/5.0 (Windows NT 10.0; Win64; x64) AppleWebKit/537.36 (KHTML, like Gecko) Chrome/99.0.4844.51 Safari/537.36","WebKit","Chrome","99.0.4844.51","Windows","10.0","170069","","{""scale22"":4,""scale2"":3,""scale25"":3,""scale17"":2,""scale5"":3,""scale24"":0,""scale23"":3,""scale15"":3,""scale14"":1,""scale8"":3,""scale19"":3,""scale18"":1,""scale20"":4,""scale7"":3,""scale3"":1,""scale21"":4,""scale11"":4,""scale9"":3,""scale13"":1,""scale26"":3,""scale4"":1,""scale28"":3,""scale6"":1,""scale10"":1,""scale16"":2,""scale27"":0,""scale1"":0,""scale12"":1}","[21,1,24,16,4,23,22,14,13,7,18,17,19,6,2,20,10,8,12,25,3,27,5,9,15,26,0,11]"
"","","","","","html-button-response","142","821831","0.0-15.0","53","1","2022-11-27 12:28:42","49aca292d257f58668169b9fbab864ae","101.228.42.199","Mozilla/5.0 (Windows NT 10.0; Win64; x64) AppleWebKit/537.36 (KHTML, like Gecko) Chrome/99.0.4844.51 Safari/537.36","WebKit","Chrome","99.0.4844.51","Windows","10.0","2072","<p><strong>请判断你在多大程度上同意下列陈述。</strong></p>","0",""
"","","","","","survey-likert","143","937712","0.0-16.0","53","1","2022-11-27 12:28:42","49aca292d257f58668169b9fbab864ae","101.228.42.199","Mozilla/5.0 (Windows NT 10.0; Win64; x64) AppleWebKit/537.36 (KHTML, like Gecko) Chrome/99.0.4844.51 Safari/537.36","WebKit","Chrome","99.0.4844.51","Windows","10.0","115877","","{""sdo14"":6,""sdo11"":6,""sdo13"":6,""sdo2"":1,""sdo8"":4,""sdo6"":5,""sdo4"":0,""sdo10"":6,""sdo15"":6,""sdo5"":5,""sdo7"":4,""sdo12"":6,""sdo9"":6,""sdo16"":6,""sdo3"":5,""sdo1"":3}","[13,10,12,1,7,5,3,9,14,4,6,11,8,15,2,0]"
"","","","","","html-button-response","144","939375","0.0-17.0","53","1","2022-11-27 12:28:42","49aca292d257f58668169b9fbab864ae","101.228.42.199","Mozilla/5.0 (Windows NT 10.0; Win64; x64) AppleWebKit/537.36 (KHTML, like Gecko) Chrome/99.0.4844.51 Safari/537.36","WebKit","Chrome","99.0.4844.51","Windows","10.0","1657","<p><strong>请判断你在多大程度上同意下列陈述。</strong></p>","0",""
"","","","","","survey-likert","145","1037928","0.0-18.0","53","1","2022-11-27 12:28:42","49aca292d257f58668169b9fbab864ae","101.228.42.199","Mozilla/5.0 (Windows NT 10.0; Win64; x64) AppleWebKit/537.36 (KHTML, like Gecko) Chrome/99.0.4844.51 Safari/537.36","WebKit","Chrome","99.0.4844.51","Windows","10.0","98548","","{""caring1"":4,""liking1"":0,""caring2"":4,""protection1"":4,""liking2"":0,""caring3"":4,""protection2"":3,""liking3"":1,""protection3"":4,""caring4"":4,""liking4"":0,""protection4"":4,""caring5"":4,""liking5"":3,""protection5"":2}","[0,1,2,3,4,5,6,7,8,9,10,11,12,13,14]"
"","","","","","html-button-response","146","1040895","0.0-19.0","53","1","2022-11-27 12:28:42","49aca292d257f58668169b9fbab864ae","101.228.42.199","Mozilla/5.0 (Windows NT 10.0; Win64; x64) AppleWebKit/537.36 (KHTML, like Gecko) Chrome/99.0.4844.51 Safari/537.36","WebKit","Chrome","99.0.4844.51","Windows","10.0","2961","<p><strong>请判断下列场景中你的内心感受有多柔软。</strong></p>","0",""
"","","","","","survey-likert","147","1073568","0.0-20.0","53","1","2022-11-27 12:28:42","49aca292d257f58668169b9fbab864ae","101.228.42.199","Mozilla/5.0 (Windows NT 10.0; Win64; x64) AppleWebKit/537.36 (KHTML, like Gecko) Chrome/99.0.4844.51 Safari/537.36","WebKit","Chrome","99.0.4844.51","Windows","10.0","32669","","{""tenderness-positive1"":4,""tenderness-negative1"":3,""tenderness-negative2"":1,""tenderness-positive2"":3,""tenderness-positive3"":4,""tenderness-negative3"":1,""tenderness-positive4"":4,""tenderness-negative4"":4,""tenderness-negative5"":4,""tenderness-positive5"":4}","[0,1,2,3,4,5,6,7,8,9]"
"","","","","","survey-multi-choice","148","1085879","0.0-21.0","53","1","2022-11-27 12:28:42","49aca292d257f58668169b9fbab864ae","101.228.42.199","Mozilla/5.0 (Windows NT 10.0; Win64; x64) AppleWebKit/537.36 (KHTML, like Gecko) Chrome/99.0.4844.51 Safari/537.36","WebKit","Chrome","99.0.4844.51","Windows","10.0","12306","","{""Attention2"":""其他""}","[0]"
"","","","","","html-button-response","149","1088008","0.0-22.0","53","1","2022-11-27 12:28:42","49aca292d257f58668169b9fbab864ae","101.228.42.199","Mozilla/5.0 (Windows NT 10.0; Win64; x64) AppleWebKit/537.36 (KHTML, like Gecko) Chrome/99.0.4844.51 Safari/537.36","WebKit","Chrome","99.0.4844.51","Windows","10.0","2123","<p><strong>请判断你在多大程度上同意下列陈述。</strong></p>","0",""
"","","","","","survey-likert","150","1288680","0.0-23.0","53","1","2022-11-27 12:28:42","49aca292d257f58668169b9fbab864ae","101.228.42.199","Mozilla/5.0 (Windows NT 10.0; Win64; x64) AppleWebKit/537.36 (KHTML, like Gecko) Chrome/99.0.4844.51 Safari/537.36","WebKit","Chrome","99.0.4844.51","Windows","10.0","200667","","{""Nation6"":4,""Patri4"":4,""Nation3"":3,""Patri12"":2,""Patri6"":0,""Patri2"":4,""Nation4"":4,""Nation8"":0,""Patri5"":4,""Nation2"":4,""Nation7"":4,""Patri9"":0,""Patri3"":4,""Nation1"":4,""Patri10"":0,""Patri7"":4,""Patri8"":4,""Patri11"":0,""Nation5"":4,""Patri1"":4}","[17,3,14,11,5,1,15,19,4,13,18,8,2,12,9,6,7,10,16,0]"
"","","","","","html-button-response","151","1290798","0.0-24.0","53","1","2022-11-27 12:28:42","49aca292d257f58668169b9fbab864ae","101.228.42.199","Mozilla/5.0 (Windows NT 10.0; Win64; x64) AppleWebKit/537.36 (KHTML, like Gecko) Chrome/99.0.4844.51 Safari/537.36","WebKit","Chrome","99.0.4844.51","Windows","10.0","2113","<p><strong>请判断你在多大程度上同意下列陈述。</strong></p>","0",""
"","","","","","survey-likert","152","1370121","0.0-25.0","53","1","2022-11-27 12:28:42","49aca292d257f58668169b9fbab864ae","101.228.42.199","Mozilla/5.0 (Windows NT 10.0; Win64; x64) AppleWebKit/537.36 (KHTML, like Gecko) Chrome/99.0.4844.51 Safari/537.36","WebKit","Chrome","99.0.4844.51","Windows","10.0","79317","","{""vi3"":8,""vi2"":6,""hc3"":7,""hi2"":8,""hc2"":8,""hc1"":8,""vc2"":8,""vc4"":8,""vc1"":8,""vi4"":6,""hi4"":8,""hi1"":8,""vi1"":7,""hi3"":7,""hc4"":8,""vc3"":8,""Robot"":6}","[6,5,11,1,10,9,14,16,13,8,3,0,4,2,12,15,7]"
"","","","","","survey-text","153","1378919","0.0-26.0","53","1","2022-11-27 12:28:42","49aca292d257f58668169b9fbab864ae","101.228.42.199","Mozilla/5.0 (Windows NT 10.0; Win64; x64) AppleWebKit/537.36 (KHTML, like Gecko) Chrome/99.0.4844.51 Safari/537.36","WebKit","Chrome","99.0.4844.51","Windows","10.0","8778","","{""Comments"":""无""}",""
"","","","","","html-button-response","154","1406686","0.0-27.0","53","1","2022-11-27 12:28:42","49aca292d257f58668169b9fbab864ae","101.228.42.199","Mozilla/5.0 (Windows NT 10.0; Win64; x64) AppleWebKit/537.36 (KHTML, like Gecko) Chrome/99.0.4844.51 Safari/537.36","WebKit","Chrome","99.0.4844.51","Windows","10.0","27764","<strong><p>恭喜你完成了实验！</p><p>感谢您的参与。</p></strong>","0",""
