"success","timeout","failed_images","failed_audio","failed_video","trial_type","trial_index","time_elapsed","internal_node_id","run_id","condition","recorded_at","source_code_version","ip","user_agent","device","browser","browser_version","platform","platform_version","rt","stimulus","response","question_order"
"true","false","[]","[]","[]","preload","0","2043","0.0-0.0","80","1","2022-11-28 04:53:13","49aca292d257f58668169b9fbab864ae","117.136.124.94","Mozilla/5.0 (Windows NT 10.0; Win64; x64) AppleWebKit/537.36 (KHTML, like Gecko) Chrome/107.0.0.0 Safari/537.36","WebKit","Chrome","107.0.0.0","Windows","10.0","","","",""
"true","","","","","fullscreen","1","7615","0.0-1.0","80","1","2022-11-28 04:53:13","49aca292d257f58668169b9fbab864ae","117.136.124.94","Mozilla/5.0 (Windows NT 10.0; Win64; x64) AppleWebKit/537.36 (KHTML, like Gecko) Chrome/107.0.0.0 Safari/537.36","WebKit","Chrome","107.0.0.0","Windows","10.0","","","",""
"","","","","","html-button-response","2","14960","0.0-2.0","80","1","2022-11-28 04:53:13","49aca292d257f58668169b9fbab864ae","117.136.124.94","Mozilla/5.0 (Windows NT 10.0; Win64; x64) AppleWebKit/537.36 (KHTML, like Gecko) Chrome/107.0.0.0 Safari/537.36","WebKit","Chrome","107.0.0.0","Windows","10.0","7344","<p style=""font-size:20px;font-weight:bold;"">实验知情同意书</p><p style=""text-align:left;""><strong>实验名称：</strong>社会冲突研究</p><p style=""text-align:left;""><strong>主要研究者：</strong>韩晓春副教授（北京师范大学心理学部）</p><p style=""text-align:left;""><strong>联系方式：</strong>发送邮件至xiaochun.han@bnu.edu.cn</p><p style=""text-align:left;""><strong>研究目的：</strong>研究旨在了解人类面对群体冲突时的决策方式，以及相关的心理学特质。实验调查大约需要20分钟。</p><p style=""text-align:left;""><strong>实验流程：</strong>实验包含两部分。第一部分呈现一系列群体冲突场景，请你决定如何对这些冲突进行反应，大约需要10分钟完成。第二部分包含一系列人口统计学信息收集和心理学问卷，大约需要10分钟完成。</p><p style=""text-align:left;""><strong>参加及退出规则：</strong>参加本实验完全取决于您的个人意愿。在参与过程中，您可以随时退出，并且不用承担任何后果。</p><p style=""text-align:left;""><strong>隐私：</strong>本实验完全匿名进行，不会收集您的姓名或其他能够识别您身份的信息。实验中收集的作答仅用作科学研究使用，可能会在学术期刊/书籍上发表，或者用于教学，您的数据未来可能会和其他研究者或实验室分享，但您的个人身份不会被识别。</p><p style=""text-align:left;""><strong>实验报酬：</strong>实验完成后，您将获得15元人民币报酬，以感谢您的时间和努力。调查问卷中包含几道题目用以测验您作答时的认真度。只有完成全部实验，并且正确回答认真度测验的被试才能获得实验报酬。实验报酬将通过支付宝转账发放。</p><p style=""text-align:left;font-size:20px;""><strong>如果您同意以上实验知情同意书的内容，请点击'同意并且开始实验'按钮；否则请关闭浏览器界面，退出实验。</strong></p>","0",""
"","","","","","html-button-response","3","18010","0.0-3.0","80","1","2022-11-28 04:53:13","49aca292d257f58668169b9fbab864ae","117.136.124.94","Mozilla/5.0 (Windows NT 10.0; Win64; x64) AppleWebKit/537.36 (KHTML, like Gecko) Chrome/107.0.0.0 Safari/537.36","WebKit","Chrome","107.0.0.0","Windows","10.0","3048","<p ><strong>实验任务一：</strong></p><p>请想象你的国家与另一个国家发生了军事冲突。</p><p>你是国家军队的指挥官，你将如何在冲突中进行决策。</p><p>具体来说，作为军队指挥官，请你决定是否发射导弹进行打击。</p><p>接下来，你会面对一系列场景，请仔细阅读每个场景，然后进行决策。</p><p>这部分实验任务大约需要10分钟。</p><p><strong>实验过程中，请集中注意力。</strong></p>","0",""
"","","","","","html-keyboard-response","4","19015","0.0-4.0-0.0","80","1","2022-11-28 04:53:13","49aca292d257f58668169b9fbab864ae","117.136.124.94","Mozilla/5.0 (Windows NT 10.0; Win64; x64) AppleWebKit/537.36 (KHTML, like Gecko) Chrome/107.0.0.0 Safari/537.36","WebKit","Chrome","107.0.0.0","Windows","10.0","null","<div style=""font-size:60px;"">+</div>","null",""
"","","","","","html-button-response","5","33926","0.0-4.0-1.0","80","1","2022-11-28 04:53:13","49aca292d257f58668169b9fbab864ae","117.136.124.94","Mozilla/5.0 (Windows NT 10.0; Win64; x64) AppleWebKit/537.36 (KHTML, like Gecko) Chrome/107.0.0.0 Safari/537.36","WebKit","Chrome","107.0.0.0","Windows","10.0","14908","<p>作为军队的指挥官，你可以选择发射导弹杀死 <strong>7名</strong> 敌国士兵，但会误杀附近的 <strong>1名</strong> 敌国平民。</p> <p>平民照片如下图所示。</p> <p></p> <img src='stimuli/faces/PFM2.jpg', style='max-width: 30%;'> </img> <p><strong>你是否选择发射武器？</strong></p>","0",""
"","","","","","html-keyboard-response","6","34935","0.0-4.0-0.1","80","1","2022-11-28 04:53:13","49aca292d257f58668169b9fbab864ae","117.136.124.94","Mozilla/5.0 (Windows NT 10.0; Win64; x64) AppleWebKit/537.36 (KHTML, like Gecko) Chrome/107.0.0.0 Safari/537.36","WebKit","Chrome","107.0.0.0","Windows","10.0","null","<div style=""font-size:60px;"">+</div>","null",""
"","","","","","html-button-response","7","45191","0.0-4.0-1.1","80","1","2022-11-28 04:53:13","49aca292d257f58668169b9fbab864ae","117.136.124.94","Mozilla/5.0 (Windows NT 10.0; Win64; x64) AppleWebKit/537.36 (KHTML, like Gecko) Chrome/107.0.0.0 Safari/537.36","WebKit","Chrome","107.0.0.0","Windows","10.0","10254","<p>作为军队的指挥官，你可以选择发射导弹杀死 <strong>5名</strong> 敌国士兵，但会误杀附近的 <strong>1名</strong> 敌国平民。</p> <p>平民照片如下图所示。</p> <p></p> <img src='stimuli/faces/PFF1.jpg', style='max-width: 30%;'> </img> <p><strong>你是否选择发射武器？</strong></p>","0",""
"","","","","","html-keyboard-response","8","46200","0.0-4.0-0.2","80","1","2022-11-28 04:53:13","49aca292d257f58668169b9fbab864ae","117.136.124.94","Mozilla/5.0 (Windows NT 10.0; Win64; x64) AppleWebKit/537.36 (KHTML, like Gecko) Chrome/107.0.0.0 Safari/537.36","WebKit","Chrome","107.0.0.0","Windows","10.0","null","<div style=""font-size:60px;"">+</div>","null",""
"","","","","","html-button-response","9","53327","0.0-4.0-1.2","80","1","2022-11-28 04:53:13","49aca292d257f58668169b9fbab864ae","117.136.124.94","Mozilla/5.0 (Windows NT 10.0; Win64; x64) AppleWebKit/537.36 (KHTML, like Gecko) Chrome/107.0.0.0 Safari/537.36","WebKit","Chrome","107.0.0.0","Windows","10.0","7126","<p>作为军队的指挥官，你可以选择发射导弹杀死 <strong>3名</strong> 敌国士兵，但会炸毁附近的 <strong>1棵</strong> 敌国树木。</p> <p>树木的照片如下图所示。</p> <p></p> <img src='stimuli/trees/10.png', style='max-width: 30%;'> </img> <p><strong>你是否选择发射武器？</strong></p>","0",""
"","","","","","html-keyboard-response","10","54335","0.0-4.0-0.3","80","1","2022-11-28 04:53:13","49aca292d257f58668169b9fbab864ae","117.136.124.94","Mozilla/5.0 (Windows NT 10.0; Win64; x64) AppleWebKit/537.36 (KHTML, like Gecko) Chrome/107.0.0.0 Safari/537.36","WebKit","Chrome","107.0.0.0","Windows","10.0","null","<div style=""font-size:60px;"">+</div>","null",""
"","","","","","html-button-response","11","57479","0.0-4.0-1.3","80","1","2022-11-28 04:53:13","49aca292d257f58668169b9fbab864ae","117.136.124.94","Mozilla/5.0 (Windows NT 10.0; Win64; x64) AppleWebKit/537.36 (KHTML, like Gecko) Chrome/107.0.0.0 Safari/537.36","WebKit","Chrome","107.0.0.0","Windows","10.0","3142","<p>作为军队的指挥官，你可以选择发射导弹杀死 <strong>5名</strong> 敌国士兵，但会炸毁附近的 <strong>1棵</strong> 敌国树木。</p> <p>树木的照片如下图所示。</p> <p></p> <img src='stimuli/trees/11.png', style='max-width: 30%;'> </img> <p><strong>你是否选择发射武器？</strong></p>","0",""
"","","","","","html-keyboard-response","12","58487","0.0-4.0-0.4","80","1","2022-11-28 04:53:13","49aca292d257f58668169b9fbab864ae","117.136.124.94","Mozilla/5.0 (Windows NT 10.0; Win64; x64) AppleWebKit/537.36 (KHTML, like Gecko) Chrome/107.0.0.0 Safari/537.36","WebKit","Chrome","107.0.0.0","Windows","10.0","null","<div style=""font-size:60px;"">+</div>","null",""
"","","","","","html-button-response","13","64054","0.0-4.0-1.4","80","1","2022-11-28 04:53:13","49aca292d257f58668169b9fbab864ae","117.136.124.94","Mozilla/5.0 (Windows NT 10.0; Win64; x64) AppleWebKit/537.36 (KHTML, like Gecko) Chrome/107.0.0.0 Safari/537.36","WebKit","Chrome","107.0.0.0","Windows","10.0","5564","<p>作为军队的指挥官，你可以选择发射导弹杀死 <strong>4名</strong> 敌国士兵，但会误杀附近的 <strong>1名</strong> 敌国平民。</p> <p>平民照片如下图所示。</p> <p></p> <img src='stimuli/faces/PFM2.jpg', style='max-width: 30%;'> </img> <p><strong>你是否选择发射武器？</strong></p>","0",""
"","","","","","html-keyboard-response","14","65063","0.0-4.0-0.5","80","1","2022-11-28 04:53:13","49aca292d257f58668169b9fbab864ae","117.136.124.94","Mozilla/5.0 (Windows NT 10.0; Win64; x64) AppleWebKit/537.36 (KHTML, like Gecko) Chrome/107.0.0.0 Safari/537.36","WebKit","Chrome","107.0.0.0","Windows","10.0","null","<div style=""font-size:60px;"">+</div>","null",""
"","","","","","html-button-response","15","72058","0.0-4.0-1.5","80","1","2022-11-28 04:53:13","49aca292d257f58668169b9fbab864ae","117.136.124.94","Mozilla/5.0 (Windows NT 10.0; Win64; x64) AppleWebKit/537.36 (KHTML, like Gecko) Chrome/107.0.0.0 Safari/537.36","WebKit","Chrome","107.0.0.0","Windows","10.0","6992","<p>作为军队的指挥官，你可以选择发射导弹杀死 <strong>1名</strong> 敌国士兵，但会误杀附近的 <strong>1名</strong> 敌国平民。</p> <p>平民照片如下图所示。</p> <p></p> <img src='stimuli/faces/PFM1.jpg', style='max-width: 30%;'> </img> <p><strong>你是否选择发射武器？</strong></p>","1",""
"","","","","","html-keyboard-response","16","73063","0.0-4.0-0.6","80","1","2022-11-28 04:53:13","49aca292d257f58668169b9fbab864ae","117.136.124.94","Mozilla/5.0 (Windows NT 10.0; Win64; x64) AppleWebKit/537.36 (KHTML, like Gecko) Chrome/107.0.0.0 Safari/537.36","WebKit","Chrome","107.0.0.0","Windows","10.0","null","<div style=""font-size:60px;"">+</div>","null",""
"","","","","","html-button-response","17","76371","0.0-4.0-1.6","80","1","2022-11-28 04:53:13","49aca292d257f58668169b9fbab864ae","117.136.124.94","Mozilla/5.0 (Windows NT 10.0; Win64; x64) AppleWebKit/537.36 (KHTML, like Gecko) Chrome/107.0.0.0 Safari/537.36","WebKit","Chrome","107.0.0.0","Windows","10.0","3305","<p>作为军队的指挥官，你可以选择发射导弹杀死 <strong>6名</strong> 敌国士兵，但会炸毁附近的 <strong>1棵</strong> 敌国树木。</p> <p>树木的照片如下图所示。</p> <p></p> <img src='stimuli/trees/7.png', style='max-width: 30%;'> </img> <p><strong>你是否选择发射武器？</strong></p>","0",""
"","","","","","html-keyboard-response","18","77376","0.0-4.0-0.7","80","1","2022-11-28 04:53:13","49aca292d257f58668169b9fbab864ae","117.136.124.94","Mozilla/5.0 (Windows NT 10.0; Win64; x64) AppleWebKit/537.36 (KHTML, like Gecko) Chrome/107.0.0.0 Safari/537.36","WebKit","Chrome","107.0.0.0","Windows","10.0","null","<div style=""font-size:60px;"">+</div>","null",""
"","","","","","html-button-response","19","93914","0.0-4.0-1.7","80","1","2022-11-28 04:53:13","49aca292d257f58668169b9fbab864ae","117.136.124.94","Mozilla/5.0 (Windows NT 10.0; Win64; x64) AppleWebKit/537.36 (KHTML, like Gecko) Chrome/107.0.0.0 Safari/537.36","WebKit","Chrome","107.0.0.0","Windows","10.0","16537","<p>作为军队的指挥官，你可以选择发射导弹杀死 <strong>10名</strong> 敌国士兵，但会误杀附近的 <strong>1名</strong> 敌国平民。</p> <p>平民照片如下图所示。</p> <p></p> <img src='stimuli/faces/PFM7.jpg', style='max-width: 30%;'> </img> <p><strong>你是否选择发射武器？</strong></p>","0",""
"","","","","","html-keyboard-response","20","94919","0.0-4.0-0.8","80","1","2022-11-28 04:53:13","49aca292d257f58668169b9fbab864ae","117.136.124.94","Mozilla/5.0 (Windows NT 10.0; Win64; x64) AppleWebKit/537.36 (KHTML, like Gecko) Chrome/107.0.0.0 Safari/537.36","WebKit","Chrome","107.0.0.0","Windows","10.0","null","<div style=""font-size:60px;"">+</div>","null",""
"","","","","","html-button-response","21","98717","0.0-4.0-1.8","80","1","2022-11-28 04:53:13","49aca292d257f58668169b9fbab864ae","117.136.124.94","Mozilla/5.0 (Windows NT 10.0; Win64; x64) AppleWebKit/537.36 (KHTML, like Gecko) Chrome/107.0.0.0 Safari/537.36","WebKit","Chrome","107.0.0.0","Windows","10.0","3795","<p>作为军队的指挥官，你可以选择发射导弹杀死 <strong>4名</strong> 敌国士兵，但会误杀附近的 <strong>1名</strong> 敌国平民。</p> <p>平民照片如下图所示。</p> <p></p> <img src='stimuli/faces/PFF8.jpg', style='max-width: 30%;'> </img> <p><strong>你是否选择发射武器？</strong></p>","0",""
"","","","","","html-keyboard-response","22","99727","0.0-4.0-0.9","80","1","2022-11-28 04:53:13","49aca292d257f58668169b9fbab864ae","117.136.124.94","Mozilla/5.0 (Windows NT 10.0; Win64; x64) AppleWebKit/537.36 (KHTML, like Gecko) Chrome/107.0.0.0 Safari/537.36","WebKit","Chrome","107.0.0.0","Windows","10.0","null","<div style=""font-size:60px;"">+</div>","null",""
"","","","","","html-button-response","23","101657","0.0-4.0-1.9","80","1","2022-11-28 04:53:13","49aca292d257f58668169b9fbab864ae","117.136.124.94","Mozilla/5.0 (Windows NT 10.0; Win64; x64) AppleWebKit/537.36 (KHTML, like Gecko) Chrome/107.0.0.0 Safari/537.36","WebKit","Chrome","107.0.0.0","Windows","10.0","1928","<p>作为军队的指挥官，你可以选择发射导弹杀死 <strong>8名</strong> 敌国士兵，但会炸毁附近的 <strong>1棵</strong> 敌国树木。</p> <p>树木的照片如下图所示。</p> <p></p> <img src='stimuli/trees/11.png', style='max-width: 30%;'> </img> <p><strong>你是否选择发射武器？</strong></p>","0",""
"","","","","","html-keyboard-response","24","102662","0.0-4.0-0.10","80","1","2022-11-28 04:53:13","49aca292d257f58668169b9fbab864ae","117.136.124.94","Mozilla/5.0 (Windows NT 10.0; Win64; x64) AppleWebKit/537.36 (KHTML, like Gecko) Chrome/107.0.0.0 Safari/537.36","WebKit","Chrome","107.0.0.0","Windows","10.0","null","<div style=""font-size:60px;"">+</div>","null",""
"","","","","","html-button-response","25","104606","0.0-4.0-1.10","80","1","2022-11-28 04:53:13","49aca292d257f58668169b9fbab864ae","117.136.124.94","Mozilla/5.0 (Windows NT 10.0; Win64; x64) AppleWebKit/537.36 (KHTML, like Gecko) Chrome/107.0.0.0 Safari/537.36","WebKit","Chrome","107.0.0.0","Windows","10.0","1941","<p>作为军队的指挥官，你可以选择发射导弹杀死 <strong>8名</strong> 敌国士兵，但会炸毁附近的 <strong>1棵</strong> 敌国树木。</p> <p>树木的照片如下图所示。</p> <p></p> <img src='stimuli/trees/13.png', style='max-width: 30%;'> </img> <p><strong>你是否选择发射武器？</strong></p>","0",""
"","","","","","html-keyboard-response","26","105615","0.0-4.0-0.11","80","1","2022-11-28 04:53:13","49aca292d257f58668169b9fbab864ae","117.136.124.94","Mozilla/5.0 (Windows NT 10.0; Win64; x64) AppleWebKit/537.36 (KHTML, like Gecko) Chrome/107.0.0.0 Safari/537.36","WebKit","Chrome","107.0.0.0","Windows","10.0","null","<div style=""font-size:60px;"">+</div>","null",""
"","","","","","html-button-response","27","112568","0.0-4.0-1.11","80","1","2022-11-28 04:53:13","49aca292d257f58668169b9fbab864ae","117.136.124.94","Mozilla/5.0 (Windows NT 10.0; Win64; x64) AppleWebKit/537.36 (KHTML, like Gecko) Chrome/107.0.0.0 Safari/537.36","WebKit","Chrome","107.0.0.0","Windows","10.0","6949","<p>作为军队的指挥官，你可以选择发射导弹杀死 <strong>3名</strong> 敌国士兵，但会炸毁附近的 <strong>1棵</strong> 敌国树木。</p> <p>树木的照片如下图所示。</p> <p></p> <img src='stimuli/trees/14.png', style='max-width: 30%;'> </img> <p><strong>你是否选择发射武器？</strong></p>","0",""
"","","","","","html-keyboard-response","28","113577","0.0-4.0-0.12","80","1","2022-11-28 04:53:13","49aca292d257f58668169b9fbab864ae","117.136.124.94","Mozilla/5.0 (Windows NT 10.0; Win64; x64) AppleWebKit/537.36 (KHTML, like Gecko) Chrome/107.0.0.0 Safari/537.36","WebKit","Chrome","107.0.0.0","Windows","10.0","null","<div style=""font-size:60px;"">+</div>","null",""
"","","","","","html-button-response","29","116199","0.0-4.0-1.12","80","1","2022-11-28 04:53:13","49aca292d257f58668169b9fbab864ae","117.136.124.94","Mozilla/5.0 (Windows NT 10.0; Win64; x64) AppleWebKit/537.36 (KHTML, like Gecko) Chrome/107.0.0.0 Safari/537.36","WebKit","Chrome","107.0.0.0","Windows","10.0","2621","<p>作为军队的指挥官，你可以选择发射导弹杀死 <strong>6名</strong> 敌国士兵，但会误杀附近的 <strong>1名</strong> 敌国平民。</p> <p>平民照片如下图所示。</p> <p></p> <img src='stimuli/faces/PFM8.jpg', style='max-width: 30%;'> </img> <p><strong>你是否选择发射武器？</strong></p>","0",""
"","","","","","html-keyboard-response","30","117208","0.0-4.0-0.13","80","1","2022-11-28 04:53:13","49aca292d257f58668169b9fbab864ae","117.136.124.94","Mozilla/5.0 (Windows NT 10.0; Win64; x64) AppleWebKit/537.36 (KHTML, like Gecko) Chrome/107.0.0.0 Safari/537.36","WebKit","Chrome","107.0.0.0","Windows","10.0","null","<div style=""font-size:60px;"">+</div>","null",""
"","","","","","html-button-response","31","119127","0.0-4.0-1.13","80","1","2022-11-28 04:53:13","49aca292d257f58668169b9fbab864ae","117.136.124.94","Mozilla/5.0 (Windows NT 10.0; Win64; x64) AppleWebKit/537.36 (KHTML, like Gecko) Chrome/107.0.0.0 Safari/537.36","WebKit","Chrome","107.0.0.0","Windows","10.0","1916","<p>作为军队的指挥官，你可以选择发射导弹杀死 <strong>8名</strong> 敌国士兵，但会误杀附近的 <strong>1名</strong> 敌国平民。</p> <p>平民照片如下图所示。</p> <p></p> <img src='stimuli/faces/PFM5.jpg', style='max-width: 30%;'> </img> <p><strong>你是否选择发射武器？</strong></p>","0",""
"","","","","","html-keyboard-response","32","120136","0.0-4.0-0.14","80","1","2022-11-28 04:53:13","49aca292d257f58668169b9fbab864ae","117.136.124.94","Mozilla/5.0 (Windows NT 10.0; Win64; x64) AppleWebKit/537.36 (KHTML, like Gecko) Chrome/107.0.0.0 Safari/537.36","WebKit","Chrome","107.0.0.0","Windows","10.0","null","<div style=""font-size:60px;"">+</div>","null",""
"","","","","","html-button-response","33","122148","0.0-4.0-1.14","80","1","2022-11-28 04:53:13","49aca292d257f58668169b9fbab864ae","117.136.124.94","Mozilla/5.0 (Windows NT 10.0; Win64; x64) AppleWebKit/537.36 (KHTML, like Gecko) Chrome/107.0.0.0 Safari/537.36","WebKit","Chrome","107.0.0.0","Windows","10.0","2009","<p>作为军队的指挥官，你可以选择发射导弹杀死 <strong>3名</strong> 敌国士兵，但会炸毁附近的 <strong>1棵</strong> 敌国树木。</p> <p>树木的照片如下图所示。</p> <p></p> <img src='stimuli/trees/7.png', style='max-width: 30%;'> </img> <p><strong>你是否选择发射武器？</strong></p>","0",""
"","","","","","html-keyboard-response","34","123152","0.0-4.0-0.15","80","1","2022-11-28 04:53:13","49aca292d257f58668169b9fbab864ae","117.136.124.94","Mozilla/5.0 (Windows NT 10.0; Win64; x64) AppleWebKit/537.36 (KHTML, like Gecko) Chrome/107.0.0.0 Safari/537.36","WebKit","Chrome","107.0.0.0","Windows","10.0","null","<div style=""font-size:60px;"">+</div>","null",""
"","","","","","html-button-response","35","126651","0.0-4.0-1.15","80","1","2022-11-28 04:53:13","49aca292d257f58668169b9fbab864ae","117.136.124.94","Mozilla/5.0 (Windows NT 10.0; Win64; x64) AppleWebKit/537.36 (KHTML, like Gecko) Chrome/107.0.0.0 Safari/537.36","WebKit","Chrome","107.0.0.0","Windows","10.0","3497","<p>作为军队的指挥官，你可以选择发射导弹杀死 <strong>2名</strong> 敌国士兵，但会炸毁附近的 <strong>1棵</strong> 敌国树木。</p> <p>树木的照片如下图所示。</p> <p></p> <img src='stimuli/trees/13.png', style='max-width: 30%;'> </img> <p><strong>你是否选择发射武器？</strong></p>","0",""
"","","","","","html-keyboard-response","36","127656","0.0-4.0-0.16","80","1","2022-11-28 04:53:13","49aca292d257f58668169b9fbab864ae","117.136.124.94","Mozilla/5.0 (Windows NT 10.0; Win64; x64) AppleWebKit/537.36 (KHTML, like Gecko) Chrome/107.0.0.0 Safari/537.36","WebKit","Chrome","107.0.0.0","Windows","10.0","null","<div style=""font-size:60px;"">+</div>","null",""
"","","","","","html-button-response","37","132547","0.0-4.0-1.16","80","1","2022-11-28 04:53:13","49aca292d257f58668169b9fbab864ae","117.136.124.94","Mozilla/5.0 (Windows NT 10.0; Win64; x64) AppleWebKit/537.36 (KHTML, like Gecko) Chrome/107.0.0.0 Safari/537.36","WebKit","Chrome","107.0.0.0","Windows","10.0","4889","<p>作为军队的指挥官，你可以选择发射导弹杀死 <strong>5名</strong> 敌国士兵，但会误杀附近的 <strong>1名</strong> 敌国平民。</p> <p>平民照片如下图所示。</p> <p></p> <img src='stimuli/faces/PFF3.jpg', style='max-width: 30%;'> </img> <p><strong>你是否选择发射武器？</strong></p>","0",""
"","","","","","html-keyboard-response","38","133552","0.0-4.0-0.17","80","1","2022-11-28 04:53:13","49aca292d257f58668169b9fbab864ae","117.136.124.94","Mozilla/5.0 (Windows NT 10.0; Win64; x64) AppleWebKit/537.36 (KHTML, like Gecko) Chrome/107.0.0.0 Safari/537.36","WebKit","Chrome","107.0.0.0","Windows","10.0","null","<div style=""font-size:60px;"">+</div>","null",""
"","","","","","html-button-response","39","135255","0.0-4.0-1.17","80","1","2022-11-28 04:53:13","49aca292d257f58668169b9fbab864ae","117.136.124.94","Mozilla/5.0 (Windows NT 10.0; Win64; x64) AppleWebKit/537.36 (KHTML, like Gecko) Chrome/107.0.0.0 Safari/537.36","WebKit","Chrome","107.0.0.0","Windows","10.0","1700","<p>作为军队的指挥官，你可以选择发射导弹杀死 <strong>5名</strong> 敌国士兵，但会炸毁附近的 <strong>1棵</strong> 敌国树木。</p> <p>树木的照片如下图所示。</p> <p></p> <img src='stimuli/trees/2.png', style='max-width: 30%;'> </img> <p><strong>你是否选择发射武器？</strong></p>","0",""
"","","","","","html-keyboard-response","40","136264","0.0-4.0-0.18","80","1","2022-11-28 04:53:13","49aca292d257f58668169b9fbab864ae","117.136.124.94","Mozilla/5.0 (Windows NT 10.0; Win64; x64) AppleWebKit/537.36 (KHTML, like Gecko) Chrome/107.0.0.0 Safari/537.36","WebKit","Chrome","107.0.0.0","Windows","10.0","null","<div style=""font-size:60px;"">+</div>","null",""
"","","","","","html-button-response","41","137933","0.0-4.0-1.18","80","1","2022-11-28 04:53:13","49aca292d257f58668169b9fbab864ae","117.136.124.94","Mozilla/5.0 (Windows NT 10.0; Win64; x64) AppleWebKit/537.36 (KHTML, like Gecko) Chrome/107.0.0.0 Safari/537.36","WebKit","Chrome","107.0.0.0","Windows","10.0","1667","<p>作为军队的指挥官，你可以选择发射导弹杀死 <strong>6名</strong> 敌国士兵，但会炸毁附近的 <strong>1棵</strong> 敌国树木。</p> <p>树木的照片如下图所示。</p> <p></p> <img src='stimuli/trees/15.png', style='max-width: 30%;'> </img> <p><strong>你是否选择发射武器？</strong></p>","0",""
"","","","","","html-keyboard-response","42","138944","0.0-4.0-0.19","80","1","2022-11-28 04:53:13","49aca292d257f58668169b9fbab864ae","117.136.124.94","Mozilla/5.0 (Windows NT 10.0; Win64; x64) AppleWebKit/537.36 (KHTML, like Gecko) Chrome/107.0.0.0 Safari/537.36","WebKit","Chrome","107.0.0.0","Windows","10.0","null","<div style=""font-size:60px;"">+</div>","null",""
"","","","","","html-button-response","43","140653","0.0-4.0-1.19","80","1","2022-11-28 04:53:13","49aca292d257f58668169b9fbab864ae","117.136.124.94","Mozilla/5.0 (Windows NT 10.0; Win64; x64) AppleWebKit/537.36 (KHTML, like Gecko) Chrome/107.0.0.0 Safari/537.36","WebKit","Chrome","107.0.0.0","Windows","10.0","1707","<p>作为军队的指挥官，你可以选择发射导弹杀死 <strong>10名</strong> 敌国士兵，但会误杀附近的 <strong>1名</strong> 敌国平民。</p> <p>平民照片如下图所示。</p> <p></p> <img src='stimuli/faces/PFM4.jpg', style='max-width: 30%;'> </img> <p><strong>你是否选择发射武器？</strong></p>","0",""
"","","","","","html-keyboard-response","44","141664","0.0-4.0-0.20","80","1","2022-11-28 04:53:13","49aca292d257f58668169b9fbab864ae","117.136.124.94","Mozilla/5.0 (Windows NT 10.0; Win64; x64) AppleWebKit/537.36 (KHTML, like Gecko) Chrome/107.0.0.0 Safari/537.36","WebKit","Chrome","107.0.0.0","Windows","10.0","null","<div style=""font-size:60px;"">+</div>","null",""
"","","","","","html-button-response","45","143500","0.0-4.0-1.20","80","1","2022-11-28 04:53:13","49aca292d257f58668169b9fbab864ae","117.136.124.94","Mozilla/5.0 (Windows NT 10.0; Win64; x64) AppleWebKit/537.36 (KHTML, like Gecko) Chrome/107.0.0.0 Safari/537.36","WebKit","Chrome","107.0.0.0","Windows","10.0","1834","<p>作为军队的指挥官，你可以选择发射导弹杀死 <strong>8名</strong> 敌国士兵，但会误杀附近的 <strong>1名</strong> 敌国平民。</p> <p>平民照片如下图所示。</p> <p></p> <img src='stimuli/faces/PFM1.jpg', style='max-width: 30%;'> </img> <p><strong>你是否选择发射武器？</strong></p>","0",""
"","","","","","html-keyboard-response","46","144504","0.0-4.0-0.21","80","1","2022-11-28 04:53:13","49aca292d257f58668169b9fbab864ae","117.136.124.94","Mozilla/5.0 (Windows NT 10.0; Win64; x64) AppleWebKit/537.36 (KHTML, like Gecko) Chrome/107.0.0.0 Safari/537.36","WebKit","Chrome","107.0.0.0","Windows","10.0","null","<div style=""font-size:60px;"">+</div>","null",""
"","","","","","html-button-response","47","147601","0.0-4.0-1.21","80","1","2022-11-28 04:53:13","49aca292d257f58668169b9fbab864ae","117.136.124.94","Mozilla/5.0 (Windows NT 10.0; Win64; x64) AppleWebKit/537.36 (KHTML, like Gecko) Chrome/107.0.0.0 Safari/537.36","WebKit","Chrome","107.0.0.0","Windows","10.0","3093","<p>作为军队的指挥官，你可以选择发射导弹杀死 <strong>4名</strong> 敌国士兵，但会误杀附近的 <strong>1名</strong> 敌国平民。</p> <p>平民照片如下图所示。</p> <p></p> <img src='stimuli/faces/PFF7.jpg', style='max-width: 30%;'> </img> <p><strong>你是否选择发射武器？</strong></p>","0",""
"","","","","","html-keyboard-response","48","148608","0.0-4.0-0.22","80","1","2022-11-28 04:53:13","49aca292d257f58668169b9fbab864ae","117.136.124.94","Mozilla/5.0 (Windows NT 10.0; Win64; x64) AppleWebKit/537.36 (KHTML, like Gecko) Chrome/107.0.0.0 Safari/537.36","WebKit","Chrome","107.0.0.0","Windows","10.0","null","<div style=""font-size:60px;"">+</div>","null",""
"","","","","","html-button-response","49","150301","0.0-4.0-1.22","80","1","2022-11-28 04:53:13","49aca292d257f58668169b9fbab864ae","117.136.124.94","Mozilla/5.0 (Windows NT 10.0; Win64; x64) AppleWebKit/537.36 (KHTML, like Gecko) Chrome/107.0.0.0 Safari/537.36","WebKit","Chrome","107.0.0.0","Windows","10.0","1691","<p>作为军队的指挥官，你可以选择发射导弹杀死 <strong>8名</strong> 敌国士兵，但会炸毁附近的 <strong>1棵</strong> 敌国树木。</p> <p>树木的照片如下图所示。</p> <p></p> <img src='stimuli/trees/12.png', style='max-width: 30%;'> </img> <p><strong>你是否选择发射武器？</strong></p>","0",""
"","","","","","html-keyboard-response","50","151304","0.0-4.0-0.23","80","1","2022-11-28 04:53:13","49aca292d257f58668169b9fbab864ae","117.136.124.94","Mozilla/5.0 (Windows NT 10.0; Win64; x64) AppleWebKit/537.36 (KHTML, like Gecko) Chrome/107.0.0.0 Safari/537.36","WebKit","Chrome","107.0.0.0","Windows","10.0","null","<div style=""font-size:60px;"">+</div>","null",""
"","","","","","html-button-response","51","156058","0.0-4.0-1.23","80","1","2022-11-28 04:53:13","49aca292d257f58668169b9fbab864ae","117.136.124.94","Mozilla/5.0 (Windows NT 10.0; Win64; x64) AppleWebKit/537.36 (KHTML, like Gecko) Chrome/107.0.0.0 Safari/537.36","WebKit","Chrome","107.0.0.0","Windows","10.0","4752","<p>作为军队的指挥官，你可以选择发射导弹杀死 <strong>4名</strong> 敌国士兵，但会炸毁附近的 <strong>1棵</strong> 敌国树木。</p> <p>树木的照片如下图所示。</p> <p></p> <img src='stimuli/trees/3.png', style='max-width: 30%;'> </img> <p><strong>你是否选择发射武器？</strong></p>","0",""
"","","","","","html-keyboard-response","52","157064","0.0-4.0-0.24","80","1","2022-11-28 04:53:13","49aca292d257f58668169b9fbab864ae","117.136.124.94","Mozilla/5.0 (Windows NT 10.0; Win64; x64) AppleWebKit/537.36 (KHTML, like Gecko) Chrome/107.0.0.0 Safari/537.36","WebKit","Chrome","107.0.0.0","Windows","10.0","null","<div style=""font-size:60px;"">+</div>","null",""
"","","","","","html-button-response","53","159794","0.0-4.0-1.24","80","1","2022-11-28 04:53:13","49aca292d257f58668169b9fbab864ae","117.136.124.94","Mozilla/5.0 (Windows NT 10.0; Win64; x64) AppleWebKit/537.36 (KHTML, like Gecko) Chrome/107.0.0.0 Safari/537.36","WebKit","Chrome","107.0.0.0","Windows","10.0","2728","<p>作为军队的指挥官，你可以选择发射导弹杀死 <strong>7名</strong> 敌国士兵，但会炸毁附近的 <strong>1棵</strong> 敌国树木。</p> <p>树木的照片如下图所示。</p> <p></p> <img src='stimuli/trees/9.png', style='max-width: 30%;'> </img> <p><strong>你是否选择发射武器？</strong></p>","0",""
"","","","","","html-keyboard-response","54","160801","0.0-4.0-0.25","80","1","2022-11-28 04:53:13","49aca292d257f58668169b9fbab864ae","117.136.124.94","Mozilla/5.0 (Windows NT 10.0; Win64; x64) AppleWebKit/537.36 (KHTML, like Gecko) Chrome/107.0.0.0 Safari/537.36","WebKit","Chrome","107.0.0.0","Windows","10.0","null","<div style=""font-size:60px;"">+</div>","null",""
"","","","","","html-button-response","55","162618","0.0-4.0-1.25","80","1","2022-11-28 04:53:13","49aca292d257f58668169b9fbab864ae","117.136.124.94","Mozilla/5.0 (Windows NT 10.0; Win64; x64) AppleWebKit/537.36 (KHTML, like Gecko) Chrome/107.0.0.0 Safari/537.36","WebKit","Chrome","107.0.0.0","Windows","10.0","1816","<p>作为军队的指挥官，你可以选择发射导弹杀死 <strong>4名</strong> 敌国士兵，但会炸毁附近的 <strong>1棵</strong> 敌国树木。</p> <p>树木的照片如下图所示。</p> <p></p> <img src='stimuli/trees/1.png', style='max-width: 30%;'> </img> <p><strong>你是否选择发射武器？</strong></p>","0",""
"","","","","","html-keyboard-response","56","163624","0.0-4.0-0.26","80","1","2022-11-28 04:53:13","49aca292d257f58668169b9fbab864ae","117.136.124.94","Mozilla/5.0 (Windows NT 10.0; Win64; x64) AppleWebKit/537.36 (KHTML, like Gecko) Chrome/107.0.0.0 Safari/537.36","WebKit","Chrome","107.0.0.0","Windows","10.0","null","<div style=""font-size:60px;"">+</div>","null",""
"","","","","","html-button-response","57","165604","0.0-4.0-1.26","80","1","2022-11-28 04:53:13","49aca292d257f58668169b9fbab864ae","117.136.124.94","Mozilla/5.0 (Windows NT 10.0; Win64; x64) AppleWebKit/537.36 (KHTML, like Gecko) Chrome/107.0.0.0 Safari/537.36","WebKit","Chrome","107.0.0.0","Windows","10.0","1978","<p>作为军队的指挥官，你可以选择发射导弹杀死 <strong>8名</strong> 敌国士兵，但会炸毁附近的 <strong>1棵</strong> 敌国树木。</p> <p>树木的照片如下图所示。</p> <p></p> <img src='stimuli/trees/2.png', style='max-width: 30%;'> </img> <p><strong>你是否选择发射武器？</strong></p>","0",""
"","","","","","html-keyboard-response","58","166608","0.0-4.0-0.27","80","1","2022-11-28 04:53:13","49aca292d257f58668169b9fbab864ae","117.136.124.94","Mozilla/5.0 (Windows NT 10.0; Win64; x64) AppleWebKit/537.36 (KHTML, like Gecko) Chrome/107.0.0.0 Safari/537.36","WebKit","Chrome","107.0.0.0","Windows","10.0","null","<div style=""font-size:60px;"">+</div>","null",""
"","","","","","html-button-response","59","168790","0.0-4.0-1.27","80","1","2022-11-28 04:53:13","49aca292d257f58668169b9fbab864ae","117.136.124.94","Mozilla/5.0 (Windows NT 10.0; Win64; x64) AppleWebKit/537.36 (KHTML, like Gecko) Chrome/107.0.0.0 Safari/537.36","WebKit","Chrome","107.0.0.0","Windows","10.0","2180","<p>作为军队的指挥官，你可以选择发射导弹杀死 <strong>4名</strong> 敌国士兵，但会炸毁附近的 <strong>1棵</strong> 敌国树木。</p> <p>树木的照片如下图所示。</p> <p></p> <img src='stimuli/trees/9.png', style='max-width: 30%;'> </img> <p><strong>你是否选择发射武器？</strong></p>","0",""
"","","","","","html-keyboard-response","60","169800","0.0-4.0-0.28","80","1","2022-11-28 04:53:13","49aca292d257f58668169b9fbab864ae","117.136.124.94","Mozilla/5.0 (Windows NT 10.0; Win64; x64) AppleWebKit/537.36 (KHTML, like Gecko) Chrome/107.0.0.0 Safari/537.36","WebKit","Chrome","107.0.0.0","Windows","10.0","null","<div style=""font-size:60px;"">+</div>","null",""
"","","","","","html-button-response","61","175795","0.0-4.0-1.28","80","1","2022-11-28 04:53:13","49aca292d257f58668169b9fbab864ae","117.136.124.94","Mozilla/5.0 (Windows NT 10.0; Win64; x64) AppleWebKit/537.36 (KHTML, like Gecko) Chrome/107.0.0.0 Safari/537.36","WebKit","Chrome","107.0.0.0","Windows","10.0","5992","<p>作为军队的指挥官，你可以选择发射导弹杀死 <strong>2名</strong> 敌国士兵，但会误杀附近的 <strong>1名</strong> 敌国平民。</p> <p>平民照片如下图所示。</p> <p></p> <img src='stimuli/faces/PFM3.jpg', style='max-width: 30%;'> </img> <p><strong>你是否选择发射武器？</strong></p>","1",""
"","","","","","html-keyboard-response","62","176799","0.0-4.0-0.29","80","1","2022-11-28 04:53:13","49aca292d257f58668169b9fbab864ae","117.136.124.94","Mozilla/5.0 (Windows NT 10.0; Win64; x64) AppleWebKit/537.36 (KHTML, like Gecko) Chrome/107.0.0.0 Safari/537.36","WebKit","Chrome","107.0.0.0","Windows","10.0","null","<div style=""font-size:60px;"">+</div>","null",""
"","","","","","html-button-response","63","178802","0.0-4.0-1.29","80","1","2022-11-28 04:53:13","49aca292d257f58668169b9fbab864ae","117.136.124.94","Mozilla/5.0 (Windows NT 10.0; Win64; x64) AppleWebKit/537.36 (KHTML, like Gecko) Chrome/107.0.0.0 Safari/537.36","WebKit","Chrome","107.0.0.0","Windows","10.0","2000","<p>作为军队的指挥官，你可以选择发射导弹杀死 <strong>1名</strong> 敌国士兵，但会误杀附近的 <strong>1名</strong> 敌国平民。</p> <p>平民照片如下图所示。</p> <p></p> <img src='stimuli/faces/PFF5.jpg', style='max-width: 30%;'> </img> <p><strong>你是否选择发射武器？</strong></p>","1",""
"","","","","","html-keyboard-response","64","179808","0.0-4.0-0.30","80","1","2022-11-28 04:53:13","49aca292d257f58668169b9fbab864ae","117.136.124.94","Mozilla/5.0 (Windows NT 10.0; Win64; x64) AppleWebKit/537.36 (KHTML, like Gecko) Chrome/107.0.0.0 Safari/537.36","WebKit","Chrome","107.0.0.0","Windows","10.0","null","<div style=""font-size:60px;"">+</div>","null",""
"","","","","","html-button-response","65","181931","0.0-4.0-1.30","80","1","2022-11-28 04:53:13","49aca292d257f58668169b9fbab864ae","117.136.124.94","Mozilla/5.0 (Windows NT 10.0; Win64; x64) AppleWebKit/537.36 (KHTML, like Gecko) Chrome/107.0.0.0 Safari/537.36","WebKit","Chrome","107.0.0.0","Windows","10.0","2121","<p>作为军队的指挥官，你可以选择发射导弹杀死 <strong>8名</strong> 敌国士兵，但会误杀附近的 <strong>1名</strong> 敌国平民。</p> <p>平民照片如下图所示。</p> <p></p> <img src='stimuli/faces/PFF3.jpg', style='max-width: 30%;'> </img> <p><strong>你是否选择发射武器？</strong></p>","0",""
"","","","","","html-keyboard-response","66","182935","0.0-4.0-0.31","80","1","2022-11-28 04:53:13","49aca292d257f58668169b9fbab864ae","117.136.124.94","Mozilla/5.0 (Windows NT 10.0; Win64; x64) AppleWebKit/537.36 (KHTML, like Gecko) Chrome/107.0.0.0 Safari/537.36","WebKit","Chrome","107.0.0.0","Windows","10.0","null","<div style=""font-size:60px;"">+</div>","null",""
"","","","","","html-button-response","67","184893","0.0-4.0-1.31","80","1","2022-11-28 04:53:13","49aca292d257f58668169b9fbab864ae","117.136.124.94","Mozilla/5.0 (Windows NT 10.0; Win64; x64) AppleWebKit/537.36 (KHTML, like Gecko) Chrome/107.0.0.0 Safari/537.36","WebKit","Chrome","107.0.0.0","Windows","10.0","1955","<p>作为军队的指挥官，你可以选择发射导弹杀死 <strong>7名</strong> 敌国士兵，但会炸毁附近的 <strong>1棵</strong> 敌国树木。</p> <p>树木的照片如下图所示。</p> <p></p> <img src='stimuli/trees/14.png', style='max-width: 30%;'> </img> <p><strong>你是否选择发射武器？</strong></p>","0",""
"","","","","","html-keyboard-response","68","185903","0.0-4.0-0.32","80","1","2022-11-28 04:53:13","49aca292d257f58668169b9fbab864ae","117.136.124.94","Mozilla/5.0 (Windows NT 10.0; Win64; x64) AppleWebKit/537.36 (KHTML, like Gecko) Chrome/107.0.0.0 Safari/537.36","WebKit","Chrome","107.0.0.0","Windows","10.0","null","<div style=""font-size:60px;"">+</div>","null",""
"","","","","","html-button-response","69","188726","0.0-4.0-1.32","80","1","2022-11-28 04:53:13","49aca292d257f58668169b9fbab864ae","117.136.124.94","Mozilla/5.0 (Windows NT 10.0; Win64; x64) AppleWebKit/537.36 (KHTML, like Gecko) Chrome/107.0.0.0 Safari/537.36","WebKit","Chrome","107.0.0.0","Windows","10.0","2820","<p>作为军队的指挥官，你可以选择发射导弹杀死 <strong>1名</strong> 敌国士兵，但会炸毁附近的 <strong>1棵</strong> 敌国树木。</p> <p>树木的照片如下图所示。</p> <p></p> <img src='stimuli/trees/4.png', style='max-width: 30%;'> </img> <p><strong>你是否选择发射武器？</strong></p>","1",""
"","","","","","html-keyboard-response","70","189735","0.0-4.0-0.33","80","1","2022-11-28 04:53:13","49aca292d257f58668169b9fbab864ae","117.136.124.94","Mozilla/5.0 (Windows NT 10.0; Win64; x64) AppleWebKit/537.36 (KHTML, like Gecko) Chrome/107.0.0.0 Safari/537.36","WebKit","Chrome","107.0.0.0","Windows","10.0","null","<div style=""font-size:60px;"">+</div>","null",""
"","","","","","html-button-response","71","192534","0.0-4.0-1.33","80","1","2022-11-28 04:53:13","49aca292d257f58668169b9fbab864ae","117.136.124.94","Mozilla/5.0 (Windows NT 10.0; Win64; x64) AppleWebKit/537.36 (KHTML, like Gecko) Chrome/107.0.0.0 Safari/537.36","WebKit","Chrome","107.0.0.0","Windows","10.0","2797","<p>作为军队的指挥官，你可以选择发射导弹杀死 <strong>6名</strong> 敌国士兵，但会炸毁附近的 <strong>1棵</strong> 敌国树木。</p> <p>树木的照片如下图所示。</p> <p></p> <img src='stimuli/trees/1.png', style='max-width: 30%;'> </img> <p><strong>你是否选择发射武器？</strong></p>","0",""
"","","","","","html-keyboard-response","72","193543","0.0-4.0-0.34","80","1","2022-11-28 04:53:13","49aca292d257f58668169b9fbab864ae","117.136.124.94","Mozilla/5.0 (Windows NT 10.0; Win64; x64) AppleWebKit/537.36 (KHTML, like Gecko) Chrome/107.0.0.0 Safari/537.36","WebKit","Chrome","107.0.0.0","Windows","10.0","null","<div style=""font-size:60px;"">+</div>","null",""
"","","","","","html-button-response","73","197190","0.0-4.0-1.34","80","1","2022-11-28 04:53:13","49aca292d257f58668169b9fbab864ae","117.136.124.94","Mozilla/5.0 (Windows NT 10.0; Win64; x64) AppleWebKit/537.36 (KHTML, like Gecko) Chrome/107.0.0.0 Safari/537.36","WebKit","Chrome","107.0.0.0","Windows","10.0","3644","<p>作为军队的指挥官，你可以选择发射导弹杀死 <strong>2名</strong> 敌国士兵，但会误杀附近的 <strong>1名</strong> 敌国平民。</p> <p>平民照片如下图所示。</p> <p></p> <img src='stimuli/faces/PFF4.jpg', style='max-width: 30%;'> </img> <p><strong>你是否选择发射武器？</strong></p>","1",""
"","","","","","html-keyboard-response","74","198199","0.0-4.0-0.35","80","1","2022-11-28 04:53:13","49aca292d257f58668169b9fbab864ae","117.136.124.94","Mozilla/5.0 (Windows NT 10.0; Win64; x64) AppleWebKit/537.36 (KHTML, like Gecko) Chrome/107.0.0.0 Safari/537.36","WebKit","Chrome","107.0.0.0","Windows","10.0","null","<div style=""font-size:60px;"">+</div>","null",""
"","","","","","html-button-response","75","200853","0.0-4.0-1.35","80","1","2022-11-28 04:53:13","49aca292d257f58668169b9fbab864ae","117.136.124.94","Mozilla/5.0 (Windows NT 10.0; Win64; x64) AppleWebKit/537.36 (KHTML, like Gecko) Chrome/107.0.0.0 Safari/537.36","WebKit","Chrome","107.0.0.0","Windows","10.0","2651","<p>作为军队的指挥官，你可以选择发射导弹杀死 <strong>5名</strong> 敌国士兵，但会误杀附近的 <strong>1名</strong> 敌国平民。</p> <p>平民照片如下图所示。</p> <p></p> <img src='stimuli/faces/PFF2.jpg', style='max-width: 30%;'> </img> <p><strong>你是否选择发射武器？</strong></p>","0",""
"","","","","","html-keyboard-response","76","201863","0.0-4.0-0.36","80","1","2022-11-28 04:53:13","49aca292d257f58668169b9fbab864ae","117.136.124.94","Mozilla/5.0 (Windows NT 10.0; Win64; x64) AppleWebKit/537.36 (KHTML, like Gecko) Chrome/107.0.0.0 Safari/537.36","WebKit","Chrome","107.0.0.0","Windows","10.0","null","<div style=""font-size:60px;"">+</div>","null",""
"","","","","","html-button-response","77","203873","0.0-4.0-1.36","80","1","2022-11-28 04:53:13","49aca292d257f58668169b9fbab864ae","117.136.124.94","Mozilla/5.0 (Windows NT 10.0; Win64; x64) AppleWebKit/537.36 (KHTML, like Gecko) Chrome/107.0.0.0 Safari/537.36","WebKit","Chrome","107.0.0.0","Windows","10.0","2006","<p>作为军队的指挥官，你可以选择发射导弹杀死 <strong>7名</strong> 敌国士兵，但会炸毁附近的 <strong>1棵</strong> 敌国树木。</p> <p>树木的照片如下图所示。</p> <p></p> <img src='stimuli/trees/16.png', style='max-width: 30%;'> </img> <p><strong>你是否选择发射武器？</strong></p>","0",""
"","","","","","html-keyboard-response","78","204879","0.0-4.0-0.37","80","1","2022-11-28 04:53:13","49aca292d257f58668169b9fbab864ae","117.136.124.94","Mozilla/5.0 (Windows NT 10.0; Win64; x64) AppleWebKit/537.36 (KHTML, like Gecko) Chrome/107.0.0.0 Safari/537.36","WebKit","Chrome","107.0.0.0","Windows","10.0","null","<div style=""font-size:60px;"">+</div>","null",""
"","","","","","html-button-response","79","206406","0.0-4.0-1.37","80","1","2022-11-28 04:53:13","49aca292d257f58668169b9fbab864ae","117.136.124.94","Mozilla/5.0 (Windows NT 10.0; Win64; x64) AppleWebKit/537.36 (KHTML, like Gecko) Chrome/107.0.0.0 Safari/537.36","WebKit","Chrome","107.0.0.0","Windows","10.0","1522","<p>作为军队的指挥官，你可以选择发射导弹杀死 <strong>4名</strong> 敌国士兵，但会误杀附近的 <strong>1名</strong> 敌国平民。</p> <p>平民照片如下图所示。</p> <p></p> <img src='stimuli/faces/PFM7.jpg', style='max-width: 30%;'> </img> <p><strong>你是否选择发射武器？</strong></p>","0",""
"","","","","","html-keyboard-response","80","207415","0.0-4.0-0.38","80","1","2022-11-28 04:53:13","49aca292d257f58668169b9fbab864ae","117.136.124.94","Mozilla/5.0 (Windows NT 10.0; Win64; x64) AppleWebKit/537.36 (KHTML, like Gecko) Chrome/107.0.0.0 Safari/537.36","WebKit","Chrome","107.0.0.0","Windows","10.0","null","<div style=""font-size:60px;"">+</div>","null",""
"","","","","","html-button-response","81","208668","0.0-4.0-1.38","80","1","2022-11-28 04:53:13","49aca292d257f58668169b9fbab864ae","117.136.124.94","Mozilla/5.0 (Windows NT 10.0; Win64; x64) AppleWebKit/537.36 (KHTML, like Gecko) Chrome/107.0.0.0 Safari/537.36","WebKit","Chrome","107.0.0.0","Windows","10.0","1250","<p>作为军队的指挥官，你可以选择发射导弹杀死 <strong>5名</strong> 敌国士兵，但会炸毁附近的 <strong>1棵</strong> 敌国树木。</p> <p>树木的照片如下图所示。</p> <p></p> <img src='stimuli/trees/16.png', style='max-width: 30%;'> </img> <p><strong>你是否选择发射武器？</strong></p>","0",""
"","","","","","html-keyboard-response","82","209679","0.0-4.0-0.39","80","1","2022-11-28 04:53:13","49aca292d257f58668169b9fbab864ae","117.136.124.94","Mozilla/5.0 (Windows NT 10.0; Win64; x64) AppleWebKit/537.36 (KHTML, like Gecko) Chrome/107.0.0.0 Safari/537.36","WebKit","Chrome","107.0.0.0","Windows","10.0","null","<div style=""font-size:60px;"">+</div>","null",""
"","","","","","html-button-response","83","212754","0.0-4.0-1.39","80","1","2022-11-28 04:53:13","49aca292d257f58668169b9fbab864ae","117.136.124.94","Mozilla/5.0 (Windows NT 10.0; Win64; x64) AppleWebKit/537.36 (KHTML, like Gecko) Chrome/107.0.0.0 Safari/537.36","WebKit","Chrome","107.0.0.0","Windows","10.0","3071","<p>作为军队的指挥官，你可以选择发射导弹杀死 <strong>1名</strong> 敌国士兵，但会炸毁附近的 <strong>1棵</strong> 敌国树木。</p> <p>树木的照片如下图所示。</p> <p></p> <img src='stimuli/trees/8.png', style='max-width: 30%;'> </img> <p><strong>你是否选择发射武器？</strong></p>","0",""
"","","","","","html-keyboard-response","84","213760","0.0-4.0-0.40","80","1","2022-11-28 04:53:13","49aca292d257f58668169b9fbab864ae","117.136.124.94","Mozilla/5.0 (Windows NT 10.0; Win64; x64) AppleWebKit/537.36 (KHTML, like Gecko) Chrome/107.0.0.0 Safari/537.36","WebKit","Chrome","107.0.0.0","Windows","10.0","null","<div style=""font-size:60px;"">+</div>","null",""
"","","","","","html-button-response","85","224489","0.0-4.0-1.40","80","1","2022-11-28 04:53:13","49aca292d257f58668169b9fbab864ae","117.136.124.94","Mozilla/5.0 (Windows NT 10.0; Win64; x64) AppleWebKit/537.36 (KHTML, like Gecko) Chrome/107.0.0.0 Safari/537.36","WebKit","Chrome","107.0.0.0","Windows","10.0","10725","<p>作为军队的指挥官，你可以选择发射导弹杀死 <strong>8名</strong> 敌国士兵，但会炸毁附近的 <strong>1棵</strong> 敌国树木。</p> <p>树木的照片如下图所示。</p> <p></p> <img src='stimuli/trees/8.png', style='max-width: 30%;'> </img> <p><strong>你是否选择发射武器？</strong></p>","0",""
"","","","","","html-keyboard-response","86","225496","0.0-4.0-0.41","80","1","2022-11-28 04:53:13","49aca292d257f58668169b9fbab864ae","117.136.124.94","Mozilla/5.0 (Windows NT 10.0; Win64; x64) AppleWebKit/537.36 (KHTML, like Gecko) Chrome/107.0.0.0 Safari/537.36","WebKit","Chrome","107.0.0.0","Windows","10.0","null","<div style=""font-size:60px;"">+</div>","null",""
"","","","","","html-button-response","87","228625","0.0-4.0-1.41","80","1","2022-11-28 04:53:13","49aca292d257f58668169b9fbab864ae","117.136.124.94","Mozilla/5.0 (Windows NT 10.0; Win64; x64) AppleWebKit/537.36 (KHTML, like Gecko) Chrome/107.0.0.0 Safari/537.36","WebKit","Chrome","107.0.0.0","Windows","10.0","3125","<p>作为军队的指挥官，你可以选择发射导弹杀死 <strong>10名</strong> 敌国士兵，但会误杀附近的 <strong>1名</strong> 敌国平民。</p> <p>平民照片如下图所示。</p> <p></p> <img src='stimuli/faces/PFM6.jpg', style='max-width: 30%;'> </img> <p><strong>你是否选择发射武器？</strong></p>","0",""
"","","","","","html-keyboard-response","88","229631","0.0-4.0-0.42","80","1","2022-11-28 04:53:13","49aca292d257f58668169b9fbab864ae","117.136.124.94","Mozilla/5.0 (Windows NT 10.0; Win64; x64) AppleWebKit/537.36 (KHTML, like Gecko) Chrome/107.0.0.0 Safari/537.36","WebKit","Chrome","107.0.0.0","Windows","10.0","null","<div style=""font-size:60px;"">+</div>","null",""
"","","","","","html-button-response","89","230829","0.0-4.0-1.42","80","1","2022-11-28 04:53:13","49aca292d257f58668169b9fbab864ae","117.136.124.94","Mozilla/5.0 (Windows NT 10.0; Win64; x64) AppleWebKit/537.36 (KHTML, like Gecko) Chrome/107.0.0.0 Safari/537.36","WebKit","Chrome","107.0.0.0","Windows","10.0","1195","<p>作为军队的指挥官，你可以选择发射导弹杀死 <strong>10名</strong> 敌国士兵，但会误杀附近的 <strong>1名</strong> 敌国平民。</p> <p>平民照片如下图所示。</p> <p></p> <img src='stimuli/faces/PFF1.jpg', style='max-width: 30%;'> </img> <p><strong>你是否选择发射武器？</strong></p>","0",""
"","","","","","html-keyboard-response","90","231840","0.0-4.0-0.43","80","1","2022-11-28 04:53:13","49aca292d257f58668169b9fbab864ae","117.136.124.94","Mozilla/5.0 (Windows NT 10.0; Win64; x64) AppleWebKit/537.36 (KHTML, like Gecko) Chrome/107.0.0.0 Safari/537.36","WebKit","Chrome","107.0.0.0","Windows","10.0","null","<div style=""font-size:60px;"">+</div>","null",""
"","","","","","html-button-response","91","233952","0.0-4.0-1.43","80","1","2022-11-28 04:53:13","49aca292d257f58668169b9fbab864ae","117.136.124.94","Mozilla/5.0 (Windows NT 10.0; Win64; x64) AppleWebKit/537.36 (KHTML, like Gecko) Chrome/107.0.0.0 Safari/537.36","WebKit","Chrome","107.0.0.0","Windows","10.0","2109","<p>作为军队的指挥官，你可以选择发射导弹杀死 <strong>7名</strong> 敌国士兵，但会误杀附近的 <strong>1名</strong> 敌国平民。</p> <p>平民照片如下图所示。</p> <p></p> <img src='stimuli/faces/PFF4.jpg', style='max-width: 30%;'> </img> <p><strong>你是否选择发射武器？</strong></p>","0",""
"","","","","","html-keyboard-response","92","234960","0.0-4.0-0.44","80","1","2022-11-28 04:53:13","49aca292d257f58668169b9fbab864ae","117.136.124.94","Mozilla/5.0 (Windows NT 10.0; Win64; x64) AppleWebKit/537.36 (KHTML, like Gecko) Chrome/107.0.0.0 Safari/537.36","WebKit","Chrome","107.0.0.0","Windows","10.0","null","<div style=""font-size:60px;"">+</div>","null",""
"","","","","","html-button-response","93","236164","0.0-4.0-1.44","80","1","2022-11-28 04:53:13","49aca292d257f58668169b9fbab864ae","117.136.124.94","Mozilla/5.0 (Windows NT 10.0; Win64; x64) AppleWebKit/537.36 (KHTML, like Gecko) Chrome/107.0.0.0 Safari/537.36","WebKit","Chrome","107.0.0.0","Windows","10.0","1201","<p>作为军队的指挥官，你可以选择发射导弹杀死 <strong>9名</strong> 敌国士兵，但会炸毁附近的 <strong>1棵</strong> 敌国树木。</p> <p>树木的照片如下图所示。</p> <p></p> <img src='stimuli/trees/3.png', style='max-width: 30%;'> </img> <p><strong>你是否选择发射武器？</strong></p>","0",""
"","","","","","html-keyboard-response","94","237168","0.0-4.0-0.45","80","1","2022-11-28 04:53:13","49aca292d257f58668169b9fbab864ae","117.136.124.94","Mozilla/5.0 (Windows NT 10.0; Win64; x64) AppleWebKit/537.36 (KHTML, like Gecko) Chrome/107.0.0.0 Safari/537.36","WebKit","Chrome","107.0.0.0","Windows","10.0","null","<div style=""font-size:60px;"">+</div>","null",""
"","","","","","html-button-response","95","238454","0.0-4.0-1.45","80","1","2022-11-28 04:53:13","49aca292d257f58668169b9fbab864ae","117.136.124.94","Mozilla/5.0 (Windows NT 10.0; Win64; x64) AppleWebKit/537.36 (KHTML, like Gecko) Chrome/107.0.0.0 Safari/537.36","WebKit","Chrome","107.0.0.0","Windows","10.0","1284","<p>作为军队的指挥官，你可以选择发射导弹杀死 <strong>7名</strong> 敌国士兵，但会误杀附近的 <strong>1名</strong> 敌国平民。</p> <p>平民照片如下图所示。</p> <p></p> <img src='stimuli/faces/PFM3.jpg', style='max-width: 30%;'> </img> <p><strong>你是否选择发射武器？</strong></p>","0",""
"","","","","","html-keyboard-response","96","239465","0.0-4.0-0.46","80","1","2022-11-28 04:53:13","49aca292d257f58668169b9fbab864ae","117.136.124.94","Mozilla/5.0 (Windows NT 10.0; Win64; x64) AppleWebKit/537.36 (KHTML, like Gecko) Chrome/107.0.0.0 Safari/537.36","WebKit","Chrome","107.0.0.0","Windows","10.0","null","<div style=""font-size:60px;"">+</div>","null",""
"","","","","","html-button-response","97","240864","0.0-4.0-1.46","80","1","2022-11-28 04:53:13","49aca292d257f58668169b9fbab864ae","117.136.124.94","Mozilla/5.0 (Windows NT 10.0; Win64; x64) AppleWebKit/537.36 (KHTML, like Gecko) Chrome/107.0.0.0 Safari/537.36","WebKit","Chrome","107.0.0.0","Windows","10.0","1396","<p>作为军队的指挥官，你可以选择发射导弹杀死 <strong>5名</strong> 敌国士兵，但会炸毁附近的 <strong>1棵</strong> 敌国树木。</p> <p>树木的照片如下图所示。</p> <p></p> <img src='stimuli/trees/12.png', style='max-width: 30%;'> </img> <p><strong>你是否选择发射武器？</strong></p>","0",""
"","","","","","html-keyboard-response","98","241871","0.0-4.0-0.47","80","1","2022-11-28 04:53:13","49aca292d257f58668169b9fbab864ae","117.136.124.94","Mozilla/5.0 (Windows NT 10.0; Win64; x64) AppleWebKit/537.36 (KHTML, like Gecko) Chrome/107.0.0.0 Safari/537.36","WebKit","Chrome","107.0.0.0","Windows","10.0","null","<div style=""font-size:60px;"">+</div>","null",""
"","","","","","html-button-response","99","242731","0.0-4.0-1.47","80","1","2022-11-28 04:53:13","49aca292d257f58668169b9fbab864ae","117.136.124.94","Mozilla/5.0 (Windows NT 10.0; Win64; x64) AppleWebKit/537.36 (KHTML, like Gecko) Chrome/107.0.0.0 Safari/537.36","WebKit","Chrome","107.0.0.0","Windows","10.0","855","<p>作为军队的指挥官，你可以选择发射导弹杀死 <strong>4名</strong> 敌国士兵，但会误杀附近的 <strong>1名</strong> 敌国平民。</p> <p>平民照片如下图所示。</p> <p></p> <img src='stimuli/faces/PFM4.jpg', style='max-width: 30%;'> </img> <p><strong>你是否选择发射武器？</strong></p>","0",""
"","","","","","html-keyboard-response","100","243735","0.0-4.0-0.48","80","1","2022-11-28 04:53:13","49aca292d257f58668169b9fbab864ae","117.136.124.94","Mozilla/5.0 (Windows NT 10.0; Win64; x64) AppleWebKit/537.36 (KHTML, like Gecko) Chrome/107.0.0.0 Safari/537.36","WebKit","Chrome","107.0.0.0","Windows","10.0","null","<div style=""font-size:60px;"">+</div>","null",""
"","","","","","html-button-response","101","244949","0.0-4.0-1.48","80","1","2022-11-28 04:53:13","49aca292d257f58668169b9fbab864ae","117.136.124.94","Mozilla/5.0 (Windows NT 10.0; Win64; x64) AppleWebKit/537.36 (KHTML, like Gecko) Chrome/107.0.0.0 Safari/537.36","WebKit","Chrome","107.0.0.0","Windows","10.0","1210","<p>作为军队的指挥官，你可以选择发射导弹杀死 <strong>6名</strong> 敌国士兵，但会炸毁附近的 <strong>1棵</strong> 敌国树木。</p> <p>树木的照片如下图所示。</p> <p></p> <img src='stimuli/trees/5.png', style='max-width: 30%;'> </img> <p><strong>你是否选择发射武器？</strong></p>","0",""
"","","","","","html-keyboard-response","102","245959","0.0-4.0-0.49","80","1","2022-11-28 04:53:13","49aca292d257f58668169b9fbab864ae","117.136.124.94","Mozilla/5.0 (Windows NT 10.0; Win64; x64) AppleWebKit/537.36 (KHTML, like Gecko) Chrome/107.0.0.0 Safari/537.36","WebKit","Chrome","107.0.0.0","Windows","10.0","null","<div style=""font-size:60px;"">+</div>","null",""
"","","","","","html-button-response","103","248131","0.0-4.0-1.49","80","1","2022-11-28 04:53:13","49aca292d257f58668169b9fbab864ae","117.136.124.94","Mozilla/5.0 (Windows NT 10.0; Win64; x64) AppleWebKit/537.36 (KHTML, like Gecko) Chrome/107.0.0.0 Safari/537.36","WebKit","Chrome","107.0.0.0","Windows","10.0","2169","<p>作为军队的指挥官，你可以选择发射导弹杀死 <strong>1名</strong> 敌国士兵，但会误杀附近的 <strong>1名</strong> 敌国平民。</p> <p>平民照片如下图所示。</p> <p></p> <img src='stimuli/faces/PFM8.jpg', style='max-width: 30%;'> </img> <p><strong>你是否选择发射武器？</strong></p>","1",""
"","","","","","html-keyboard-response","104","249135","0.0-4.0-0.50","80","1","2022-11-28 04:53:13","49aca292d257f58668169b9fbab864ae","117.136.124.94","Mozilla/5.0 (Windows NT 10.0; Win64; x64) AppleWebKit/537.36 (KHTML, like Gecko) Chrome/107.0.0.0 Safari/537.36","WebKit","Chrome","107.0.0.0","Windows","10.0","null","<div style=""font-size:60px;"">+</div>","null",""
"","","","","","html-button-response","105","250897","0.0-4.0-1.50","80","1","2022-11-28 04:53:13","49aca292d257f58668169b9fbab864ae","117.136.124.94","Mozilla/5.0 (Windows NT 10.0; Win64; x64) AppleWebKit/537.36 (KHTML, like Gecko) Chrome/107.0.0.0 Safari/537.36","WebKit","Chrome","107.0.0.0","Windows","10.0","1759","<p>作为军队的指挥官，你可以选择发射导弹杀死 <strong>7名</strong> 敌国士兵，但会误杀附近的 <strong>1名</strong> 敌国平民。</p> <p>平民照片如下图所示。</p> <p></p> <img src='stimuli/faces/PFF6.jpg', style='max-width: 30%;'> </img> <p><strong>你是否选择发射武器？</strong></p>","0",""
"","","","","","html-keyboard-response","106","251903","0.0-4.0-0.51","80","1","2022-11-28 04:53:13","49aca292d257f58668169b9fbab864ae","117.136.124.94","Mozilla/5.0 (Windows NT 10.0; Win64; x64) AppleWebKit/537.36 (KHTML, like Gecko) Chrome/107.0.0.0 Safari/537.36","WebKit","Chrome","107.0.0.0","Windows","10.0","null","<div style=""font-size:60px;"">+</div>","null",""
"","","","","","html-button-response","107","253690","0.0-4.0-1.51","80","1","2022-11-28 04:53:13","49aca292d257f58668169b9fbab864ae","117.136.124.94","Mozilla/5.0 (Windows NT 10.0; Win64; x64) AppleWebKit/537.36 (KHTML, like Gecko) Chrome/107.0.0.0 Safari/537.36","WebKit","Chrome","107.0.0.0","Windows","10.0","1783","<p>作为军队的指挥官，你可以选择发射导弹杀死 <strong>8名</strong> 敌国士兵，但会误杀附近的 <strong>1名</strong> 敌国平民。</p> <p>平民照片如下图所示。</p> <p></p> <img src='stimuli/faces/PFF7.jpg', style='max-width: 30%;'> </img> <p><strong>你是否选择发射武器？</strong></p>","0",""
"","","","","","html-keyboard-response","108","254695","0.0-4.0-0.52","80","1","2022-11-28 04:53:13","49aca292d257f58668169b9fbab864ae","117.136.124.94","Mozilla/5.0 (Windows NT 10.0; Win64; x64) AppleWebKit/537.36 (KHTML, like Gecko) Chrome/107.0.0.0 Safari/537.36","WebKit","Chrome","107.0.0.0","Windows","10.0","null","<div style=""font-size:60px;"">+</div>","null",""
"","","","","","html-button-response","109","256318","0.0-4.0-1.52","80","1","2022-11-28 04:53:13","49aca292d257f58668169b9fbab864ae","117.136.124.94","Mozilla/5.0 (Windows NT 10.0; Win64; x64) AppleWebKit/537.36 (KHTML, like Gecko) Chrome/107.0.0.0 Safari/537.36","WebKit","Chrome","107.0.0.0","Windows","10.0","1619","<p>作为军队的指挥官，你可以选择发射导弹杀死 <strong>6名</strong> 敌国士兵，但会误杀附近的 <strong>1名</strong> 敌国平民。</p> <p>平民照片如下图所示。</p> <p></p> <img src='stimuli/faces/PFF8.jpg', style='max-width: 30%;'> </img> <p><strong>你是否选择发射武器？</strong></p>","0",""
"","","","","","html-keyboard-response","110","257327","0.0-4.0-0.53","80","1","2022-11-28 04:53:13","49aca292d257f58668169b9fbab864ae","117.136.124.94","Mozilla/5.0 (Windows NT 10.0; Win64; x64) AppleWebKit/537.36 (KHTML, like Gecko) Chrome/107.0.0.0 Safari/537.36","WebKit","Chrome","107.0.0.0","Windows","10.0","null","<div style=""font-size:60px;"">+</div>","null",""
"","","","","","html-button-response","111","259947","0.0-4.0-1.53","80","1","2022-11-28 04:53:13","49aca292d257f58668169b9fbab864ae","117.136.124.94","Mozilla/5.0 (Windows NT 10.0; Win64; x64) AppleWebKit/537.36 (KHTML, like Gecko) Chrome/107.0.0.0 Safari/537.36","WebKit","Chrome","107.0.0.0","Windows","10.0","2617","<p>作为军队的指挥官，你可以选择发射导弹杀死 <strong>1名</strong> 敌国士兵，但会误杀附近的 <strong>1名</strong> 敌国平民。</p> <p>平民照片如下图所示。</p> <p></p> <img src='stimuli/faces/PFM6.jpg', style='max-width: 30%;'> </img> <p><strong>你是否选择发射武器？</strong></p>","1",""
"","","","","","html-keyboard-response","112","260952","0.0-4.0-0.54","80","1","2022-11-28 04:53:13","49aca292d257f58668169b9fbab864ae","117.136.124.94","Mozilla/5.0 (Windows NT 10.0; Win64; x64) AppleWebKit/537.36 (KHTML, like Gecko) Chrome/107.0.0.0 Safari/537.36","WebKit","Chrome","107.0.0.0","Windows","10.0","null","<div style=""font-size:60px;"">+</div>","null",""
"","","","","","html-button-response","113","262857","0.0-4.0-1.54","80","1","2022-11-28 04:53:13","49aca292d257f58668169b9fbab864ae","117.136.124.94","Mozilla/5.0 (Windows NT 10.0; Win64; x64) AppleWebKit/537.36 (KHTML, like Gecko) Chrome/107.0.0.0 Safari/537.36","WebKit","Chrome","107.0.0.0","Windows","10.0","1901","<p>作为军队的指挥官，你可以选择发射导弹杀死 <strong>1名</strong> 敌国士兵，但会炸毁附近的 <strong>1棵</strong> 敌国树木。</p> <p>树木的照片如下图所示。</p> <p></p> <img src='stimuli/trees/5.png', style='max-width: 30%;'> </img> <p><strong>你是否选择发射武器？</strong></p>","0",""
"","","","","","html-keyboard-response","114","263863","0.0-4.0-0.55","80","1","2022-11-28 04:53:13","49aca292d257f58668169b9fbab864ae","117.136.124.94","Mozilla/5.0 (Windows NT 10.0; Win64; x64) AppleWebKit/537.36 (KHTML, like Gecko) Chrome/107.0.0.0 Safari/537.36","WebKit","Chrome","107.0.0.0","Windows","10.0","null","<div style=""font-size:60px;"">+</div>","null",""
"","","","","","html-button-response","115","270344","0.0-4.0-1.55","80","1","2022-11-28 04:53:13","49aca292d257f58668169b9fbab864ae","117.136.124.94","Mozilla/5.0 (Windows NT 10.0; Win64; x64) AppleWebKit/537.36 (KHTML, like Gecko) Chrome/107.0.0.0 Safari/537.36","WebKit","Chrome","107.0.0.0","Windows","10.0","6477","<p>作为军队的指挥官，你可以选择发射导弹杀死 <strong>1名</strong> 敌国士兵，但会误杀附近的 <strong>1名</strong> 敌国平民。</p> <p>平民照片如下图所示。</p> <p></p> <img src='stimuli/faces/PFF6.jpg', style='max-width: 30%;'> </img> <p><strong>你是否选择发射武器？</strong></p>","1",""
"","","","","","html-keyboard-response","116","271352","0.0-4.0-0.56","80","1","2022-11-28 04:53:13","49aca292d257f58668169b9fbab864ae","117.136.124.94","Mozilla/5.0 (Windows NT 10.0; Win64; x64) AppleWebKit/537.36 (KHTML, like Gecko) Chrome/107.0.0.0 Safari/537.36","WebKit","Chrome","107.0.0.0","Windows","10.0","null","<div style=""font-size:60px;"">+</div>","null",""
"","","","","","html-button-response","117","273546","0.0-4.0-1.56","80","1","2022-11-28 04:53:13","49aca292d257f58668169b9fbab864ae","117.136.124.94","Mozilla/5.0 (Windows NT 10.0; Win64; x64) AppleWebKit/537.36 (KHTML, like Gecko) Chrome/107.0.0.0 Safari/537.36","WebKit","Chrome","107.0.0.0","Windows","10.0","2190","<p>作为军队的指挥官，你可以选择发射导弹杀死 <strong>7名</strong> 敌国士兵，但会炸毁附近的 <strong>1棵</strong> 敌国树木。</p> <p>树木的照片如下图所示。</p> <p></p> <img src='stimuli/trees/6.png', style='max-width: 30%;'> </img> <p><strong>你是否选择发射武器？</strong></p>","0",""
"","","","","","html-keyboard-response","118","274552","0.0-4.0-0.57","80","1","2022-11-28 04:53:13","49aca292d257f58668169b9fbab864ae","117.136.124.94","Mozilla/5.0 (Windows NT 10.0; Win64; x64) AppleWebKit/537.36 (KHTML, like Gecko) Chrome/107.0.0.0 Safari/537.36","WebKit","Chrome","107.0.0.0","Windows","10.0","null","<div style=""font-size:60px;"">+</div>","null",""
"","","","","","html-button-response","119","276400","0.0-4.0-1.57","80","1","2022-11-28 04:53:13","49aca292d257f58668169b9fbab864ae","117.136.124.94","Mozilla/5.0 (Windows NT 10.0; Win64; x64) AppleWebKit/537.36 (KHTML, like Gecko) Chrome/107.0.0.0 Safari/537.36","WebKit","Chrome","107.0.0.0","Windows","10.0","1844","<p>作为军队的指挥官，你可以选择发射导弹杀死 <strong>2名</strong> 敌国士兵，但会炸毁附近的 <strong>1棵</strong> 敌国树木。</p> <p>树木的照片如下图所示。</p> <p></p> <img src='stimuli/trees/15.png', style='max-width: 30%;'> </img> <p><strong>你是否选择发射武器？</strong></p>","0",""
"","","","","","html-keyboard-response","120","277408","0.0-4.0-0.58","80","1","2022-11-28 04:53:13","49aca292d257f58668169b9fbab864ae","117.136.124.94","Mozilla/5.0 (Windows NT 10.0; Win64; x64) AppleWebKit/537.36 (KHTML, like Gecko) Chrome/107.0.0.0 Safari/537.36","WebKit","Chrome","107.0.0.0","Windows","10.0","null","<div style=""font-size:60px;"">+</div>","null",""
"","","","","","html-button-response","121","279080","0.0-4.0-1.58","80","1","2022-11-28 04:53:13","49aca292d257f58668169b9fbab864ae","117.136.124.94","Mozilla/5.0 (Windows NT 10.0; Win64; x64) AppleWebKit/537.36 (KHTML, like Gecko) Chrome/107.0.0.0 Safari/537.36","WebKit","Chrome","107.0.0.0","Windows","10.0","1668","<p>作为军队的指挥官，你可以选择发射导弹杀死 <strong>8名</strong> 敌国士兵，但会炸毁附近的 <strong>1棵</strong> 敌国树木。</p> <p>树木的照片如下图所示。</p> <p></p> <img src='stimuli/trees/4.png', style='max-width: 30%;'> </img> <p><strong>你是否选择发射武器？</strong></p>","0",""
"","","","","","html-keyboard-response","122","280088","0.0-4.0-0.59","80","1","2022-11-28 04:53:13","49aca292d257f58668169b9fbab864ae","117.136.124.94","Mozilla/5.0 (Windows NT 10.0; Win64; x64) AppleWebKit/537.36 (KHTML, like Gecko) Chrome/107.0.0.0 Safari/537.36","WebKit","Chrome","107.0.0.0","Windows","10.0","null","<div style=""font-size:60px;"">+</div>","null",""
"","","","","","html-button-response","123","281721","0.0-4.0-1.59","80","1","2022-11-28 04:53:13","49aca292d257f58668169b9fbab864ae","117.136.124.94","Mozilla/5.0 (Windows NT 10.0; Win64; x64) AppleWebKit/537.36 (KHTML, like Gecko) Chrome/107.0.0.0 Safari/537.36","WebKit","Chrome","107.0.0.0","Windows","10.0","1630","<p>作为军队的指挥官，你可以选择发射导弹杀死 <strong>8名</strong> 敌国士兵，但会炸毁附近的 <strong>1棵</strong> 敌国树木。</p> <p>树木的照片如下图所示。</p> <p></p> <img src='stimuli/trees/10.png', style='max-width: 30%;'> </img> <p><strong>你是否选择发射武器？</strong></p>","0",""
"","","","","","html-keyboard-response","124","282728","0.0-4.0-0.60","80","1","2022-11-28 04:53:13","49aca292d257f58668169b9fbab864ae","117.136.124.94","Mozilla/5.0 (Windows NT 10.0; Win64; x64) AppleWebKit/537.36 (KHTML, like Gecko) Chrome/107.0.0.0 Safari/537.36","WebKit","Chrome","107.0.0.0","Windows","10.0","null","<div style=""font-size:60px;"">+</div>","null",""
"","","","","","html-button-response","125","284165","0.0-4.0-1.60","80","1","2022-11-28 04:53:13","49aca292d257f58668169b9fbab864ae","117.136.124.94","Mozilla/5.0 (Windows NT 10.0; Win64; x64) AppleWebKit/537.36 (KHTML, like Gecko) Chrome/107.0.0.0 Safari/537.36","WebKit","Chrome","107.0.0.0","Windows","10.0","1434","<p>作为军队的指挥官，你可以选择发射导弹杀死 <strong>8名</strong> 敌国士兵，但会误杀附近的 <strong>1名</strong> 敌国平民。</p> <p>平民照片如下图所示。</p> <p></p> <img src='stimuli/faces/PFF2.jpg', style='max-width: 30%;'> </img> <p><strong>你是否选择发射武器？</strong></p>","0",""
"","","","","","html-keyboard-response","126","285176","0.0-4.0-0.61","80","1","2022-11-28 04:53:13","49aca292d257f58668169b9fbab864ae","117.136.124.94","Mozilla/5.0 (Windows NT 10.0; Win64; x64) AppleWebKit/537.36 (KHTML, like Gecko) Chrome/107.0.0.0 Safari/537.36","WebKit","Chrome","107.0.0.0","Windows","10.0","null","<div style=""font-size:60px;"">+</div>","null",""
"","","","","","html-button-response","127","287026","0.0-4.0-1.61","80","1","2022-11-28 04:53:13","49aca292d257f58668169b9fbab864ae","117.136.124.94","Mozilla/5.0 (Windows NT 10.0; Win64; x64) AppleWebKit/537.36 (KHTML, like Gecko) Chrome/107.0.0.0 Safari/537.36","WebKit","Chrome","107.0.0.0","Windows","10.0","1846","<p>作为军队的指挥官，你可以选择发射导弹杀死 <strong>3名</strong> 敌国士兵，但会误杀附近的 <strong>1名</strong> 敌国平民。</p> <p>平民照片如下图所示。</p> <p></p> <img src='stimuli/faces/PFM5.jpg', style='max-width: 30%;'> </img> <p><strong>你是否选择发射武器？</strong></p>","0",""
"","","","","","html-keyboard-response","128","288032","0.0-4.0-0.62","80","1","2022-11-28 04:53:13","49aca292d257f58668169b9fbab864ae","117.136.124.94","Mozilla/5.0 (Windows NT 10.0; Win64; x64) AppleWebKit/537.36 (KHTML, like Gecko) Chrome/107.0.0.0 Safari/537.36","WebKit","Chrome","107.0.0.0","Windows","10.0","null","<div style=""font-size:60px;"">+</div>","null",""
"","","","","","html-button-response","129","289085","0.0-4.0-1.62","80","1","2022-11-28 04:53:13","49aca292d257f58668169b9fbab864ae","117.136.124.94","Mozilla/5.0 (Windows NT 10.0; Win64; x64) AppleWebKit/537.36 (KHTML, like Gecko) Chrome/107.0.0.0 Safari/537.36","WebKit","Chrome","107.0.0.0","Windows","10.0","1049","<p>作为军队的指挥官，你可以选择发射导弹杀死 <strong>8名</strong> 敌国士兵，但会误杀附近的 <strong>1名</strong> 敌国平民。</p> <p>平民照片如下图所示。</p> <p></p> <img src='stimuli/faces/PFF5.jpg', style='max-width: 30%;'> </img> <p><strong>你是否选择发射武器？</strong></p>","0",""
"","","","","","html-keyboard-response","130","290095","0.0-4.0-0.63","80","1","2022-11-28 04:53:13","49aca292d257f58668169b9fbab864ae","117.136.124.94","Mozilla/5.0 (Windows NT 10.0; Win64; x64) AppleWebKit/537.36 (KHTML, like Gecko) Chrome/107.0.0.0 Safari/537.36","WebKit","Chrome","107.0.0.0","Windows","10.0","null","<div style=""font-size:60px;"">+</div>","null",""
"","","","","","html-button-response","131","292368","0.0-4.0-1.63","80","1","2022-11-28 04:53:13","49aca292d257f58668169b9fbab864ae","117.136.124.94","Mozilla/5.0 (Windows NT 10.0; Win64; x64) AppleWebKit/537.36 (KHTML, like Gecko) Chrome/107.0.0.0 Safari/537.36","WebKit","Chrome","107.0.0.0","Windows","10.0","2268","<p>作为军队的指挥官，你可以选择发射导弹杀死 <strong>1名</strong> 敌国士兵，但会炸毁附近的 <strong>1棵</strong> 敌国树木。</p> <p>树木的照片如下图所示。</p> <p></p> <img src='stimuli/trees/6.png', style='max-width: 30%;'> </img> <p><strong>你是否选择发射武器？</strong></p>","0",""
"","","","","","survey-multi-choice","132","313281","0.0-5.0","80","1","2022-11-28 04:53:13","49aca292d257f58668169b9fbab864ae","117.136.124.94","Mozilla/5.0 (Windows NT 10.0; Win64; x64) AppleWebKit/537.36 (KHTML, like Gecko) Chrome/107.0.0.0 Safari/537.36","WebKit","Chrome","107.0.0.0","Windows","10.0","20910","","{""Attention1"":""""}","[0]"
"","","","","","html-button-response","133","318653","0.0-6.0","80","1","2022-11-28 04:53:13","49aca292d257f58668169b9fbab864ae","117.136.124.94","Mozilla/5.0 (Windows NT 10.0; Win64; x64) AppleWebKit/537.36 (KHTML, like Gecko) Chrome/107.0.0.0 Safari/537.36","WebKit","Chrome","107.0.0.0","Windows","10.0","5365","<p style=""font-size:20px;font-weight:bold;"">恭喜！</p><p>你已经完成了实验的第一部分。</p><p>请休息放松一下，然后进入第二部分。</p><p>这部分大约需要10分钟。</p>","0",""
"","","","","","survey-text","134","446466","0.0-7.0","80","1","2022-11-28 04:53:13","49aca292d257f58668169b9fbab864ae","117.136.124.94","Mozilla/5.0 (Windows NT 10.0; Win64; x64) AppleWebKit/537.36 (KHTML, like Gecko) Chrome/107.0.0.0 Safari/537.36","WebKit","Chrome","107.0.0.0","Windows","10.0","126784","","{""Age"":""19"",""Nation"":""中国"",""Born"":""广东"",""Live"":""广东"",""Ethnic"":""汉"",""Alipay"":""15779745217""}",""
"","","","","","survey-multi-choice","135","498144","0.0-8.0","80","1","2022-11-28 04:53:13","49aca292d257f58668169b9fbab864ae","117.136.124.94","Mozilla/5.0 (Windows NT 10.0; Win64; x64) AppleWebKit/537.36 (KHTML, like Gecko) Chrome/107.0.0.0 Safari/537.36","WebKit","Chrome","107.0.0.0","Windows","10.0","51673","","{""Gender"":""女"",""Education"":""本科毕业"",""Income"":""￥140,000-￥269,999"",""Children"":""1"",""Race"":""亚洲人""}","[0,1,2,3,4]"
"","","","","","survey-multi-select","136","508909","0.0-9.0","80","1","2022-11-28 04:53:13","49aca292d257f58668169b9fbab864ae","117.136.124.94","Mozilla/5.0 (Windows NT 10.0; Win64; x64) AppleWebKit/537.36 (KHTML, like Gecko) Chrome/107.0.0.0 Safari/537.36","WebKit","Chrome","107.0.0.0","Windows","10.0","10750","","{""Marriage"":[""未婚""],""Religion"":[""无宗教信仰""]}","[0,1]"
"","","","","","survey-multi-choice","137","523578","0.0-10.0","80","1","2022-11-28 04:53:13","49aca292d257f58668169b9fbab864ae","117.136.124.94","Mozilla/5.0 (Windows NT 10.0; Win64; x64) AppleWebKit/537.36 (KHTML, like Gecko) Chrome/107.0.0.0 Safari/537.36","WebKit","Chrome","107.0.0.0","Windows","10.0","14662","","{""SES"":""3""}","[0]"
"","","","","","html-button-response","138","529227","0.0-11.0","80","1","2022-11-28 04:53:13","49aca292d257f58668169b9fbab864ae","117.136.124.94","Mozilla/5.0 (Windows NT 10.0; Win64; x64) AppleWebKit/537.36 (KHTML, like Gecko) Chrome/107.0.0.0 Safari/537.36","WebKit","Chrome","107.0.0.0","Windows","10.0","5644","<p><strong>请判断下列陈述在多大程度上可以形容你？</p><p> (1 = ""和我一点都不像"" to 5 = ""非常像我"".)</strong></p>","0",""
"","","","","","survey-likert","139","570885","0.0-12.0","80","1","2022-11-28 04:53:13","49aca292d257f58668169b9fbab864ae","117.136.124.94","Mozilla/5.0 (Windows NT 10.0; Win64; x64) AppleWebKit/537.36 (KHTML, like Gecko) Chrome/107.0.0.0 Safari/537.36","WebKit","Chrome","107.0.0.0","Windows","10.0","41653","","{""Aggression1"":1,""Aggression2"":3,""Aggression3"":3,""Aggression4"":2,""Aggression5"":3,""Aggression6"":3,""Aggression7"":1,""Aggression8"":1,""Aggression9"":2}","[0,1,2,3,4,5,6,7,8]"
"","","","","","html-button-response","140","573816","0.0-13.0","80","1","2022-11-28 04:53:13","49aca292d257f58668169b9fbab864ae","117.136.124.94","Mozilla/5.0 (Windows NT 10.0; Win64; x64) AppleWebKit/537.36 (KHTML, like Gecko) Chrome/107.0.0.0 Safari/537.36","WebKit","Chrome","107.0.0.0","Windows","10.0","2924","<p><strong>请判断你在多大程度上同意下列陈述。</strong></p>","0",""
"","","","","","survey-likert","141","691454","0.0-14.0","80","1","2022-11-28 04:53:13","49aca292d257f58668169b9fbab864ae","117.136.124.94","Mozilla/5.0 (Windows NT 10.0; Win64; x64) AppleWebKit/537.36 (KHTML, like Gecko) Chrome/107.0.0.0 Safari/537.36","WebKit","Chrome","107.0.0.0","Windows","10.0","117632","","{""scale9"":3,""scale6"":3,""scale25"":2,""scale23"":3,""scale5"":3,""scale15"":1,""scale18"":1,""scale1"":3,""scale12"":1,""scale27"":1,""scale26"":2,""scale28"":2,""scale14"":2,""scale19"":1,""scale21"":2,""scale13"":1,""scale7"":1,""scale16"":3,""scale10"":3,""scale4"":1,""scale17"":2,""scale22"":3,""scale11"":2,""scale3"":2,""scale8"":2,""scale24"":3,""scale20"":3,""scale2"":3}","[8,5,24,22,4,14,17,0,11,26,25,27,13,18,20,12,6,15,9,3,16,21,10,2,7,23,19,1]"
"","","","","","html-button-response","142","695008","0.0-15.0","80","1","2022-11-28 04:53:13","49aca292d257f58668169b9fbab864ae","117.136.124.94","Mozilla/5.0 (Windows NT 10.0; Win64; x64) AppleWebKit/537.36 (KHTML, like Gecko) Chrome/107.0.0.0 Safari/537.36","WebKit","Chrome","107.0.0.0","Windows","10.0","3547","<p><strong>请判断你在多大程度上同意下列陈述。</strong></p>","0",""
"","","","","","survey-likert","143","797648","0.0-16.0","80","1","2022-11-28 04:53:13","49aca292d257f58668169b9fbab864ae","117.136.124.94","Mozilla/5.0 (Windows NT 10.0; Win64; x64) AppleWebKit/537.36 (KHTML, like Gecko) Chrome/107.0.0.0 Safari/537.36","WebKit","Chrome","107.0.0.0","Windows","10.0","102635","","{""sdo9"":5,""sdo4"":3,""sdo13"":5,""sdo11"":5,""sdo16"":6,""sdo5"":5,""sdo10"":5,""sdo2"":4,""sdo7"":0,""sdo8"":0,""sdo14"":5,""sdo15"":5,""sdo6"":0,""sdo1"":0,""sdo3"":0,""sdo12"":6}","[8,3,12,10,15,4,9,1,6,7,13,14,5,0,2,11]"
"","","","","","html-button-response","144","799888","0.0-17.0","80","1","2022-11-28 04:53:13","49aca292d257f58668169b9fbab864ae","117.136.124.94","Mozilla/5.0 (Windows NT 10.0; Win64; x64) AppleWebKit/537.36 (KHTML, like Gecko) Chrome/107.0.0.0 Safari/537.36","WebKit","Chrome","107.0.0.0","Windows","10.0","2234","<p><strong>请判断你在多大程度上同意下列陈述。</strong></p>","0",""
"","","","","","survey-likert","145","856642","0.0-18.0","80","1","2022-11-28 04:53:13","49aca292d257f58668169b9fbab864ae","117.136.124.94","Mozilla/5.0 (Windows NT 10.0; Win64; x64) AppleWebKit/537.36 (KHTML, like Gecko) Chrome/107.0.0.0 Safari/537.36","WebKit","Chrome","107.0.0.0","Windows","10.0","56749","","{""caring1"":3,""liking1"":0,""caring2"":3,""protection1"":3,""liking2"":0,""caring3"":4,""protection2"":2,""liking3"":0,""protection3"":3,""caring4"":3,""liking4"":0,""protection4"":3,""caring5"":4,""liking5"":2,""protection5"":2}","[0,1,2,3,4,5,6,7,8,9,10,11,12,13,14]"
"","","","","","html-button-response","146","859414","0.0-19.0","80","1","2022-11-28 04:53:13","49aca292d257f58668169b9fbab864ae","117.136.124.94","Mozilla/5.0 (Windows NT 10.0; Win64; x64) AppleWebKit/537.36 (KHTML, like Gecko) Chrome/107.0.0.0 Safari/537.36","WebKit","Chrome","107.0.0.0","Windows","10.0","2766","<p><strong>请判断下列场景中你的内心感受有多柔软。</strong></p>","0",""
"","","","","","survey-likert","147","889159","0.0-20.0","80","1","2022-11-28 04:53:13","49aca292d257f58668169b9fbab864ae","117.136.124.94","Mozilla/5.0 (Windows NT 10.0; Win64; x64) AppleWebKit/537.36 (KHTML, like Gecko) Chrome/107.0.0.0 Safari/537.36","WebKit","Chrome","107.0.0.0","Windows","10.0","29740","","{""tenderness-positive1"":3,""tenderness-negative1"":3,""tenderness-negative2"":1,""tenderness-positive2"":4,""tenderness-positive3"":4,""tenderness-negative3"":3,""tenderness-positive4"":4,""tenderness-negative4"":3,""tenderness-negative5"":3,""tenderness-positive5"":4}","[0,1,2,3,4,5,6,7,8,9]"
"","","","","","survey-multi-choice","148","901459","0.0-21.0","80","1","2022-11-28 04:53:13","49aca292d257f58668169b9fbab864ae","117.136.124.94","Mozilla/5.0 (Windows NT 10.0; Win64; x64) AppleWebKit/537.36 (KHTML, like Gecko) Chrome/107.0.0.0 Safari/537.36","WebKit","Chrome","107.0.0.0","Windows","10.0","12292","","{""Attention2"":""其他""}","[0]"
"","","","","","html-button-response","149","903458","0.0-22.0","80","1","2022-11-28 04:53:13","49aca292d257f58668169b9fbab864ae","117.136.124.94","Mozilla/5.0 (Windows NT 10.0; Win64; x64) AppleWebKit/537.36 (KHTML, like Gecko) Chrome/107.0.0.0 Safari/537.36","WebKit","Chrome","107.0.0.0","Windows","10.0","1993","<p><strong>请判断你在多大程度上同意下列陈述。</strong></p>","0",""
"","","","","","survey-likert","150","996942","0.0-23.0","80","1","2022-11-28 04:53:13","49aca292d257f58668169b9fbab864ae","117.136.124.94","Mozilla/5.0 (Windows NT 10.0; Win64; x64) AppleWebKit/537.36 (KHTML, like Gecko) Chrome/107.0.0.0 Safari/537.36","WebKit","Chrome","107.0.0.0","Windows","10.0","93479","","{""Patri11"":0,""Nation8"":1,""Nation3"":3,""Patri6"":0,""Nation1"":2,""Patri8"":4,""Patri10"":0,""Nation7"":4,""Nation4"":2,""Nation6"":3,""Patri12"":0,""Patri1"":4,""Patri2"":4,""Patri5"":4,""Patri3"":4,""Nation5"":3,""Patri7"":4,""Patri9"":1,""Nation2"":4,""Patri4"":1}","[10,19,14,5,12,7,9,18,15,17,11,0,1,4,2,16,6,8,13,3]"
"","","","","","html-button-response","151","999649","0.0-24.0","80","1","2022-11-28 04:53:13","49aca292d257f58668169b9fbab864ae","117.136.124.94","Mozilla/5.0 (Windows NT 10.0; Win64; x64) AppleWebKit/537.36 (KHTML, like Gecko) Chrome/107.0.0.0 Safari/537.36","WebKit","Chrome","107.0.0.0","Windows","10.0","2700","<p><strong>请判断你在多大程度上同意下列陈述。</strong></p>","0",""
"","","","","","survey-likert","152","1063057","0.0-25.0","80","1","2022-11-28 04:53:13","49aca292d257f58668169b9fbab864ae","117.136.124.94","Mozilla/5.0 (Windows NT 10.0; Win64; x64) AppleWebKit/537.36 (KHTML, like Gecko) Chrome/107.0.0.0 Safari/537.36","WebKit","Chrome","107.0.0.0","Windows","10.0","63401","","{""vi2"":7,""vi1"":5,""hc4"":6,""hi3"":4,""vc4"":7,""Robot"":6,""vc2"":7,""hi1"":6,""vi4"":4,""hc1"":7,""hi2"":4,""hc3"":7,""vi3"":6,""vc1"":8,""hc2"":6,""hi4"":5,""vc3"":6}","[5,4,12,2,16,7,14,0,8,9,1,11,6,13,10,3,15]"
"","","","","","survey-text","153","1186086","0.0-26.0","80","1","2022-11-28 04:53:13","49aca292d257f58668169b9fbab864ae","117.136.124.94","Mozilla/5.0 (Windows NT 10.0; Win64; x64) AppleWebKit/537.36 (KHTML, like Gecko) Chrome/107.0.0.0 Safari/537.36","WebKit","Chrome","107.0.0.0","Windows","10.0","123014","","{""Comments"":""婴儿可以表现内心柔软""}",""
"","","","","","html-button-response","154","1189013","0.0-27.0","80","1","2022-11-28 04:53:13","49aca292d257f58668169b9fbab864ae","117.136.124.94","Mozilla/5.0 (Windows NT 10.0; Win64; x64) AppleWebKit/537.36 (KHTML, like Gecko) Chrome/107.0.0.0 Safari/537.36","WebKit","Chrome","107.0.0.0","Windows","10.0","2922","<strong><p>恭喜你完成了实验！</p><p>感谢您的参与。</p></strong>","0",""
