"success","timeout","failed_images","failed_audio","failed_video","trial_type","trial_index","time_elapsed","internal_node_id","run_id","condition","recorded_at","source_code_version","ip","user_agent","device","browser","browser_version","platform","platform_version","rt","stimulus","response","question_order"
"true","false","[]","[]","[]","preload","0","109366","0.0-0.0","84","1","2022-11-28 13:32:41","49aca292d257f58668169b9fbab864ae","113.78.247.125","Mozilla/5.0 (Windows NT 6.1) AppleWebKit/537.36 (KHTML, like Gecko) Chrome/86.0.4240.198 Safari/537.36","WebKit","Chrome","86.0.4240.198","Windows","6.1","","","",""
"true","","","","","fullscreen","1","131027","0.0-1.0","84","1","2022-11-28 13:32:41","49aca292d257f58668169b9fbab864ae","113.78.247.125","Mozilla/5.0 (Windows NT 6.1) AppleWebKit/537.36 (KHTML, like Gecko) Chrome/86.0.4240.198 Safari/537.36","WebKit","Chrome","86.0.4240.198","Windows","6.1","","","",""
"","","","","","html-button-response","2","142983","0.0-2.0","84","1","2022-11-28 13:32:41","49aca292d257f58668169b9fbab864ae","113.78.247.125","Mozilla/5.0 (Windows NT 6.1) AppleWebKit/537.36 (KHTML, like Gecko) Chrome/86.0.4240.198 Safari/537.36","WebKit","Chrome","86.0.4240.198","Windows","6.1","11949","<p style=""font-size:20px;font-weight:bold;"">实验知情同意书</p><p style=""text-align:left;""><strong>实验名称：</strong>社会冲突研究</p><p style=""text-align:left;""><strong>主要研究者：</strong>韩晓春副教授（北京师范大学心理学部）</p><p style=""text-align:left;""><strong>联系方式：</strong>发送邮件至xiaochun.han@bnu.edu.cn</p><p style=""text-align:left;""><strong>研究目的：</strong>研究旨在了解人类面对群体冲突时的决策方式，以及相关的心理学特质。实验调查大约需要20分钟。</p><p style=""text-align:left;""><strong>实验流程：</strong>实验包含两部分。第一部分呈现一系列群体冲突场景，请你决定如何对这些冲突进行反应，大约需要10分钟完成。第二部分包含一系列人口统计学信息收集和心理学问卷，大约需要10分钟完成。</p><p style=""text-align:left;""><strong>参加及退出规则：</strong>参加本实验完全取决于您的个人意愿。在参与过程中，您可以随时退出，并且不用承担任何后果。</p><p style=""text-align:left;""><strong>隐私：</strong>本实验完全匿名进行，不会收集您的姓名或其他能够识别您身份的信息。实验中收集的作答仅用作科学研究使用，可能会在学术期刊/书籍上发表，或者用于教学，您的数据未来可能会和其他研究者或实验室分享，但您的个人身份不会被识别。</p><p style=""text-align:left;""><strong>实验报酬：</strong>实验完成后，您将获得15元人民币报酬，以感谢您的时间和努力。调查问卷中包含几道题目用以测验您作答时的认真度。只有完成全部实验，并且正确回答认真度测验的被试才能获得实验报酬。实验报酬将通过支付宝转账发放。</p><p style=""text-align:left;font-size:20px;""><strong>如果您同意以上实验知情同意书的内容，请点击'同意并且开始实验'按钮；否则请关闭浏览器界面，退出实验。</strong></p>","0",""
"","","","","","html-button-response","3","145702","0.0-3.0","84","1","2022-11-28 13:32:41","49aca292d257f58668169b9fbab864ae","113.78.247.125","Mozilla/5.0 (Windows NT 6.1) AppleWebKit/537.36 (KHTML, like Gecko) Chrome/86.0.4240.198 Safari/537.36","WebKit","Chrome","86.0.4240.198","Windows","6.1","2710","<p ><strong>实验任务一：</strong></p><p>请想象你的国家与另一个国家发生了军事冲突。</p><p>你是国家军队的指挥官，你将如何在冲突中进行决策。</p><p>具体来说，作为军队指挥官，请你决定是否发射导弹进行打击。</p><p>接下来，你会面对一系列场景，请仔细阅读每个场景，然后进行决策。</p><p>这部分实验任务大约需要10分钟。</p><p><strong>实验过程中，请集中注意力。</strong></p>","0",""
"","","","","","html-keyboard-response","4","146706","0.0-4.0-0.0","84","1","2022-11-28 13:32:41","49aca292d257f58668169b9fbab864ae","113.78.247.125","Mozilla/5.0 (Windows NT 6.1) AppleWebKit/537.36 (KHTML, like Gecko) Chrome/86.0.4240.198 Safari/537.36","WebKit","Chrome","86.0.4240.198","Windows","6.1","null","<div style=""font-size:60px;"">+</div>","null",""
"","","","","","html-button-response","5","148925","0.0-4.0-1.0","84","1","2022-11-28 13:32:41","49aca292d257f58668169b9fbab864ae","113.78.247.125","Mozilla/5.0 (Windows NT 6.1) AppleWebKit/537.36 (KHTML, like Gecko) Chrome/86.0.4240.198 Safari/537.36","WebKit","Chrome","86.0.4240.198","Windows","6.1","2213","<p>作为军队的指挥官，你可以选择发射导弹杀死 <strong>4名</strong> 敌国士兵，但会炸毁附近的 <strong>1棵</strong> 敌国树木。</p> <p>树木的照片如下图所示。</p> <p></p> <img src='stimuli/trees/14.png', style='max-width: 30%;'> </img> <p><strong>你是否选择发射武器？</strong></p>","0",""
"","","","","","html-keyboard-response","6","149928","0.0-4.0-0.1","84","1","2022-11-28 13:32:41","49aca292d257f58668169b9fbab864ae","113.78.247.125","Mozilla/5.0 (Windows NT 6.1) AppleWebKit/537.36 (KHTML, like Gecko) Chrome/86.0.4240.198 Safari/537.36","WebKit","Chrome","86.0.4240.198","Windows","6.1","null","<div style=""font-size:60px;"">+</div>","null",""
"","","","","","html-button-response","7","155392","0.0-4.0-1.1","84","1","2022-11-28 13:32:41","49aca292d257f58668169b9fbab864ae","113.78.247.125","Mozilla/5.0 (Windows NT 6.1) AppleWebKit/537.36 (KHTML, like Gecko) Chrome/86.0.4240.198 Safari/537.36","WebKit","Chrome","86.0.4240.198","Windows","6.1","5459","<p>作为军队的指挥官，你可以选择发射导弹杀死 <strong>1名</strong> 敌国士兵，但会炸毁附近的 <strong>1棵</strong> 敌国树木。</p> <p>树木的照片如下图所示。</p> <p></p> <img src='stimuli/trees/15.png', style='max-width: 30%;'> </img> <p><strong>你是否选择发射武器？</strong></p>","0",""
"","","","","","html-keyboard-response","8","156395","0.0-4.0-0.2","84","1","2022-11-28 13:32:41","49aca292d257f58668169b9fbab864ae","113.78.247.125","Mozilla/5.0 (Windows NT 6.1) AppleWebKit/537.36 (KHTML, like Gecko) Chrome/86.0.4240.198 Safari/537.36","WebKit","Chrome","86.0.4240.198","Windows","6.1","null","<div style=""font-size:60px;"">+</div>","null",""
"","","","","","html-button-response","9","160846","0.0-4.0-1.2","84","1","2022-11-28 13:32:41","49aca292d257f58668169b9fbab864ae","113.78.247.125","Mozilla/5.0 (Windows NT 6.1) AppleWebKit/537.36 (KHTML, like Gecko) Chrome/86.0.4240.198 Safari/537.36","WebKit","Chrome","86.0.4240.198","Windows","6.1","4444","<p>作为军队的指挥官，你可以选择发射导弹杀死 <strong>5名</strong> 敌国士兵，但会误杀附近的 <strong>1名</strong> 敌国平民。</p> <p>平民照片如下图所示。</p> <p></p> <img src='stimuli/faces/PFF1.jpg', style='max-width: 30%;'> </img> <p><strong>你是否选择发射武器？</strong></p>","1",""
"","","","","","html-keyboard-response","10","161848","0.0-4.0-0.3","84","1","2022-11-28 13:32:41","49aca292d257f58668169b9fbab864ae","113.78.247.125","Mozilla/5.0 (Windows NT 6.1) AppleWebKit/537.36 (KHTML, like Gecko) Chrome/86.0.4240.198 Safari/537.36","WebKit","Chrome","86.0.4240.198","Windows","6.1","null","<div style=""font-size:60px;"">+</div>","null",""
"","","","","","html-button-response","11","183068","0.0-4.0-1.3","84","1","2022-11-28 13:32:41","49aca292d257f58668169b9fbab864ae","113.78.247.125","Mozilla/5.0 (Windows NT 6.1) AppleWebKit/537.36 (KHTML, like Gecko) Chrome/86.0.4240.198 Safari/537.36","WebKit","Chrome","86.0.4240.198","Windows","6.1","21215","<p>作为军队的指挥官，你可以选择发射导弹杀死 <strong>2名</strong> 敌国士兵，但会炸毁附近的 <strong>1棵</strong> 敌国树木。</p> <p>树木的照片如下图所示。</p> <p></p> <img src='stimuli/trees/2.png', style='max-width: 30%;'> </img> <p><strong>你是否选择发射武器？</strong></p>","0",""
"","","","","","html-keyboard-response","12","184072","0.0-4.0-0.4","84","1","2022-11-28 13:32:41","49aca292d257f58668169b9fbab864ae","113.78.247.125","Mozilla/5.0 (Windows NT 6.1) AppleWebKit/537.36 (KHTML, like Gecko) Chrome/86.0.4240.198 Safari/537.36","WebKit","Chrome","86.0.4240.198","Windows","6.1","null","<div style=""font-size:60px;"">+</div>","null",""
"","","","","","html-button-response","13","187372","0.0-4.0-1.4","84","1","2022-11-28 13:32:41","49aca292d257f58668169b9fbab864ae","113.78.247.125","Mozilla/5.0 (Windows NT 6.1) AppleWebKit/537.36 (KHTML, like Gecko) Chrome/86.0.4240.198 Safari/537.36","WebKit","Chrome","86.0.4240.198","Windows","6.1","3294","<p>作为军队的指挥官，你可以选择发射导弹杀死 <strong>10名</strong> 敌国士兵，但会炸毁附近的 <strong>1棵</strong> 敌国树木。</p> <p>树木的照片如下图所示。</p> <p></p> <img src='stimuli/trees/7.png', style='max-width: 30%;'> </img> <p><strong>你是否选择发射武器？</strong></p>","0",""
"","","","","","html-keyboard-response","14","188375","0.0-4.0-0.5","84","1","2022-11-28 13:32:41","49aca292d257f58668169b9fbab864ae","113.78.247.125","Mozilla/5.0 (Windows NT 6.1) AppleWebKit/537.36 (KHTML, like Gecko) Chrome/86.0.4240.198 Safari/537.36","WebKit","Chrome","86.0.4240.198","Windows","6.1","null","<div style=""font-size:60px;"">+</div>","null",""
"","","","","","html-button-response","15","207652","0.0-4.0-1.5","84","1","2022-11-28 13:32:41","49aca292d257f58668169b9fbab864ae","113.78.247.125","Mozilla/5.0 (Windows NT 6.1) AppleWebKit/537.36 (KHTML, like Gecko) Chrome/86.0.4240.198 Safari/537.36","WebKit","Chrome","86.0.4240.198","Windows","6.1","19264","<p>作为军队的指挥官，你可以选择发射导弹杀死 <strong>10名</strong> 敌国士兵，但会炸毁附近的 <strong>1棵</strong> 敌国树木。</p> <p>树木的照片如下图所示。</p> <p></p> <img src='stimuli/trees/14.png', style='max-width: 30%;'> </img> <p><strong>你是否选择发射武器？</strong></p>","0",""
"","","","","","html-keyboard-response","16","208655","0.0-4.0-0.6","84","1","2022-11-28 13:32:41","49aca292d257f58668169b9fbab864ae","113.78.247.125","Mozilla/5.0 (Windows NT 6.1) AppleWebKit/537.36 (KHTML, like Gecko) Chrome/86.0.4240.198 Safari/537.36","WebKit","Chrome","86.0.4240.198","Windows","6.1","null","<div style=""font-size:60px;"">+</div>","null",""
"","","","","","html-button-response","17","211965","0.0-4.0-1.6","84","1","2022-11-28 13:32:41","49aca292d257f58668169b9fbab864ae","113.78.247.125","Mozilla/5.0 (Windows NT 6.1) AppleWebKit/537.36 (KHTML, like Gecko) Chrome/86.0.4240.198 Safari/537.36","WebKit","Chrome","86.0.4240.198","Windows","6.1","3301","<p>作为军队的指挥官，你可以选择发射导弹杀死 <strong>3名</strong> 敌国士兵，但会炸毁附近的 <strong>1棵</strong> 敌国树木。</p> <p>树木的照片如下图所示。</p> <p></p> <img src='stimuli/trees/4.png', style='max-width: 30%;'> </img> <p><strong>你是否选择发射武器？</strong></p>","0",""
"","","","","","html-keyboard-response","18","212969","0.0-4.0-0.7","84","1","2022-11-28 13:32:41","49aca292d257f58668169b9fbab864ae","113.78.247.125","Mozilla/5.0 (Windows NT 6.1) AppleWebKit/537.36 (KHTML, like Gecko) Chrome/86.0.4240.198 Safari/537.36","WebKit","Chrome","86.0.4240.198","Windows","6.1","null","<div style=""font-size:60px;"">+</div>","null",""
"","","","","","html-button-response","19","214981","0.0-4.0-1.7","84","1","2022-11-28 13:32:41","49aca292d257f58668169b9fbab864ae","113.78.247.125","Mozilla/5.0 (Windows NT 6.1) AppleWebKit/537.36 (KHTML, like Gecko) Chrome/86.0.4240.198 Safari/537.36","WebKit","Chrome","86.0.4240.198","Windows","6.1","2006","<p>作为军队的指挥官，你可以选择发射导弹杀死 <strong>2名</strong> 敌国士兵，但会炸毁附近的 <strong>1棵</strong> 敌国树木。</p> <p>树木的照片如下图所示。</p> <p></p> <img src='stimuli/trees/13.png', style='max-width: 30%;'> </img> <p><strong>你是否选择发射武器？</strong></p>","0",""
"","","","","","html-keyboard-response","20","215984","0.0-4.0-0.8","84","1","2022-11-28 13:32:41","49aca292d257f58668169b9fbab864ae","113.78.247.125","Mozilla/5.0 (Windows NT 6.1) AppleWebKit/537.36 (KHTML, like Gecko) Chrome/86.0.4240.198 Safari/537.36","WebKit","Chrome","86.0.4240.198","Windows","6.1","null","<div style=""font-size:60px;"">+</div>","null",""
"","","","","","html-button-response","21","218484","0.0-4.0-1.8","84","1","2022-11-28 13:32:41","49aca292d257f58668169b9fbab864ae","113.78.247.125","Mozilla/5.0 (Windows NT 6.1) AppleWebKit/537.36 (KHTML, like Gecko) Chrome/86.0.4240.198 Safari/537.36","WebKit","Chrome","86.0.4240.198","Windows","6.1","2494","<p>作为军队的指挥官，你可以选择发射导弹杀死 <strong>8名</strong> 敌国士兵，但会误杀附近的 <strong>1名</strong> 敌国平民。</p> <p>平民照片如下图所示。</p> <p></p> <img src='stimuli/faces/PFF6.jpg', style='max-width: 30%;'> </img> <p><strong>你是否选择发射武器？</strong></p>","1",""
"","","","","","html-keyboard-response","22","219488","0.0-4.0-0.9","84","1","2022-11-28 13:32:41","49aca292d257f58668169b9fbab864ae","113.78.247.125","Mozilla/5.0 (Windows NT 6.1) AppleWebKit/537.36 (KHTML, like Gecko) Chrome/86.0.4240.198 Safari/537.36","WebKit","Chrome","86.0.4240.198","Windows","6.1","null","<div style=""font-size:60px;"">+</div>","null",""
"","","","","","html-button-response","23","221629","0.0-4.0-1.9","84","1","2022-11-28 13:32:41","49aca292d257f58668169b9fbab864ae","113.78.247.125","Mozilla/5.0 (Windows NT 6.1) AppleWebKit/537.36 (KHTML, like Gecko) Chrome/86.0.4240.198 Safari/537.36","WebKit","Chrome","86.0.4240.198","Windows","6.1","2135","<p>作为军队的指挥官，你可以选择发射导弹杀死 <strong>6名</strong> 敌国士兵，但会误杀附近的 <strong>1名</strong> 敌国平民。</p> <p>平民照片如下图所示。</p> <p></p> <img src='stimuli/faces/PFF2.jpg', style='max-width: 30%;'> </img> <p><strong>你是否选择发射武器？</strong></p>","1",""
"","","","","","html-keyboard-response","24","222633","0.0-4.0-0.10","84","1","2022-11-28 13:32:41","49aca292d257f58668169b9fbab864ae","113.78.247.125","Mozilla/5.0 (Windows NT 6.1) AppleWebKit/537.36 (KHTML, like Gecko) Chrome/86.0.4240.198 Safari/537.36","WebKit","Chrome","86.0.4240.198","Windows","6.1","null","<div style=""font-size:60px;"">+</div>","null",""
"","","","","","html-button-response","25","225964","0.0-4.0-1.10","84","1","2022-11-28 13:32:41","49aca292d257f58668169b9fbab864ae","113.78.247.125","Mozilla/5.0 (Windows NT 6.1) AppleWebKit/537.36 (KHTML, like Gecko) Chrome/86.0.4240.198 Safari/537.36","WebKit","Chrome","86.0.4240.198","Windows","6.1","3326","<p>作为军队的指挥官，你可以选择发射导弹杀死 <strong>7名</strong> 敌国士兵，但会误杀附近的 <strong>1名</strong> 敌国平民。</p> <p>平民照片如下图所示。</p> <p></p> <img src='stimuli/faces/PFM8.jpg', style='max-width: 30%;'> </img> <p><strong>你是否选择发射武器？</strong></p>","1",""
"","","","","","html-keyboard-response","26","226969","0.0-4.0-0.11","84","1","2022-11-28 13:32:41","49aca292d257f58668169b9fbab864ae","113.78.247.125","Mozilla/5.0 (Windows NT 6.1) AppleWebKit/537.36 (KHTML, like Gecko) Chrome/86.0.4240.198 Safari/537.36","WebKit","Chrome","86.0.4240.198","Windows","6.1","null","<div style=""font-size:60px;"">+</div>","null",""
"","","","","","html-button-response","27","228053","0.0-4.0-1.11","84","1","2022-11-28 13:32:41","49aca292d257f58668169b9fbab864ae","113.78.247.125","Mozilla/5.0 (Windows NT 6.1) AppleWebKit/537.36 (KHTML, like Gecko) Chrome/86.0.4240.198 Safari/537.36","WebKit","Chrome","86.0.4240.198","Windows","6.1","1076","<p>作为军队的指挥官，你可以选择发射导弹杀死 <strong>7名</strong> 敌国士兵，但会炸毁附近的 <strong>1棵</strong> 敌国树木。</p> <p>树木的照片如下图所示。</p> <p></p> <img src='stimuli/trees/11.png', style='max-width: 30%;'> </img> <p><strong>你是否选择发射武器？</strong></p>","0",""
"","","","","","html-keyboard-response","28","229057","0.0-4.0-0.12","84","1","2022-11-28 13:32:41","49aca292d257f58668169b9fbab864ae","113.78.247.125","Mozilla/5.0 (Windows NT 6.1) AppleWebKit/537.36 (KHTML, like Gecko) Chrome/86.0.4240.198 Safari/537.36","WebKit","Chrome","86.0.4240.198","Windows","6.1","null","<div style=""font-size:60px;"">+</div>","null",""
"","","","","","html-button-response","29","230493","0.0-4.0-1.12","84","1","2022-11-28 13:32:41","49aca292d257f58668169b9fbab864ae","113.78.247.125","Mozilla/5.0 (Windows NT 6.1) AppleWebKit/537.36 (KHTML, like Gecko) Chrome/86.0.4240.198 Safari/537.36","WebKit","Chrome","86.0.4240.198","Windows","6.1","1430","<p>作为军队的指挥官，你可以选择发射导弹杀死 <strong>1名</strong> 敌国士兵，但会炸毁附近的 <strong>1棵</strong> 敌国树木。</p> <p>树木的照片如下图所示。</p> <p></p> <img src='stimuli/trees/10.png', style='max-width: 30%;'> </img> <p><strong>你是否选择发射武器？</strong></p>","0",""
"","","","","","html-keyboard-response","30","231497","0.0-4.0-0.13","84","1","2022-11-28 13:32:41","49aca292d257f58668169b9fbab864ae","113.78.247.125","Mozilla/5.0 (Windows NT 6.1) AppleWebKit/537.36 (KHTML, like Gecko) Chrome/86.0.4240.198 Safari/537.36","WebKit","Chrome","86.0.4240.198","Windows","6.1","null","<div style=""font-size:60px;"">+</div>","null",""
"","","","","","html-button-response","31","232940","0.0-4.0-1.13","84","1","2022-11-28 13:32:41","49aca292d257f58668169b9fbab864ae","113.78.247.125","Mozilla/5.0 (Windows NT 6.1) AppleWebKit/537.36 (KHTML, like Gecko) Chrome/86.0.4240.198 Safari/537.36","WebKit","Chrome","86.0.4240.198","Windows","6.1","1436","<p>作为军队的指挥官，你可以选择发射导弹杀死 <strong>8名</strong> 敌国士兵，但会炸毁附近的 <strong>1棵</strong> 敌国树木。</p> <p>树木的照片如下图所示。</p> <p></p> <img src='stimuli/trees/9.png', style='max-width: 30%;'> </img> <p><strong>你是否选择发射武器？</strong></p>","0",""
"","","","","","html-keyboard-response","32","233945","0.0-4.0-0.14","84","1","2022-11-28 13:32:41","49aca292d257f58668169b9fbab864ae","113.78.247.125","Mozilla/5.0 (Windows NT 6.1) AppleWebKit/537.36 (KHTML, like Gecko) Chrome/86.0.4240.198 Safari/537.36","WebKit","Chrome","86.0.4240.198","Windows","6.1","null","<div style=""font-size:60px;"">+</div>","null",""
"","","","","","html-button-response","33","235253","0.0-4.0-1.14","84","1","2022-11-28 13:32:41","49aca292d257f58668169b9fbab864ae","113.78.247.125","Mozilla/5.0 (Windows NT 6.1) AppleWebKit/537.36 (KHTML, like Gecko) Chrome/86.0.4240.198 Safari/537.36","WebKit","Chrome","86.0.4240.198","Windows","6.1","1302","<p>作为军队的指挥官，你可以选择发射导弹杀死 <strong>1名</strong> 敌国士兵，但会误杀附近的 <strong>1名</strong> 敌国平民。</p> <p>平民照片如下图所示。</p> <p></p> <img src='stimuli/faces/PFF8.jpg', style='max-width: 30%;'> </img> <p><strong>你是否选择发射武器？</strong></p>","1",""
"","","","","","html-keyboard-response","34","236258","0.0-4.0-0.15","84","1","2022-11-28 13:32:41","49aca292d257f58668169b9fbab864ae","113.78.247.125","Mozilla/5.0 (Windows NT 6.1) AppleWebKit/537.36 (KHTML, like Gecko) Chrome/86.0.4240.198 Safari/537.36","WebKit","Chrome","86.0.4240.198","Windows","6.1","null","<div style=""font-size:60px;"">+</div>","null",""
"","","","","","html-button-response","35","239708","0.0-4.0-1.15","84","1","2022-11-28 13:32:41","49aca292d257f58668169b9fbab864ae","113.78.247.125","Mozilla/5.0 (Windows NT 6.1) AppleWebKit/537.36 (KHTML, like Gecko) Chrome/86.0.4240.198 Safari/537.36","WebKit","Chrome","86.0.4240.198","Windows","6.1","3444","<p>作为军队的指挥官，你可以选择发射导弹杀死 <strong>5名</strong> 敌国士兵，但会误杀附近的 <strong>1名</strong> 敌国平民。</p> <p>平民照片如下图所示。</p> <p></p> <img src='stimuli/faces/PFF4.jpg', style='max-width: 30%;'> </img> <p><strong>你是否选择发射武器？</strong></p>","1",""
"","","","","","html-keyboard-response","36","240712","0.0-4.0-0.16","84","1","2022-11-28 13:32:41","49aca292d257f58668169b9fbab864ae","113.78.247.125","Mozilla/5.0 (Windows NT 6.1) AppleWebKit/537.36 (KHTML, like Gecko) Chrome/86.0.4240.198 Safari/537.36","WebKit","Chrome","86.0.4240.198","Windows","6.1","null","<div style=""font-size:60px;"">+</div>","null",""
"","","","","","html-button-response","37","243029","0.0-4.0-1.16","84","1","2022-11-28 13:32:41","49aca292d257f58668169b9fbab864ae","113.78.247.125","Mozilla/5.0 (Windows NT 6.1) AppleWebKit/537.36 (KHTML, like Gecko) Chrome/86.0.4240.198 Safari/537.36","WebKit","Chrome","86.0.4240.198","Windows","6.1","2307","<p>作为军队的指挥官，你可以选择发射导弹杀死 <strong>10名</strong> 敌国士兵，但会炸毁附近的 <strong>1棵</strong> 敌国树木。</p> <p>树木的照片如下图所示。</p> <p></p> <img src='stimuli/trees/2.png', style='max-width: 30%;'> </img> <p><strong>你是否选择发射武器？</strong></p>","0",""
"","","","","","html-keyboard-response","38","244034","0.0-4.0-0.17","84","1","2022-11-28 13:32:41","49aca292d257f58668169b9fbab864ae","113.78.247.125","Mozilla/5.0 (Windows NT 6.1) AppleWebKit/537.36 (KHTML, like Gecko) Chrome/86.0.4240.198 Safari/537.36","WebKit","Chrome","86.0.4240.198","Windows","6.1","null","<div style=""font-size:60px;"">+</div>","null",""
"","","","","","html-button-response","39","247380","0.0-4.0-1.17","84","1","2022-11-28 13:32:41","49aca292d257f58668169b9fbab864ae","113.78.247.125","Mozilla/5.0 (Windows NT 6.1) AppleWebKit/537.36 (KHTML, like Gecko) Chrome/86.0.4240.198 Safari/537.36","WebKit","Chrome","86.0.4240.198","Windows","6.1","3340","<p>作为军队的指挥官，你可以选择发射导弹杀死 <strong>2名</strong> 敌国士兵，但会炸毁附近的 <strong>1棵</strong> 敌国树木。</p> <p>树木的照片如下图所示。</p> <p></p> <img src='stimuli/trees/7.png', style='max-width: 30%;'> </img> <p><strong>你是否选择发射武器？</strong></p>","0",""
"","","","","","html-keyboard-response","40","248386","0.0-4.0-0.18","84","1","2022-11-28 13:32:41","49aca292d257f58668169b9fbab864ae","113.78.247.125","Mozilla/5.0 (Windows NT 6.1) AppleWebKit/537.36 (KHTML, like Gecko) Chrome/86.0.4240.198 Safari/537.36","WebKit","Chrome","86.0.4240.198","Windows","6.1","null","<div style=""font-size:60px;"">+</div>","null",""
"","","","","","html-button-response","41","249388","0.0-4.0-1.18","84","1","2022-11-28 13:32:41","49aca292d257f58668169b9fbab864ae","113.78.247.125","Mozilla/5.0 (Windows NT 6.1) AppleWebKit/537.36 (KHTML, like Gecko) Chrome/86.0.4240.198 Safari/537.36","WebKit","Chrome","86.0.4240.198","Windows","6.1","995","<p>作为军队的指挥官，你可以选择发射导弹杀死 <strong>8名</strong> 敌国士兵，但会误杀附近的 <strong>1名</strong> 敌国平民。</p> <p>平民照片如下图所示。</p> <p></p> <img src='stimuli/faces/PFF8.jpg', style='max-width: 30%;'> </img> <p><strong>你是否选择发射武器？</strong></p>","1",""
"","","","","","html-keyboard-response","42","250394","0.0-4.0-0.19","84","1","2022-11-28 13:32:41","49aca292d257f58668169b9fbab864ae","113.78.247.125","Mozilla/5.0 (Windows NT 6.1) AppleWebKit/537.36 (KHTML, like Gecko) Chrome/86.0.4240.198 Safari/537.36","WebKit","Chrome","86.0.4240.198","Windows","6.1","null","<div style=""font-size:60px;"">+</div>","null",""
"","","","","","html-button-response","43","251476","0.0-4.0-1.19","84","1","2022-11-28 13:32:41","49aca292d257f58668169b9fbab864ae","113.78.247.125","Mozilla/5.0 (Windows NT 6.1) AppleWebKit/537.36 (KHTML, like Gecko) Chrome/86.0.4240.198 Safari/537.36","WebKit","Chrome","86.0.4240.198","Windows","6.1","1070","<p>作为军队的指挥官，你可以选择发射导弹杀死 <strong>6名</strong> 敌国士兵，但会炸毁附近的 <strong>1棵</strong> 敌国树木。</p> <p>树木的照片如下图所示。</p> <p></p> <img src='stimuli/trees/8.png', style='max-width: 30%;'> </img> <p><strong>你是否选择发射武器？</strong></p>","0",""
"","","","","","html-keyboard-response","44","252482","0.0-4.0-0.20","84","1","2022-11-28 13:32:41","49aca292d257f58668169b9fbab864ae","113.78.247.125","Mozilla/5.0 (Windows NT 6.1) AppleWebKit/537.36 (KHTML, like Gecko) Chrome/86.0.4240.198 Safari/537.36","WebKit","Chrome","86.0.4240.198","Windows","6.1","null","<div style=""font-size:60px;"">+</div>","null",""
"","","","","","html-button-response","45","253668","0.0-4.0-1.20","84","1","2022-11-28 13:32:41","49aca292d257f58668169b9fbab864ae","113.78.247.125","Mozilla/5.0 (Windows NT 6.1) AppleWebKit/537.36 (KHTML, like Gecko) Chrome/86.0.4240.198 Safari/537.36","WebKit","Chrome","86.0.4240.198","Windows","6.1","1179","<p>作为军队的指挥官，你可以选择发射导弹杀死 <strong>4名</strong> 敌国士兵，但会误杀附近的 <strong>1名</strong> 敌国平民。</p> <p>平民照片如下图所示。</p> <p></p> <img src='stimuli/faces/PFM8.jpg', style='max-width: 30%;'> </img> <p><strong>你是否选择发射武器？</strong></p>","1",""
"","","","","","html-keyboard-response","46","254673","0.0-4.0-0.21","84","1","2022-11-28 13:32:41","49aca292d257f58668169b9fbab864ae","113.78.247.125","Mozilla/5.0 (Windows NT 6.1) AppleWebKit/537.36 (KHTML, like Gecko) Chrome/86.0.4240.198 Safari/537.36","WebKit","Chrome","86.0.4240.198","Windows","6.1","null","<div style=""font-size:60px;"">+</div>","null",""
"","","","","","html-button-response","47","260139","0.0-4.0-1.21","84","1","2022-11-28 13:32:41","49aca292d257f58668169b9fbab864ae","113.78.247.125","Mozilla/5.0 (Windows NT 6.1) AppleWebKit/537.36 (KHTML, like Gecko) Chrome/86.0.4240.198 Safari/537.36","WebKit","Chrome","86.0.4240.198","Windows","6.1","5457","<p>作为军队的指挥官，你可以选择发射导弹杀死 <strong>4名</strong> 敌国士兵，但会炸毁附近的 <strong>1棵</strong> 敌国树木。</p> <p>树木的照片如下图所示。</p> <p></p> <img src='stimuli/trees/12.png', style='max-width: 30%;'> </img> <p><strong>你是否选择发射武器？</strong></p>","0",""
"","","","","","html-keyboard-response","48","261145","0.0-4.0-0.22","84","1","2022-11-28 13:32:41","49aca292d257f58668169b9fbab864ae","113.78.247.125","Mozilla/5.0 (Windows NT 6.1) AppleWebKit/537.36 (KHTML, like Gecko) Chrome/86.0.4240.198 Safari/537.36","WebKit","Chrome","86.0.4240.198","Windows","6.1","null","<div style=""font-size:60px;"">+</div>","null",""
"","","","","","html-button-response","49","266997","0.0-4.0-1.22","84","1","2022-11-28 13:32:41","49aca292d257f58668169b9fbab864ae","113.78.247.125","Mozilla/5.0 (Windows NT 6.1) AppleWebKit/537.36 (KHTML, like Gecko) Chrome/86.0.4240.198 Safari/537.36","WebKit","Chrome","86.0.4240.198","Windows","6.1","5843","<p>作为军队的指挥官，你可以选择发射导弹杀死 <strong>6名</strong> 敌国士兵，但会炸毁附近的 <strong>1棵</strong> 敌国树木。</p> <p>树木的照片如下图所示。</p> <p></p> <img src='stimuli/trees/16.png', style='max-width: 30%;'> </img> <p><strong>你是否选择发射武器？</strong></p>","0",""
"","","","","","html-keyboard-response","50","268002","0.0-4.0-0.23","84","1","2022-11-28 13:32:41","49aca292d257f58668169b9fbab864ae","113.78.247.125","Mozilla/5.0 (Windows NT 6.1) AppleWebKit/537.36 (KHTML, like Gecko) Chrome/86.0.4240.198 Safari/537.36","WebKit","Chrome","86.0.4240.198","Windows","6.1","null","<div style=""font-size:60px;"">+</div>","null",""
"","","","","","html-button-response","51","269980","0.0-4.0-1.23","84","1","2022-11-28 13:32:41","49aca292d257f58668169b9fbab864ae","113.78.247.125","Mozilla/5.0 (Windows NT 6.1) AppleWebKit/537.36 (KHTML, like Gecko) Chrome/86.0.4240.198 Safari/537.36","WebKit","Chrome","86.0.4240.198","Windows","6.1","1971","<p>作为军队的指挥官，你可以选择发射导弹杀死 <strong>1名</strong> 敌国士兵，但会误杀附近的 <strong>1名</strong> 敌国平民。</p> <p>平民照片如下图所示。</p> <p></p> <img src='stimuli/faces/PFM7.jpg', style='max-width: 30%;'> </img> <p><strong>你是否选择发射武器？</strong></p>","1",""
"","","","","","html-keyboard-response","52","270986","0.0-4.0-0.24","84","1","2022-11-28 13:32:41","49aca292d257f58668169b9fbab864ae","113.78.247.125","Mozilla/5.0 (Windows NT 6.1) AppleWebKit/537.36 (KHTML, like Gecko) Chrome/86.0.4240.198 Safari/537.36","WebKit","Chrome","86.0.4240.198","Windows","6.1","null","<div style=""font-size:60px;"">+</div>","null",""
"","","","","","html-button-response","53","271836","0.0-4.0-1.24","84","1","2022-11-28 13:32:41","49aca292d257f58668169b9fbab864ae","113.78.247.125","Mozilla/5.0 (Windows NT 6.1) AppleWebKit/537.36 (KHTML, like Gecko) Chrome/86.0.4240.198 Safari/537.36","WebKit","Chrome","86.0.4240.198","Windows","6.1","841","<p>作为军队的指挥官，你可以选择发射导弹杀死 <strong>5名</strong> 敌国士兵，但会误杀附近的 <strong>1名</strong> 敌国平民。</p> <p>平民照片如下图所示。</p> <p></p> <img src='stimuli/faces/PFF7.jpg', style='max-width: 30%;'> </img> <p><strong>你是否选择发射武器？</strong></p>","1",""
"","","","","","html-keyboard-response","54","272843","0.0-4.0-0.25","84","1","2022-11-28 13:32:41","49aca292d257f58668169b9fbab864ae","113.78.247.125","Mozilla/5.0 (Windows NT 6.1) AppleWebKit/537.36 (KHTML, like Gecko) Chrome/86.0.4240.198 Safari/537.36","WebKit","Chrome","86.0.4240.198","Windows","6.1","null","<div style=""font-size:60px;"">+</div>","null",""
"","","","","","html-button-response","55","273716","0.0-4.0-1.25","84","1","2022-11-28 13:32:41","49aca292d257f58668169b9fbab864ae","113.78.247.125","Mozilla/5.0 (Windows NT 6.1) AppleWebKit/537.36 (KHTML, like Gecko) Chrome/86.0.4240.198 Safari/537.36","WebKit","Chrome","86.0.4240.198","Windows","6.1","845","<p>作为军队的指挥官，你可以选择发射导弹杀死 <strong>7名</strong> 敌国士兵，但会误杀附近的 <strong>1名</strong> 敌国平民。</p> <p>平民照片如下图所示。</p> <p></p> <img src='stimuli/faces/PFF1.jpg', style='max-width: 30%;'> </img> <p><strong>你是否选择发射武器？</strong></p>","1",""
"","","","","","html-keyboard-response","56","274723","0.0-4.0-0.26","84","1","2022-11-28 13:32:41","49aca292d257f58668169b9fbab864ae","113.78.247.125","Mozilla/5.0 (Windows NT 6.1) AppleWebKit/537.36 (KHTML, like Gecko) Chrome/86.0.4240.198 Safari/537.36","WebKit","Chrome","86.0.4240.198","Windows","6.1","null","<div style=""font-size:60px;"">+</div>","null",""
"","","","","","html-button-response","57","275524","0.0-4.0-1.26","84","1","2022-11-28 13:32:41","49aca292d257f58668169b9fbab864ae","113.78.247.125","Mozilla/5.0 (Windows NT 6.1) AppleWebKit/537.36 (KHTML, like Gecko) Chrome/86.0.4240.198 Safari/537.36","WebKit","Chrome","86.0.4240.198","Windows","6.1","792","<p>作为军队的指挥官，你可以选择发射导弹杀死 <strong>9名</strong> 敌国士兵，但会炸毁附近的 <strong>1棵</strong> 敌国树木。</p> <p>树木的照片如下图所示。</p> <p></p> <img src='stimuli/trees/3.png', style='max-width: 30%;'> </img> <p><strong>你是否选择发射武器？</strong></p>","1",""
"","","","","","html-keyboard-response","58","276531","0.0-4.0-0.27","84","1","2022-11-28 13:32:41","49aca292d257f58668169b9fbab864ae","113.78.247.125","Mozilla/5.0 (Windows NT 6.1) AppleWebKit/537.36 (KHTML, like Gecko) Chrome/86.0.4240.198 Safari/537.36","WebKit","Chrome","86.0.4240.198","Windows","6.1","null","<div style=""font-size:60px;"">+</div>","null",""
"","","","","","html-button-response","59","281548","0.0-4.0-1.27","84","1","2022-11-28 13:32:41","49aca292d257f58668169b9fbab864ae","113.78.247.125","Mozilla/5.0 (Windows NT 6.1) AppleWebKit/537.36 (KHTML, like Gecko) Chrome/86.0.4240.198 Safari/537.36","WebKit","Chrome","86.0.4240.198","Windows","6.1","5009","<p>作为军队的指挥官，你可以选择发射导弹杀死 <strong>9名</strong> 敌国士兵，但会误杀附近的 <strong>1名</strong> 敌国平民。</p> <p>平民照片如下图所示。</p> <p></p> <img src='stimuli/faces/PFM6.jpg', style='max-width: 30%;'> </img> <p><strong>你是否选择发射武器？</strong></p>","1",""
"","","","","","html-keyboard-response","60","282555","0.0-4.0-0.28","84","1","2022-11-28 13:32:41","49aca292d257f58668169b9fbab864ae","113.78.247.125","Mozilla/5.0 (Windows NT 6.1) AppleWebKit/537.36 (KHTML, like Gecko) Chrome/86.0.4240.198 Safari/537.36","WebKit","Chrome","86.0.4240.198","Windows","6.1","null","<div style=""font-size:60px;"">+</div>","null",""
"","","","","","html-button-response","61","283405","0.0-4.0-1.28","84","1","2022-11-28 13:32:41","49aca292d257f58668169b9fbab864ae","113.78.247.125","Mozilla/5.0 (Windows NT 6.1) AppleWebKit/537.36 (KHTML, like Gecko) Chrome/86.0.4240.198 Safari/537.36","WebKit","Chrome","86.0.4240.198","Windows","6.1","841","<p>作为军队的指挥官，你可以选择发射导弹杀死 <strong>5名</strong> 敌国士兵，但会误杀附近的 <strong>1名</strong> 敌国平民。</p> <p>平民照片如下图所示。</p> <p></p> <img src='stimuli/faces/PFM5.jpg', style='max-width: 30%;'> </img> <p><strong>你是否选择发射武器？</strong></p>","1",""
"","","","","","html-keyboard-response","62","284411","0.0-4.0-0.29","84","1","2022-11-28 13:32:41","49aca292d257f58668169b9fbab864ae","113.78.247.125","Mozilla/5.0 (Windows NT 6.1) AppleWebKit/537.36 (KHTML, like Gecko) Chrome/86.0.4240.198 Safari/537.36","WebKit","Chrome","86.0.4240.198","Windows","6.1","null","<div style=""font-size:60px;"">+</div>","null",""
"","","","","","html-button-response","63","285445","0.0-4.0-1.29","84","1","2022-11-28 13:32:41","49aca292d257f58668169b9fbab864ae","113.78.247.125","Mozilla/5.0 (Windows NT 6.1) AppleWebKit/537.36 (KHTML, like Gecko) Chrome/86.0.4240.198 Safari/537.36","WebKit","Chrome","86.0.4240.198","Windows","6.1","1025","<p>作为军队的指挥官，你可以选择发射导弹杀死 <strong>3名</strong> 敌国士兵，但会炸毁附近的 <strong>1棵</strong> 敌国树木。</p> <p>树木的照片如下图所示。</p> <p></p> <img src='stimuli/trees/5.png', style='max-width: 30%;'> </img> <p><strong>你是否选择发射武器？</strong></p>","0",""
"","","","","","html-keyboard-response","64","286453","0.0-4.0-0.30","84","1","2022-11-28 13:32:41","49aca292d257f58668169b9fbab864ae","113.78.247.125","Mozilla/5.0 (Windows NT 6.1) AppleWebKit/537.36 (KHTML, like Gecko) Chrome/86.0.4240.198 Safari/537.36","WebKit","Chrome","86.0.4240.198","Windows","6.1","null","<div style=""font-size:60px;"">+</div>","null",""
"","","","","","html-button-response","65","288020","0.0-4.0-1.30","84","1","2022-11-28 13:32:41","49aca292d257f58668169b9fbab864ae","113.78.247.125","Mozilla/5.0 (Windows NT 6.1) AppleWebKit/537.36 (KHTML, like Gecko) Chrome/86.0.4240.198 Safari/537.36","WebKit","Chrome","86.0.4240.198","Windows","6.1","1559","<p>作为军队的指挥官，你可以选择发射导弹杀死 <strong>1名</strong> 敌国士兵，但会误杀附近的 <strong>1名</strong> 敌国平民。</p> <p>平民照片如下图所示。</p> <p></p> <img src='stimuli/faces/PFF2.jpg', style='max-width: 30%;'> </img> <p><strong>你是否选择发射武器？</strong></p>","1",""
"","","","","","html-keyboard-response","66","289027","0.0-4.0-0.31","84","1","2022-11-28 13:32:41","49aca292d257f58668169b9fbab864ae","113.78.247.125","Mozilla/5.0 (Windows NT 6.1) AppleWebKit/537.36 (KHTML, like Gecko) Chrome/86.0.4240.198 Safari/537.36","WebKit","Chrome","86.0.4240.198","Windows","6.1","null","<div style=""font-size:60px;"">+</div>","null",""
"","","","","","html-button-response","67","290412","0.0-4.0-1.31","84","1","2022-11-28 13:32:41","49aca292d257f58668169b9fbab864ae","113.78.247.125","Mozilla/5.0 (Windows NT 6.1) AppleWebKit/537.36 (KHTML, like Gecko) Chrome/86.0.4240.198 Safari/537.36","WebKit","Chrome","86.0.4240.198","Windows","6.1","1375","<p>作为军队的指挥官，你可以选择发射导弹杀死 <strong>10名</strong> 敌国士兵，但会误杀附近的 <strong>1名</strong> 敌国平民。</p> <p>平民照片如下图所示。</p> <p></p> <img src='stimuli/faces/PFM1.jpg', style='max-width: 30%;'> </img> <p><strong>你是否选择发射武器？</strong></p>","1",""
"","","","","","html-keyboard-response","68","291420","0.0-4.0-0.32","84","1","2022-11-28 13:32:41","49aca292d257f58668169b9fbab864ae","113.78.247.125","Mozilla/5.0 (Windows NT 6.1) AppleWebKit/537.36 (KHTML, like Gecko) Chrome/86.0.4240.198 Safari/537.36","WebKit","Chrome","86.0.4240.198","Windows","6.1","null","<div style=""font-size:60px;"">+</div>","null",""
"","","","","","html-button-response","69","292628","0.0-4.0-1.32","84","1","2022-11-28 13:32:41","49aca292d257f58668169b9fbab864ae","113.78.247.125","Mozilla/5.0 (Windows NT 6.1) AppleWebKit/537.36 (KHTML, like Gecko) Chrome/86.0.4240.198 Safari/537.36","WebKit","Chrome","86.0.4240.198","Windows","6.1","1200","<p>作为军队的指挥官，你可以选择发射导弹杀死 <strong>9名</strong> 敌国士兵，但会炸毁附近的 <strong>1棵</strong> 敌国树木。</p> <p>树木的照片如下图所示。</p> <p></p> <img src='stimuli/trees/12.png', style='max-width: 30%;'> </img> <p><strong>你是否选择发射武器？</strong></p>","0",""
"","","","","","html-keyboard-response","70","293636","0.0-4.0-0.33","84","1","2022-11-28 13:32:41","49aca292d257f58668169b9fbab864ae","113.78.247.125","Mozilla/5.0 (Windows NT 6.1) AppleWebKit/537.36 (KHTML, like Gecko) Chrome/86.0.4240.198 Safari/537.36","WebKit","Chrome","86.0.4240.198","Windows","6.1","null","<div style=""font-size:60px;"">+</div>","null",""
"","","","","","html-button-response","71","294684","0.0-4.0-1.33","84","1","2022-11-28 13:32:41","49aca292d257f58668169b9fbab864ae","113.78.247.125","Mozilla/5.0 (Windows NT 6.1) AppleWebKit/537.36 (KHTML, like Gecko) Chrome/86.0.4240.198 Safari/537.36","WebKit","Chrome","86.0.4240.198","Windows","6.1","1038","<p>作为军队的指挥官，你可以选择发射导弹杀死 <strong>10名</strong> 敌国士兵，但会误杀附近的 <strong>1名</strong> 敌国平民。</p> <p>平民照片如下图所示。</p> <p></p> <img src='stimuli/faces/PFF5.jpg', style='max-width: 30%;'> </img> <p><strong>你是否选择发射武器？</strong></p>","1",""
"","","","","","html-keyboard-response","72","295692","0.0-4.0-0.34","84","1","2022-11-28 13:32:41","49aca292d257f58668169b9fbab864ae","113.78.247.125","Mozilla/5.0 (Windows NT 6.1) AppleWebKit/537.36 (KHTML, like Gecko) Chrome/86.0.4240.198 Safari/537.36","WebKit","Chrome","86.0.4240.198","Windows","6.1","null","<div style=""font-size:60px;"">+</div>","null",""
"","","","","","html-button-response","73","296772","0.0-4.0-1.34","84","1","2022-11-28 13:32:41","49aca292d257f58668169b9fbab864ae","113.78.247.125","Mozilla/5.0 (Windows NT 6.1) AppleWebKit/537.36 (KHTML, like Gecko) Chrome/86.0.4240.198 Safari/537.36","WebKit","Chrome","86.0.4240.198","Windows","6.1","1072","<p>作为军队的指挥官，你可以选择发射导弹杀死 <strong>5名</strong> 敌国士兵，但会炸毁附近的 <strong>1棵</strong> 敌国树木。</p> <p>树木的照片如下图所示。</p> <p></p> <img src='stimuli/trees/3.png', style='max-width: 30%;'> </img> <p><strong>你是否选择发射武器？</strong></p>","0",""
"","","","","","html-keyboard-response","74","297781","0.0-4.0-0.35","84","1","2022-11-28 13:32:41","49aca292d257f58668169b9fbab864ae","113.78.247.125","Mozilla/5.0 (Windows NT 6.1) AppleWebKit/537.36 (KHTML, like Gecko) Chrome/86.0.4240.198 Safari/537.36","WebKit","Chrome","86.0.4240.198","Windows","6.1","null","<div style=""font-size:60px;"">+</div>","null",""
"","","","","","html-button-response","75","298924","0.0-4.0-1.35","84","1","2022-11-28 13:32:41","49aca292d257f58668169b9fbab864ae","113.78.247.125","Mozilla/5.0 (Windows NT 6.1) AppleWebKit/537.36 (KHTML, like Gecko) Chrome/86.0.4240.198 Safari/537.36","WebKit","Chrome","86.0.4240.198","Windows","6.1","1133","<p>作为军队的指挥官，你可以选择发射导弹杀死 <strong>5名</strong> 敌国士兵，但会误杀附近的 <strong>1名</strong> 敌国平民。</p> <p>平民照片如下图所示。</p> <p></p> <img src='stimuli/faces/PFM6.jpg', style='max-width: 30%;'> </img> <p><strong>你是否选择发射武器？</strong></p>","1",""
"","","","","","html-keyboard-response","76","299932","0.0-4.0-0.36","84","1","2022-11-28 13:32:41","49aca292d257f58668169b9fbab864ae","113.78.247.125","Mozilla/5.0 (Windows NT 6.1) AppleWebKit/537.36 (KHTML, like Gecko) Chrome/86.0.4240.198 Safari/537.36","WebKit","Chrome","86.0.4240.198","Windows","6.1","null","<div style=""font-size:60px;"">+</div>","null",""
"","","","","","html-button-response","77","301084","0.0-4.0-1.36","84","1","2022-11-28 13:32:41","49aca292d257f58668169b9fbab864ae","113.78.247.125","Mozilla/5.0 (Windows NT 6.1) AppleWebKit/537.36 (KHTML, like Gecko) Chrome/86.0.4240.198 Safari/537.36","WebKit","Chrome","86.0.4240.198","Windows","6.1","1143","<p>作为军队的指挥官，你可以选择发射导弹杀死 <strong>1名</strong> 敌国士兵，但会误杀附近的 <strong>1名</strong> 敌国平民。</p> <p>平民照片如下图所示。</p> <p></p> <img src='stimuli/faces/PFM2.jpg', style='max-width: 30%;'> </img> <p><strong>你是否选择发射武器？</strong></p>","1",""
"","","","","","html-keyboard-response","78","302094","0.0-4.0-0.37","84","1","2022-11-28 13:32:41","49aca292d257f58668169b9fbab864ae","113.78.247.125","Mozilla/5.0 (Windows NT 6.1) AppleWebKit/537.36 (KHTML, like Gecko) Chrome/86.0.4240.198 Safari/537.36","WebKit","Chrome","86.0.4240.198","Windows","6.1","null","<div style=""font-size:60px;"">+</div>","null",""
"","","","","","html-button-response","79","302948","0.0-4.0-1.37","84","1","2022-11-28 13:32:41","49aca292d257f58668169b9fbab864ae","113.78.247.125","Mozilla/5.0 (Windows NT 6.1) AppleWebKit/537.36 (KHTML, like Gecko) Chrome/86.0.4240.198 Safari/537.36","WebKit","Chrome","86.0.4240.198","Windows","6.1","845","<p>作为军队的指挥官，你可以选择发射导弹杀死 <strong>9名</strong> 敌国士兵，但会误杀附近的 <strong>1名</strong> 敌国平民。</p> <p>平民照片如下图所示。</p> <p></p> <img src='stimuli/faces/PFF7.jpg', style='max-width: 30%;'> </img> <p><strong>你是否选择发射武器？</strong></p>","1",""
"","","","","","html-keyboard-response","80","303956","0.0-4.0-0.38","84","1","2022-11-28 13:32:41","49aca292d257f58668169b9fbab864ae","113.78.247.125","Mozilla/5.0 (Windows NT 6.1) AppleWebKit/537.36 (KHTML, like Gecko) Chrome/86.0.4240.198 Safari/537.36","WebKit","Chrome","86.0.4240.198","Windows","6.1","null","<div style=""font-size:60px;"">+</div>","null",""
"","","","","","html-button-response","81","305548","0.0-4.0-1.38","84","1","2022-11-28 13:32:41","49aca292d257f58668169b9fbab864ae","113.78.247.125","Mozilla/5.0 (Windows NT 6.1) AppleWebKit/537.36 (KHTML, like Gecko) Chrome/86.0.4240.198 Safari/537.36","WebKit","Chrome","86.0.4240.198","Windows","6.1","1582","<p>作为军队的指挥官，你可以选择发射导弹杀死 <strong>1名</strong> 敌国士兵，但会误杀附近的 <strong>1名</strong> 敌国平民。</p> <p>平民照片如下图所示。</p> <p></p> <img src='stimuli/faces/PFM1.jpg', style='max-width: 30%;'> </img> <p><strong>你是否选择发射武器？</strong></p>","1",""
"","","","","","html-keyboard-response","82","306559","0.0-4.0-0.39","84","1","2022-11-28 13:32:41","49aca292d257f58668169b9fbab864ae","113.78.247.125","Mozilla/5.0 (Windows NT 6.1) AppleWebKit/537.36 (KHTML, like Gecko) Chrome/86.0.4240.198 Safari/537.36","WebKit","Chrome","86.0.4240.198","Windows","6.1","null","<div style=""font-size:60px;"">+</div>","null",""
"","","","","","html-button-response","83","307533","0.0-4.0-1.39","84","1","2022-11-28 13:32:41","49aca292d257f58668169b9fbab864ae","113.78.247.125","Mozilla/5.0 (Windows NT 6.1) AppleWebKit/537.36 (KHTML, like Gecko) Chrome/86.0.4240.198 Safari/537.36","WebKit","Chrome","86.0.4240.198","Windows","6.1","963","<p>作为军队的指挥官，你可以选择发射导弹杀死 <strong>10名</strong> 敌国士兵，但会误杀附近的 <strong>1名</strong> 敌国平民。</p> <p>平民照片如下图所示。</p> <p></p> <img src='stimuli/faces/PFF3.jpg', style='max-width: 30%;'> </img> <p><strong>你是否选择发射武器？</strong></p>","1",""
"","","","","","html-keyboard-response","84","308542","0.0-4.0-0.40","84","1","2022-11-28 13:32:41","49aca292d257f58668169b9fbab864ae","113.78.247.125","Mozilla/5.0 (Windows NT 6.1) AppleWebKit/537.36 (KHTML, like Gecko) Chrome/86.0.4240.198 Safari/537.36","WebKit","Chrome","86.0.4240.198","Windows","6.1","null","<div style=""font-size:60px;"">+</div>","null",""
"","","","","","html-button-response","85","310164","0.0-4.0-1.40","84","1","2022-11-28 13:32:41","49aca292d257f58668169b9fbab864ae","113.78.247.125","Mozilla/5.0 (Windows NT 6.1) AppleWebKit/537.36 (KHTML, like Gecko) Chrome/86.0.4240.198 Safari/537.36","WebKit","Chrome","86.0.4240.198","Windows","6.1","1612","<p>作为军队的指挥官，你可以选择发射导弹杀死 <strong>1名</strong> 敌国士兵，但会炸毁附近的 <strong>1棵</strong> 敌国树木。</p> <p>树木的照片如下图所示。</p> <p></p> <img src='stimuli/trees/8.png', style='max-width: 30%;'> </img> <p><strong>你是否选择发射武器？</strong></p>","0",""
"","","","","","html-keyboard-response","86","311174","0.0-4.0-0.41","84","1","2022-11-28 13:32:41","49aca292d257f58668169b9fbab864ae","113.78.247.125","Mozilla/5.0 (Windows NT 6.1) AppleWebKit/537.36 (KHTML, like Gecko) Chrome/86.0.4240.198 Safari/537.36","WebKit","Chrome","86.0.4240.198","Windows","6.1","null","<div style=""font-size:60px;"">+</div>","null",""
"","","","","","html-button-response","87","313357","0.0-4.0-1.41","84","1","2022-11-28 13:32:41","49aca292d257f58668169b9fbab864ae","113.78.247.125","Mozilla/5.0 (Windows NT 6.1) AppleWebKit/537.36 (KHTML, like Gecko) Chrome/86.0.4240.198 Safari/537.36","WebKit","Chrome","86.0.4240.198","Windows","6.1","2171","<p>作为军队的指挥官，你可以选择发射导弹杀死 <strong>5名</strong> 敌国士兵，但会误杀附近的 <strong>1名</strong> 敌国平民。</p> <p>平民照片如下图所示。</p> <p></p> <img src='stimuli/faces/PFF6.jpg', style='max-width: 30%;'> </img> <p><strong>你是否选择发射武器？</strong></p>","1",""
"","","","","","html-keyboard-response","88","314365","0.0-4.0-0.42","84","1","2022-11-28 13:32:41","49aca292d257f58668169b9fbab864ae","113.78.247.125","Mozilla/5.0 (Windows NT 6.1) AppleWebKit/537.36 (KHTML, like Gecko) Chrome/86.0.4240.198 Safari/537.36","WebKit","Chrome","86.0.4240.198","Windows","6.1","null","<div style=""font-size:60px;"">+</div>","null",""
"","","","","","html-button-response","89","317173","0.0-4.0-1.42","84","1","2022-11-28 13:32:41","49aca292d257f58668169b9fbab864ae","113.78.247.125","Mozilla/5.0 (Windows NT 6.1) AppleWebKit/537.36 (KHTML, like Gecko) Chrome/86.0.4240.198 Safari/537.36","WebKit","Chrome","86.0.4240.198","Windows","6.1","2795","<p>作为军队的指挥官，你可以选择发射导弹杀死 <strong>8名</strong> 敌国士兵，但会误杀附近的 <strong>1名</strong> 敌国平民。</p> <p>平民照片如下图所示。</p> <p></p> <img src='stimuli/faces/PFF4.jpg', style='max-width: 30%;'> </img> <p><strong>你是否选择发射武器？</strong></p>","1",""
"","","","","","html-keyboard-response","90","318183","0.0-4.0-0.43","84","1","2022-11-28 13:32:41","49aca292d257f58668169b9fbab864ae","113.78.247.125","Mozilla/5.0 (Windows NT 6.1) AppleWebKit/537.36 (KHTML, like Gecko) Chrome/86.0.4240.198 Safari/537.36","WebKit","Chrome","86.0.4240.198","Windows","6.1","null","<div style=""font-size:60px;"">+</div>","null",""
"","","","","","html-button-response","91","320492","0.0-4.0-1.43","84","1","2022-11-28 13:32:41","49aca292d257f58668169b9fbab864ae","113.78.247.125","Mozilla/5.0 (Windows NT 6.1) AppleWebKit/537.36 (KHTML, like Gecko) Chrome/86.0.4240.198 Safari/537.36","WebKit","Chrome","86.0.4240.198","Windows","6.1","2299","<p>作为军队的指挥官，你可以选择发射导弹杀死 <strong>6名</strong> 敌国士兵，但会误杀附近的 <strong>1名</strong> 敌国平民。</p> <p>平民照片如下图所示。</p> <p></p> <img src='stimuli/faces/PFM3.jpg', style='max-width: 30%;'> </img> <p><strong>你是否选择发射武器？</strong></p>","1",""
"","","","","","html-keyboard-response","92","321501","0.0-4.0-0.44","84","1","2022-11-28 13:32:41","49aca292d257f58668169b9fbab864ae","113.78.247.125","Mozilla/5.0 (Windows NT 6.1) AppleWebKit/537.36 (KHTML, like Gecko) Chrome/86.0.4240.198 Safari/537.36","WebKit","Chrome","86.0.4240.198","Windows","6.1","null","<div style=""font-size:60px;"">+</div>","null",""
"","","","","","html-button-response","93","323292","0.0-4.0-1.44","84","1","2022-11-28 13:32:41","49aca292d257f58668169b9fbab864ae","113.78.247.125","Mozilla/5.0 (Windows NT 6.1) AppleWebKit/537.36 (KHTML, like Gecko) Chrome/86.0.4240.198 Safari/537.36","WebKit","Chrome","86.0.4240.198","Windows","6.1","1780","<p>作为军队的指挥官，你可以选择发射导弹杀死 <strong>2名</strong> 敌国士兵，但会炸毁附近的 <strong>1棵</strong> 敌国树木。</p> <p>树木的照片如下图所示。</p> <p></p> <img src='stimuli/trees/11.png', style='max-width: 30%;'> </img> <p><strong>你是否选择发射武器？</strong></p>","0",""
"","","","","","html-keyboard-response","94","324301","0.0-4.0-0.45","84","1","2022-11-28 13:32:41","49aca292d257f58668169b9fbab864ae","113.78.247.125","Mozilla/5.0 (Windows NT 6.1) AppleWebKit/537.36 (KHTML, like Gecko) Chrome/86.0.4240.198 Safari/537.36","WebKit","Chrome","86.0.4240.198","Windows","6.1","null","<div style=""font-size:60px;"">+</div>","null",""
"","","","","","html-button-response","95","325460","0.0-4.0-1.45","84","1","2022-11-28 13:32:41","49aca292d257f58668169b9fbab864ae","113.78.247.125","Mozilla/5.0 (Windows NT 6.1) AppleWebKit/537.36 (KHTML, like Gecko) Chrome/86.0.4240.198 Safari/537.36","WebKit","Chrome","86.0.4240.198","Windows","6.1","1146","<p>作为军队的指挥官，你可以选择发射导弹杀死 <strong>8名</strong> 敌国士兵，但会炸毁附近的 <strong>1棵</strong> 敌国树木。</p> <p>树木的照片如下图所示。</p> <p></p> <img src='stimuli/trees/15.png', style='max-width: 30%;'> </img> <p><strong>你是否选择发射武器？</strong></p>","0",""
"","","","","","html-keyboard-response","96","326469","0.0-4.0-0.46","84","1","2022-11-28 13:32:41","49aca292d257f58668169b9fbab864ae","113.78.247.125","Mozilla/5.0 (Windows NT 6.1) AppleWebKit/537.36 (KHTML, like Gecko) Chrome/86.0.4240.198 Safari/537.36","WebKit","Chrome","86.0.4240.198","Windows","6.1","null","<div style=""font-size:60px;"">+</div>","null",""
"","","","","","html-button-response","97","328108","0.0-4.0-1.46","84","1","2022-11-28 13:32:41","49aca292d257f58668169b9fbab864ae","113.78.247.125","Mozilla/5.0 (Windows NT 6.1) AppleWebKit/537.36 (KHTML, like Gecko) Chrome/86.0.4240.198 Safari/537.36","WebKit","Chrome","86.0.4240.198","Windows","6.1","1627","<p>作为军队的指挥官，你可以选择发射导弹杀死 <strong>4名</strong> 敌国士兵，但会误杀附近的 <strong>1名</strong> 敌国平民。</p> <p>平民照片如下图所示。</p> <p></p> <img src='stimuli/faces/PFM4.jpg', style='max-width: 30%;'> </img> <p><strong>你是否选择发射武器？</strong></p>","1",""
"","","","","","html-keyboard-response","98","329116","0.0-4.0-0.47","84","1","2022-11-28 13:32:41","49aca292d257f58668169b9fbab864ae","113.78.247.125","Mozilla/5.0 (Windows NT 6.1) AppleWebKit/537.36 (KHTML, like Gecko) Chrome/86.0.4240.198 Safari/537.36","WebKit","Chrome","86.0.4240.198","Windows","6.1","null","<div style=""font-size:60px;"">+</div>","null",""
"","","","","","html-button-response","99","331124","0.0-4.0-1.47","84","1","2022-11-28 13:32:41","49aca292d257f58668169b9fbab864ae","113.78.247.125","Mozilla/5.0 (Windows NT 6.1) AppleWebKit/537.36 (KHTML, like Gecko) Chrome/86.0.4240.198 Safari/537.36","WebKit","Chrome","86.0.4240.198","Windows","6.1","1998","<p>作为军队的指挥官，你可以选择发射导弹杀死 <strong>2名</strong> 敌国士兵，但会误杀附近的 <strong>1名</strong> 敌国平民。</p> <p>平民照片如下图所示。</p> <p></p> <img src='stimuli/faces/PFF3.jpg', style='max-width: 30%;'> </img> <p><strong>你是否选择发射武器？</strong></p>","1",""
"","","","","","html-keyboard-response","100","332134","0.0-4.0-0.48","84","1","2022-11-28 13:32:41","49aca292d257f58668169b9fbab864ae","113.78.247.125","Mozilla/5.0 (Windows NT 6.1) AppleWebKit/537.36 (KHTML, like Gecko) Chrome/86.0.4240.198 Safari/537.36","WebKit","Chrome","86.0.4240.198","Windows","6.1","null","<div style=""font-size:60px;"">+</div>","null",""
"","","","","","html-button-response","101","333516","0.0-4.0-1.48","84","1","2022-11-28 13:32:41","49aca292d257f58668169b9fbab864ae","113.78.247.125","Mozilla/5.0 (Windows NT 6.1) AppleWebKit/537.36 (KHTML, like Gecko) Chrome/86.0.4240.198 Safari/537.36","WebKit","Chrome","86.0.4240.198","Windows","6.1","1371","<p>作为军队的指挥官，你可以选择发射导弹杀死 <strong>1名</strong> 敌国士兵，但会炸毁附近的 <strong>1棵</strong> 敌国树木。</p> <p>树木的照片如下图所示。</p> <p></p> <img src='stimuli/trees/9.png', style='max-width: 30%;'> </img> <p><strong>你是否选择发射武器？</strong></p>","0",""
"","","","","","html-keyboard-response","102","334526","0.0-4.0-0.49","84","1","2022-11-28 13:32:41","49aca292d257f58668169b9fbab864ae","113.78.247.125","Mozilla/5.0 (Windows NT 6.1) AppleWebKit/537.36 (KHTML, like Gecko) Chrome/86.0.4240.198 Safari/537.36","WebKit","Chrome","86.0.4240.198","Windows","6.1","null","<div style=""font-size:60px;"">+</div>","null",""
"","","","","","html-button-response","103","335725","0.0-4.0-1.49","84","1","2022-11-28 13:32:41","49aca292d257f58668169b9fbab864ae","113.78.247.125","Mozilla/5.0 (Windows NT 6.1) AppleWebKit/537.36 (KHTML, like Gecko) Chrome/86.0.4240.198 Safari/537.36","WebKit","Chrome","86.0.4240.198","Windows","6.1","1188","<p>作为军队的指挥官，你可以选择发射导弹杀死 <strong>7名</strong> 敌国士兵，但会误杀附近的 <strong>1名</strong> 敌国平民。</p> <p>平民照片如下图所示。</p> <p></p> <img src='stimuli/faces/PFM7.jpg', style='max-width: 30%;'> </img> <p><strong>你是否选择发射武器？</strong></p>","1",""
"","","","","","html-keyboard-response","104","336736","0.0-4.0-0.50","84","1","2022-11-28 13:32:41","49aca292d257f58668169b9fbab864ae","113.78.247.125","Mozilla/5.0 (Windows NT 6.1) AppleWebKit/537.36 (KHTML, like Gecko) Chrome/86.0.4240.198 Safari/537.36","WebKit","Chrome","86.0.4240.198","Windows","6.1","null","<div style=""font-size:60px;"">+</div>","null",""
"","","","","","html-button-response","105","338092","0.0-4.0-1.50","84","1","2022-11-28 13:32:41","49aca292d257f58668169b9fbab864ae","113.78.247.125","Mozilla/5.0 (Windows NT 6.1) AppleWebKit/537.36 (KHTML, like Gecko) Chrome/86.0.4240.198 Safari/537.36","WebKit","Chrome","86.0.4240.198","Windows","6.1","1345","<p>作为军队的指挥官，你可以选择发射导弹杀死 <strong>3名</strong> 敌国士兵，但会炸毁附近的 <strong>1棵</strong> 敌国树木。</p> <p>树木的照片如下图所示。</p> <p></p> <img src='stimuli/trees/6.png', style='max-width: 30%;'> </img> <p><strong>你是否选择发射武器？</strong></p>","0",""
"","","","","","html-keyboard-response","106","339101","0.0-4.0-0.51","84","1","2022-11-28 13:32:41","49aca292d257f58668169b9fbab864ae","113.78.247.125","Mozilla/5.0 (Windows NT 6.1) AppleWebKit/537.36 (KHTML, like Gecko) Chrome/86.0.4240.198 Safari/537.36","WebKit","Chrome","86.0.4240.198","Windows","6.1","null","<div style=""font-size:60px;"">+</div>","null",""
"","","","","","html-button-response","107","340388","0.0-4.0-1.51","84","1","2022-11-28 13:32:41","49aca292d257f58668169b9fbab864ae","113.78.247.125","Mozilla/5.0 (Windows NT 6.1) AppleWebKit/537.36 (KHTML, like Gecko) Chrome/86.0.4240.198 Safari/537.36","WebKit","Chrome","86.0.4240.198","Windows","6.1","1275","<p>作为军队的指挥官，你可以选择发射导弹杀死 <strong>7名</strong> 敌国士兵，但会炸毁附近的 <strong>1棵</strong> 敌国树木。</p> <p>树木的照片如下图所示。</p> <p></p> <img src='stimuli/trees/4.png', style='max-width: 30%;'> </img> <p><strong>你是否选择发射武器？</strong></p>","0",""
"","","","","","html-keyboard-response","108","341399","0.0-4.0-0.52","84","1","2022-11-28 13:32:41","49aca292d257f58668169b9fbab864ae","113.78.247.125","Mozilla/5.0 (Windows NT 6.1) AppleWebKit/537.36 (KHTML, like Gecko) Chrome/86.0.4240.198 Safari/537.36","WebKit","Chrome","86.0.4240.198","Windows","6.1","null","<div style=""font-size:60px;"">+</div>","null",""
"","","","","","html-button-response","109","342868","0.0-4.0-1.52","84","1","2022-11-28 13:32:41","49aca292d257f58668169b9fbab864ae","113.78.247.125","Mozilla/5.0 (Windows NT 6.1) AppleWebKit/537.36 (KHTML, like Gecko) Chrome/86.0.4240.198 Safari/537.36","WebKit","Chrome","86.0.4240.198","Windows","6.1","1458","<p>作为军队的指挥官，你可以选择发射导弹杀死 <strong>9名</strong> 敌国士兵，但会炸毁附近的 <strong>1棵</strong> 敌国树木。</p> <p>树木的照片如下图所示。</p> <p></p> <img src='stimuli/trees/1.png', style='max-width: 30%;'> </img> <p><strong>你是否选择发射武器？</strong></p>","0",""
"","","","","","html-keyboard-response","110","343877","0.0-4.0-0.53","84","1","2022-11-28 13:32:41","49aca292d257f58668169b9fbab864ae","113.78.247.125","Mozilla/5.0 (Windows NT 6.1) AppleWebKit/537.36 (KHTML, like Gecko) Chrome/86.0.4240.198 Safari/537.36","WebKit","Chrome","86.0.4240.198","Windows","6.1","null","<div style=""font-size:60px;"">+</div>","null",""
"","","","","","html-button-response","111","346412","0.0-4.0-1.53","84","1","2022-11-28 13:32:41","49aca292d257f58668169b9fbab864ae","113.78.247.125","Mozilla/5.0 (Windows NT 6.1) AppleWebKit/537.36 (KHTML, like Gecko) Chrome/86.0.4240.198 Safari/537.36","WebKit","Chrome","86.0.4240.198","Windows","6.1","2523","<p>作为军队的指挥官，你可以选择发射导弹杀死 <strong>4名</strong> 敌国士兵，但会误杀附近的 <strong>1名</strong> 敌国平民。</p> <p>平民照片如下图所示。</p> <p></p> <img src='stimuli/faces/PFM3.jpg', style='max-width: 30%;'> </img> <p><strong>你是否选择发射武器？</strong></p>","1",""
"","","","","","html-keyboard-response","112","347423","0.0-4.0-0.54","84","1","2022-11-28 13:32:41","49aca292d257f58668169b9fbab864ae","113.78.247.125","Mozilla/5.0 (Windows NT 6.1) AppleWebKit/537.36 (KHTML, like Gecko) Chrome/86.0.4240.198 Safari/537.36","WebKit","Chrome","86.0.4240.198","Windows","6.1","null","<div style=""font-size:60px;"">+</div>","null",""
"","","","","","html-button-response","113","348501","0.0-4.0-1.54","84","1","2022-11-28 13:32:41","49aca292d257f58668169b9fbab864ae","113.78.247.125","Mozilla/5.0 (Windows NT 6.1) AppleWebKit/537.36 (KHTML, like Gecko) Chrome/86.0.4240.198 Safari/537.36","WebKit","Chrome","86.0.4240.198","Windows","6.1","1066","<p>作为军队的指挥官，你可以选择发射导弹杀死 <strong>5名</strong> 敌国士兵，但会误杀附近的 <strong>1名</strong> 敌国平民。</p> <p>平民照片如下图所示。</p> <p></p> <img src='stimuli/faces/PFF5.jpg', style='max-width: 30%;'> </img> <p><strong>你是否选择发射武器？</strong></p>","1",""
"","","","","","html-keyboard-response","114","349510","0.0-4.0-0.55","84","1","2022-11-28 13:32:41","49aca292d257f58668169b9fbab864ae","113.78.247.125","Mozilla/5.0 (Windows NT 6.1) AppleWebKit/537.36 (KHTML, like Gecko) Chrome/86.0.4240.198 Safari/537.36","WebKit","Chrome","86.0.4240.198","Windows","6.1","null","<div style=""font-size:60px;"">+</div>","null",""
"","","","","","html-button-response","115","350533","0.0-4.0-1.55","84","1","2022-11-28 13:32:41","49aca292d257f58668169b9fbab864ae","113.78.247.125","Mozilla/5.0 (Windows NT 6.1) AppleWebKit/537.36 (KHTML, like Gecko) Chrome/86.0.4240.198 Safari/537.36","WebKit","Chrome","86.0.4240.198","Windows","6.1","1012","<p>作为军队的指挥官，你可以选择发射导弹杀死 <strong>7名</strong> 敌国士兵，但会误杀附近的 <strong>1名</strong> 敌国平民。</p> <p>平民照片如下图所示。</p> <p></p> <img src='stimuli/faces/PFM5.jpg', style='max-width: 30%;'> </img> <p><strong>你是否选择发射武器？</strong></p>","1",""
"","","","","","html-keyboard-response","116","351546","0.0-4.0-0.56","84","1","2022-11-28 13:32:41","49aca292d257f58668169b9fbab864ae","113.78.247.125","Mozilla/5.0 (Windows NT 6.1) AppleWebKit/537.36 (KHTML, like Gecko) Chrome/86.0.4240.198 Safari/537.36","WebKit","Chrome","86.0.4240.198","Windows","6.1","null","<div style=""font-size:60px;"">+</div>","null",""
"","","","","","html-button-response","117","352844","0.0-4.0-1.56","84","1","2022-11-28 13:32:41","49aca292d257f58668169b9fbab864ae","113.78.247.125","Mozilla/5.0 (Windows NT 6.1) AppleWebKit/537.36 (KHTML, like Gecko) Chrome/86.0.4240.198 Safari/537.36","WebKit","Chrome","86.0.4240.198","Windows","6.1","1288","<p>作为军队的指挥官，你可以选择发射导弹杀死 <strong>9名</strong> 敌国士兵，但会炸毁附近的 <strong>1棵</strong> 敌国树木。</p> <p>树木的照片如下图所示。</p> <p></p> <img src='stimuli/trees/6.png', style='max-width: 30%;'> </img> <p><strong>你是否选择发射武器？</strong></p>","0",""
"","","","","","html-keyboard-response","118","353855","0.0-4.0-0.57","84","1","2022-11-28 13:32:41","49aca292d257f58668169b9fbab864ae","113.78.247.125","Mozilla/5.0 (Windows NT 6.1) AppleWebKit/537.36 (KHTML, like Gecko) Chrome/86.0.4240.198 Safari/537.36","WebKit","Chrome","86.0.4240.198","Windows","6.1","null","<div style=""font-size:60px;"">+</div>","null",""
"","","","","","html-button-response","119","354868","0.0-4.0-1.57","84","1","2022-11-28 13:32:41","49aca292d257f58668169b9fbab864ae","113.78.247.125","Mozilla/5.0 (Windows NT 6.1) AppleWebKit/537.36 (KHTML, like Gecko) Chrome/86.0.4240.198 Safari/537.36","WebKit","Chrome","86.0.4240.198","Windows","6.1","1000","<p>作为军队的指挥官，你可以选择发射导弹杀死 <strong>1名</strong> 敌国士兵，但会炸毁附近的 <strong>1棵</strong> 敌国树木。</p> <p>树木的照片如下图所示。</p> <p></p> <img src='stimuli/trees/1.png', style='max-width: 30%;'> </img> <p><strong>你是否选择发射武器？</strong></p>","0",""
"","","","","","html-keyboard-response","120","355904","0.0-4.0-0.58","84","1","2022-11-28 13:32:41","49aca292d257f58668169b9fbab864ae","113.78.247.125","Mozilla/5.0 (Windows NT 6.1) AppleWebKit/537.36 (KHTML, like Gecko) Chrome/86.0.4240.198 Safari/537.36","WebKit","Chrome","86.0.4240.198","Windows","6.1","null","<div style=""font-size:60px;"">+</div>","null",""
"","","","","","html-button-response","121","356828","0.0-4.0-1.58","84","1","2022-11-28 13:32:41","49aca292d257f58668169b9fbab864ae","113.78.247.125","Mozilla/5.0 (Windows NT 6.1) AppleWebKit/537.36 (KHTML, like Gecko) Chrome/86.0.4240.198 Safari/537.36","WebKit","Chrome","86.0.4240.198","Windows","6.1","911","<p>作为军队的指挥官，你可以选择发射导弹杀死 <strong>9名</strong> 敌国士兵，但会炸毁附近的 <strong>1棵</strong> 敌国树木。</p> <p>树木的照片如下图所示。</p> <p></p> <img src='stimuli/trees/10.png', style='max-width: 30%;'> </img> <p><strong>你是否选择发射武器？</strong></p>","0",""
"","","","","","html-keyboard-response","122","357836","0.0-4.0-0.59","84","1","2022-11-28 13:32:41","49aca292d257f58668169b9fbab864ae","113.78.247.125","Mozilla/5.0 (Windows NT 6.1) AppleWebKit/537.36 (KHTML, like Gecko) Chrome/86.0.4240.198 Safari/537.36","WebKit","Chrome","86.0.4240.198","Windows","6.1","null","<div style=""font-size:60px;"">+</div>","null",""
"","","","","","html-button-response","123","359084","0.0-4.0-1.59","84","1","2022-11-28 13:32:41","49aca292d257f58668169b9fbab864ae","113.78.247.125","Mozilla/5.0 (Windows NT 6.1) AppleWebKit/537.36 (KHTML, like Gecko) Chrome/86.0.4240.198 Safari/537.36","WebKit","Chrome","86.0.4240.198","Windows","6.1","1238","<p>作为军队的指挥官，你可以选择发射导弹杀死 <strong>8名</strong> 敌国士兵，但会误杀附近的 <strong>1名</strong> 敌国平民。</p> <p>平民照片如下图所示。</p> <p></p> <img src='stimuli/faces/PFM4.jpg', style='max-width: 30%;'> </img> <p><strong>你是否选择发射武器？</strong></p>","1",""
"","","","","","html-keyboard-response","124","360092","0.0-4.0-0.60","84","1","2022-11-28 13:32:41","49aca292d257f58668169b9fbab864ae","113.78.247.125","Mozilla/5.0 (Windows NT 6.1) AppleWebKit/537.36 (KHTML, like Gecko) Chrome/86.0.4240.198 Safari/537.36","WebKit","Chrome","86.0.4240.198","Windows","6.1","null","<div style=""font-size:60px;"">+</div>","null",""
"","","","","","html-button-response","125","361148","0.0-4.0-1.60","84","1","2022-11-28 13:32:41","49aca292d257f58668169b9fbab864ae","113.78.247.125","Mozilla/5.0 (Windows NT 6.1) AppleWebKit/537.36 (KHTML, like Gecko) Chrome/86.0.4240.198 Safari/537.36","WebKit","Chrome","86.0.4240.198","Windows","6.1","1045","<p>作为军队的指挥官，你可以选择发射导弹杀死 <strong>9名</strong> 敌国士兵，但会误杀附近的 <strong>1名</strong> 敌国平民。</p> <p>平民照片如下图所示。</p> <p></p> <img src='stimuli/faces/PFM2.jpg', style='max-width: 30%;'> </img> <p><strong>你是否选择发射武器？</strong></p>","1",""
"","","","","","html-keyboard-response","126","362156","0.0-4.0-0.61","84","1","2022-11-28 13:32:41","49aca292d257f58668169b9fbab864ae","113.78.247.125","Mozilla/5.0 (Windows NT 6.1) AppleWebKit/537.36 (KHTML, like Gecko) Chrome/86.0.4240.198 Safari/537.36","WebKit","Chrome","86.0.4240.198","Windows","6.1","null","<div style=""font-size:60px;"">+</div>","null",""
"","","","","","html-button-response","127","364036","0.0-4.0-1.61","84","1","2022-11-28 13:32:41","49aca292d257f58668169b9fbab864ae","113.78.247.125","Mozilla/5.0 (Windows NT 6.1) AppleWebKit/537.36 (KHTML, like Gecko) Chrome/86.0.4240.198 Safari/537.36","WebKit","Chrome","86.0.4240.198","Windows","6.1","1869","<p>作为军队的指挥官，你可以选择发射导弹杀死 <strong>1名</strong> 敌国士兵，但会炸毁附近的 <strong>1棵</strong> 敌国树木。</p> <p>树木的照片如下图所示。</p> <p></p> <img src='stimuli/trees/16.png', style='max-width: 30%;'> </img> <p><strong>你是否选择发射武器？</strong></p>","0",""
"","","","","","html-keyboard-response","128","365048","0.0-4.0-0.62","84","1","2022-11-28 13:32:41","49aca292d257f58668169b9fbab864ae","113.78.247.125","Mozilla/5.0 (Windows NT 6.1) AppleWebKit/537.36 (KHTML, like Gecko) Chrome/86.0.4240.198 Safari/537.36","WebKit","Chrome","86.0.4240.198","Windows","6.1","null","<div style=""font-size:60px;"">+</div>","null",""
"","","","","","html-button-response","129","369292","0.0-4.0-1.62","84","1","2022-11-28 13:32:41","49aca292d257f58668169b9fbab864ae","113.78.247.125","Mozilla/5.0 (Windows NT 6.1) AppleWebKit/537.36 (KHTML, like Gecko) Chrome/86.0.4240.198 Safari/537.36","WebKit","Chrome","86.0.4240.198","Windows","6.1","4229","<p>作为军队的指挥官，你可以选择发射导弹杀死 <strong>8名</strong> 敌国士兵，但会炸毁附近的 <strong>1棵</strong> 敌国树木。</p> <p>树木的照片如下图所示。</p> <p></p> <img src='stimuli/trees/5.png', style='max-width: 30%;'> </img> <p><strong>你是否选择发射武器？</strong></p>","0",""
"","","","","","html-keyboard-response","130","370303","0.0-4.0-0.63","84","1","2022-11-28 13:32:41","49aca292d257f58668169b9fbab864ae","113.78.247.125","Mozilla/5.0 (Windows NT 6.1) AppleWebKit/537.36 (KHTML, like Gecko) Chrome/86.0.4240.198 Safari/537.36","WebKit","Chrome","86.0.4240.198","Windows","6.1","null","<div style=""font-size:60px;"">+</div>","null",""
"","","","","","html-button-response","131","372932","0.0-4.0-1.63","84","1","2022-11-28 13:32:41","49aca292d257f58668169b9fbab864ae","113.78.247.125","Mozilla/5.0 (Windows NT 6.1) AppleWebKit/537.36 (KHTML, like Gecko) Chrome/86.0.4240.198 Safari/537.36","WebKit","Chrome","86.0.4240.198","Windows","6.1","2614","<p>作为军队的指挥官，你可以选择发射导弹杀死 <strong>10名</strong> 敌国士兵，但会炸毁附近的 <strong>1棵</strong> 敌国树木。</p> <p>树木的照片如下图所示。</p> <p></p> <img src='stimuli/trees/13.png', style='max-width: 30%;'> </img> <p><strong>你是否选择发射武器？</strong></p>","0",""
"","","","","","survey-multi-choice","132","707590","0.0-5.0","84","1","2022-11-28 13:32:41","49aca292d257f58668169b9fbab864ae","113.78.247.125","Mozilla/5.0 (Windows NT 6.1) AppleWebKit/537.36 (KHTML, like Gecko) Chrome/86.0.4240.198 Safari/537.36","WebKit","Chrome","86.0.4240.198","Windows","6.1","334642","","{""Attention1"":""""}","[0]"
"","","","","","html-button-response","133","718276","0.0-6.0","84","1","2022-11-28 13:32:41","49aca292d257f58668169b9fbab864ae","113.78.247.125","Mozilla/5.0 (Windows NT 6.1) AppleWebKit/537.36 (KHTML, like Gecko) Chrome/86.0.4240.198 Safari/537.36","WebKit","Chrome","86.0.4240.198","Windows","6.1","10661","<p style=""font-size:20px;font-weight:bold;"">恭喜！</p><p>你已经完成了实验的第一部分。</p><p>请休息放松一下，然后进入第二部分。</p><p>这部分大约需要10分钟。</p>","0",""
"","","","","","survey-text","134","1045182","0.0-7.0","84","1","2022-11-28 13:32:41","49aca292d257f58668169b9fbab864ae","113.78.247.125","Mozilla/5.0 (Windows NT 6.1) AppleWebKit/537.36 (KHTML, like Gecko) Chrome/86.0.4240.198 Safari/537.36","WebKit","Chrome","86.0.4240.198","Windows","6.1","325868","","{""Age"":""21"",""Nation"":""中国"",""Born"":""陕西省渭南市"",""Live"":""广东省东莞市"",""Ethnic"":""汉"",""Alipay"":""18002935020""}",""
"","","","","","survey-multi-choice","135","1097063","0.0-8.0","84","1","2022-11-28 13:32:41","49aca292d257f58668169b9fbab864ae","113.78.247.125","Mozilla/5.0 (Windows NT 6.1) AppleWebKit/537.36 (KHTML, like Gecko) Chrome/86.0.4240.198 Safari/537.36","WebKit","Chrome","86.0.4240.198","Windows","6.1","51856","","{""Gender"":""女"",""Education"":""本科毕业"",""Income"":""￥140,000-￥269,999"",""Children"":""1"",""Race"":""亚洲人""}","[0,1,2,3,4]"
"","","","","","survey-multi-select","136","1108043","0.0-9.0","84","1","2022-11-28 13:32:41","49aca292d257f58668169b9fbab864ae","113.78.247.125","Mozilla/5.0 (Windows NT 6.1) AppleWebKit/537.36 (KHTML, like Gecko) Chrome/86.0.4240.198 Safari/537.36","WebKit","Chrome","86.0.4240.198","Windows","6.1","10939","","{""Marriage"":[""已婚""],""Religion"":[""无宗教信仰""]}","[0,1]"
"","","","","","survey-multi-choice","137","1117767","0.0-10.0","84","1","2022-11-28 13:32:41","49aca292d257f58668169b9fbab864ae","113.78.247.125","Mozilla/5.0 (Windows NT 6.1) AppleWebKit/537.36 (KHTML, like Gecko) Chrome/86.0.4240.198 Safari/537.36","WebKit","Chrome","86.0.4240.198","Windows","6.1","9702","","{""SES"":""4""}","[0]"
"","","","","","html-button-response","138","1134148","0.0-11.0","84","1","2022-11-28 13:32:41","49aca292d257f58668169b9fbab864ae","113.78.247.125","Mozilla/5.0 (Windows NT 6.1) AppleWebKit/537.36 (KHTML, like Gecko) Chrome/86.0.4240.198 Safari/537.36","WebKit","Chrome","86.0.4240.198","Windows","6.1","16362","<p><strong>请判断下列陈述在多大程度上可以形容你？</p><p> (1 = ""和我一点都不像"" to 5 = ""非常像我"".)</strong></p>","0",""
"","","","","","survey-likert","139","1200427","0.0-12.0","84","1","2022-11-28 13:32:41","49aca292d257f58668169b9fbab864ae","113.78.247.125","Mozilla/5.0 (Windows NT 6.1) AppleWebKit/537.36 (KHTML, like Gecko) Chrome/86.0.4240.198 Safari/537.36","WebKit","Chrome","86.0.4240.198","Windows","6.1","66211","","{""Aggression1"":2,""Aggression2"":1,""Aggression3"":3,""Aggression4"":0,""Aggression5"":3,""Aggression6"":2,""Aggression7"":4,""Aggression8"":1,""Aggression9"":3}","[0,1,2,3,4,5,6,7,8]"
"","","","","","html-button-response","140","1204413","0.0-13.0","84","1","2022-11-28 13:32:41","49aca292d257f58668169b9fbab864ae","113.78.247.125","Mozilla/5.0 (Windows NT 6.1) AppleWebKit/537.36 (KHTML, like Gecko) Chrome/86.0.4240.198 Safari/537.36","WebKit","Chrome","86.0.4240.198","Windows","6.1","3961","<p><strong>请判断你在多大程度上同意下列陈述。</strong></p>","0",""
"","","","","","survey-likert","141","1340369","0.0-14.0","84","1","2022-11-28 13:32:41","49aca292d257f58668169b9fbab864ae","113.78.247.125","Mozilla/5.0 (Windows NT 6.1) AppleWebKit/537.36 (KHTML, like Gecko) Chrome/86.0.4240.198 Safari/537.36","WebKit","Chrome","86.0.4240.198","Windows","6.1","135915","","{""scale9"":3,""scale1"":2,""scale6"":3,""scale28"":3,""scale14"":1,""scale8"":4,""scale19"":3,""scale10"":2,""scale26"":4,""scale18"":0,""scale13"":0,""scale11"":4,""scale12"":1,""scale4"":0,""scale5"":4,""scale24"":2,""scale15"":0,""scale27"":2,""scale2"":4,""scale25"":3,""scale22"":4,""scale7"":0,""scale16"":4,""scale21"":4,""scale17"":2,""scale23"":4,""scale3"":1,""scale20"":3}","[8,0,5,27,13,7,18,9,25,17,12,10,11,3,4,23,14,26,1,24,21,6,15,20,16,22,2,19]"
"","","","","","html-button-response","142","1343588","0.0-15.0","84","1","2022-11-28 13:32:41","49aca292d257f58668169b9fbab864ae","113.78.247.125","Mozilla/5.0 (Windows NT 6.1) AppleWebKit/537.36 (KHTML, like Gecko) Chrome/86.0.4240.198 Safari/537.36","WebKit","Chrome","86.0.4240.198","Windows","6.1","3184","<p><strong>请判断你在多大程度上同意下列陈述。</strong></p>","0",""
"","","","","","survey-likert","143","1501672","0.0-16.0","84","1","2022-11-28 13:32:41","49aca292d257f58668169b9fbab864ae","113.78.247.125","Mozilla/5.0 (Windows NT 6.1) AppleWebKit/537.36 (KHTML, like Gecko) Chrome/86.0.4240.198 Safari/537.36","WebKit","Chrome","86.0.4240.198","Windows","6.1","158059","","{""sdo1"":3,""sdo5"":4,""sdo6"":5,""sdo3"":5,""sdo2"":1,""sdo13"":5,""sdo15"":5,""sdo8"":2,""sdo7"":0,""sdo16"":2,""sdo4"":0,""sdo10"":6,""sdo11"":6,""sdo9"":5,""sdo14"":6,""sdo12"":5}","[0,4,5,2,1,12,14,7,6,15,3,9,10,8,13,11]"
"","","","","","html-button-response","144","1503877","0.0-17.0","84","1","2022-11-28 13:32:41","49aca292d257f58668169b9fbab864ae","113.78.247.125","Mozilla/5.0 (Windows NT 6.1) AppleWebKit/537.36 (KHTML, like Gecko) Chrome/86.0.4240.198 Safari/537.36","WebKit","Chrome","86.0.4240.198","Windows","6.1","2182","<p><strong>请判断你在多大程度上同意下列陈述。</strong></p>","0",""
"","","","","","survey-likert","145","1584299","0.0-18.0","84","1","2022-11-28 13:32:41","49aca292d257f58668169b9fbab864ae","113.78.247.125","Mozilla/5.0 (Windows NT 6.1) AppleWebKit/537.36 (KHTML, like Gecko) Chrome/86.0.4240.198 Safari/537.36","WebKit","Chrome","86.0.4240.198","Windows","6.1","80400","","{""caring1"":4,""liking1"":0,""caring2"":4,""protection1"":3,""liking2"":1,""caring3"":4,""protection2"":1,""liking3"":2,""protection3"":3,""caring4"":4,""liking4"":0,""protection4"":3,""caring5"":3,""liking5"":1,""protection5"":3}","[0,1,2,3,4,5,6,7,8,9,10,11,12,13,14]"
"","","","","","html-button-response","146","1587900","0.0-19.0","84","1","2022-11-28 13:32:41","49aca292d257f58668169b9fbab864ae","113.78.247.125","Mozilla/5.0 (Windows NT 6.1) AppleWebKit/537.36 (KHTML, like Gecko) Chrome/86.0.4240.198 Safari/537.36","WebKit","Chrome","86.0.4240.198","Windows","6.1","3580","<p><strong>请判断下列场景中你的内心感受有多柔软。</strong></p>","0",""
"","","","","","survey-likert","147","1626212","0.0-20.0","84","1","2022-11-28 13:32:41","49aca292d257f58668169b9fbab864ae","113.78.247.125","Mozilla/5.0 (Windows NT 6.1) AppleWebKit/537.36 (KHTML, like Gecko) Chrome/86.0.4240.198 Safari/537.36","WebKit","Chrome","86.0.4240.198","Windows","6.1","38295","","{""tenderness-positive1"":3,""tenderness-negative1"":4,""tenderness-negative2"":2,""tenderness-positive2"":3,""tenderness-positive3"":4,""tenderness-negative3"":3,""tenderness-positive4"":4,""tenderness-negative4"":4,""tenderness-negative5"":4,""tenderness-positive5"":4}","[0,1,2,3,4,5,6,7,8,9]"
"","","","","","survey-multi-choice","148","1686951","0.0-21.0","84","1","2022-11-28 13:32:41","49aca292d257f58668169b9fbab864ae","113.78.247.125","Mozilla/5.0 (Windows NT 6.1) AppleWebKit/537.36 (KHTML, like Gecko) Chrome/86.0.4240.198 Safari/537.36","WebKit","Chrome","86.0.4240.198","Windows","6.1","60714","","{""Attention2"":""其他""}","[0]"
"","","","","","html-button-response","149","1688517","0.0-22.0","84","1","2022-11-28 13:32:41","49aca292d257f58668169b9fbab864ae","113.78.247.125","Mozilla/5.0 (Windows NT 6.1) AppleWebKit/537.36 (KHTML, like Gecko) Chrome/86.0.4240.198 Safari/537.36","WebKit","Chrome","86.0.4240.198","Windows","6.1","1544","<p><strong>请判断你在多大程度上同意下列陈述。</strong></p>","0",""
"","","","","","survey-likert","150","1844286","0.0-23.0","84","1","2022-11-28 13:32:41","49aca292d257f58668169b9fbab864ae","113.78.247.125","Mozilla/5.0 (Windows NT 6.1) AppleWebKit/537.36 (KHTML, like Gecko) Chrome/86.0.4240.198 Safari/537.36","WebKit","Chrome","86.0.4240.198","Windows","6.1","155744","","{""Patri4"":4,""Patri11"":0,""Nation1"":4,""Patri12"":0,""Patri2"":4,""Nation8"":2,""Patri6"":0,""Patri7"":4,""Patri1"":4,""Nation3"":0,""Patri10"":0,""Patri8"":4,""Nation5"":0,""Patri5"":4,""Nation4"":2,""Nation6"":4,""Patri9"":0,""Patri3"":4,""Nation2"":4,""Nation7"":4}","[3,10,12,11,1,19,5,6,0,14,9,7,16,4,15,17,8,2,13,18]"
"","","","","","html-button-response","151","1846253","0.0-24.0","84","1","2022-11-28 13:32:41","49aca292d257f58668169b9fbab864ae","113.78.247.125","Mozilla/5.0 (Windows NT 6.1) AppleWebKit/537.36 (KHTML, like Gecko) Chrome/86.0.4240.198 Safari/537.36","WebKit","Chrome","86.0.4240.198","Windows","6.1","1942","<p><strong>请判断你在多大程度上同意下列陈述。</strong></p>","0",""
"","","","","","survey-likert","152","1936986","0.0-25.0","84","1","2022-11-28 13:32:41","49aca292d257f58668169b9fbab864ae","113.78.247.125","Mozilla/5.0 (Windows NT 6.1) AppleWebKit/537.36 (KHTML, like Gecko) Chrome/86.0.4240.198 Safari/537.36","WebKit","Chrome","86.0.4240.198","Windows","6.1","90697","","{""vc4"":8,""vc3"":6,""Robot"":6,""hc1"":8,""vi3"":8,""hi1"":7,""vi4"":3,""vc1"":8,""vi2"":8,""hc2"":8,""hi2"":7,""hi3"":2,""hc3"":7,""vi1"":6,""hc4"":8,""vc2"":8,""hi4"":8}","[16,15,7,9,6,0,8,13,5,10,1,2,11,4,12,14,3]"
"","","","","","survey-text","153","1947990","0.0-26.0","84","1","2022-11-28 13:32:41","49aca292d257f58668169b9fbab864ae","113.78.247.125","Mozilla/5.0 (Windows NT 6.1) AppleWebKit/537.36 (KHTML, like Gecko) Chrome/86.0.4240.198 Safari/537.36","WebKit","Chrome","86.0.4240.198","Windows","6.1","10636","","{""Comments"":""无""}",""
"","","","","","html-button-response","154","1956493","0.0-27.0","84","1","2022-11-28 13:32:41","49aca292d257f58668169b9fbab864ae","113.78.247.125","Mozilla/5.0 (Windows NT 6.1) AppleWebKit/537.36 (KHTML, like Gecko) Chrome/86.0.4240.198 Safari/537.36","WebKit","Chrome","86.0.4240.198","Windows","6.1","8491","<strong><p>恭喜你完成了实验！</p><p>感谢您的参与。</p></strong>","0",""
