"success","timeout","failed_images","failed_audio","failed_video","trial_type","trial_index","time_elapsed","internal_node_id","run_id","condition","recorded_at","source_code_version","ip","user_agent","device","browser","browser_version","platform","platform_version","rt","stimulus","response","question_order"
"true","false","[]","[]","[]","preload","0","2705","0.0-0.0","36","1","2022-11-13 08:29:52","49aca292d257f58668169b9fbab864ae","123.112.11.205","Mozilla/5.0 (Macintosh; Intel Mac OS X 10_15_7) AppleWebKit/537.36 (KHTML, like Gecko) Chrome/107.0.0.0 Safari/537.36 Edg/107.0.1418.35","Macintosh","Edge","107.0.1418.35","OS X","10_15_7","","","",""
"true","","","","","fullscreen","1","4737","0.0-1.0","36","1","2022-11-13 08:29:52","49aca292d257f58668169b9fbab864ae","123.112.11.205","Mozilla/5.0 (Macintosh; Intel Mac OS X 10_15_7) AppleWebKit/537.36 (KHTML, like Gecko) Chrome/107.0.0.0 Safari/537.36 Edg/107.0.1418.35","Macintosh","Edge","107.0.1418.35","OS X","10_15_7","","","",""
"","","","","","html-button-response","2","46668","0.0-2.0","36","1","2022-11-13 08:29:52","49aca292d257f58668169b9fbab864ae","123.112.11.205","Mozilla/5.0 (Macintosh; Intel Mac OS X 10_15_7) AppleWebKit/537.36 (KHTML, like Gecko) Chrome/107.0.0.0 Safari/537.36 Edg/107.0.1418.35","Macintosh","Edge","107.0.1418.35","OS X","10_15_7","41929","<p style=""font-size:20px;font-weight:bold;"">实验知情同意书</p><p style=""text-align:left;""><strong>实验名称：</strong>社会冲突研究</p><p style=""text-align:left;""><strong>主要研究者：</strong>韩晓春副教授（北京师范大学心理学部）</p><p style=""text-align:left;""><strong>联系方式：</strong>发送邮件至xiaochun.han@bnu.edu.cn</p><p style=""text-align:left;""><strong>研究目的：</strong>研究旨在了解人类面对群体冲突时的决策方式，以及相关的心理学特质。实验调查大约需要20分钟。</p><p style=""text-align:left;""><strong>实验流程：</strong>实验包含两部分。第一部分呈现一系列群体冲突场景，请你决定如何对这些冲突进行反应，大约需要10分钟完成。第二部分包含一系列人口统计学信息收集和心理学问卷，大约需要10分钟完成。</p><p style=""text-align:left;""><strong>参加及退出规则：</strong>参加本实验完全取决于您的个人意愿。在参与过程中，您可以随时退出，并且不用承担任何后果。</p><p style=""text-align:left;""><strong>隐私：</strong>本实验完全匿名进行，不会收集您的姓名或其他能够识别您身份的信息。实验中收集的作答仅用作科学研究使用，可能会在学术期刊/书籍上发表，或者用于教学，您的数据未来可能会和其他研究者或实验室分享，但您的个人身份不会被识别。</p><p style=""text-align:left;""><strong>实验报酬：</strong>实验完成后，您将获得15元人民币报酬，以感谢您的时间和努力。调查问卷中包含几道题目用以测验您作答时的认真度。只有完成全部实验，并且正确回答认真度测验的被试才能获得实验报酬。实验报酬将通过支付宝转账发放。</p><p style=""text-align:left;font-size:20px;""><strong>如果您同意以上实验知情同意书的内容，请点击'同意并且开始实验'按钮；否则请关闭浏览器界面，退出实验。</strong></p>","0",""
"","","","","","html-button-response","3","66218","0.0-3.0","36","1","2022-11-13 08:29:52","49aca292d257f58668169b9fbab864ae","123.112.11.205","Mozilla/5.0 (Macintosh; Intel Mac OS X 10_15_7) AppleWebKit/537.36 (KHTML, like Gecko) Chrome/107.0.0.0 Safari/537.36 Edg/107.0.1418.35","Macintosh","Edge","107.0.1418.35","OS X","10_15_7","19547","<p ><strong>实验任务一：</strong></p><p>请想象你的国家与另一个国家发生了军事冲突。</p><p>你是国家军队的指挥官，你将如何在冲突中进行决策。</p><p>具体来说，作为军队指挥官，请你决定是否发射导弹进行打击。</p><p>接下来，你会面对一系列场景，请仔细阅读每个场景，然后进行决策。</p><p>这部分实验任务大约需要10分钟。</p><p><strong>实验过程中，请集中注意力。</strong></p>","0",""
"","","","","","html-keyboard-response","4","67228","0.0-4.0-0.0","36","1","2022-11-13 08:29:52","49aca292d257f58668169b9fbab864ae","123.112.11.205","Mozilla/5.0 (Macintosh; Intel Mac OS X 10_15_7) AppleWebKit/537.36 (KHTML, like Gecko) Chrome/107.0.0.0 Safari/537.36 Edg/107.0.1418.35","Macintosh","Edge","107.0.1418.35","OS X","10_15_7","null","<div style=""font-size:60px;"">+</div>","null",""
"","","","","","html-button-response","5","74735","0.0-4.0-1.0","36","1","2022-11-13 08:29:52","49aca292d257f58668169b9fbab864ae","123.112.11.205","Mozilla/5.0 (Macintosh; Intel Mac OS X 10_15_7) AppleWebKit/537.36 (KHTML, like Gecko) Chrome/107.0.0.0 Safari/537.36 Edg/107.0.1418.35","Macintosh","Edge","107.0.1418.35","OS X","10_15_7","7500","<p>作为军队的指挥官，你可以选择发射导弹杀死 <strong>6名</strong> 敌国士兵，但会炸毁附近的 <strong>1棵</strong> 敌国树木。</p> <p>树木的照片如下图所示。</p> <p></p> <img src='stimuli/trees/1.png', style='max-width: 30%;'> </img> <p><strong>你是否选择发射武器？</strong></p>","0",""
"","","","","","html-keyboard-response","6","75742","0.0-4.0-0.1","36","1","2022-11-13 08:29:52","49aca292d257f58668169b9fbab864ae","123.112.11.205","Mozilla/5.0 (Macintosh; Intel Mac OS X 10_15_7) AppleWebKit/537.36 (KHTML, like Gecko) Chrome/107.0.0.0 Safari/537.36 Edg/107.0.1418.35","Macintosh","Edge","107.0.1418.35","OS X","10_15_7","null","<div style=""font-size:60px;"">+</div>","null",""
"","","","","","html-button-response","7","83485","0.0-4.0-1.1","36","1","2022-11-13 08:29:52","49aca292d257f58668169b9fbab864ae","123.112.11.205","Mozilla/5.0 (Macintosh; Intel Mac OS X 10_15_7) AppleWebKit/537.36 (KHTML, like Gecko) Chrome/107.0.0.0 Safari/537.36 Edg/107.0.1418.35","Macintosh","Edge","107.0.1418.35","OS X","10_15_7","7739","<p>作为军队的指挥官，你可以选择发射导弹杀死 <strong>2名</strong> 敌国士兵，但会误杀附近的 <strong>1名</strong> 敌国平民。</p> <p>平民照片如下图所示。</p> <p></p> <img src='stimuli/faces/PFM5.jpg', style='max-width: 30%;'> </img> <p><strong>你是否选择发射武器？</strong></p>","1",""
"","","","","","html-keyboard-response","8","84494","0.0-4.0-0.2","36","1","2022-11-13 08:29:52","49aca292d257f58668169b9fbab864ae","123.112.11.205","Mozilla/5.0 (Macintosh; Intel Mac OS X 10_15_7) AppleWebKit/537.36 (KHTML, like Gecko) Chrome/107.0.0.0 Safari/537.36 Edg/107.0.1418.35","Macintosh","Edge","107.0.1418.35","OS X","10_15_7","null","<div style=""font-size:60px;"">+</div>","null",""
"","","","","","html-button-response","9","87835","0.0-4.0-1.2","36","1","2022-11-13 08:29:52","49aca292d257f58668169b9fbab864ae","123.112.11.205","Mozilla/5.0 (Macintosh; Intel Mac OS X 10_15_7) AppleWebKit/537.36 (KHTML, like Gecko) Chrome/107.0.0.0 Safari/537.36 Edg/107.0.1418.35","Macintosh","Edge","107.0.1418.35","OS X","10_15_7","3336","<p>作为军队的指挥官，你可以选择发射导弹杀死 <strong>9名</strong> 敌国士兵，但会炸毁附近的 <strong>1棵</strong> 敌国树木。</p> <p>树木的照片如下图所示。</p> <p></p> <img src='stimuli/trees/12.png', style='max-width: 30%;'> </img> <p><strong>你是否选择发射武器？</strong></p>","0",""
"","","","","","html-keyboard-response","10","88844","0.0-4.0-0.3","36","1","2022-11-13 08:29:52","49aca292d257f58668169b9fbab864ae","123.112.11.205","Mozilla/5.0 (Macintosh; Intel Mac OS X 10_15_7) AppleWebKit/537.36 (KHTML, like Gecko) Chrome/107.0.0.0 Safari/537.36 Edg/107.0.1418.35","Macintosh","Edge","107.0.1418.35","OS X","10_15_7","null","<div style=""font-size:60px;"">+</div>","null",""
"","","","","","html-button-response","11","95151","0.0-4.0-1.3","36","1","2022-11-13 08:29:52","49aca292d257f58668169b9fbab864ae","123.112.11.205","Mozilla/5.0 (Macintosh; Intel Mac OS X 10_15_7) AppleWebKit/537.36 (KHTML, like Gecko) Chrome/107.0.0.0 Safari/537.36 Edg/107.0.1418.35","Macintosh","Edge","107.0.1418.35","OS X","10_15_7","6302","<p>作为军队的指挥官，你可以选择发射导弹杀死 <strong>1名</strong> 敌国士兵，但会误杀附近的 <strong>1名</strong> 敌国平民。</p> <p>平民照片如下图所示。</p> <p></p> <img src='stimuli/faces/PFF3.jpg', style='max-width: 30%;'> </img> <p><strong>你是否选择发射武器？</strong></p>","1",""
"","","","","","html-keyboard-response","12","96156","0.0-4.0-0.4","36","1","2022-11-13 08:29:52","49aca292d257f58668169b9fbab864ae","123.112.11.205","Mozilla/5.0 (Macintosh; Intel Mac OS X 10_15_7) AppleWebKit/537.36 (KHTML, like Gecko) Chrome/107.0.0.0 Safari/537.36 Edg/107.0.1418.35","Macintosh","Edge","107.0.1418.35","OS X","10_15_7","null","<div style=""font-size:60px;"">+</div>","null",""
"","","","","","html-button-response","13","100134","0.0-4.0-1.4","36","1","2022-11-13 08:29:52","49aca292d257f58668169b9fbab864ae","123.112.11.205","Mozilla/5.0 (Macintosh; Intel Mac OS X 10_15_7) AppleWebKit/537.36 (KHTML, like Gecko) Chrome/107.0.0.0 Safari/537.36 Edg/107.0.1418.35","Macintosh","Edge","107.0.1418.35","OS X","10_15_7","3974","<p>作为军队的指挥官，你可以选择发射导弹杀死 <strong>10名</strong> 敌国士兵，但会炸毁附近的 <strong>1棵</strong> 敌国树木。</p> <p>树木的照片如下图所示。</p> <p></p> <img src='stimuli/trees/11.png', style='max-width: 30%;'> </img> <p><strong>你是否选择发射武器？</strong></p>","0",""
"","","","","","html-keyboard-response","14","101141","0.0-4.0-0.5","36","1","2022-11-13 08:29:52","49aca292d257f58668169b9fbab864ae","123.112.11.205","Mozilla/5.0 (Macintosh; Intel Mac OS X 10_15_7) AppleWebKit/537.36 (KHTML, like Gecko) Chrome/107.0.0.0 Safari/537.36 Edg/107.0.1418.35","Macintosh","Edge","107.0.1418.35","OS X","10_15_7","null","<div style=""font-size:60px;"">+</div>","null",""
"","","","","","html-button-response","15","106018","0.0-4.0-1.5","36","1","2022-11-13 08:29:52","49aca292d257f58668169b9fbab864ae","123.112.11.205","Mozilla/5.0 (Macintosh; Intel Mac OS X 10_15_7) AppleWebKit/537.36 (KHTML, like Gecko) Chrome/107.0.0.0 Safari/537.36 Edg/107.0.1418.35","Macintosh","Edge","107.0.1418.35","OS X","10_15_7","4871","<p>作为军队的指挥官，你可以选择发射导弹杀死 <strong>1名</strong> 敌国士兵，但会炸毁附近的 <strong>1棵</strong> 敌国树木。</p> <p>树木的照片如下图所示。</p> <p></p> <img src='stimuli/trees/13.png', style='max-width: 30%;'> </img> <p><strong>你是否选择发射武器？</strong></p>","1",""
"","","","","","html-keyboard-response","16","107027","0.0-4.0-0.6","36","1","2022-11-13 08:29:52","49aca292d257f58668169b9fbab864ae","123.112.11.205","Mozilla/5.0 (Macintosh; Intel Mac OS X 10_15_7) AppleWebKit/537.36 (KHTML, like Gecko) Chrome/107.0.0.0 Safari/537.36 Edg/107.0.1418.35","Macintosh","Edge","107.0.1418.35","OS X","10_15_7","null","<div style=""font-size:60px;"">+</div>","null",""
"","","","","","html-button-response","17","108951","0.0-4.0-1.6","36","1","2022-11-13 08:29:52","49aca292d257f58668169b9fbab864ae","123.112.11.205","Mozilla/5.0 (Macintosh; Intel Mac OS X 10_15_7) AppleWebKit/537.36 (KHTML, like Gecko) Chrome/107.0.0.0 Safari/537.36 Edg/107.0.1418.35","Macintosh","Edge","107.0.1418.35","OS X","10_15_7","1919","<p>作为军队的指挥官，你可以选择发射导弹杀死 <strong>6名</strong> 敌国士兵，但会误杀附近的 <strong>1名</strong> 敌国平民。</p> <p>平民照片如下图所示。</p> <p></p> <img src='stimuli/faces/PFF4.jpg', style='max-width: 30%;'> </img> <p><strong>你是否选择发射武器？</strong></p>","0",""
"","","","","","html-keyboard-response","18","109966","0.0-4.0-0.7","36","1","2022-11-13 08:29:52","49aca292d257f58668169b9fbab864ae","123.112.11.205","Mozilla/5.0 (Macintosh; Intel Mac OS X 10_15_7) AppleWebKit/537.36 (KHTML, like Gecko) Chrome/107.0.0.0 Safari/537.36 Edg/107.0.1418.35","Macintosh","Edge","107.0.1418.35","OS X","10_15_7","null","<div style=""font-size:60px;"">+</div>","null",""
"","","","","","html-button-response","19","111651","0.0-4.0-1.7","36","1","2022-11-13 08:29:52","49aca292d257f58668169b9fbab864ae","123.112.11.205","Mozilla/5.0 (Macintosh; Intel Mac OS X 10_15_7) AppleWebKit/537.36 (KHTML, like Gecko) Chrome/107.0.0.0 Safari/537.36 Edg/107.0.1418.35","Macintosh","Edge","107.0.1418.35","OS X","10_15_7","1680","<p>作为军队的指挥官，你可以选择发射导弹杀死 <strong>6名</strong> 敌国士兵，但会炸毁附近的 <strong>1棵</strong> 敌国树木。</p> <p>树木的照片如下图所示。</p> <p></p> <img src='stimuli/trees/5.png', style='max-width: 30%;'> </img> <p><strong>你是否选择发射武器？</strong></p>","0",""
"","","","","","html-keyboard-response","20","112658","0.0-4.0-0.8","36","1","2022-11-13 08:29:52","49aca292d257f58668169b9fbab864ae","123.112.11.205","Mozilla/5.0 (Macintosh; Intel Mac OS X 10_15_7) AppleWebKit/537.36 (KHTML, like Gecko) Chrome/107.0.0.0 Safari/537.36 Edg/107.0.1418.35","Macintosh","Edge","107.0.1418.35","OS X","10_15_7","null","<div style=""font-size:60px;"">+</div>","null",""
"","","","","","html-button-response","21","120417","0.0-4.0-1.8","36","1","2022-11-13 08:29:52","49aca292d257f58668169b9fbab864ae","123.112.11.205","Mozilla/5.0 (Macintosh; Intel Mac OS X 10_15_7) AppleWebKit/537.36 (KHTML, like Gecko) Chrome/107.0.0.0 Safari/537.36 Edg/107.0.1418.35","Macintosh","Edge","107.0.1418.35","OS X","10_15_7","7755","<p>作为军队的指挥官，你可以选择发射导弹杀死 <strong>5名</strong> 敌国士兵，但会炸毁附近的 <strong>1棵</strong> 敌国树木。</p> <p>树木的照片如下图所示。</p> <p></p> <img src='stimuli/trees/9.png', style='max-width: 30%;'> </img> <p><strong>你是否选择发射武器？</strong></p>","0",""
"","","","","","html-keyboard-response","22","121427","0.0-4.0-0.9","36","1","2022-11-13 08:29:52","49aca292d257f58668169b9fbab864ae","123.112.11.205","Mozilla/5.0 (Macintosh; Intel Mac OS X 10_15_7) AppleWebKit/537.36 (KHTML, like Gecko) Chrome/107.0.0.0 Safari/537.36 Edg/107.0.1418.35","Macintosh","Edge","107.0.1418.35","OS X","10_15_7","null","<div style=""font-size:60px;"">+</div>","null",""
"","","","","","html-button-response","23","123501","0.0-4.0-1.9","36","1","2022-11-13 08:29:52","49aca292d257f58668169b9fbab864ae","123.112.11.205","Mozilla/5.0 (Macintosh; Intel Mac OS X 10_15_7) AppleWebKit/537.36 (KHTML, like Gecko) Chrome/107.0.0.0 Safari/537.36 Edg/107.0.1418.35","Macintosh","Edge","107.0.1418.35","OS X","10_15_7","2068","<p>作为军队的指挥官，你可以选择发射导弹杀死 <strong>9名</strong> 敌国士兵，但会炸毁附近的 <strong>1棵</strong> 敌国树木。</p> <p>树木的照片如下图所示。</p> <p></p> <img src='stimuli/trees/3.png', style='max-width: 30%;'> </img> <p><strong>你是否选择发射武器？</strong></p>","0",""
"","","","","","html-keyboard-response","24","124510","0.0-4.0-0.10","36","1","2022-11-13 08:29:52","49aca292d257f58668169b9fbab864ae","123.112.11.205","Mozilla/5.0 (Macintosh; Intel Mac OS X 10_15_7) AppleWebKit/537.36 (KHTML, like Gecko) Chrome/107.0.0.0 Safari/537.36 Edg/107.0.1418.35","Macintosh","Edge","107.0.1418.35","OS X","10_15_7","null","<div style=""font-size:60px;"">+</div>","null",""
"","","","","","html-button-response","25","126284","0.0-4.0-1.10","36","1","2022-11-13 08:29:52","49aca292d257f58668169b9fbab864ae","123.112.11.205","Mozilla/5.0 (Macintosh; Intel Mac OS X 10_15_7) AppleWebKit/537.36 (KHTML, like Gecko) Chrome/107.0.0.0 Safari/537.36 Edg/107.0.1418.35","Macintosh","Edge","107.0.1418.35","OS X","10_15_7","1770","<p>作为军队的指挥官，你可以选择发射导弹杀死 <strong>5名</strong> 敌国士兵，但会炸毁附近的 <strong>1棵</strong> 敌国树木。</p> <p>树木的照片如下图所示。</p> <p></p> <img src='stimuli/trees/8.png', style='max-width: 30%;'> </img> <p><strong>你是否选择发射武器？</strong></p>","1",""
"","","","","","html-keyboard-response","26","127293","0.0-4.0-0.11","36","1","2022-11-13 08:29:52","49aca292d257f58668169b9fbab864ae","123.112.11.205","Mozilla/5.0 (Macintosh; Intel Mac OS X 10_15_7) AppleWebKit/537.36 (KHTML, like Gecko) Chrome/107.0.0.0 Safari/537.36 Edg/107.0.1418.35","Macintosh","Edge","107.0.1418.35","OS X","10_15_7","null","<div style=""font-size:60px;"">+</div>","null",""
"","","","","","html-button-response","27","131934","0.0-4.0-1.11","36","1","2022-11-13 08:29:52","49aca292d257f58668169b9fbab864ae","123.112.11.205","Mozilla/5.0 (Macintosh; Intel Mac OS X 10_15_7) AppleWebKit/537.36 (KHTML, like Gecko) Chrome/107.0.0.0 Safari/537.36 Edg/107.0.1418.35","Macintosh","Edge","107.0.1418.35","OS X","10_15_7","4636","<p>作为军队的指挥官，你可以选择发射导弹杀死 <strong>5名</strong> 敌国士兵，但会炸毁附近的 <strong>1棵</strong> 敌国树木。</p> <p>树木的照片如下图所示。</p> <p></p> <img src='stimuli/trees/2.png', style='max-width: 30%;'> </img> <p><strong>你是否选择发射武器？</strong></p>","0",""
"","","","","","html-keyboard-response","28","132947","0.0-4.0-0.12","36","1","2022-11-13 08:29:52","49aca292d257f58668169b9fbab864ae","123.112.11.205","Mozilla/5.0 (Macintosh; Intel Mac OS X 10_15_7) AppleWebKit/537.36 (KHTML, like Gecko) Chrome/107.0.0.0 Safari/537.36 Edg/107.0.1418.35","Macintosh","Edge","107.0.1418.35","OS X","10_15_7","null","<div style=""font-size:60px;"">+</div>","null",""
"","","","","","html-button-response","29","137434","0.0-4.0-1.12","36","1","2022-11-13 08:29:52","49aca292d257f58668169b9fbab864ae","123.112.11.205","Mozilla/5.0 (Macintosh; Intel Mac OS X 10_15_7) AppleWebKit/537.36 (KHTML, like Gecko) Chrome/107.0.0.0 Safari/537.36 Edg/107.0.1418.35","Macintosh","Edge","107.0.1418.35","OS X","10_15_7","4482","<p>作为军队的指挥官，你可以选择发射导弹杀死 <strong>5名</strong> 敌国士兵，但会炸毁附近的 <strong>1棵</strong> 敌国树木。</p> <p>树木的照片如下图所示。</p> <p></p> <img src='stimuli/trees/16.png', style='max-width: 30%;'> </img> <p><strong>你是否选择发射武器？</strong></p>","0",""
"","","","","","html-keyboard-response","30","138441","0.0-4.0-0.13","36","1","2022-11-13 08:29:52","49aca292d257f58668169b9fbab864ae","123.112.11.205","Mozilla/5.0 (Macintosh; Intel Mac OS X 10_15_7) AppleWebKit/537.36 (KHTML, like Gecko) Chrome/107.0.0.0 Safari/537.36 Edg/107.0.1418.35","Macintosh","Edge","107.0.1418.35","OS X","10_15_7","null","<div style=""font-size:60px;"">+</div>","null",""
"","","","","","html-button-response","31","141884","0.0-4.0-1.13","36","1","2022-11-13 08:29:52","49aca292d257f58668169b9fbab864ae","123.112.11.205","Mozilla/5.0 (Macintosh; Intel Mac OS X 10_15_7) AppleWebKit/537.36 (KHTML, like Gecko) Chrome/107.0.0.0 Safari/537.36 Edg/107.0.1418.35","Macintosh","Edge","107.0.1418.35","OS X","10_15_7","3438","<p>作为军队的指挥官，你可以选择发射导弹杀死 <strong>7名</strong> 敌国士兵，但会炸毁附近的 <strong>1棵</strong> 敌国树木。</p> <p>树木的照片如下图所示。</p> <p></p> <img src='stimuli/trees/9.png', style='max-width: 30%;'> </img> <p><strong>你是否选择发射武器？</strong></p>","1",""
"","","","","","html-keyboard-response","32","142893","0.0-4.0-0.14","36","1","2022-11-13 08:29:52","49aca292d257f58668169b9fbab864ae","123.112.11.205","Mozilla/5.0 (Macintosh; Intel Mac OS X 10_15_7) AppleWebKit/537.36 (KHTML, like Gecko) Chrome/107.0.0.0 Safari/537.36 Edg/107.0.1418.35","Macintosh","Edge","107.0.1418.35","OS X","10_15_7","null","<div style=""font-size:60px;"">+</div>","null",""
"","","","","","html-button-response","33","149768","0.0-4.0-1.14","36","1","2022-11-13 08:29:52","49aca292d257f58668169b9fbab864ae","123.112.11.205","Mozilla/5.0 (Macintosh; Intel Mac OS X 10_15_7) AppleWebKit/537.36 (KHTML, like Gecko) Chrome/107.0.0.0 Safari/537.36 Edg/107.0.1418.35","Macintosh","Edge","107.0.1418.35","OS X","10_15_7","6870","<p>作为军队的指挥官，你可以选择发射导弹杀死 <strong>8名</strong> 敌国士兵，但会误杀附近的 <strong>1名</strong> 敌国平民。</p> <p>平民照片如下图所示。</p> <p></p> <img src='stimuli/faces/PFM6.jpg', style='max-width: 30%;'> </img> <p><strong>你是否选择发射武器？</strong></p>","0",""
"","","","","","html-keyboard-response","34","150780","0.0-4.0-0.15","36","1","2022-11-13 08:29:52","49aca292d257f58668169b9fbab864ae","123.112.11.205","Mozilla/5.0 (Macintosh; Intel Mac OS X 10_15_7) AppleWebKit/537.36 (KHTML, like Gecko) Chrome/107.0.0.0 Safari/537.36 Edg/107.0.1418.35","Macintosh","Edge","107.0.1418.35","OS X","10_15_7","null","<div style=""font-size:60px;"">+</div>","null",""
"","","","","","html-button-response","35","157651","0.0-4.0-1.15","36","1","2022-11-13 08:29:52","49aca292d257f58668169b9fbab864ae","123.112.11.205","Mozilla/5.0 (Macintosh; Intel Mac OS X 10_15_7) AppleWebKit/537.36 (KHTML, like Gecko) Chrome/107.0.0.0 Safari/537.36 Edg/107.0.1418.35","Macintosh","Edge","107.0.1418.35","OS X","10_15_7","6866","<p>作为军队的指挥官，你可以选择发射导弹杀死 <strong>7名</strong> 敌国士兵，但会误杀附近的 <strong>1名</strong> 敌国平民。</p> <p>平民照片如下图所示。</p> <p></p> <img src='stimuli/faces/PFM1.jpg', style='max-width: 30%;'> </img> <p><strong>你是否选择发射武器？</strong></p>","0",""
"","","","","","html-keyboard-response","36","158657","0.0-4.0-0.16","36","1","2022-11-13 08:29:52","49aca292d257f58668169b9fbab864ae","123.112.11.205","Mozilla/5.0 (Macintosh; Intel Mac OS X 10_15_7) AppleWebKit/537.36 (KHTML, like Gecko) Chrome/107.0.0.0 Safari/537.36 Edg/107.0.1418.35","Macintosh","Edge","107.0.1418.35","OS X","10_15_7","null","<div style=""font-size:60px;"">+</div>","null",""
"","","","","","html-button-response","37","169933","0.0-4.0-1.16","36","1","2022-11-13 08:29:52","49aca292d257f58668169b9fbab864ae","123.112.11.205","Mozilla/5.0 (Macintosh; Intel Mac OS X 10_15_7) AppleWebKit/537.36 (KHTML, like Gecko) Chrome/107.0.0.0 Safari/537.36 Edg/107.0.1418.35","Macintosh","Edge","107.0.1418.35","OS X","10_15_7","11271","<p>作为军队的指挥官，你可以选择发射导弹杀死 <strong>6名</strong> 敌国士兵，但会炸毁附近的 <strong>1棵</strong> 敌国树木。</p> <p>树木的照片如下图所示。</p> <p></p> <img src='stimuli/trees/15.png', style='max-width: 30%;'> </img> <p><strong>你是否选择发射武器？</strong></p>","0",""
"","","","","","html-keyboard-response","38","170943","0.0-4.0-0.17","36","1","2022-11-13 08:29:52","49aca292d257f58668169b9fbab864ae","123.112.11.205","Mozilla/5.0 (Macintosh; Intel Mac OS X 10_15_7) AppleWebKit/537.36 (KHTML, like Gecko) Chrome/107.0.0.0 Safari/537.36 Edg/107.0.1418.35","Macintosh","Edge","107.0.1418.35","OS X","10_15_7","null","<div style=""font-size:60px;"">+</div>","null",""
"","","","","","html-button-response","39","175667","0.0-4.0-1.17","36","1","2022-11-13 08:29:52","49aca292d257f58668169b9fbab864ae","123.112.11.205","Mozilla/5.0 (Macintosh; Intel Mac OS X 10_15_7) AppleWebKit/537.36 (KHTML, like Gecko) Chrome/107.0.0.0 Safari/537.36 Edg/107.0.1418.35","Macintosh","Edge","107.0.1418.35","OS X","10_15_7","4719","<p>作为军队的指挥官，你可以选择发射导弹杀死 <strong>5名</strong> 敌国士兵，但会误杀附近的 <strong>1名</strong> 敌国平民。</p> <p>平民照片如下图所示。</p> <p></p> <img src='stimuli/faces/PFM8.jpg', style='max-width: 30%;'> </img> <p><strong>你是否选择发射武器？</strong></p>","1",""
"","","","","","html-keyboard-response","40","176683","0.0-4.0-0.18","36","1","2022-11-13 08:29:52","49aca292d257f58668169b9fbab864ae","123.112.11.205","Mozilla/5.0 (Macintosh; Intel Mac OS X 10_15_7) AppleWebKit/537.36 (KHTML, like Gecko) Chrome/107.0.0.0 Safari/537.36 Edg/107.0.1418.35","Macintosh","Edge","107.0.1418.35","OS X","10_15_7","null","<div style=""font-size:60px;"">+</div>","null",""
"","","","","","html-button-response","41","178883","0.0-4.0-1.18","36","1","2022-11-13 08:29:52","49aca292d257f58668169b9fbab864ae","123.112.11.205","Mozilla/5.0 (Macintosh; Intel Mac OS X 10_15_7) AppleWebKit/537.36 (KHTML, like Gecko) Chrome/107.0.0.0 Safari/537.36 Edg/107.0.1418.35","Macintosh","Edge","107.0.1418.35","OS X","10_15_7","2195","<p>作为军队的指挥官，你可以选择发射导弹杀死 <strong>8名</strong> 敌国士兵，但会炸毁附近的 <strong>1棵</strong> 敌国树木。</p> <p>树木的照片如下图所示。</p> <p></p> <img src='stimuli/trees/6.png', style='max-width: 30%;'> </img> <p><strong>你是否选择发射武器？</strong></p>","0",""
"","","","","","html-keyboard-response","42","179896","0.0-4.0-0.19","36","1","2022-11-13 08:29:52","49aca292d257f58668169b9fbab864ae","123.112.11.205","Mozilla/5.0 (Macintosh; Intel Mac OS X 10_15_7) AppleWebKit/537.36 (KHTML, like Gecko) Chrome/107.0.0.0 Safari/537.36 Edg/107.0.1418.35","Macintosh","Edge","107.0.1418.35","OS X","10_15_7","null","<div style=""font-size:60px;"">+</div>","null",""
"","","","","","html-button-response","43","187050","0.0-4.0-1.19","36","1","2022-11-13 08:29:52","49aca292d257f58668169b9fbab864ae","123.112.11.205","Mozilla/5.0 (Macintosh; Intel Mac OS X 10_15_7) AppleWebKit/537.36 (KHTML, like Gecko) Chrome/107.0.0.0 Safari/537.36 Edg/107.0.1418.35","Macintosh","Edge","107.0.1418.35","OS X","10_15_7","7149","<p>作为军队的指挥官，你可以选择发射导弹杀死 <strong>4名</strong> 敌国士兵，但会炸毁附近的 <strong>1棵</strong> 敌国树木。</p> <p>树木的照片如下图所示。</p> <p></p> <img src='stimuli/trees/3.png', style='max-width: 30%;'> </img> <p><strong>你是否选择发射武器？</strong></p>","1",""
"","","","","","html-keyboard-response","44","188056","0.0-4.0-0.20","36","1","2022-11-13 08:29:52","49aca292d257f58668169b9fbab864ae","123.112.11.205","Mozilla/5.0 (Macintosh; Intel Mac OS X 10_15_7) AppleWebKit/537.36 (KHTML, like Gecko) Chrome/107.0.0.0 Safari/537.36 Edg/107.0.1418.35","Macintosh","Edge","107.0.1418.35","OS X","10_15_7","null","<div style=""font-size:60px;"">+</div>","null",""
"","","","","","html-button-response","45","190433","0.0-4.0-1.20","36","1","2022-11-13 08:29:52","49aca292d257f58668169b9fbab864ae","123.112.11.205","Mozilla/5.0 (Macintosh; Intel Mac OS X 10_15_7) AppleWebKit/537.36 (KHTML, like Gecko) Chrome/107.0.0.0 Safari/537.36 Edg/107.0.1418.35","Macintosh","Edge","107.0.1418.35","OS X","10_15_7","2372","<p>作为军队的指挥官，你可以选择发射导弹杀死 <strong>9名</strong> 敌国士兵，但会误杀附近的 <strong>1名</strong> 敌国平民。</p> <p>平民照片如下图所示。</p> <p></p> <img src='stimuli/faces/PFM3.jpg', style='max-width: 30%;'> </img> <p><strong>你是否选择发射武器？</strong></p>","0",""
"","","","","","html-keyboard-response","46","191446","0.0-4.0-0.21","36","1","2022-11-13 08:29:52","49aca292d257f58668169b9fbab864ae","123.112.11.205","Mozilla/5.0 (Macintosh; Intel Mac OS X 10_15_7) AppleWebKit/537.36 (KHTML, like Gecko) Chrome/107.0.0.0 Safari/537.36 Edg/107.0.1418.35","Macintosh","Edge","107.0.1418.35","OS X","10_15_7","null","<div style=""font-size:60px;"">+</div>","null",""
"","","","","","html-button-response","47","195699","0.0-4.0-1.21","36","1","2022-11-13 08:29:52","49aca292d257f58668169b9fbab864ae","123.112.11.205","Mozilla/5.0 (Macintosh; Intel Mac OS X 10_15_7) AppleWebKit/537.36 (KHTML, like Gecko) Chrome/107.0.0.0 Safari/537.36 Edg/107.0.1418.35","Macintosh","Edge","107.0.1418.35","OS X","10_15_7","4248","<p>作为军队的指挥官，你可以选择发射导弹杀死 <strong>5名</strong> 敌国士兵，但会炸毁附近的 <strong>1棵</strong> 敌国树木。</p> <p>树木的照片如下图所示。</p> <p></p> <img src='stimuli/trees/4.png', style='max-width: 30%;'> </img> <p><strong>你是否选择发射武器？</strong></p>","1",""
"","","","","","html-keyboard-response","48","196710","0.0-4.0-0.22","36","1","2022-11-13 08:29:52","49aca292d257f58668169b9fbab864ae","123.112.11.205","Mozilla/5.0 (Macintosh; Intel Mac OS X 10_15_7) AppleWebKit/537.36 (KHTML, like Gecko) Chrome/107.0.0.0 Safari/537.36 Edg/107.0.1418.35","Macintosh","Edge","107.0.1418.35","OS X","10_15_7","null","<div style=""font-size:60px;"">+</div>","null",""
"","","","","","html-button-response","49","198434","0.0-4.0-1.22","36","1","2022-11-13 08:29:52","49aca292d257f58668169b9fbab864ae","123.112.11.205","Mozilla/5.0 (Macintosh; Intel Mac OS X 10_15_7) AppleWebKit/537.36 (KHTML, like Gecko) Chrome/107.0.0.0 Safari/537.36 Edg/107.0.1418.35","Macintosh","Edge","107.0.1418.35","OS X","10_15_7","1718","<p>作为军队的指挥官，你可以选择发射导弹杀死 <strong>10名</strong> 敌国士兵，但会误杀附近的 <strong>1名</strong> 敌国平民。</p> <p>平民照片如下图所示。</p> <p></p> <img src='stimuli/faces/PFM2.jpg', style='max-width: 30%;'> </img> <p><strong>你是否选择发射武器？</strong></p>","0",""
"","","","","","html-keyboard-response","50","199445","0.0-4.0-0.23","36","1","2022-11-13 08:29:52","49aca292d257f58668169b9fbab864ae","123.112.11.205","Mozilla/5.0 (Macintosh; Intel Mac OS X 10_15_7) AppleWebKit/537.36 (KHTML, like Gecko) Chrome/107.0.0.0 Safari/537.36 Edg/107.0.1418.35","Macintosh","Edge","107.0.1418.35","OS X","10_15_7","null","<div style=""font-size:60px;"">+</div>","null",""
"","","","","","html-button-response","51","201783","0.0-4.0-1.23","36","1","2022-11-13 08:29:52","49aca292d257f58668169b9fbab864ae","123.112.11.205","Mozilla/5.0 (Macintosh; Intel Mac OS X 10_15_7) AppleWebKit/537.36 (KHTML, like Gecko) Chrome/107.0.0.0 Safari/537.36 Edg/107.0.1418.35","Macintosh","Edge","107.0.1418.35","OS X","10_15_7","2331","<p>作为军队的指挥官，你可以选择发射导弹杀死 <strong>2名</strong> 敌国士兵，但会误杀附近的 <strong>1名</strong> 敌国平民。</p> <p>平民照片如下图所示。</p> <p></p> <img src='stimuli/faces/PFF5.jpg', style='max-width: 30%;'> </img> <p><strong>你是否选择发射武器？</strong></p>","1",""
"","","","","","html-keyboard-response","52","202793","0.0-4.0-0.24","36","1","2022-11-13 08:29:52","49aca292d257f58668169b9fbab864ae","123.112.11.205","Mozilla/5.0 (Macintosh; Intel Mac OS X 10_15_7) AppleWebKit/537.36 (KHTML, like Gecko) Chrome/107.0.0.0 Safari/537.36 Edg/107.0.1418.35","Macintosh","Edge","107.0.1418.35","OS X","10_15_7","null","<div style=""font-size:60px;"">+</div>","null",""
"","","","","","html-button-response","53","208683","0.0-4.0-1.24","36","1","2022-11-13 08:29:52","49aca292d257f58668169b9fbab864ae","123.112.11.205","Mozilla/5.0 (Macintosh; Intel Mac OS X 10_15_7) AppleWebKit/537.36 (KHTML, like Gecko) Chrome/107.0.0.0 Safari/537.36 Edg/107.0.1418.35","Macintosh","Edge","107.0.1418.35","OS X","10_15_7","5886","<p>作为军队的指挥官，你可以选择发射导弹杀死 <strong>9名</strong> 敌国士兵，但会炸毁附近的 <strong>1棵</strong> 敌国树木。</p> <p>树木的照片如下图所示。</p> <p></p> <img src='stimuli/trees/2.png', style='max-width: 30%;'> </img> <p><strong>你是否选择发射武器？</strong></p>","0",""
"","","","","","html-keyboard-response","54","209695","0.0-4.0-0.25","36","1","2022-11-13 08:29:52","49aca292d257f58668169b9fbab864ae","123.112.11.205","Mozilla/5.0 (Macintosh; Intel Mac OS X 10_15_7) AppleWebKit/537.36 (KHTML, like Gecko) Chrome/107.0.0.0 Safari/537.36 Edg/107.0.1418.35","Macintosh","Edge","107.0.1418.35","OS X","10_15_7","null","<div style=""font-size:60px;"">+</div>","null",""
"","","","","","html-button-response","55","211600","0.0-4.0-1.25","36","1","2022-11-13 08:29:52","49aca292d257f58668169b9fbab864ae","123.112.11.205","Mozilla/5.0 (Macintosh; Intel Mac OS X 10_15_7) AppleWebKit/537.36 (KHTML, like Gecko) Chrome/107.0.0.0 Safari/537.36 Edg/107.0.1418.35","Macintosh","Edge","107.0.1418.35","OS X","10_15_7","1899","<p>作为军队的指挥官，你可以选择发射导弹杀死 <strong>5名</strong> 敌国士兵，但会误杀附近的 <strong>1名</strong> 敌国平民。</p> <p>平民照片如下图所示。</p> <p></p> <img src='stimuli/faces/PFF4.jpg', style='max-width: 30%;'> </img> <p><strong>你是否选择发射武器？</strong></p>","1",""
"","","","","","html-keyboard-response","56","212616","0.0-4.0-0.26","36","1","2022-11-13 08:29:52","49aca292d257f58668169b9fbab864ae","123.112.11.205","Mozilla/5.0 (Macintosh; Intel Mac OS X 10_15_7) AppleWebKit/537.36 (KHTML, like Gecko) Chrome/107.0.0.0 Safari/537.36 Edg/107.0.1418.35","Macintosh","Edge","107.0.1418.35","OS X","10_15_7","null","<div style=""font-size:60px;"">+</div>","null",""
"","","","","","html-button-response","57","214933","0.0-4.0-1.26","36","1","2022-11-13 08:29:52","49aca292d257f58668169b9fbab864ae","123.112.11.205","Mozilla/5.0 (Macintosh; Intel Mac OS X 10_15_7) AppleWebKit/537.36 (KHTML, like Gecko) Chrome/107.0.0.0 Safari/537.36 Edg/107.0.1418.35","Macintosh","Edge","107.0.1418.35","OS X","10_15_7","2311","<p>作为军队的指挥官，你可以选择发射导弹杀死 <strong>7名</strong> 敌国士兵，但会炸毁附近的 <strong>1棵</strong> 敌国树木。</p> <p>树木的照片如下图所示。</p> <p></p> <img src='stimuli/trees/13.png', style='max-width: 30%;'> </img> <p><strong>你是否选择发射武器？</strong></p>","1",""
"","","","","","html-keyboard-response","58","215943","0.0-4.0-0.27","36","1","2022-11-13 08:29:52","49aca292d257f58668169b9fbab864ae","123.112.11.205","Mozilla/5.0 (Macintosh; Intel Mac OS X 10_15_7) AppleWebKit/537.36 (KHTML, like Gecko) Chrome/107.0.0.0 Safari/537.36 Edg/107.0.1418.35","Macintosh","Edge","107.0.1418.35","OS X","10_15_7","null","<div style=""font-size:60px;"">+</div>","null",""
"","","","","","html-button-response","59","221500","0.0-4.0-1.27","36","1","2022-11-13 08:29:52","49aca292d257f58668169b9fbab864ae","123.112.11.205","Mozilla/5.0 (Macintosh; Intel Mac OS X 10_15_7) AppleWebKit/537.36 (KHTML, like Gecko) Chrome/107.0.0.0 Safari/537.36 Edg/107.0.1418.35","Macintosh","Edge","107.0.1418.35","OS X","10_15_7","5551","<p>作为军队的指挥官，你可以选择发射导弹杀死 <strong>2名</strong> 敌国士兵，但会误杀附近的 <strong>1名</strong> 敌国平民。</p> <p>平民照片如下图所示。</p> <p></p> <img src='stimuli/faces/PFM3.jpg', style='max-width: 30%;'> </img> <p><strong>你是否选择发射武器？</strong></p>","1",""
"","","","","","html-keyboard-response","60","222510","0.0-4.0-0.28","36","1","2022-11-13 08:29:52","49aca292d257f58668169b9fbab864ae","123.112.11.205","Mozilla/5.0 (Macintosh; Intel Mac OS X 10_15_7) AppleWebKit/537.36 (KHTML, like Gecko) Chrome/107.0.0.0 Safari/537.36 Edg/107.0.1418.35","Macintosh","Edge","107.0.1418.35","OS X","10_15_7","null","<div style=""font-size:60px;"">+</div>","null",""
"","","","","","html-button-response","61","225916","0.0-4.0-1.28","36","1","2022-11-13 08:29:52","49aca292d257f58668169b9fbab864ae","123.112.11.205","Mozilla/5.0 (Macintosh; Intel Mac OS X 10_15_7) AppleWebKit/537.36 (KHTML, like Gecko) Chrome/107.0.0.0 Safari/537.36 Edg/107.0.1418.35","Macintosh","Edge","107.0.1418.35","OS X","10_15_7","3401","<p>作为军队的指挥官，你可以选择发射导弹杀死 <strong>5名</strong> 敌国士兵，但会误杀附近的 <strong>1名</strong> 敌国平民。</p> <p>平民照片如下图所示。</p> <p></p> <img src='stimuli/faces/PFF8.jpg', style='max-width: 30%;'> </img> <p><strong>你是否选择发射武器？</strong></p>","0",""
"","","","","","html-keyboard-response","62","226926","0.0-4.0-0.29","36","1","2022-11-13 08:29:52","49aca292d257f58668169b9fbab864ae","123.112.11.205","Mozilla/5.0 (Macintosh; Intel Mac OS X 10_15_7) AppleWebKit/537.36 (KHTML, like Gecko) Chrome/107.0.0.0 Safari/537.36 Edg/107.0.1418.35","Macintosh","Edge","107.0.1418.35","OS X","10_15_7","null","<div style=""font-size:60px;"">+</div>","null",""
"","","","","","html-button-response","63","230483","0.0-4.0-1.29","36","1","2022-11-13 08:29:52","49aca292d257f58668169b9fbab864ae","123.112.11.205","Mozilla/5.0 (Macintosh; Intel Mac OS X 10_15_7) AppleWebKit/537.36 (KHTML, like Gecko) Chrome/107.0.0.0 Safari/537.36 Edg/107.0.1418.35","Macintosh","Edge","107.0.1418.35","OS X","10_15_7","3550","<p>作为军队的指挥官，你可以选择发射导弹杀死 <strong>3名</strong> 敌国士兵，但会误杀附近的 <strong>1名</strong> 敌国平民。</p> <p>平民照片如下图所示。</p> <p></p> <img src='stimuli/faces/PFF6.jpg', style='max-width: 30%;'> </img> <p><strong>你是否选择发射武器？</strong></p>","0",""
"","","","","","html-keyboard-response","64","231493","0.0-4.0-0.30","36","1","2022-11-13 08:29:52","49aca292d257f58668169b9fbab864ae","123.112.11.205","Mozilla/5.0 (Macintosh; Intel Mac OS X 10_15_7) AppleWebKit/537.36 (KHTML, like Gecko) Chrome/107.0.0.0 Safari/537.36 Edg/107.0.1418.35","Macintosh","Edge","107.0.1418.35","OS X","10_15_7","null","<div style=""font-size:60px;"">+</div>","null",""
"","","","","","html-button-response","65","243699","0.0-4.0-1.30","36","1","2022-11-13 08:29:52","49aca292d257f58668169b9fbab864ae","123.112.11.205","Mozilla/5.0 (Macintosh; Intel Mac OS X 10_15_7) AppleWebKit/537.36 (KHTML, like Gecko) Chrome/107.0.0.0 Safari/537.36 Edg/107.0.1418.35","Macintosh","Edge","107.0.1418.35","OS X","10_15_7","12201","<p>作为军队的指挥官，你可以选择发射导弹杀死 <strong>6名</strong> 敌国士兵，但会炸毁附近的 <strong>1棵</strong> 敌国树木。</p> <p>树木的照片如下图所示。</p> <p></p> <img src='stimuli/trees/14.png', style='max-width: 30%;'> </img> <p><strong>你是否选择发射武器？</strong></p>","0",""
"","","","","","html-keyboard-response","66","244709","0.0-4.0-0.31","36","1","2022-11-13 08:29:52","49aca292d257f58668169b9fbab864ae","123.112.11.205","Mozilla/5.0 (Macintosh; Intel Mac OS X 10_15_7) AppleWebKit/537.36 (KHTML, like Gecko) Chrome/107.0.0.0 Safari/537.36 Edg/107.0.1418.35","Macintosh","Edge","107.0.1418.35","OS X","10_15_7","null","<div style=""font-size:60px;"">+</div>","null",""
"","","","","","html-button-response","67","246916","0.0-4.0-1.31","36","1","2022-11-13 08:29:52","49aca292d257f58668169b9fbab864ae","123.112.11.205","Mozilla/5.0 (Macintosh; Intel Mac OS X 10_15_7) AppleWebKit/537.36 (KHTML, like Gecko) Chrome/107.0.0.0 Safari/537.36 Edg/107.0.1418.35","Macintosh","Edge","107.0.1418.35","OS X","10_15_7","2200","<p>作为军队的指挥官，你可以选择发射导弹杀死 <strong>10名</strong> 敌国士兵，但会误杀附近的 <strong>1名</strong> 敌国平民。</p> <p>平民照片如下图所示。</p> <p></p> <img src='stimuli/faces/PFF2.jpg', style='max-width: 30%;'> </img> <p><strong>你是否选择发射武器？</strong></p>","0",""
"","","","","","html-keyboard-response","68","247926","0.0-4.0-0.32","36","1","2022-11-13 08:29:52","49aca292d257f58668169b9fbab864ae","123.112.11.205","Mozilla/5.0 (Macintosh; Intel Mac OS X 10_15_7) AppleWebKit/537.36 (KHTML, like Gecko) Chrome/107.0.0.0 Safari/537.36 Edg/107.0.1418.35","Macintosh","Edge","107.0.1418.35","OS X","10_15_7","null","<div style=""font-size:60px;"">+</div>","null",""
"","","","","","html-button-response","69","249967","0.0-4.0-1.32","36","1","2022-11-13 08:29:52","49aca292d257f58668169b9fbab864ae","123.112.11.205","Mozilla/5.0 (Macintosh; Intel Mac OS X 10_15_7) AppleWebKit/537.36 (KHTML, like Gecko) Chrome/107.0.0.0 Safari/537.36 Edg/107.0.1418.35","Macintosh","Edge","107.0.1418.35","OS X","10_15_7","2034","<p>作为军队的指挥官，你可以选择发射导弹杀死 <strong>2名</strong> 敌国士兵，但会炸毁附近的 <strong>1棵</strong> 敌国树木。</p> <p>树木的照片如下图所示。</p> <p></p> <img src='stimuli/trees/12.png', style='max-width: 30%;'> </img> <p><strong>你是否选择发射武器？</strong></p>","1",""
"","","","","","html-keyboard-response","70","250976","0.0-4.0-0.33","36","1","2022-11-13 08:29:52","49aca292d257f58668169b9fbab864ae","123.112.11.205","Mozilla/5.0 (Macintosh; Intel Mac OS X 10_15_7) AppleWebKit/537.36 (KHTML, like Gecko) Chrome/107.0.0.0 Safari/537.36 Edg/107.0.1418.35","Macintosh","Edge","107.0.1418.35","OS X","10_15_7","null","<div style=""font-size:60px;"">+</div>","null",""
"","","","","","html-button-response","71","253033","0.0-4.0-1.33","36","1","2022-11-13 08:29:52","49aca292d257f58668169b9fbab864ae","123.112.11.205","Mozilla/5.0 (Macintosh; Intel Mac OS X 10_15_7) AppleWebKit/537.36 (KHTML, like Gecko) Chrome/107.0.0.0 Safari/537.36 Edg/107.0.1418.35","Macintosh","Edge","107.0.1418.35","OS X","10_15_7","2051","<p>作为军队的指挥官，你可以选择发射导弹杀死 <strong>2名</strong> 敌国士兵，但会炸毁附近的 <strong>1棵</strong> 敌国树木。</p> <p>树木的照片如下图所示。</p> <p></p> <img src='stimuli/trees/5.png', style='max-width: 30%;'> </img> <p><strong>你是否选择发射武器？</strong></p>","0",""
"","","","","","html-keyboard-response","72","254043","0.0-4.0-0.34","36","1","2022-11-13 08:29:52","49aca292d257f58668169b9fbab864ae","123.112.11.205","Mozilla/5.0 (Macintosh; Intel Mac OS X 10_15_7) AppleWebKit/537.36 (KHTML, like Gecko) Chrome/107.0.0.0 Safari/537.36 Edg/107.0.1418.35","Macintosh","Edge","107.0.1418.35","OS X","10_15_7","null","<div style=""font-size:60px;"">+</div>","null",""
"","","","","","html-button-response","73","255650","0.0-4.0-1.34","36","1","2022-11-13 08:29:52","49aca292d257f58668169b9fbab864ae","123.112.11.205","Mozilla/5.0 (Macintosh; Intel Mac OS X 10_15_7) AppleWebKit/537.36 (KHTML, like Gecko) Chrome/107.0.0.0 Safari/537.36 Edg/107.0.1418.35","Macintosh","Edge","107.0.1418.35","OS X","10_15_7","1602","<p>作为军队的指挥官，你可以选择发射导弹杀死 <strong>10名</strong> 敌国士兵，但会炸毁附近的 <strong>1棵</strong> 敌国树木。</p> <p>树木的照片如下图所示。</p> <p></p> <img src='stimuli/trees/10.png', style='max-width: 30%;'> </img> <p><strong>你是否选择发射武器？</strong></p>","1",""
"","","","","","html-keyboard-response","74","256659","0.0-4.0-0.35","36","1","2022-11-13 08:29:52","49aca292d257f58668169b9fbab864ae","123.112.11.205","Mozilla/5.0 (Macintosh; Intel Mac OS X 10_15_7) AppleWebKit/537.36 (KHTML, like Gecko) Chrome/107.0.0.0 Safari/537.36 Edg/107.0.1418.35","Macintosh","Edge","107.0.1418.35","OS X","10_15_7","null","<div style=""font-size:60px;"">+</div>","null",""
"","","","","","html-button-response","75","259449","0.0-4.0-1.35","36","1","2022-11-13 08:29:52","49aca292d257f58668169b9fbab864ae","123.112.11.205","Mozilla/5.0 (Macintosh; Intel Mac OS X 10_15_7) AppleWebKit/537.36 (KHTML, like Gecko) Chrome/107.0.0.0 Safari/537.36 Edg/107.0.1418.35","Macintosh","Edge","107.0.1418.35","OS X","10_15_7","2784","<p>作为军队的指挥官，你可以选择发射导弹杀死 <strong>2名</strong> 敌国士兵，但会误杀附近的 <strong>1名</strong> 敌国平民。</p> <p>平民照片如下图所示。</p> <p></p> <img src='stimuli/faces/PFF1.jpg', style='max-width: 30%;'> </img> <p><strong>你是否选择发射武器？</strong></p>","1",""
"","","","","","html-keyboard-response","76","260459","0.0-4.0-0.36","36","1","2022-11-13 08:29:52","49aca292d257f58668169b9fbab864ae","123.112.11.205","Mozilla/5.0 (Macintosh; Intel Mac OS X 10_15_7) AppleWebKit/537.36 (KHTML, like Gecko) Chrome/107.0.0.0 Safari/537.36 Edg/107.0.1418.35","Macintosh","Edge","107.0.1418.35","OS X","10_15_7","null","<div style=""font-size:60px;"">+</div>","null",""
"","","","","","html-button-response","77","262449","0.0-4.0-1.36","36","1","2022-11-13 08:29:52","49aca292d257f58668169b9fbab864ae","123.112.11.205","Mozilla/5.0 (Macintosh; Intel Mac OS X 10_15_7) AppleWebKit/537.36 (KHTML, like Gecko) Chrome/107.0.0.0 Safari/537.36 Edg/107.0.1418.35","Macintosh","Edge","107.0.1418.35","OS X","10_15_7","1983","<p>作为军队的指挥官，你可以选择发射导弹杀死 <strong>3名</strong> 敌国士兵，但会误杀附近的 <strong>1名</strong> 敌国平民。</p> <p>平民照片如下图所示。</p> <p></p> <img src='stimuli/faces/PFM4.jpg', style='max-width: 30%;'> </img> <p><strong>你是否选择发射武器？</strong></p>","0",""
"","","","","","html-keyboard-response","78","263459","0.0-4.0-0.37","36","1","2022-11-13 08:29:52","49aca292d257f58668169b9fbab864ae","123.112.11.205","Mozilla/5.0 (Macintosh; Intel Mac OS X 10_15_7) AppleWebKit/537.36 (KHTML, like Gecko) Chrome/107.0.0.0 Safari/537.36 Edg/107.0.1418.35","Macintosh","Edge","107.0.1418.35","OS X","10_15_7","null","<div style=""font-size:60px;"">+</div>","null",""
"","","","","","html-button-response","79","269100","0.0-4.0-1.37","36","1","2022-11-13 08:29:52","49aca292d257f58668169b9fbab864ae","123.112.11.205","Mozilla/5.0 (Macintosh; Intel Mac OS X 10_15_7) AppleWebKit/537.36 (KHTML, like Gecko) Chrome/107.0.0.0 Safari/537.36 Edg/107.0.1418.35","Macintosh","Edge","107.0.1418.35","OS X","10_15_7","5634","<p>作为军队的指挥官，你可以选择发射导弹杀死 <strong>4名</strong> 敌国士兵，但会炸毁附近的 <strong>1棵</strong> 敌国树木。</p> <p>树木的照片如下图所示。</p> <p></p> <img src='stimuli/trees/15.png', style='max-width: 30%;'> </img> <p><strong>你是否选择发射武器？</strong></p>","0",""
"","","","","","html-keyboard-response","80","270109","0.0-4.0-0.38","36","1","2022-11-13 08:29:52","49aca292d257f58668169b9fbab864ae","123.112.11.205","Mozilla/5.0 (Macintosh; Intel Mac OS X 10_15_7) AppleWebKit/537.36 (KHTML, like Gecko) Chrome/107.0.0.0 Safari/537.36 Edg/107.0.1418.35","Macintosh","Edge","107.0.1418.35","OS X","10_15_7","null","<div style=""font-size:60px;"">+</div>","null",""
"","","","","","html-button-response","81","272666","0.0-4.0-1.38","36","1","2022-11-13 08:29:52","49aca292d257f58668169b9fbab864ae","123.112.11.205","Mozilla/5.0 (Macintosh; Intel Mac OS X 10_15_7) AppleWebKit/537.36 (KHTML, like Gecko) Chrome/107.0.0.0 Safari/537.36 Edg/107.0.1418.35","Macintosh","Edge","107.0.1418.35","OS X","10_15_7","2551","<p>作为军队的指挥官，你可以选择发射导弹杀死 <strong>10名</strong> 敌国士兵，但会误杀附近的 <strong>1名</strong> 敌国平民。</p> <p>平民照片如下图所示。</p> <p></p> <img src='stimuli/faces/PFF7.jpg', style='max-width: 30%;'> </img> <p><strong>你是否选择发射武器？</strong></p>","0",""
"","","","","","html-keyboard-response","82","273677","0.0-4.0-0.39","36","1","2022-11-13 08:29:52","49aca292d257f58668169b9fbab864ae","123.112.11.205","Mozilla/5.0 (Macintosh; Intel Mac OS X 10_15_7) AppleWebKit/537.36 (KHTML, like Gecko) Chrome/107.0.0.0 Safari/537.36 Edg/107.0.1418.35","Macintosh","Edge","107.0.1418.35","OS X","10_15_7","null","<div style=""font-size:60px;"">+</div>","null",""
"","","","","","html-button-response","83","275983","0.0-4.0-1.39","36","1","2022-11-13 08:29:52","49aca292d257f58668169b9fbab864ae","123.112.11.205","Mozilla/5.0 (Macintosh; Intel Mac OS X 10_15_7) AppleWebKit/537.36 (KHTML, like Gecko) Chrome/107.0.0.0 Safari/537.36 Edg/107.0.1418.35","Macintosh","Edge","107.0.1418.35","OS X","10_15_7","2300","<p>作为军队的指挥官，你可以选择发射导弹杀死 <strong>7名</strong> 敌国士兵，但会误杀附近的 <strong>1名</strong> 敌国平民。</p> <p>平民照片如下图所示。</p> <p></p> <img src='stimuli/faces/PFF1.jpg', style='max-width: 30%;'> </img> <p><strong>你是否选择发射武器？</strong></p>","0",""
"","","","","","html-keyboard-response","84","276998","0.0-4.0-0.40","36","1","2022-11-13 08:29:52","49aca292d257f58668169b9fbab864ae","123.112.11.205","Mozilla/5.0 (Macintosh; Intel Mac OS X 10_15_7) AppleWebKit/537.36 (KHTML, like Gecko) Chrome/107.0.0.0 Safari/537.36 Edg/107.0.1418.35","Macintosh","Edge","107.0.1418.35","OS X","10_15_7","null","<div style=""font-size:60px;"">+</div>","null",""
"","","","","","html-button-response","85","279600","0.0-4.0-1.40","36","1","2022-11-13 08:29:52","49aca292d257f58668169b9fbab864ae","123.112.11.205","Mozilla/5.0 (Macintosh; Intel Mac OS X 10_15_7) AppleWebKit/537.36 (KHTML, like Gecko) Chrome/107.0.0.0 Safari/537.36 Edg/107.0.1418.35","Macintosh","Edge","107.0.1418.35","OS X","10_15_7","2596","<p>作为军队的指挥官，你可以选择发射导弹杀死 <strong>9名</strong> 敌国士兵，但会误杀附近的 <strong>1名</strong> 敌国平民。</p> <p>平民照片如下图所示。</p> <p></p> <img src='stimuli/faces/PFF5.jpg', style='max-width: 30%;'> </img> <p><strong>你是否选择发射武器？</strong></p>","1",""
"","","","","","html-keyboard-response","86","280609","0.0-4.0-0.41","36","1","2022-11-13 08:29:52","49aca292d257f58668169b9fbab864ae","123.112.11.205","Mozilla/5.0 (Macintosh; Intel Mac OS X 10_15_7) AppleWebKit/537.36 (KHTML, like Gecko) Chrome/107.0.0.0 Safari/537.36 Edg/107.0.1418.35","Macintosh","Edge","107.0.1418.35","OS X","10_15_7","null","<div style=""font-size:60px;"">+</div>","null",""
"","","","","","html-button-response","87","282483","0.0-4.0-1.41","36","1","2022-11-13 08:29:52","49aca292d257f58668169b9fbab864ae","123.112.11.205","Mozilla/5.0 (Macintosh; Intel Mac OS X 10_15_7) AppleWebKit/537.36 (KHTML, like Gecko) Chrome/107.0.0.0 Safari/537.36 Edg/107.0.1418.35","Macintosh","Edge","107.0.1418.35","OS X","10_15_7","1866","<p>作为军队的指挥官，你可以选择发射导弹杀死 <strong>8名</strong> 敌国士兵，但会误杀附近的 <strong>1名</strong> 敌国平民。</p> <p>平民照片如下图所示。</p> <p></p> <img src='stimuli/faces/PFF8.jpg', style='max-width: 30%;'> </img> <p><strong>你是否选择发射武器？</strong></p>","0",""
"","","","","","html-keyboard-response","88","283493","0.0-4.0-0.42","36","1","2022-11-13 08:29:52","49aca292d257f58668169b9fbab864ae","123.112.11.205","Mozilla/5.0 (Macintosh; Intel Mac OS X 10_15_7) AppleWebKit/537.36 (KHTML, like Gecko) Chrome/107.0.0.0 Safari/537.36 Edg/107.0.1418.35","Macintosh","Edge","107.0.1418.35","OS X","10_15_7","null","<div style=""font-size:60px;"">+</div>","null",""
"","","","","","html-button-response","89","285631","0.0-4.0-1.42","36","1","2022-11-13 08:29:52","49aca292d257f58668169b9fbab864ae","123.112.11.205","Mozilla/5.0 (Macintosh; Intel Mac OS X 10_15_7) AppleWebKit/537.36 (KHTML, like Gecko) Chrome/107.0.0.0 Safari/537.36 Edg/107.0.1418.35","Macintosh","Edge","107.0.1418.35","OS X","10_15_7","2133","<p>作为军队的指挥官，你可以选择发射导弹杀死 <strong>4名</strong> 敌国士兵，但会炸毁附近的 <strong>1棵</strong> 敌国树木。</p> <p>树木的照片如下图所示。</p> <p></p> <img src='stimuli/trees/7.png', style='max-width: 30%;'> </img> <p><strong>你是否选择发射武器？</strong></p>","1",""
"","","","","","html-keyboard-response","90","286642","0.0-4.0-0.43","36","1","2022-11-13 08:29:52","49aca292d257f58668169b9fbab864ae","123.112.11.205","Mozilla/5.0 (Macintosh; Intel Mac OS X 10_15_7) AppleWebKit/537.36 (KHTML, like Gecko) Chrome/107.0.0.0 Safari/537.36 Edg/107.0.1418.35","Macintosh","Edge","107.0.1418.35","OS X","10_15_7","null","<div style=""font-size:60px;"">+</div>","null",""
"","","","","","html-button-response","91","291964","0.0-4.0-1.43","36","1","2022-11-13 08:29:52","49aca292d257f58668169b9fbab864ae","123.112.11.205","Mozilla/5.0 (Macintosh; Intel Mac OS X 10_15_7) AppleWebKit/537.36 (KHTML, like Gecko) Chrome/107.0.0.0 Safari/537.36 Edg/107.0.1418.35","Macintosh","Edge","107.0.1418.35","OS X","10_15_7","5320","<p>作为军队的指挥官，你可以选择发射导弹杀死 <strong>8名</strong> 敌国士兵，但会炸毁附近的 <strong>1棵</strong> 敌国树木。</p> <p>树木的照片如下图所示。</p> <p></p> <img src='stimuli/trees/7.png', style='max-width: 30%;'> </img> <p><strong>你是否选择发射武器？</strong></p>","1",""
"","","","","","html-keyboard-response","92","292969","0.0-4.0-0.44","36","1","2022-11-13 08:29:52","49aca292d257f58668169b9fbab864ae","123.112.11.205","Mozilla/5.0 (Macintosh; Intel Mac OS X 10_15_7) AppleWebKit/537.36 (KHTML, like Gecko) Chrome/107.0.0.0 Safari/537.36 Edg/107.0.1418.35","Macintosh","Edge","107.0.1418.35","OS X","10_15_7","null","<div style=""font-size:60px;"">+</div>","null",""
"","","","","","html-button-response","93","295033","0.0-4.0-1.44","36","1","2022-11-13 08:29:52","49aca292d257f58668169b9fbab864ae","123.112.11.205","Mozilla/5.0 (Macintosh; Intel Mac OS X 10_15_7) AppleWebKit/537.36 (KHTML, like Gecko) Chrome/107.0.0.0 Safari/537.36 Edg/107.0.1418.35","Macintosh","Edge","107.0.1418.35","OS X","10_15_7","2057","<p>作为军队的指挥官，你可以选择发射导弹杀死 <strong>7名</strong> 敌国士兵，但会炸毁附近的 <strong>1棵</strong> 敌国树木。</p> <p>树木的照片如下图所示。</p> <p></p> <img src='stimuli/trees/4.png', style='max-width: 30%;'> </img> <p><strong>你是否选择发射武器？</strong></p>","0",""
"","","","","","html-keyboard-response","94","296043","0.0-4.0-0.45","36","1","2022-11-13 08:29:52","49aca292d257f58668169b9fbab864ae","123.112.11.205","Mozilla/5.0 (Macintosh; Intel Mac OS X 10_15_7) AppleWebKit/537.36 (KHTML, like Gecko) Chrome/107.0.0.0 Safari/537.36 Edg/107.0.1418.35","Macintosh","Edge","107.0.1418.35","OS X","10_15_7","null","<div style=""font-size:60px;"">+</div>","null",""
"","","","","","html-button-response","95","300566","0.0-4.0-1.45","36","1","2022-11-13 08:29:52","49aca292d257f58668169b9fbab864ae","123.112.11.205","Mozilla/5.0 (Macintosh; Intel Mac OS X 10_15_7) AppleWebKit/537.36 (KHTML, like Gecko) Chrome/107.0.0.0 Safari/537.36 Edg/107.0.1418.35","Macintosh","Edge","107.0.1418.35","OS X","10_15_7","4517","<p>作为军队的指挥官，你可以选择发射导弹杀死 <strong>4名</strong> 敌国士兵，但会误杀附近的 <strong>1名</strong> 敌国平民。</p> <p>平民照片如下图所示。</p> <p></p> <img src='stimuli/faces/PFM7.jpg', style='max-width: 30%;'> </img> <p><strong>你是否选择发射武器？</strong></p>","1",""
"","","","","","html-keyboard-response","96","301576","0.0-4.0-0.46","36","1","2022-11-13 08:29:52","49aca292d257f58668169b9fbab864ae","123.112.11.205","Mozilla/5.0 (Macintosh; Intel Mac OS X 10_15_7) AppleWebKit/537.36 (KHTML, like Gecko) Chrome/107.0.0.0 Safari/537.36 Edg/107.0.1418.35","Macintosh","Edge","107.0.1418.35","OS X","10_15_7","null","<div style=""font-size:60px;"">+</div>","null",""
"","","","","","html-button-response","97","303249","0.0-4.0-1.46","36","1","2022-11-13 08:29:52","49aca292d257f58668169b9fbab864ae","123.112.11.205","Mozilla/5.0 (Macintosh; Intel Mac OS X 10_15_7) AppleWebKit/537.36 (KHTML, like Gecko) Chrome/107.0.0.0 Safari/537.36 Edg/107.0.1418.35","Macintosh","Edge","107.0.1418.35","OS X","10_15_7","1666","<p>作为军队的指挥官，你可以选择发射导弹杀死 <strong>8名</strong> 敌国士兵，但会炸毁附近的 <strong>1棵</strong> 敌国树木。</p> <p>树木的照片如下图所示。</p> <p></p> <img src='stimuli/trees/8.png', style='max-width: 30%;'> </img> <p><strong>你是否选择发射武器？</strong></p>","1",""
"","","","","","html-keyboard-response","98","304259","0.0-4.0-0.47","36","1","2022-11-13 08:29:52","49aca292d257f58668169b9fbab864ae","123.112.11.205","Mozilla/5.0 (Macintosh; Intel Mac OS X 10_15_7) AppleWebKit/537.36 (KHTML, like Gecko) Chrome/107.0.0.0 Safari/537.36 Edg/107.0.1418.35","Macintosh","Edge","107.0.1418.35","OS X","10_15_7","null","<div style=""font-size:60px;"">+</div>","null",""
"","","","","","html-button-response","99","306149","0.0-4.0-1.47","36","1","2022-11-13 08:29:52","49aca292d257f58668169b9fbab864ae","123.112.11.205","Mozilla/5.0 (Macintosh; Intel Mac OS X 10_15_7) AppleWebKit/537.36 (KHTML, like Gecko) Chrome/107.0.0.0 Safari/537.36 Edg/107.0.1418.35","Macintosh","Edge","107.0.1418.35","OS X","10_15_7","1884","<p>作为军队的指挥官，你可以选择发射导弹杀死 <strong>7名</strong> 敌国士兵，但会误杀附近的 <strong>1名</strong> 敌国平民。</p> <p>平民照片如下图所示。</p> <p></p> <img src='stimuli/faces/PFM8.jpg', style='max-width: 30%;'> </img> <p><strong>你是否选择发射武器？</strong></p>","1",""
"","","","","","html-keyboard-response","100","307164","0.0-4.0-0.48","36","1","2022-11-13 08:29:52","49aca292d257f58668169b9fbab864ae","123.112.11.205","Mozilla/5.0 (Macintosh; Intel Mac OS X 10_15_7) AppleWebKit/537.36 (KHTML, like Gecko) Chrome/107.0.0.0 Safari/537.36 Edg/107.0.1418.35","Macintosh","Edge","107.0.1418.35","OS X","10_15_7","null","<div style=""font-size:60px;"">+</div>","null",""
"","","","","","html-button-response","101","309149","0.0-4.0-1.48","36","1","2022-11-13 08:29:52","49aca292d257f58668169b9fbab864ae","123.112.11.205","Mozilla/5.0 (Macintosh; Intel Mac OS X 10_15_7) AppleWebKit/537.36 (KHTML, like Gecko) Chrome/107.0.0.0 Safari/537.36 Edg/107.0.1418.35","Macintosh","Edge","107.0.1418.35","OS X","10_15_7","1979","<p>作为军队的指挥官，你可以选择发射导弹杀死 <strong>10名</strong> 敌国士兵，但会误杀附近的 <strong>1名</strong> 敌国平民。</p> <p>平民照片如下图所示。</p> <p></p> <img src='stimuli/faces/PFM5.jpg', style='max-width: 30%;'> </img> <p><strong>你是否选择发射武器？</strong></p>","1",""
"","","","","","html-keyboard-response","102","310160","0.0-4.0-0.49","36","1","2022-11-13 08:29:52","49aca292d257f58668169b9fbab864ae","123.112.11.205","Mozilla/5.0 (Macintosh; Intel Mac OS X 10_15_7) AppleWebKit/537.36 (KHTML, like Gecko) Chrome/107.0.0.0 Safari/537.36 Edg/107.0.1418.35","Macintosh","Edge","107.0.1418.35","OS X","10_15_7","null","<div style=""font-size:60px;"">+</div>","null",""
"","","","","","html-button-response","103","313716","0.0-4.0-1.49","36","1","2022-11-13 08:29:52","49aca292d257f58668169b9fbab864ae","123.112.11.205","Mozilla/5.0 (Macintosh; Intel Mac OS X 10_15_7) AppleWebKit/537.36 (KHTML, like Gecko) Chrome/107.0.0.0 Safari/537.36 Edg/107.0.1418.35","Macintosh","Edge","107.0.1418.35","OS X","10_15_7","3548","<p>作为军队的指挥官，你可以选择发射导弹杀死 <strong>4名</strong> 敌国士兵，但会误杀附近的 <strong>1名</strong> 敌国平民。</p> <p>平民照片如下图所示。</p> <p></p> <img src='stimuli/faces/PFF2.jpg', style='max-width: 30%;'> </img> <p><strong>你是否选择发射武器？</strong></p>","1",""
"","","","","","html-keyboard-response","104","314730","0.0-4.0-0.50","36","1","2022-11-13 08:29:52","49aca292d257f58668169b9fbab864ae","123.112.11.205","Mozilla/5.0 (Macintosh; Intel Mac OS X 10_15_7) AppleWebKit/537.36 (KHTML, like Gecko) Chrome/107.0.0.0 Safari/537.36 Edg/107.0.1418.35","Macintosh","Edge","107.0.1418.35","OS X","10_15_7","null","<div style=""font-size:60px;"">+</div>","null",""
"","","","","","html-button-response","105","317066","0.0-4.0-1.50","36","1","2022-11-13 08:29:52","49aca292d257f58668169b9fbab864ae","123.112.11.205","Mozilla/5.0 (Macintosh; Intel Mac OS X 10_15_7) AppleWebKit/537.36 (KHTML, like Gecko) Chrome/107.0.0.0 Safari/537.36 Edg/107.0.1418.35","Macintosh","Edge","107.0.1418.35","OS X","10_15_7","2329","<p>作为军队的指挥官，你可以选择发射导弹杀死 <strong>1名</strong> 敌国士兵，但会误杀附近的 <strong>1名</strong> 敌国平民。</p> <p>平民照片如下图所示。</p> <p></p> <img src='stimuli/faces/PFM1.jpg', style='max-width: 30%;'> </img> <p><strong>你是否选择发射武器？</strong></p>","1",""
"","","","","","html-keyboard-response","106","318083","0.0-4.0-0.51","36","1","2022-11-13 08:29:52","49aca292d257f58668169b9fbab864ae","123.112.11.205","Mozilla/5.0 (Macintosh; Intel Mac OS X 10_15_7) AppleWebKit/537.36 (KHTML, like Gecko) Chrome/107.0.0.0 Safari/537.36 Edg/107.0.1418.35","Macintosh","Edge","107.0.1418.35","OS X","10_15_7","null","<div style=""font-size:60px;"">+</div>","null",""
"","","","","","html-button-response","107","321116","0.0-4.0-1.51","36","1","2022-11-13 08:29:52","49aca292d257f58668169b9fbab864ae","123.112.11.205","Mozilla/5.0 (Macintosh; Intel Mac OS X 10_15_7) AppleWebKit/537.36 (KHTML, like Gecko) Chrome/107.0.0.0 Safari/537.36 Edg/107.0.1418.35","Macintosh","Edge","107.0.1418.35","OS X","10_15_7","3024","<p>作为军队的指挥官，你可以选择发射导弹杀死 <strong>3名</strong> 敌国士兵，但会炸毁附近的 <strong>1棵</strong> 敌国树木。</p> <p>树木的照片如下图所示。</p> <p></p> <img src='stimuli/trees/1.png', style='max-width: 30%;'> </img> <p><strong>你是否选择发射武器？</strong></p>","0",""
"","","","","","html-keyboard-response","108","322128","0.0-4.0-0.52","36","1","2022-11-13 08:29:52","49aca292d257f58668169b9fbab864ae","123.112.11.205","Mozilla/5.0 (Macintosh; Intel Mac OS X 10_15_7) AppleWebKit/537.36 (KHTML, like Gecko) Chrome/107.0.0.0 Safari/537.36 Edg/107.0.1418.35","Macintosh","Edge","107.0.1418.35","OS X","10_15_7","null","<div style=""font-size:60px;"">+</div>","null",""
"","","","","","html-button-response","109","324282","0.0-4.0-1.52","36","1","2022-11-13 08:29:52","49aca292d257f58668169b9fbab864ae","123.112.11.205","Mozilla/5.0 (Macintosh; Intel Mac OS X 10_15_7) AppleWebKit/537.36 (KHTML, like Gecko) Chrome/107.0.0.0 Safari/537.36 Edg/107.0.1418.35","Macintosh","Edge","107.0.1418.35","OS X","10_15_7","2145","<p>作为军队的指挥官，你可以选择发射导弹杀死 <strong>3名</strong> 敌国士兵，但会误杀附近的 <strong>1名</strong> 敌国平民。</p> <p>平民照片如下图所示。</p> <p></p> <img src='stimuli/faces/PFF7.jpg', style='max-width: 30%;'> </img> <p><strong>你是否选择发射武器？</strong></p>","0",""
"","","","","","html-keyboard-response","110","325295","0.0-4.0-0.53","36","1","2022-11-13 08:29:52","49aca292d257f58668169b9fbab864ae","123.112.11.205","Mozilla/5.0 (Macintosh; Intel Mac OS X 10_15_7) AppleWebKit/537.36 (KHTML, like Gecko) Chrome/107.0.0.0 Safari/537.36 Edg/107.0.1418.35","Macintosh","Edge","107.0.1418.35","OS X","10_15_7","null","<div style=""font-size:60px;"">+</div>","null",""
"","","","","","html-button-response","111","327849","0.0-4.0-1.53","36","1","2022-11-13 08:29:52","49aca292d257f58668169b9fbab864ae","123.112.11.205","Mozilla/5.0 (Macintosh; Intel Mac OS X 10_15_7) AppleWebKit/537.36 (KHTML, like Gecko) Chrome/107.0.0.0 Safari/537.36 Edg/107.0.1418.35","Macintosh","Edge","107.0.1418.35","OS X","10_15_7","2546","<p>作为军队的指挥官，你可以选择发射导弹杀死 <strong>3名</strong> 敌国士兵，但会误杀附近的 <strong>1名</strong> 敌国平民。</p> <p>平民照片如下图所示。</p> <p></p> <img src='stimuli/faces/PFM2.jpg', style='max-width: 30%;'> </img> <p><strong>你是否选择发射武器？</strong></p>","0",""
"","","","","","html-keyboard-response","112","328867","0.0-4.0-0.54","36","1","2022-11-13 08:29:52","49aca292d257f58668169b9fbab864ae","123.112.11.205","Mozilla/5.0 (Macintosh; Intel Mac OS X 10_15_7) AppleWebKit/537.36 (KHTML, like Gecko) Chrome/107.0.0.0 Safari/537.36 Edg/107.0.1418.35","Macintosh","Edge","107.0.1418.35","OS X","10_15_7","null","<div style=""font-size:60px;"">+</div>","null",""
"","","","","","html-button-response","113","331849","0.0-4.0-1.54","36","1","2022-11-13 08:29:52","49aca292d257f58668169b9fbab864ae","123.112.11.205","Mozilla/5.0 (Macintosh; Intel Mac OS X 10_15_7) AppleWebKit/537.36 (KHTML, like Gecko) Chrome/107.0.0.0 Safari/537.36 Edg/107.0.1418.35","Macintosh","Edge","107.0.1418.35","OS X","10_15_7","2974","<p>作为军队的指挥官，你可以选择发射导弹杀死 <strong>4名</strong> 敌国士兵，但会误杀附近的 <strong>1名</strong> 敌国平民。</p> <p>平民照片如下图所示。</p> <p></p> <img src='stimuli/faces/PFM6.jpg', style='max-width: 30%;'> </img> <p><strong>你是否选择发射武器？</strong></p>","1",""
"","","","","","html-keyboard-response","114","332865","0.0-4.0-0.55","36","1","2022-11-13 08:29:52","49aca292d257f58668169b9fbab864ae","123.112.11.205","Mozilla/5.0 (Macintosh; Intel Mac OS X 10_15_7) AppleWebKit/537.36 (KHTML, like Gecko) Chrome/107.0.0.0 Safari/537.36 Edg/107.0.1418.35","Macintosh","Edge","107.0.1418.35","OS X","10_15_7","null","<div style=""font-size:60px;"">+</div>","null",""
"","","","","","html-button-response","115","334483","0.0-4.0-1.55","36","1","2022-11-13 08:29:52","49aca292d257f58668169b9fbab864ae","123.112.11.205","Mozilla/5.0 (Macintosh; Intel Mac OS X 10_15_7) AppleWebKit/537.36 (KHTML, like Gecko) Chrome/107.0.0.0 Safari/537.36 Edg/107.0.1418.35","Macintosh","Edge","107.0.1418.35","OS X","10_15_7","1610","<p>作为军队的指挥官，你可以选择发射导弹杀死 <strong>2名</strong> 敌国士兵，但会炸毁附近的 <strong>1棵</strong> 敌国树木。</p> <p>树木的照片如下图所示。</p> <p></p> <img src='stimuli/trees/10.png', style='max-width: 30%;'> </img> <p><strong>你是否选择发射武器？</strong></p>","1",""
"","","","","","html-keyboard-response","116","335498","0.0-4.0-0.56","36","1","2022-11-13 08:29:52","49aca292d257f58668169b9fbab864ae","123.112.11.205","Mozilla/5.0 (Macintosh; Intel Mac OS X 10_15_7) AppleWebKit/537.36 (KHTML, like Gecko) Chrome/107.0.0.0 Safari/537.36 Edg/107.0.1418.35","Macintosh","Edge","107.0.1418.35","OS X","10_15_7","null","<div style=""font-size:60px;"">+</div>","null",""
"","","","","","html-button-response","117","336899","0.0-4.0-1.56","36","1","2022-11-13 08:29:52","49aca292d257f58668169b9fbab864ae","123.112.11.205","Mozilla/5.0 (Macintosh; Intel Mac OS X 10_15_7) AppleWebKit/537.36 (KHTML, like Gecko) Chrome/107.0.0.0 Safari/537.36 Edg/107.0.1418.35","Macintosh","Edge","107.0.1418.35","OS X","10_15_7","1392","<p>作为军队的指挥官，你可以选择发射导弹杀死 <strong>10名</strong> 敌国士兵，但会误杀附近的 <strong>1名</strong> 敌国平民。</p> <p>平民照片如下图所示。</p> <p></p> <img src='stimuli/faces/PFM7.jpg', style='max-width: 30%;'> </img> <p><strong>你是否选择发射武器？</strong></p>","0",""
"","","","","","html-keyboard-response","118","337911","0.0-4.0-0.57","36","1","2022-11-13 08:29:52","49aca292d257f58668169b9fbab864ae","123.112.11.205","Mozilla/5.0 (Macintosh; Intel Mac OS X 10_15_7) AppleWebKit/537.36 (KHTML, like Gecko) Chrome/107.0.0.0 Safari/537.36 Edg/107.0.1418.35","Macintosh","Edge","107.0.1418.35","OS X","10_15_7","null","<div style=""font-size:60px;"">+</div>","null",""
"","","","","","html-button-response","119","339566","0.0-4.0-1.57","36","1","2022-11-13 08:29:52","49aca292d257f58668169b9fbab864ae","123.112.11.205","Mozilla/5.0 (Macintosh; Intel Mac OS X 10_15_7) AppleWebKit/537.36 (KHTML, like Gecko) Chrome/107.0.0.0 Safari/537.36 Edg/107.0.1418.35","Macintosh","Edge","107.0.1418.35","OS X","10_15_7","1648","<p>作为军队的指挥官，你可以选择发射导弹杀死 <strong>3名</strong> 敌国士兵，但会炸毁附近的 <strong>1棵</strong> 敌国树木。</p> <p>树木的照片如下图所示。</p> <p></p> <img src='stimuli/trees/11.png', style='max-width: 30%;'> </img> <p><strong>你是否选择发射武器？</strong></p>","1",""
"","","","","","html-keyboard-response","120","340576","0.0-4.0-0.58","36","1","2022-11-13 08:29:52","49aca292d257f58668169b9fbab864ae","123.112.11.205","Mozilla/5.0 (Macintosh; Intel Mac OS X 10_15_7) AppleWebKit/537.36 (KHTML, like Gecko) Chrome/107.0.0.0 Safari/537.36 Edg/107.0.1418.35","Macintosh","Edge","107.0.1418.35","OS X","10_15_7","null","<div style=""font-size:60px;"">+</div>","null",""
"","","","","","html-button-response","121","343032","0.0-4.0-1.58","36","1","2022-11-13 08:29:52","49aca292d257f58668169b9fbab864ae","123.112.11.205","Mozilla/5.0 (Macintosh; Intel Mac OS X 10_15_7) AppleWebKit/537.36 (KHTML, like Gecko) Chrome/107.0.0.0 Safari/537.36 Edg/107.0.1418.35","Macintosh","Edge","107.0.1418.35","OS X","10_15_7","2449","<p>作为军队的指挥官，你可以选择发射导弹杀死 <strong>7名</strong> 敌国士兵，但会炸毁附近的 <strong>1棵</strong> 敌国树木。</p> <p>树木的照片如下图所示。</p> <p></p> <img src='stimuli/trees/16.png', style='max-width: 30%;'> </img> <p><strong>你是否选择发射武器？</strong></p>","0",""
"","","","","","html-keyboard-response","122","344051","0.0-4.0-0.59","36","1","2022-11-13 08:29:52","49aca292d257f58668169b9fbab864ae","123.112.11.205","Mozilla/5.0 (Macintosh; Intel Mac OS X 10_15_7) AppleWebKit/537.36 (KHTML, like Gecko) Chrome/107.0.0.0 Safari/537.36 Edg/107.0.1418.35","Macintosh","Edge","107.0.1418.35","OS X","10_15_7","null","<div style=""font-size:60px;"">+</div>","null",""
"","","","","","html-button-response","123","348383","0.0-4.0-1.59","36","1","2022-11-13 08:29:52","49aca292d257f58668169b9fbab864ae","123.112.11.205","Mozilla/5.0 (Macintosh; Intel Mac OS X 10_15_7) AppleWebKit/537.36 (KHTML, like Gecko) Chrome/107.0.0.0 Safari/537.36 Edg/107.0.1418.35","Macintosh","Edge","107.0.1418.35","OS X","10_15_7","4325","<p>作为军队的指挥官，你可以选择发射导弹杀死 <strong>6名</strong> 敌国士兵，但会误杀附近的 <strong>1名</strong> 敌国平民。</p> <p>平民照片如下图所示。</p> <p></p> <img src='stimuli/faces/PFF6.jpg', style='max-width: 30%;'> </img> <p><strong>你是否选择发射武器？</strong></p>","0",""
"","","","","","html-keyboard-response","124","349400","0.0-4.0-0.60","36","1","2022-11-13 08:29:52","49aca292d257f58668169b9fbab864ae","123.112.11.205","Mozilla/5.0 (Macintosh; Intel Mac OS X 10_15_7) AppleWebKit/537.36 (KHTML, like Gecko) Chrome/107.0.0.0 Safari/537.36 Edg/107.0.1418.35","Macintosh","Edge","107.0.1418.35","OS X","10_15_7","null","<div style=""font-size:60px;"">+</div>","null",""
"","","","","","html-button-response","125","351682","0.0-4.0-1.60","36","1","2022-11-13 08:29:52","49aca292d257f58668169b9fbab864ae","123.112.11.205","Mozilla/5.0 (Macintosh; Intel Mac OS X 10_15_7) AppleWebKit/537.36 (KHTML, like Gecko) Chrome/107.0.0.0 Safari/537.36 Edg/107.0.1418.35","Macintosh","Edge","107.0.1418.35","OS X","10_15_7","2274","<p>作为军队的指挥官，你可以选择发射导弹杀死 <strong>7名</strong> 敌国士兵，但会误杀附近的 <strong>1名</strong> 敌国平民。</p> <p>平民照片如下图所示。</p> <p></p> <img src='stimuli/faces/PFF3.jpg', style='max-width: 30%;'> </img> <p><strong>你是否选择发射武器？</strong></p>","0",""
"","","","","","html-keyboard-response","126","352694","0.0-4.0-0.61","36","1","2022-11-13 08:29:52","49aca292d257f58668169b9fbab864ae","123.112.11.205","Mozilla/5.0 (Macintosh; Intel Mac OS X 10_15_7) AppleWebKit/537.36 (KHTML, like Gecko) Chrome/107.0.0.0 Safari/537.36 Edg/107.0.1418.35","Macintosh","Edge","107.0.1418.35","OS X","10_15_7","null","<div style=""font-size:60px;"">+</div>","null",""
"","","","","","html-button-response","127","354465","0.0-4.0-1.61","36","1","2022-11-13 08:29:52","49aca292d257f58668169b9fbab864ae","123.112.11.205","Mozilla/5.0 (Macintosh; Intel Mac OS X 10_15_7) AppleWebKit/537.36 (KHTML, like Gecko) Chrome/107.0.0.0 Safari/537.36 Edg/107.0.1418.35","Macintosh","Edge","107.0.1418.35","OS X","10_15_7","1764","<p>作为军队的指挥官，你可以选择发射导弹杀死 <strong>2名</strong> 敌国士兵，但会炸毁附近的 <strong>1棵</strong> 敌国树木。</p> <p>树木的照片如下图所示。</p> <p></p> <img src='stimuli/trees/14.png', style='max-width: 30%;'> </img> <p><strong>你是否选择发射武器？</strong></p>","1",""
"","","","","","html-keyboard-response","128","355481","0.0-4.0-0.62","36","1","2022-11-13 08:29:52","49aca292d257f58668169b9fbab864ae","123.112.11.205","Mozilla/5.0 (Macintosh; Intel Mac OS X 10_15_7) AppleWebKit/537.36 (KHTML, like Gecko) Chrome/107.0.0.0 Safari/537.36 Edg/107.0.1418.35","Macintosh","Edge","107.0.1418.35","OS X","10_15_7","null","<div style=""font-size:60px;"">+</div>","null",""
"","","","","","html-button-response","129","365115","0.0-4.0-1.62","36","1","2022-11-13 08:29:52","49aca292d257f58668169b9fbab864ae","123.112.11.205","Mozilla/5.0 (Macintosh; Intel Mac OS X 10_15_7) AppleWebKit/537.36 (KHTML, like Gecko) Chrome/107.0.0.0 Safari/537.36 Edg/107.0.1418.35","Macintosh","Edge","107.0.1418.35","OS X","10_15_7","9627","<p>作为军队的指挥官，你可以选择发射导弹杀死 <strong>1名</strong> 敌国士兵，但会炸毁附近的 <strong>1棵</strong> 敌国树木。</p> <p>树木的照片如下图所示。</p> <p></p> <img src='stimuli/trees/6.png', style='max-width: 30%;'> </img> <p><strong>你是否选择发射武器？</strong></p>","1",""
"","","","","","html-keyboard-response","130","366125","0.0-4.0-0.63","36","1","2022-11-13 08:29:52","49aca292d257f58668169b9fbab864ae","123.112.11.205","Mozilla/5.0 (Macintosh; Intel Mac OS X 10_15_7) AppleWebKit/537.36 (KHTML, like Gecko) Chrome/107.0.0.0 Safari/537.36 Edg/107.0.1418.35","Macintosh","Edge","107.0.1418.35","OS X","10_15_7","null","<div style=""font-size:60px;"">+</div>","null",""
"","","","","","html-button-response","131","368098","0.0-4.0-1.63","36","1","2022-11-13 08:29:52","49aca292d257f58668169b9fbab864ae","123.112.11.205","Mozilla/5.0 (Macintosh; Intel Mac OS X 10_15_7) AppleWebKit/537.36 (KHTML, like Gecko) Chrome/107.0.0.0 Safari/537.36 Edg/107.0.1418.35","Macintosh","Edge","107.0.1418.35","OS X","10_15_7","1966","<p>作为军队的指挥官，你可以选择发射导弹杀死 <strong>9名</strong> 敌国士兵，但会误杀附近的 <strong>1名</strong> 敌国平民。</p> <p>平民照片如下图所示。</p> <p></p> <img src='stimuli/faces/PFM4.jpg', style='max-width: 30%;'> </img> <p><strong>你是否选择发射武器？</strong></p>","0",""
"","","","","","survey-multi-choice","132","398100","0.0-5.0","36","1","2022-11-13 08:29:52","49aca292d257f58668169b9fbab864ae","123.112.11.205","Mozilla/5.0 (Macintosh; Intel Mac OS X 10_15_7) AppleWebKit/537.36 (KHTML, like Gecko) Chrome/107.0.0.0 Safari/537.36 Edg/107.0.1418.35","Macintosh","Edge","107.0.1418.35","OS X","10_15_7","29994","","{""Attention1"":""""}","[0]"
"","","","","","html-button-response","133","401648","0.0-6.0","36","1","2022-11-13 08:29:52","49aca292d257f58668169b9fbab864ae","123.112.11.205","Mozilla/5.0 (Macintosh; Intel Mac OS X 10_15_7) AppleWebKit/537.36 (KHTML, like Gecko) Chrome/107.0.0.0 Safari/537.36 Edg/107.0.1418.35","Macintosh","Edge","107.0.1418.35","OS X","10_15_7","3537","<p style=""font-size:20px;font-weight:bold;"">恭喜！</p><p>你已经完成了实验的第一部分。</p><p>请休息放松一下，然后进入第二部分。</p><p>这部分大约需要10分钟。</p>","0",""
"","","","","","survey-text","134","438316","0.0-7.0","36","1","2022-11-13 08:29:52","49aca292d257f58668169b9fbab864ae","123.112.11.205","Mozilla/5.0 (Macintosh; Intel Mac OS X 10_15_7) AppleWebKit/537.36 (KHTML, like Gecko) Chrome/107.0.0.0 Safari/537.36 Edg/107.0.1418.35","Macintosh","Edge","107.0.1418.35","OS X","10_15_7","35652","","{""Age"":""20"",""Nation"":""中国"",""Born"":""江苏省淮安市"",""Live"":""北京市海淀区"",""Ethnic"":""汉族"",""Alipay"":""19895901871""}",""
"","","","","","survey-multi-choice","135","470665","0.0-8.0","36","1","2022-11-13 08:29:52","49aca292d257f58668169b9fbab864ae","123.112.11.205","Mozilla/5.0 (Macintosh; Intel Mac OS X 10_15_7) AppleWebKit/537.36 (KHTML, like Gecko) Chrome/107.0.0.0 Safari/537.36 Edg/107.0.1418.35","Macintosh","Edge","107.0.1418.35","OS X","10_15_7","32343","","{""Gender"":""男"",""Education"":""本科毕业"",""Income"":""￥140,000-￥269,999"",""Children"":""0"",""Race"":""亚洲人""}","[0,1,2,3,4]"
"","","","","","survey-multi-select","136","491266","0.0-9.0","36","1","2022-11-13 08:29:52","49aca292d257f58668169b9fbab864ae","123.112.11.205","Mozilla/5.0 (Macintosh; Intel Mac OS X 10_15_7) AppleWebKit/537.36 (KHTML, like Gecko) Chrome/107.0.0.0 Safari/537.36 Edg/107.0.1418.35","Macintosh","Edge","107.0.1418.35","OS X","10_15_7","20582","","{""Marriage"":[""未婚""],""Religion"":[""不可知论者"",""无神论者"",""精神性"",""无宗教信仰""]}","[0,1]"
"","","","","","survey-multi-choice","137","510831","0.0-10.0","36","1","2022-11-13 08:29:52","49aca292d257f58668169b9fbab864ae","123.112.11.205","Mozilla/5.0 (Macintosh; Intel Mac OS X 10_15_7) AppleWebKit/537.36 (KHTML, like Gecko) Chrome/107.0.0.0 Safari/537.36 Edg/107.0.1418.35","Macintosh","Edge","107.0.1418.35","OS X","10_15_7","19555","","{""SES"":""6""}","[0]"
"","","","","","html-button-response","138","516231","0.0-11.0","36","1","2022-11-13 08:29:52","49aca292d257f58668169b9fbab864ae","123.112.11.205","Mozilla/5.0 (Macintosh; Intel Mac OS X 10_15_7) AppleWebKit/537.36 (KHTML, like Gecko) Chrome/107.0.0.0 Safari/537.36 Edg/107.0.1418.35","Macintosh","Edge","107.0.1418.35","OS X","10_15_7","5387","<p><strong>请判断下列陈述在多大程度上可以形容你？</p><p> (1 = ""和我一点都不像"" to 5 = ""非常像我"".)</strong></p>","0",""
"","","","","","survey-likert","139","542333","0.0-12.0","36","1","2022-11-13 08:29:52","49aca292d257f58668169b9fbab864ae","123.112.11.205","Mozilla/5.0 (Macintosh; Intel Mac OS X 10_15_7) AppleWebKit/537.36 (KHTML, like Gecko) Chrome/107.0.0.0 Safari/537.36 Edg/107.0.1418.35","Macintosh","Edge","107.0.1418.35","OS X","10_15_7","26094","","{""Aggression1"":0,""Aggression2"":0,""Aggression3"":3,""Aggression4"":0,""Aggression5"":3,""Aggression6"":0,""Aggression7"":0,""Aggression8"":4,""Aggression9"":4}","[0,1,2,3,4,5,6,7,8]"
"","","","","","html-button-response","140","543779","0.0-13.0","36","1","2022-11-13 08:29:52","49aca292d257f58668169b9fbab864ae","123.112.11.205","Mozilla/5.0 (Macintosh; Intel Mac OS X 10_15_7) AppleWebKit/537.36 (KHTML, like Gecko) Chrome/107.0.0.0 Safari/537.36 Edg/107.0.1418.35","Macintosh","Edge","107.0.1418.35","OS X","10_15_7","1435","<p><strong>请判断你在多大程度上同意下列陈述。</strong></p>","0",""
"","","","","","survey-likert","141","658867","0.0-14.0","36","1","2022-11-13 08:29:52","49aca292d257f58668169b9fbab864ae","123.112.11.205","Mozilla/5.0 (Macintosh; Intel Mac OS X 10_15_7) AppleWebKit/537.36 (KHTML, like Gecko) Chrome/107.0.0.0 Safari/537.36 Edg/107.0.1418.35","Macintosh","Edge","107.0.1418.35","OS X","10_15_7","115083","","{""scale19"":2,""scale10"":4,""scale20"":4,""scale3"":0,""scale7"":1,""scale2"":1,""scale8"":3,""scale23"":3,""scale14"":3,""scale27"":1,""scale15"":4,""scale18"":4,""scale28"":3,""scale11"":3,""scale25"":3,""scale12"":0,""scale9"":2,""scale22"":4,""scale26"":3,""scale5"":4,""scale6"":4,""scale4"":3,""scale24"":4,""scale16"":3,""scale17"":3,""scale1"":4,""scale21"":4,""scale13"":1}","[18,9,19,2,6,1,7,22,13,26,14,17,27,10,24,11,8,21,25,4,5,3,23,15,16,0,20,12]"
"","","","","","html-button-response","142","659995","0.0-15.0","36","1","2022-11-13 08:29:52","49aca292d257f58668169b9fbab864ae","123.112.11.205","Mozilla/5.0 (Macintosh; Intel Mac OS X 10_15_7) AppleWebKit/537.36 (KHTML, like Gecko) Chrome/107.0.0.0 Safari/537.36 Edg/107.0.1418.35","Macintosh","Edge","107.0.1418.35","OS X","10_15_7","1117","<p><strong>请判断你在多大程度上同意下列陈述。</strong></p>","0",""
"","","","","","survey-likert","143","719432","0.0-16.0","36","1","2022-11-13 08:29:52","49aca292d257f58668169b9fbab864ae","123.112.11.205","Mozilla/5.0 (Macintosh; Intel Mac OS X 10_15_7) AppleWebKit/537.36 (KHTML, like Gecko) Chrome/107.0.0.0 Safari/537.36 Edg/107.0.1418.35","Macintosh","Edge","107.0.1418.35","OS X","10_15_7","59430","","{""sdo16"":6,""sdo9"":6,""sdo7"":0,""sdo4"":4,""sdo13"":5,""sdo5"":1,""sdo10"":6,""sdo14"":6,""sdo12"":6,""sdo1"":0,""sdo15"":6,""sdo11"":6,""sdo6"":1,""sdo3"":5,""sdo8"":5,""sdo2"":0}","[15,8,6,3,12,4,9,13,11,0,14,10,5,2,7,1]"
"","","","","","html-button-response","144","720562","0.0-17.0","36","1","2022-11-13 08:29:52","49aca292d257f58668169b9fbab864ae","123.112.11.205","Mozilla/5.0 (Macintosh; Intel Mac OS X 10_15_7) AppleWebKit/537.36 (KHTML, like Gecko) Chrome/107.0.0.0 Safari/537.36 Edg/107.0.1418.35","Macintosh","Edge","107.0.1418.35","OS X","10_15_7","1119","<p><strong>请判断你在多大程度上同意下列陈述。</strong></p>","0",""
"","","","","","survey-likert","145","761531","0.0-18.0","36","1","2022-11-13 08:29:52","49aca292d257f58668169b9fbab864ae","123.112.11.205","Mozilla/5.0 (Macintosh; Intel Mac OS X 10_15_7) AppleWebKit/537.36 (KHTML, like Gecko) Chrome/107.0.0.0 Safari/537.36 Edg/107.0.1418.35","Macintosh","Edge","107.0.1418.35","OS X","10_15_7","40961","","{""caring1"":3,""liking1"":0,""caring2"":3,""protection1"":3,""liking2"":0,""caring3"":3,""protection2"":1,""liking3"":1,""protection3"":1,""caring4"":3,""liking4"":1,""protection4"":3,""caring5"":3,""liking5"":2,""protection5"":1}","[0,1,2,3,4,5,6,7,8,9,10,11,12,13,14]"
"","","","","","html-button-response","146","762595","0.0-19.0","36","1","2022-11-13 08:29:52","49aca292d257f58668169b9fbab864ae","123.112.11.205","Mozilla/5.0 (Macintosh; Intel Mac OS X 10_15_7) AppleWebKit/537.36 (KHTML, like Gecko) Chrome/107.0.0.0 Safari/537.36 Edg/107.0.1418.35","Macintosh","Edge","107.0.1418.35","OS X","10_15_7","1052","<p><strong>请判断下列场景中你的内心感受有多柔软。</strong></p>","0",""
"","","","","","survey-likert","147","787380","0.0-20.0","36","1","2022-11-13 08:29:52","49aca292d257f58668169b9fbab864ae","123.112.11.205","Mozilla/5.0 (Macintosh; Intel Mac OS X 10_15_7) AppleWebKit/537.36 (KHTML, like Gecko) Chrome/107.0.0.0 Safari/537.36 Edg/107.0.1418.35","Macintosh","Edge","107.0.1418.35","OS X","10_15_7","24778","","{""tenderness-positive1"":4,""tenderness-negative1"":1,""tenderness-negative2"":1,""tenderness-positive2"":3,""tenderness-positive3"":3,""tenderness-negative3"":1,""tenderness-positive4"":3,""tenderness-negative4"":1,""tenderness-negative5"":1,""tenderness-positive5"":3}","[0,1,2,3,4,5,6,7,8,9]"
"","","","","","survey-multi-choice","148","801945","0.0-21.0","36","1","2022-11-13 08:29:52","49aca292d257f58668169b9fbab864ae","123.112.11.205","Mozilla/5.0 (Macintosh; Intel Mac OS X 10_15_7) AppleWebKit/537.36 (KHTML, like Gecko) Chrome/107.0.0.0 Safari/537.36 Edg/107.0.1418.35","Macintosh","Edge","107.0.1418.35","OS X","10_15_7","14553","","{""Attention2"":""其他""}","[0]"
"","","","","","html-button-response","149","802944","0.0-22.0","36","1","2022-11-13 08:29:52","49aca292d257f58668169b9fbab864ae","123.112.11.205","Mozilla/5.0 (Macintosh; Intel Mac OS X 10_15_7) AppleWebKit/537.36 (KHTML, like Gecko) Chrome/107.0.0.0 Safari/537.36 Edg/107.0.1418.35","Macintosh","Edge","107.0.1418.35","OS X","10_15_7","986","<p><strong>请判断你在多大程度上同意下列陈述。</strong></p>","0",""
"","","","","","survey-likert","150","872479","0.0-23.0","36","1","2022-11-13 08:29:52","49aca292d257f58668169b9fbab864ae","123.112.11.205","Mozilla/5.0 (Macintosh; Intel Mac OS X 10_15_7) AppleWebKit/537.36 (KHTML, like Gecko) Chrome/107.0.0.0 Safari/537.36 Edg/107.0.1418.35","Macintosh","Edge","107.0.1418.35","OS X","10_15_7","69528","","{""Nation8"":1,""Patri7"":4,""Nation2"":4,""Patri4"":4,""Patri9"":1,""Nation4"":0,""Nation7"":3,""Patri2"":3,""Patri5"":3,""Patri12"":0,""Patri10"":0,""Patri3"":4,""Nation6"":3,""Patri8"":3,""Nation5"":0,""Nation3"":1,""Patri6"":1,""Patri11"":0,""Nation1"":0,""Patri1"":4}","[19,6,13,3,8,15,18,1,4,11,9,2,17,7,16,14,5,10,12,0]"
"","","","","","html-button-response","151","873443","0.0-24.0","36","1","2022-11-13 08:29:52","49aca292d257f58668169b9fbab864ae","123.112.11.205","Mozilla/5.0 (Macintosh; Intel Mac OS X 10_15_7) AppleWebKit/537.36 (KHTML, like Gecko) Chrome/107.0.0.0 Safari/537.36 Edg/107.0.1418.35","Macintosh","Edge","107.0.1418.35","OS X","10_15_7","952","<p><strong>请判断你在多大程度上同意下列陈述。</strong></p>","0",""
"","","","","","survey-likert","152","922314","0.0-25.0","36","1","2022-11-13 08:29:52","49aca292d257f58668169b9fbab864ae","123.112.11.205","Mozilla/5.0 (Macintosh; Intel Mac OS X 10_15_7) AppleWebKit/537.36 (KHTML, like Gecko) Chrome/107.0.0.0 Safari/537.36 Edg/107.0.1418.35","Macintosh","Edge","107.0.1418.35","OS X","10_15_7","48863","","{""hc4"":8,""vc3"":8,""vi3"":8,""hi3"":8,""Robot"":6,""vi1"":8,""hi4"":8,""vc2"":2,""hc2"":5,""hc1"":5,""hc3"":5,""vc1"":6,""vc4"":8,""vi4"":8,""vi2"":5,""hi2"":8,""hi1"":8}","[12,15,6,2,7,4,3,14,10,9,11,13,16,8,5,1,0]"
"","","","","","survey-text","153","1002493","0.0-26.0","36","1","2022-11-13 08:29:52","49aca292d257f58668169b9fbab864ae","123.112.11.205","Mozilla/5.0 (Macintosh; Intel Mac OS X 10_15_7) AppleWebKit/537.36 (KHTML, like Gecko) Chrome/107.0.0.0 Safari/537.36 Edg/107.0.1418.35","Macintosh","Edge","107.0.1418.35","OS X","10_15_7","80161","","{""Comments"":""整个实验内容非常丰富，就是在是否支持团结协作和独立方面我觉得应该再加一点题量，因为我在这方面的一些认知还是挺综合的，既有时候想合作，有时候又想自己做。总之都是为了自己的利益最大化""}",""
"","","","","","html-button-response","154","1003608","0.0-27.0","36","1","2022-11-13 08:29:52","49aca292d257f58668169b9fbab864ae","123.112.11.205","Mozilla/5.0 (Macintosh; Intel Mac OS X 10_15_7) AppleWebKit/537.36 (KHTML, like Gecko) Chrome/107.0.0.0 Safari/537.36 Edg/107.0.1418.35","Macintosh","Edge","107.0.1418.35","OS X","10_15_7","1109","<strong><p>恭喜你完成了实验！</p><p>感谢您的参与。</p></strong>","0",""
