"success","timeout","failed_images","failed_audio","failed_video","trial_type","trial_index","time_elapsed","internal_node_id","run_id","condition","recorded_at","source_code_version","ip","user_agent","device","browser","browser_version","platform","platform_version","rt","stimulus","response","question_order"
"true","false","[]","[]","[]","preload","0","6003","0.0-0.0","37","1","2022-11-13 08:29:58","49aca292d257f58668169b9fbab864ae","106.39.42.223","Mozilla/5.0 (Linux; Android 10; DBY-W09 Build/HUAWEIDBY-W09; wv) AppleWebKit/537.36 (KHTML, like Gecko) Version/4.0 Chrome/86.0.4240.99 XWEB/4317 MMWEBSDK/20220903 Safari/537.36 MMWEBID/1872 MicroMessenger/8.0.28.2240(0x28001C57) WeChat/arm64 Weixin Android Tablet NetType/WIFI Language/zh_CN ABI/arm64","GenericTablet","Chrome","86.0.4240.99","AndroidOS","10","","","",""
"true","","","","","fullscreen","1","12770","0.0-1.0","37","1","2022-11-13 08:29:58","49aca292d257f58668169b9fbab864ae","106.39.42.223","Mozilla/5.0 (Linux; Android 10; DBY-W09 Build/HUAWEIDBY-W09; wv) AppleWebKit/537.36 (KHTML, like Gecko) Version/4.0 Chrome/86.0.4240.99 XWEB/4317 MMWEBSDK/20220903 Safari/537.36 MMWEBID/1872 MicroMessenger/8.0.28.2240(0x28001C57) WeChat/arm64 Weixin Android Tablet NetType/WIFI Language/zh_CN ABI/arm64","GenericTablet","Chrome","86.0.4240.99","AndroidOS","10","","","",""
"","","","","","html-button-response","2","34181","0.0-2.0","37","1","2022-11-13 08:29:58","49aca292d257f58668169b9fbab864ae","106.39.42.223","Mozilla/5.0 (Linux; Android 10; DBY-W09 Build/HUAWEIDBY-W09; wv) AppleWebKit/537.36 (KHTML, like Gecko) Version/4.0 Chrome/86.0.4240.99 XWEB/4317 MMWEBSDK/20220903 Safari/537.36 MMWEBID/1872 MicroMessenger/8.0.28.2240(0x28001C57) WeChat/arm64 Weixin Android Tablet NetType/WIFI Language/zh_CN ABI/arm64","GenericTablet","Chrome","86.0.4240.99","AndroidOS","10","21404","<p style=""font-size:20px;font-weight:bold;"">实验知情同意书</p><p style=""text-align:left;""><strong>实验名称：</strong>社会冲突研究</p><p style=""text-align:left;""><strong>主要研究者：</strong>韩晓春副教授（北京师范大学心理学部）</p><p style=""text-align:left;""><strong>联系方式：</strong>发送邮件至xiaochun.han@bnu.edu.cn</p><p style=""text-align:left;""><strong>研究目的：</strong>研究旨在了解人类面对群体冲突时的决策方式，以及相关的心理学特质。实验调查大约需要20分钟。</p><p style=""text-align:left;""><strong>实验流程：</strong>实验包含两部分。第一部分呈现一系列群体冲突场景，请你决定如何对这些冲突进行反应，大约需要10分钟完成。第二部分包含一系列人口统计学信息收集和心理学问卷，大约需要10分钟完成。</p><p style=""text-align:left;""><strong>参加及退出规则：</strong>参加本实验完全取决于您的个人意愿。在参与过程中，您可以随时退出，并且不用承担任何后果。</p><p style=""text-align:left;""><strong>隐私：</strong>本实验完全匿名进行，不会收集您的姓名或其他能够识别您身份的信息。实验中收集的作答仅用作科学研究使用，可能会在学术期刊/书籍上发表，或者用于教学，您的数据未来可能会和其他研究者或实验室分享，但您的个人身份不会被识别。</p><p style=""text-align:left;""><strong>实验报酬：</strong>实验完成后，您将获得15元人民币报酬，以感谢您的时间和努力。调查问卷中包含几道题目用以测验您作答时的认真度。只有完成全部实验，并且正确回答认真度测验的被试才能获得实验报酬。实验报酬将通过支付宝转账发放。</p><p style=""text-align:left;font-size:20px;""><strong>如果您同意以上实验知情同意书的内容，请点击'同意并且开始实验'按钮；否则请关闭浏览器界面，退出实验。</strong></p>","0",""
"","","","","","html-button-response","3","117176","0.0-3.0","37","1","2022-11-13 08:29:58","49aca292d257f58668169b9fbab864ae","106.39.42.223","Mozilla/5.0 (Linux; Android 10; DBY-W09 Build/HUAWEIDBY-W09; wv) AppleWebKit/537.36 (KHTML, like Gecko) Version/4.0 Chrome/86.0.4240.99 XWEB/4317 MMWEBSDK/20220903 Safari/537.36 MMWEBID/1872 MicroMessenger/8.0.28.2240(0x28001C57) WeChat/arm64 Weixin Android Tablet NetType/WIFI Language/zh_CN ABI/arm64","GenericTablet","Chrome","86.0.4240.99","AndroidOS","10","82992","<p ><strong>实验任务一：</strong></p><p>请想象你的国家与另一个国家发生了军事冲突。</p><p>你是国家军队的指挥官，你将如何在冲突中进行决策。</p><p>具体来说，作为军队指挥官，请你决定是否发射导弹进行打击。</p><p>接下来，你会面对一系列场景，请仔细阅读每个场景，然后进行决策。</p><p>这部分实验任务大约需要10分钟。</p><p><strong>实验过程中，请集中注意力。</strong></p>","0",""
"","","","","","html-keyboard-response","4","118179","0.0-4.0-0.0","37","1","2022-11-13 08:29:58","49aca292d257f58668169b9fbab864ae","106.39.42.223","Mozilla/5.0 (Linux; Android 10; DBY-W09 Build/HUAWEIDBY-W09; wv) AppleWebKit/537.36 (KHTML, like Gecko) Version/4.0 Chrome/86.0.4240.99 XWEB/4317 MMWEBSDK/20220903 Safari/537.36 MMWEBID/1872 MicroMessenger/8.0.28.2240(0x28001C57) WeChat/arm64 Weixin Android Tablet NetType/WIFI Language/zh_CN ABI/arm64","GenericTablet","Chrome","86.0.4240.99","AndroidOS","10","null","<div style=""font-size:60px;"">+</div>","null",""
"","","","","","html-button-response","5","130474","0.0-4.0-1.0","37","1","2022-11-13 08:29:58","49aca292d257f58668169b9fbab864ae","106.39.42.223","Mozilla/5.0 (Linux; Android 10; DBY-W09 Build/HUAWEIDBY-W09; wv) AppleWebKit/537.36 (KHTML, like Gecko) Version/4.0 Chrome/86.0.4240.99 XWEB/4317 MMWEBSDK/20220903 Safari/537.36 MMWEBID/1872 MicroMessenger/8.0.28.2240(0x28001C57) WeChat/arm64 Weixin Android Tablet NetType/WIFI Language/zh_CN ABI/arm64","GenericTablet","Chrome","86.0.4240.99","AndroidOS","10","12291","<p>作为军队的指挥官，你可以选择发射导弹杀死 <strong>9名</strong> 敌国士兵，但会误杀附近的 <strong>1名</strong> 敌国平民。</p> <p>平民照片如下图所示。</p> <p></p> <img src='stimuli/faces/PFF5.jpg', style='max-width: 30%;'> </img> <p><strong>你是否选择发射武器？</strong></p>","0",""
"","","","","","html-keyboard-response","6","131477","0.0-4.0-0.1","37","1","2022-11-13 08:29:58","49aca292d257f58668169b9fbab864ae","106.39.42.223","Mozilla/5.0 (Linux; Android 10; DBY-W09 Build/HUAWEIDBY-W09; wv) AppleWebKit/537.36 (KHTML, like Gecko) Version/4.0 Chrome/86.0.4240.99 XWEB/4317 MMWEBSDK/20220903 Safari/537.36 MMWEBID/1872 MicroMessenger/8.0.28.2240(0x28001C57) WeChat/arm64 Weixin Android Tablet NetType/WIFI Language/zh_CN ABI/arm64","GenericTablet","Chrome","86.0.4240.99","AndroidOS","10","null","<div style=""font-size:60px;"">+</div>","null",""
"","","","","","html-button-response","7","136992","0.0-4.0-1.1","37","1","2022-11-13 08:29:58","49aca292d257f58668169b9fbab864ae","106.39.42.223","Mozilla/5.0 (Linux; Android 10; DBY-W09 Build/HUAWEIDBY-W09; wv) AppleWebKit/537.36 (KHTML, like Gecko) Version/4.0 Chrome/86.0.4240.99 XWEB/4317 MMWEBSDK/20220903 Safari/537.36 MMWEBID/1872 MicroMessenger/8.0.28.2240(0x28001C57) WeChat/arm64 Weixin Android Tablet NetType/WIFI Language/zh_CN ABI/arm64","GenericTablet","Chrome","86.0.4240.99","AndroidOS","10","5508","<p>作为军队的指挥官，你可以选择发射导弹杀死 <strong>5名</strong> 敌国士兵，但会误杀附近的 <strong>1名</strong> 敌国平民。</p> <p>平民照片如下图所示。</p> <p></p> <img src='stimuli/faces/PFM6.jpg', style='max-width: 30%;'> </img> <p><strong>你是否选择发射武器？</strong></p>","0",""
"","","","","","html-keyboard-response","8","137995","0.0-4.0-0.2","37","1","2022-11-13 08:29:58","49aca292d257f58668169b9fbab864ae","106.39.42.223","Mozilla/5.0 (Linux; Android 10; DBY-W09 Build/HUAWEIDBY-W09; wv) AppleWebKit/537.36 (KHTML, like Gecko) Version/4.0 Chrome/86.0.4240.99 XWEB/4317 MMWEBSDK/20220903 Safari/537.36 MMWEBID/1872 MicroMessenger/8.0.28.2240(0x28001C57) WeChat/arm64 Weixin Android Tablet NetType/WIFI Language/zh_CN ABI/arm64","GenericTablet","Chrome","86.0.4240.99","AndroidOS","10","null","<div style=""font-size:60px;"">+</div>","null",""
"","","","","","html-button-response","9","142704","0.0-4.0-1.2","37","1","2022-11-13 08:29:58","49aca292d257f58668169b9fbab864ae","106.39.42.223","Mozilla/5.0 (Linux; Android 10; DBY-W09 Build/HUAWEIDBY-W09; wv) AppleWebKit/537.36 (KHTML, like Gecko) Version/4.0 Chrome/86.0.4240.99 XWEB/4317 MMWEBSDK/20220903 Safari/537.36 MMWEBID/1872 MicroMessenger/8.0.28.2240(0x28001C57) WeChat/arm64 Weixin Android Tablet NetType/WIFI Language/zh_CN ABI/arm64","GenericTablet","Chrome","86.0.4240.99","AndroidOS","10","4701","<p>作为军队的指挥官，你可以选择发射导弹杀死 <strong>4名</strong> 敌国士兵，但会误杀附近的 <strong>1名</strong> 敌国平民。</p> <p>平民照片如下图所示。</p> <p></p> <img src='stimuli/faces/PFF8.jpg', style='max-width: 30%;'> </img> <p><strong>你是否选择发射武器？</strong></p>","0",""
"","","","","","html-keyboard-response","10","143709","0.0-4.0-0.3","37","1","2022-11-13 08:29:58","49aca292d257f58668169b9fbab864ae","106.39.42.223","Mozilla/5.0 (Linux; Android 10; DBY-W09 Build/HUAWEIDBY-W09; wv) AppleWebKit/537.36 (KHTML, like Gecko) Version/4.0 Chrome/86.0.4240.99 XWEB/4317 MMWEBSDK/20220903 Safari/537.36 MMWEBID/1872 MicroMessenger/8.0.28.2240(0x28001C57) WeChat/arm64 Weixin Android Tablet NetType/WIFI Language/zh_CN ABI/arm64","GenericTablet","Chrome","86.0.4240.99","AndroidOS","10","null","<div style=""font-size:60px;"">+</div>","null",""
"","","","","","html-button-response","11","149137","0.0-4.0-1.3","37","1","2022-11-13 08:29:58","49aca292d257f58668169b9fbab864ae","106.39.42.223","Mozilla/5.0 (Linux; Android 10; DBY-W09 Build/HUAWEIDBY-W09; wv) AppleWebKit/537.36 (KHTML, like Gecko) Version/4.0 Chrome/86.0.4240.99 XWEB/4317 MMWEBSDK/20220903 Safari/537.36 MMWEBID/1872 MicroMessenger/8.0.28.2240(0x28001C57) WeChat/arm64 Weixin Android Tablet NetType/WIFI Language/zh_CN ABI/arm64","GenericTablet","Chrome","86.0.4240.99","AndroidOS","10","5416","<p>作为军队的指挥官，你可以选择发射导弹杀死 <strong>1名</strong> 敌国士兵，但会误杀附近的 <strong>1名</strong> 敌国平民。</p> <p>平民照片如下图所示。</p> <p></p> <img src='stimuli/faces/PFM7.jpg', style='max-width: 30%;'> </img> <p><strong>你是否选择发射武器？</strong></p>","0",""
"","","","","","html-keyboard-response","12","150144","0.0-4.0-0.4","37","1","2022-11-13 08:29:58","49aca292d257f58668169b9fbab864ae","106.39.42.223","Mozilla/5.0 (Linux; Android 10; DBY-W09 Build/HUAWEIDBY-W09; wv) AppleWebKit/537.36 (KHTML, like Gecko) Version/4.0 Chrome/86.0.4240.99 XWEB/4317 MMWEBSDK/20220903 Safari/537.36 MMWEBID/1872 MicroMessenger/8.0.28.2240(0x28001C57) WeChat/arm64 Weixin Android Tablet NetType/WIFI Language/zh_CN ABI/arm64","GenericTablet","Chrome","86.0.4240.99","AndroidOS","10","null","<div style=""font-size:60px;"">+</div>","null",""
"","","","","","html-button-response","13","154225","0.0-4.0-1.4","37","1","2022-11-13 08:29:58","49aca292d257f58668169b9fbab864ae","106.39.42.223","Mozilla/5.0 (Linux; Android 10; DBY-W09 Build/HUAWEIDBY-W09; wv) AppleWebKit/537.36 (KHTML, like Gecko) Version/4.0 Chrome/86.0.4240.99 XWEB/4317 MMWEBSDK/20220903 Safari/537.36 MMWEBID/1872 MicroMessenger/8.0.28.2240(0x28001C57) WeChat/arm64 Weixin Android Tablet NetType/WIFI Language/zh_CN ABI/arm64","GenericTablet","Chrome","86.0.4240.99","AndroidOS","10","4069","<p>作为军队的指挥官，你可以选择发射导弹杀死 <strong>4名</strong> 敌国士兵，但会炸毁附近的 <strong>1棵</strong> 敌国树木。</p> <p>树木的照片如下图所示。</p> <p></p> <img src='stimuli/trees/14.png', style='max-width: 30%;'> </img> <p><strong>你是否选择发射武器？</strong></p>","0",""
"","","","","","html-keyboard-response","14","155228","0.0-4.0-0.5","37","1","2022-11-13 08:29:58","49aca292d257f58668169b9fbab864ae","106.39.42.223","Mozilla/5.0 (Linux; Android 10; DBY-W09 Build/HUAWEIDBY-W09; wv) AppleWebKit/537.36 (KHTML, like Gecko) Version/4.0 Chrome/86.0.4240.99 XWEB/4317 MMWEBSDK/20220903 Safari/537.36 MMWEBID/1872 MicroMessenger/8.0.28.2240(0x28001C57) WeChat/arm64 Weixin Android Tablet NetType/WIFI Language/zh_CN ABI/arm64","GenericTablet","Chrome","86.0.4240.99","AndroidOS","10","null","<div style=""font-size:60px;"">+</div>","null",""
"","","","","","html-button-response","15","159874","0.0-4.0-1.5","37","1","2022-11-13 08:29:58","49aca292d257f58668169b9fbab864ae","106.39.42.223","Mozilla/5.0 (Linux; Android 10; DBY-W09 Build/HUAWEIDBY-W09; wv) AppleWebKit/537.36 (KHTML, like Gecko) Version/4.0 Chrome/86.0.4240.99 XWEB/4317 MMWEBSDK/20220903 Safari/537.36 MMWEBID/1872 MicroMessenger/8.0.28.2240(0x28001C57) WeChat/arm64 Weixin Android Tablet NetType/WIFI Language/zh_CN ABI/arm64","GenericTablet","Chrome","86.0.4240.99","AndroidOS","10","4638","<p>作为军队的指挥官，你可以选择发射导弹杀死 <strong>3名</strong> 敌国士兵，但会误杀附近的 <strong>1名</strong> 敌国平民。</p> <p>平民照片如下图所示。</p> <p></p> <img src='stimuli/faces/PFF1.jpg', style='max-width: 30%;'> </img> <p><strong>你是否选择发射武器？</strong></p>","0",""
"","","","","","html-keyboard-response","16","160881","0.0-4.0-0.6","37","1","2022-11-13 08:29:58","49aca292d257f58668169b9fbab864ae","106.39.42.223","Mozilla/5.0 (Linux; Android 10; DBY-W09 Build/HUAWEIDBY-W09; wv) AppleWebKit/537.36 (KHTML, like Gecko) Version/4.0 Chrome/86.0.4240.99 XWEB/4317 MMWEBSDK/20220903 Safari/537.36 MMWEBID/1872 MicroMessenger/8.0.28.2240(0x28001C57) WeChat/arm64 Weixin Android Tablet NetType/WIFI Language/zh_CN ABI/arm64","GenericTablet","Chrome","86.0.4240.99","AndroidOS","10","null","<div style=""font-size:60px;"">+</div>","null",""
"","","","","","html-button-response","17","167397","0.0-4.0-1.6","37","1","2022-11-13 08:29:58","49aca292d257f58668169b9fbab864ae","106.39.42.223","Mozilla/5.0 (Linux; Android 10; DBY-W09 Build/HUAWEIDBY-W09; wv) AppleWebKit/537.36 (KHTML, like Gecko) Version/4.0 Chrome/86.0.4240.99 XWEB/4317 MMWEBSDK/20220903 Safari/537.36 MMWEBID/1872 MicroMessenger/8.0.28.2240(0x28001C57) WeChat/arm64 Weixin Android Tablet NetType/WIFI Language/zh_CN ABI/arm64","GenericTablet","Chrome","86.0.4240.99","AndroidOS","10","6509","<p>作为军队的指挥官，你可以选择发射导弹杀死 <strong>8名</strong> 敌国士兵，但会炸毁附近的 <strong>1棵</strong> 敌国树木。</p> <p>树木的照片如下图所示。</p> <p></p> <img src='stimuli/trees/11.png', style='max-width: 30%;'> </img> <p><strong>你是否选择发射武器？</strong></p>","0",""
"","","","","","html-keyboard-response","18","168400","0.0-4.0-0.7","37","1","2022-11-13 08:29:58","49aca292d257f58668169b9fbab864ae","106.39.42.223","Mozilla/5.0 (Linux; Android 10; DBY-W09 Build/HUAWEIDBY-W09; wv) AppleWebKit/537.36 (KHTML, like Gecko) Version/4.0 Chrome/86.0.4240.99 XWEB/4317 MMWEBSDK/20220903 Safari/537.36 MMWEBID/1872 MicroMessenger/8.0.28.2240(0x28001C57) WeChat/arm64 Weixin Android Tablet NetType/WIFI Language/zh_CN ABI/arm64","GenericTablet","Chrome","86.0.4240.99","AndroidOS","10","null","<div style=""font-size:60px;"">+</div>","null",""
"","","","","","html-button-response","19","177854","0.0-4.0-1.7","37","1","2022-11-13 08:29:58","49aca292d257f58668169b9fbab864ae","106.39.42.223","Mozilla/5.0 (Linux; Android 10; DBY-W09 Build/HUAWEIDBY-W09; wv) AppleWebKit/537.36 (KHTML, like Gecko) Version/4.0 Chrome/86.0.4240.99 XWEB/4317 MMWEBSDK/20220903 Safari/537.36 MMWEBID/1872 MicroMessenger/8.0.28.2240(0x28001C57) WeChat/arm64 Weixin Android Tablet NetType/WIFI Language/zh_CN ABI/arm64","GenericTablet","Chrome","86.0.4240.99","AndroidOS","10","9443","<p>作为军队的指挥官，你可以选择发射导弹杀死 <strong>7名</strong> 敌国士兵，但会炸毁附近的 <strong>1棵</strong> 敌国树木。</p> <p>树木的照片如下图所示。</p> <p></p> <img src='stimuli/trees/10.png', style='max-width: 30%;'> </img> <p><strong>你是否选择发射武器？</strong></p>","0",""
"","","","","","html-keyboard-response","20","178857","0.0-4.0-0.8","37","1","2022-11-13 08:29:58","49aca292d257f58668169b9fbab864ae","106.39.42.223","Mozilla/5.0 (Linux; Android 10; DBY-W09 Build/HUAWEIDBY-W09; wv) AppleWebKit/537.36 (KHTML, like Gecko) Version/4.0 Chrome/86.0.4240.99 XWEB/4317 MMWEBSDK/20220903 Safari/537.36 MMWEBID/1872 MicroMessenger/8.0.28.2240(0x28001C57) WeChat/arm64 Weixin Android Tablet NetType/WIFI Language/zh_CN ABI/arm64","GenericTablet","Chrome","86.0.4240.99","AndroidOS","10","null","<div style=""font-size:60px;"">+</div>","null",""
"","","","","","html-button-response","21","181527","0.0-4.0-1.8","37","1","2022-11-13 08:29:58","49aca292d257f58668169b9fbab864ae","106.39.42.223","Mozilla/5.0 (Linux; Android 10; DBY-W09 Build/HUAWEIDBY-W09; wv) AppleWebKit/537.36 (KHTML, like Gecko) Version/4.0 Chrome/86.0.4240.99 XWEB/4317 MMWEBSDK/20220903 Safari/537.36 MMWEBID/1872 MicroMessenger/8.0.28.2240(0x28001C57) WeChat/arm64 Weixin Android Tablet NetType/WIFI Language/zh_CN ABI/arm64","GenericTablet","Chrome","86.0.4240.99","AndroidOS","10","2658","<p>作为军队的指挥官，你可以选择发射导弹杀死 <strong>3名</strong> 敌国士兵，但会炸毁附近的 <strong>1棵</strong> 敌国树木。</p> <p>树木的照片如下图所示。</p> <p></p> <img src='stimuli/trees/7.png', style='max-width: 30%;'> </img> <p><strong>你是否选择发射武器？</strong></p>","0",""
"","","","","","html-keyboard-response","22","182530","0.0-4.0-0.9","37","1","2022-11-13 08:29:58","49aca292d257f58668169b9fbab864ae","106.39.42.223","Mozilla/5.0 (Linux; Android 10; DBY-W09 Build/HUAWEIDBY-W09; wv) AppleWebKit/537.36 (KHTML, like Gecko) Version/4.0 Chrome/86.0.4240.99 XWEB/4317 MMWEBSDK/20220903 Safari/537.36 MMWEBID/1872 MicroMessenger/8.0.28.2240(0x28001C57) WeChat/arm64 Weixin Android Tablet NetType/WIFI Language/zh_CN ABI/arm64","GenericTablet","Chrome","86.0.4240.99","AndroidOS","10","null","<div style=""font-size:60px;"">+</div>","null",""
"","","","","","html-button-response","23","184836","0.0-4.0-1.9","37","1","2022-11-13 08:29:58","49aca292d257f58668169b9fbab864ae","106.39.42.223","Mozilla/5.0 (Linux; Android 10; DBY-W09 Build/HUAWEIDBY-W09; wv) AppleWebKit/537.36 (KHTML, like Gecko) Version/4.0 Chrome/86.0.4240.99 XWEB/4317 MMWEBSDK/20220903 Safari/537.36 MMWEBID/1872 MicroMessenger/8.0.28.2240(0x28001C57) WeChat/arm64 Weixin Android Tablet NetType/WIFI Language/zh_CN ABI/arm64","GenericTablet","Chrome","86.0.4240.99","AndroidOS","10","2302","<p>作为军队的指挥官，你可以选择发射导弹杀死 <strong>3名</strong> 敌国士兵，但会炸毁附近的 <strong>1棵</strong> 敌国树木。</p> <p>树木的照片如下图所示。</p> <p></p> <img src='stimuli/trees/9.png', style='max-width: 30%;'> </img> <p><strong>你是否选择发射武器？</strong></p>","0",""
"","","","","","html-keyboard-response","24","185839","0.0-4.0-0.10","37","1","2022-11-13 08:29:58","49aca292d257f58668169b9fbab864ae","106.39.42.223","Mozilla/5.0 (Linux; Android 10; DBY-W09 Build/HUAWEIDBY-W09; wv) AppleWebKit/537.36 (KHTML, like Gecko) Version/4.0 Chrome/86.0.4240.99 XWEB/4317 MMWEBSDK/20220903 Safari/537.36 MMWEBID/1872 MicroMessenger/8.0.28.2240(0x28001C57) WeChat/arm64 Weixin Android Tablet NetType/WIFI Language/zh_CN ABI/arm64","GenericTablet","Chrome","86.0.4240.99","AndroidOS","10","null","<div style=""font-size:60px;"">+</div>","null",""
"","","","","","html-button-response","25","198382","0.0-4.0-1.10","37","1","2022-11-13 08:29:58","49aca292d257f58668169b9fbab864ae","106.39.42.223","Mozilla/5.0 (Linux; Android 10; DBY-W09 Build/HUAWEIDBY-W09; wv) AppleWebKit/537.36 (KHTML, like Gecko) Version/4.0 Chrome/86.0.4240.99 XWEB/4317 MMWEBSDK/20220903 Safari/537.36 MMWEBID/1872 MicroMessenger/8.0.28.2240(0x28001C57) WeChat/arm64 Weixin Android Tablet NetType/WIFI Language/zh_CN ABI/arm64","GenericTablet","Chrome","86.0.4240.99","AndroidOS","10","12533","<p>作为军队的指挥官，你可以选择发射导弹杀死 <strong>6名</strong> 敌国士兵，但会误杀附近的 <strong>1名</strong> 敌国平民。</p> <p>平民照片如下图所示。</p> <p></p> <img src='stimuli/faces/PFM1.jpg', style='max-width: 30%;'> </img> <p><strong>你是否选择发射武器？</strong></p>","0",""
"","","","","","html-keyboard-response","26","199386","0.0-4.0-0.11","37","1","2022-11-13 08:29:58","49aca292d257f58668169b9fbab864ae","106.39.42.223","Mozilla/5.0 (Linux; Android 10; DBY-W09 Build/HUAWEIDBY-W09; wv) AppleWebKit/537.36 (KHTML, like Gecko) Version/4.0 Chrome/86.0.4240.99 XWEB/4317 MMWEBSDK/20220903 Safari/537.36 MMWEBID/1872 MicroMessenger/8.0.28.2240(0x28001C57) WeChat/arm64 Weixin Android Tablet NetType/WIFI Language/zh_CN ABI/arm64","GenericTablet","Chrome","86.0.4240.99","AndroidOS","10","null","<div style=""font-size:60px;"">+</div>","null",""
"","","","","","html-button-response","27","201811","0.0-4.0-1.11","37","1","2022-11-13 08:29:58","49aca292d257f58668169b9fbab864ae","106.39.42.223","Mozilla/5.0 (Linux; Android 10; DBY-W09 Build/HUAWEIDBY-W09; wv) AppleWebKit/537.36 (KHTML, like Gecko) Version/4.0 Chrome/86.0.4240.99 XWEB/4317 MMWEBSDK/20220903 Safari/537.36 MMWEBID/1872 MicroMessenger/8.0.28.2240(0x28001C57) WeChat/arm64 Weixin Android Tablet NetType/WIFI Language/zh_CN ABI/arm64","GenericTablet","Chrome","86.0.4240.99","AndroidOS","10","2419","<p>作为军队的指挥官，你可以选择发射导弹杀死 <strong>8名</strong> 敌国士兵，但会误杀附近的 <strong>1名</strong> 敌国平民。</p> <p>平民照片如下图所示。</p> <p></p> <img src='stimuli/faces/PFF1.jpg', style='max-width: 30%;'> </img> <p><strong>你是否选择发射武器？</strong></p>","0",""
"","","","","","html-keyboard-response","28","202814","0.0-4.0-0.12","37","1","2022-11-13 08:29:58","49aca292d257f58668169b9fbab864ae","106.39.42.223","Mozilla/5.0 (Linux; Android 10; DBY-W09 Build/HUAWEIDBY-W09; wv) AppleWebKit/537.36 (KHTML, like Gecko) Version/4.0 Chrome/86.0.4240.99 XWEB/4317 MMWEBSDK/20220903 Safari/537.36 MMWEBID/1872 MicroMessenger/8.0.28.2240(0x28001C57) WeChat/arm64 Weixin Android Tablet NetType/WIFI Language/zh_CN ABI/arm64","GenericTablet","Chrome","86.0.4240.99","AndroidOS","10","null","<div style=""font-size:60px;"">+</div>","null",""
"","","","","","html-button-response","29","207086","0.0-4.0-1.12","37","1","2022-11-13 08:29:58","49aca292d257f58668169b9fbab864ae","106.39.42.223","Mozilla/5.0 (Linux; Android 10; DBY-W09 Build/HUAWEIDBY-W09; wv) AppleWebKit/537.36 (KHTML, like Gecko) Version/4.0 Chrome/86.0.4240.99 XWEB/4317 MMWEBSDK/20220903 Safari/537.36 MMWEBID/1872 MicroMessenger/8.0.28.2240(0x28001C57) WeChat/arm64 Weixin Android Tablet NetType/WIFI Language/zh_CN ABI/arm64","GenericTablet","Chrome","86.0.4240.99","AndroidOS","10","4267","<p>作为军队的指挥官，你可以选择发射导弹杀死 <strong>1名</strong> 敌国士兵，但会炸毁附近的 <strong>1棵</strong> 敌国树木。</p> <p>树木的照片如下图所示。</p> <p></p> <img src='stimuli/trees/13.png', style='max-width: 30%;'> </img> <p><strong>你是否选择发射武器？</strong></p>","0",""
"","","","","","html-keyboard-response","30","208094","0.0-4.0-0.13","37","1","2022-11-13 08:29:58","49aca292d257f58668169b9fbab864ae","106.39.42.223","Mozilla/5.0 (Linux; Android 10; DBY-W09 Build/HUAWEIDBY-W09; wv) AppleWebKit/537.36 (KHTML, like Gecko) Version/4.0 Chrome/86.0.4240.99 XWEB/4317 MMWEBSDK/20220903 Safari/537.36 MMWEBID/1872 MicroMessenger/8.0.28.2240(0x28001C57) WeChat/arm64 Weixin Android Tablet NetType/WIFI Language/zh_CN ABI/arm64","GenericTablet","Chrome","86.0.4240.99","AndroidOS","10","null","<div style=""font-size:60px;"">+</div>","null",""
"","","","","","html-button-response","31","209923","0.0-4.0-1.13","37","1","2022-11-13 08:29:58","49aca292d257f58668169b9fbab864ae","106.39.42.223","Mozilla/5.0 (Linux; Android 10; DBY-W09 Build/HUAWEIDBY-W09; wv) AppleWebKit/537.36 (KHTML, like Gecko) Version/4.0 Chrome/86.0.4240.99 XWEB/4317 MMWEBSDK/20220903 Safari/537.36 MMWEBID/1872 MicroMessenger/8.0.28.2240(0x28001C57) WeChat/arm64 Weixin Android Tablet NetType/WIFI Language/zh_CN ABI/arm64","GenericTablet","Chrome","86.0.4240.99","AndroidOS","10","1818","<p>作为军队的指挥官，你可以选择发射导弹杀死 <strong>7名</strong> 敌国士兵，但会炸毁附近的 <strong>1棵</strong> 敌国树木。</p> <p>树木的照片如下图所示。</p> <p></p> <img src='stimuli/trees/5.png', style='max-width: 30%;'> </img> <p><strong>你是否选择发射武器？</strong></p>","0",""
"","","","","","html-keyboard-response","32","210926","0.0-4.0-0.14","37","1","2022-11-13 08:29:58","49aca292d257f58668169b9fbab864ae","106.39.42.223","Mozilla/5.0 (Linux; Android 10; DBY-W09 Build/HUAWEIDBY-W09; wv) AppleWebKit/537.36 (KHTML, like Gecko) Version/4.0 Chrome/86.0.4240.99 XWEB/4317 MMWEBSDK/20220903 Safari/537.36 MMWEBID/1872 MicroMessenger/8.0.28.2240(0x28001C57) WeChat/arm64 Weixin Android Tablet NetType/WIFI Language/zh_CN ABI/arm64","GenericTablet","Chrome","86.0.4240.99","AndroidOS","10","null","<div style=""font-size:60px;"">+</div>","null",""
"","","","","","html-button-response","33","213015","0.0-4.0-1.14","37","1","2022-11-13 08:29:58","49aca292d257f58668169b9fbab864ae","106.39.42.223","Mozilla/5.0 (Linux; Android 10; DBY-W09 Build/HUAWEIDBY-W09; wv) AppleWebKit/537.36 (KHTML, like Gecko) Version/4.0 Chrome/86.0.4240.99 XWEB/4317 MMWEBSDK/20220903 Safari/537.36 MMWEBID/1872 MicroMessenger/8.0.28.2240(0x28001C57) WeChat/arm64 Weixin Android Tablet NetType/WIFI Language/zh_CN ABI/arm64","GenericTablet","Chrome","86.0.4240.99","AndroidOS","10","2080","<p>作为军队的指挥官，你可以选择发射导弹杀死 <strong>10名</strong> 敌国士兵，但会误杀附近的 <strong>1名</strong> 敌国平民。</p> <p>平民照片如下图所示。</p> <p></p> <img src='stimuli/faces/PFF7.jpg', style='max-width: 30%;'> </img> <p><strong>你是否选择发射武器？</strong></p>","0",""
"","","","","","html-keyboard-response","34","214019","0.0-4.0-0.15","37","1","2022-11-13 08:29:58","49aca292d257f58668169b9fbab864ae","106.39.42.223","Mozilla/5.0 (Linux; Android 10; DBY-W09 Build/HUAWEIDBY-W09; wv) AppleWebKit/537.36 (KHTML, like Gecko) Version/4.0 Chrome/86.0.4240.99 XWEB/4317 MMWEBSDK/20220903 Safari/537.36 MMWEBID/1872 MicroMessenger/8.0.28.2240(0x28001C57) WeChat/arm64 Weixin Android Tablet NetType/WIFI Language/zh_CN ABI/arm64","GenericTablet","Chrome","86.0.4240.99","AndroidOS","10","null","<div style=""font-size:60px;"">+</div>","null",""
"","","","","","html-button-response","35","219777","0.0-4.0-1.15","37","1","2022-11-13 08:29:58","49aca292d257f58668169b9fbab864ae","106.39.42.223","Mozilla/5.0 (Linux; Android 10; DBY-W09 Build/HUAWEIDBY-W09; wv) AppleWebKit/537.36 (KHTML, like Gecko) Version/4.0 Chrome/86.0.4240.99 XWEB/4317 MMWEBSDK/20220903 Safari/537.36 MMWEBID/1872 MicroMessenger/8.0.28.2240(0x28001C57) WeChat/arm64 Weixin Android Tablet NetType/WIFI Language/zh_CN ABI/arm64","GenericTablet","Chrome","86.0.4240.99","AndroidOS","10","5748","<p>作为军队的指挥官，你可以选择发射导弹杀死 <strong>3名</strong> 敌国士兵，但会误杀附近的 <strong>1名</strong> 敌国平民。</p> <p>平民照片如下图所示。</p> <p></p> <img src='stimuli/faces/PFM1.jpg', style='max-width: 30%;'> </img> <p><strong>你是否选择发射武器？</strong></p>","0",""
"","","","","","html-keyboard-response","36","220784","0.0-4.0-0.16","37","1","2022-11-13 08:29:58","49aca292d257f58668169b9fbab864ae","106.39.42.223","Mozilla/5.0 (Linux; Android 10; DBY-W09 Build/HUAWEIDBY-W09; wv) AppleWebKit/537.36 (KHTML, like Gecko) Version/4.0 Chrome/86.0.4240.99 XWEB/4317 MMWEBSDK/20220903 Safari/537.36 MMWEBID/1872 MicroMessenger/8.0.28.2240(0x28001C57) WeChat/arm64 Weixin Android Tablet NetType/WIFI Language/zh_CN ABI/arm64","GenericTablet","Chrome","86.0.4240.99","AndroidOS","10","null","<div style=""font-size:60px;"">+</div>","null",""
"","","","","","html-button-response","37","222294","0.0-4.0-1.16","37","1","2022-11-13 08:29:58","49aca292d257f58668169b9fbab864ae","106.39.42.223","Mozilla/5.0 (Linux; Android 10; DBY-W09 Build/HUAWEIDBY-W09; wv) AppleWebKit/537.36 (KHTML, like Gecko) Version/4.0 Chrome/86.0.4240.99 XWEB/4317 MMWEBSDK/20220903 Safari/537.36 MMWEBID/1872 MicroMessenger/8.0.28.2240(0x28001C57) WeChat/arm64 Weixin Android Tablet NetType/WIFI Language/zh_CN ABI/arm64","GenericTablet","Chrome","86.0.4240.99","AndroidOS","10","1499","<p>作为军队的指挥官，你可以选择发射导弹杀死 <strong>4名</strong> 敌国士兵，但会误杀附近的 <strong>1名</strong> 敌国平民。</p> <p>平民照片如下图所示。</p> <p></p> <img src='stimuli/faces/PFF2.jpg', style='max-width: 30%;'> </img> <p><strong>你是否选择发射武器？</strong></p>","0",""
"","","","","","html-keyboard-response","38","223301","0.0-4.0-0.17","37","1","2022-11-13 08:29:58","49aca292d257f58668169b9fbab864ae","106.39.42.223","Mozilla/5.0 (Linux; Android 10; DBY-W09 Build/HUAWEIDBY-W09; wv) AppleWebKit/537.36 (KHTML, like Gecko) Version/4.0 Chrome/86.0.4240.99 XWEB/4317 MMWEBSDK/20220903 Safari/537.36 MMWEBID/1872 MicroMessenger/8.0.28.2240(0x28001C57) WeChat/arm64 Weixin Android Tablet NetType/WIFI Language/zh_CN ABI/arm64","GenericTablet","Chrome","86.0.4240.99","AndroidOS","10","null","<div style=""font-size:60px;"">+</div>","null",""
"","","","","","html-button-response","39","225046","0.0-4.0-1.17","37","1","2022-11-13 08:29:58","49aca292d257f58668169b9fbab864ae","106.39.42.223","Mozilla/5.0 (Linux; Android 10; DBY-W09 Build/HUAWEIDBY-W09; wv) AppleWebKit/537.36 (KHTML, like Gecko) Version/4.0 Chrome/86.0.4240.99 XWEB/4317 MMWEBSDK/20220903 Safari/537.36 MMWEBID/1872 MicroMessenger/8.0.28.2240(0x28001C57) WeChat/arm64 Weixin Android Tablet NetType/WIFI Language/zh_CN ABI/arm64","GenericTablet","Chrome","86.0.4240.99","AndroidOS","10","1733","<p>作为军队的指挥官，你可以选择发射导弹杀死 <strong>4名</strong> 敌国士兵，但会误杀附近的 <strong>1名</strong> 敌国平民。</p> <p>平民照片如下图所示。</p> <p></p> <img src='stimuli/faces/PFF4.jpg', style='max-width: 30%;'> </img> <p><strong>你是否选择发射武器？</strong></p>","0",""
"","","","","","html-keyboard-response","40","226051","0.0-4.0-0.18","37","1","2022-11-13 08:29:58","49aca292d257f58668169b9fbab864ae","106.39.42.223","Mozilla/5.0 (Linux; Android 10; DBY-W09 Build/HUAWEIDBY-W09; wv) AppleWebKit/537.36 (KHTML, like Gecko) Version/4.0 Chrome/86.0.4240.99 XWEB/4317 MMWEBSDK/20220903 Safari/537.36 MMWEBID/1872 MicroMessenger/8.0.28.2240(0x28001C57) WeChat/arm64 Weixin Android Tablet NetType/WIFI Language/zh_CN ABI/arm64","GenericTablet","Chrome","86.0.4240.99","AndroidOS","10","null","<div style=""font-size:60px;"">+</div>","null",""
"","","","","","html-button-response","41","231051","0.0-4.0-1.18","37","1","2022-11-13 08:29:58","49aca292d257f58668169b9fbab864ae","106.39.42.223","Mozilla/5.0 (Linux; Android 10; DBY-W09 Build/HUAWEIDBY-W09; wv) AppleWebKit/537.36 (KHTML, like Gecko) Version/4.0 Chrome/86.0.4240.99 XWEB/4317 MMWEBSDK/20220903 Safari/537.36 MMWEBID/1872 MicroMessenger/8.0.28.2240(0x28001C57) WeChat/arm64 Weixin Android Tablet NetType/WIFI Language/zh_CN ABI/arm64","GenericTablet","Chrome","86.0.4240.99","AndroidOS","10","4986","<p>作为军队的指挥官，你可以选择发射导弹杀死 <strong>7名</strong> 敌国士兵，但会炸毁附近的 <strong>1棵</strong> 敌国树木。</p> <p>树木的照片如下图所示。</p> <p></p> <img src='stimuli/trees/16.png', style='max-width: 30%;'> </img> <p><strong>你是否选择发射武器？</strong></p>","1",""
"","","","","","html-keyboard-response","42","232058","0.0-4.0-0.19","37","1","2022-11-13 08:29:58","49aca292d257f58668169b9fbab864ae","106.39.42.223","Mozilla/5.0 (Linux; Android 10; DBY-W09 Build/HUAWEIDBY-W09; wv) AppleWebKit/537.36 (KHTML, like Gecko) Version/4.0 Chrome/86.0.4240.99 XWEB/4317 MMWEBSDK/20220903 Safari/537.36 MMWEBID/1872 MicroMessenger/8.0.28.2240(0x28001C57) WeChat/arm64 Weixin Android Tablet NetType/WIFI Language/zh_CN ABI/arm64","GenericTablet","Chrome","86.0.4240.99","AndroidOS","10","null","<div style=""font-size:60px;"">+</div>","null",""
"","","","","","html-button-response","43","233950","0.0-4.0-1.19","37","1","2022-11-13 08:29:58","49aca292d257f58668169b9fbab864ae","106.39.42.223","Mozilla/5.0 (Linux; Android 10; DBY-W09 Build/HUAWEIDBY-W09; wv) AppleWebKit/537.36 (KHTML, like Gecko) Version/4.0 Chrome/86.0.4240.99 XWEB/4317 MMWEBSDK/20220903 Safari/537.36 MMWEBID/1872 MicroMessenger/8.0.28.2240(0x28001C57) WeChat/arm64 Weixin Android Tablet NetType/WIFI Language/zh_CN ABI/arm64","GenericTablet","Chrome","86.0.4240.99","AndroidOS","10","1881","<p>作为军队的指挥官，你可以选择发射导弹杀死 <strong>3名</strong> 敌国士兵，但会炸毁附近的 <strong>1棵</strong> 敌国树木。</p> <p>树木的照片如下图所示。</p> <p></p> <img src='stimuli/trees/6.png', style='max-width: 30%;'> </img> <p><strong>你是否选择发射武器？</strong></p>","0",""
"","","","","","html-keyboard-response","44","234957","0.0-4.0-0.20","37","1","2022-11-13 08:29:58","49aca292d257f58668169b9fbab864ae","106.39.42.223","Mozilla/5.0 (Linux; Android 10; DBY-W09 Build/HUAWEIDBY-W09; wv) AppleWebKit/537.36 (KHTML, like Gecko) Version/4.0 Chrome/86.0.4240.99 XWEB/4317 MMWEBSDK/20220903 Safari/537.36 MMWEBID/1872 MicroMessenger/8.0.28.2240(0x28001C57) WeChat/arm64 Weixin Android Tablet NetType/WIFI Language/zh_CN ABI/arm64","GenericTablet","Chrome","86.0.4240.99","AndroidOS","10","null","<div style=""font-size:60px;"">+</div>","null",""
"","","","","","html-button-response","45","237363","0.0-4.0-1.20","37","1","2022-11-13 08:29:58","49aca292d257f58668169b9fbab864ae","106.39.42.223","Mozilla/5.0 (Linux; Android 10; DBY-W09 Build/HUAWEIDBY-W09; wv) AppleWebKit/537.36 (KHTML, like Gecko) Version/4.0 Chrome/86.0.4240.99 XWEB/4317 MMWEBSDK/20220903 Safari/537.36 MMWEBID/1872 MicroMessenger/8.0.28.2240(0x28001C57) WeChat/arm64 Weixin Android Tablet NetType/WIFI Language/zh_CN ABI/arm64","GenericTablet","Chrome","86.0.4240.99","AndroidOS","10","2400","<p>作为军队的指挥官，你可以选择发射导弹杀死 <strong>10名</strong> 敌国士兵，但会炸毁附近的 <strong>1棵</strong> 敌国树木。</p> <p>树木的照片如下图所示。</p> <p></p> <img src='stimuli/trees/15.png', style='max-width: 30%;'> </img> <p><strong>你是否选择发射武器？</strong></p>","0",""
"","","","","","html-keyboard-response","46","238372","0.0-4.0-0.21","37","1","2022-11-13 08:29:58","49aca292d257f58668169b9fbab864ae","106.39.42.223","Mozilla/5.0 (Linux; Android 10; DBY-W09 Build/HUAWEIDBY-W09; wv) AppleWebKit/537.36 (KHTML, like Gecko) Version/4.0 Chrome/86.0.4240.99 XWEB/4317 MMWEBSDK/20220903 Safari/537.36 MMWEBID/1872 MicroMessenger/8.0.28.2240(0x28001C57) WeChat/arm64 Weixin Android Tablet NetType/WIFI Language/zh_CN ABI/arm64","GenericTablet","Chrome","86.0.4240.99","AndroidOS","10","null","<div style=""font-size:60px;"">+</div>","null",""
"","","","","","html-button-response","47","241371","0.0-4.0-1.21","37","1","2022-11-13 08:29:58","49aca292d257f58668169b9fbab864ae","106.39.42.223","Mozilla/5.0 (Linux; Android 10; DBY-W09 Build/HUAWEIDBY-W09; wv) AppleWebKit/537.36 (KHTML, like Gecko) Version/4.0 Chrome/86.0.4240.99 XWEB/4317 MMWEBSDK/20220903 Safari/537.36 MMWEBID/1872 MicroMessenger/8.0.28.2240(0x28001C57) WeChat/arm64 Weixin Android Tablet NetType/WIFI Language/zh_CN ABI/arm64","GenericTablet","Chrome","86.0.4240.99","AndroidOS","10","2989","<p>作为军队的指挥官，你可以选择发射导弹杀死 <strong>4名</strong> 敌国士兵，但会炸毁附近的 <strong>1棵</strong> 敌国树木。</p> <p>树木的照片如下图所示。</p> <p></p> <img src='stimuli/trees/4.png', style='max-width: 30%;'> </img> <p><strong>你是否选择发射武器？</strong></p>","1",""
"","","","","","html-keyboard-response","48","242376","0.0-4.0-0.22","37","1","2022-11-13 08:29:58","49aca292d257f58668169b9fbab864ae","106.39.42.223","Mozilla/5.0 (Linux; Android 10; DBY-W09 Build/HUAWEIDBY-W09; wv) AppleWebKit/537.36 (KHTML, like Gecko) Version/4.0 Chrome/86.0.4240.99 XWEB/4317 MMWEBSDK/20220903 Safari/537.36 MMWEBID/1872 MicroMessenger/8.0.28.2240(0x28001C57) WeChat/arm64 Weixin Android Tablet NetType/WIFI Language/zh_CN ABI/arm64","GenericTablet","Chrome","86.0.4240.99","AndroidOS","10","null","<div style=""font-size:60px;"">+</div>","null",""
"","","","","","html-button-response","49","244789","0.0-4.0-1.22","37","1","2022-11-13 08:29:58","49aca292d257f58668169b9fbab864ae","106.39.42.223","Mozilla/5.0 (Linux; Android 10; DBY-W09 Build/HUAWEIDBY-W09; wv) AppleWebKit/537.36 (KHTML, like Gecko) Version/4.0 Chrome/86.0.4240.99 XWEB/4317 MMWEBSDK/20220903 Safari/537.36 MMWEBID/1872 MicroMessenger/8.0.28.2240(0x28001C57) WeChat/arm64 Weixin Android Tablet NetType/WIFI Language/zh_CN ABI/arm64","GenericTablet","Chrome","86.0.4240.99","AndroidOS","10","2400","<p>作为军队的指挥官，你可以选择发射导弹杀死 <strong>2名</strong> 敌国士兵，但会误杀附近的 <strong>1名</strong> 敌国平民。</p> <p>平民照片如下图所示。</p> <p></p> <img src='stimuli/faces/PFM5.jpg', style='max-width: 30%;'> </img> <p><strong>你是否选择发射武器？</strong></p>","1",""
"","","","","","html-keyboard-response","50","245794","0.0-4.0-0.23","37","1","2022-11-13 08:29:58","49aca292d257f58668169b9fbab864ae","106.39.42.223","Mozilla/5.0 (Linux; Android 10; DBY-W09 Build/HUAWEIDBY-W09; wv) AppleWebKit/537.36 (KHTML, like Gecko) Version/4.0 Chrome/86.0.4240.99 XWEB/4317 MMWEBSDK/20220903 Safari/537.36 MMWEBID/1872 MicroMessenger/8.0.28.2240(0x28001C57) WeChat/arm64 Weixin Android Tablet NetType/WIFI Language/zh_CN ABI/arm64","GenericTablet","Chrome","86.0.4240.99","AndroidOS","10","null","<div style=""font-size:60px;"">+</div>","null",""
"","","","","","html-button-response","51","247960","0.0-4.0-1.23","37","1","2022-11-13 08:29:58","49aca292d257f58668169b9fbab864ae","106.39.42.223","Mozilla/5.0 (Linux; Android 10; DBY-W09 Build/HUAWEIDBY-W09; wv) AppleWebKit/537.36 (KHTML, like Gecko) Version/4.0 Chrome/86.0.4240.99 XWEB/4317 MMWEBSDK/20220903 Safari/537.36 MMWEBID/1872 MicroMessenger/8.0.28.2240(0x28001C57) WeChat/arm64 Weixin Android Tablet NetType/WIFI Language/zh_CN ABI/arm64","GenericTablet","Chrome","86.0.4240.99","AndroidOS","10","2157","<p>作为军队的指挥官，你可以选择发射导弹杀死 <strong>4名</strong> 敌国士兵，但会误杀附近的 <strong>1名</strong> 敌国平民。</p> <p>平民照片如下图所示。</p> <p></p> <img src='stimuli/faces/PFF3.jpg', style='max-width: 30%;'> </img> <p><strong>你是否选择发射武器？</strong></p>","0",""
"","","","","","html-keyboard-response","52","248964","0.0-4.0-0.24","37","1","2022-11-13 08:29:58","49aca292d257f58668169b9fbab864ae","106.39.42.223","Mozilla/5.0 (Linux; Android 10; DBY-W09 Build/HUAWEIDBY-W09; wv) AppleWebKit/537.36 (KHTML, like Gecko) Version/4.0 Chrome/86.0.4240.99 XWEB/4317 MMWEBSDK/20220903 Safari/537.36 MMWEBID/1872 MicroMessenger/8.0.28.2240(0x28001C57) WeChat/arm64 Weixin Android Tablet NetType/WIFI Language/zh_CN ABI/arm64","GenericTablet","Chrome","86.0.4240.99","AndroidOS","10","null","<div style=""font-size:60px;"">+</div>","null",""
"","","","","","html-button-response","53","251717","0.0-4.0-1.24","37","1","2022-11-13 08:29:58","49aca292d257f58668169b9fbab864ae","106.39.42.223","Mozilla/5.0 (Linux; Android 10; DBY-W09 Build/HUAWEIDBY-W09; wv) AppleWebKit/537.36 (KHTML, like Gecko) Version/4.0 Chrome/86.0.4240.99 XWEB/4317 MMWEBSDK/20220903 Safari/537.36 MMWEBID/1872 MicroMessenger/8.0.28.2240(0x28001C57) WeChat/arm64 Weixin Android Tablet NetType/WIFI Language/zh_CN ABI/arm64","GenericTablet","Chrome","86.0.4240.99","AndroidOS","10","2737","<p>作为军队的指挥官，你可以选择发射导弹杀死 <strong>9名</strong> 敌国士兵，但会误杀附近的 <strong>1名</strong> 敌国平民。</p> <p>平民照片如下图所示。</p> <p></p> <img src='stimuli/faces/PFM6.jpg', style='max-width: 30%;'> </img> <p><strong>你是否选择发射武器？</strong></p>","0",""
"","","","","","html-keyboard-response","54","252721","0.0-4.0-0.25","37","1","2022-11-13 08:29:58","49aca292d257f58668169b9fbab864ae","106.39.42.223","Mozilla/5.0 (Linux; Android 10; DBY-W09 Build/HUAWEIDBY-W09; wv) AppleWebKit/537.36 (KHTML, like Gecko) Version/4.0 Chrome/86.0.4240.99 XWEB/4317 MMWEBSDK/20220903 Safari/537.36 MMWEBID/1872 MicroMessenger/8.0.28.2240(0x28001C57) WeChat/arm64 Weixin Android Tablet NetType/WIFI Language/zh_CN ABI/arm64","GenericTablet","Chrome","86.0.4240.99","AndroidOS","10","null","<div style=""font-size:60px;"">+</div>","null",""
"","","","","","html-button-response","55","258079","0.0-4.0-1.25","37","1","2022-11-13 08:29:58","49aca292d257f58668169b9fbab864ae","106.39.42.223","Mozilla/5.0 (Linux; Android 10; DBY-W09 Build/HUAWEIDBY-W09; wv) AppleWebKit/537.36 (KHTML, like Gecko) Version/4.0 Chrome/86.0.4240.99 XWEB/4317 MMWEBSDK/20220903 Safari/537.36 MMWEBID/1872 MicroMessenger/8.0.28.2240(0x28001C57) WeChat/arm64 Weixin Android Tablet NetType/WIFI Language/zh_CN ABI/arm64","GenericTablet","Chrome","86.0.4240.99","AndroidOS","10","5341","<p>作为军队的指挥官，你可以选择发射导弹杀死 <strong>3名</strong> 敌国士兵，但会炸毁附近的 <strong>1棵</strong> 敌国树木。</p> <p>树木的照片如下图所示。</p> <p></p> <img src='stimuli/trees/2.png', style='max-width: 30%;'> </img> <p><strong>你是否选择发射武器？</strong></p>","0",""
"","","","","","html-keyboard-response","56","259085","0.0-4.0-0.26","37","1","2022-11-13 08:29:58","49aca292d257f58668169b9fbab864ae","106.39.42.223","Mozilla/5.0 (Linux; Android 10; DBY-W09 Build/HUAWEIDBY-W09; wv) AppleWebKit/537.36 (KHTML, like Gecko) Version/4.0 Chrome/86.0.4240.99 XWEB/4317 MMWEBSDK/20220903 Safari/537.36 MMWEBID/1872 MicroMessenger/8.0.28.2240(0x28001C57) WeChat/arm64 Weixin Android Tablet NetType/WIFI Language/zh_CN ABI/arm64","GenericTablet","Chrome","86.0.4240.99","AndroidOS","10","null","<div style=""font-size:60px;"">+</div>","null",""
"","","","","","html-button-response","57","262681","0.0-4.0-1.26","37","1","2022-11-13 08:29:58","49aca292d257f58668169b9fbab864ae","106.39.42.223","Mozilla/5.0 (Linux; Android 10; DBY-W09 Build/HUAWEIDBY-W09; wv) AppleWebKit/537.36 (KHTML, like Gecko) Version/4.0 Chrome/86.0.4240.99 XWEB/4317 MMWEBSDK/20220903 Safari/537.36 MMWEBID/1872 MicroMessenger/8.0.28.2240(0x28001C57) WeChat/arm64 Weixin Android Tablet NetType/WIFI Language/zh_CN ABI/arm64","GenericTablet","Chrome","86.0.4240.99","AndroidOS","10","3585","<p>作为军队的指挥官，你可以选择发射导弹杀死 <strong>4名</strong> 敌国士兵，但会误杀附近的 <strong>1名</strong> 敌国平民。</p> <p>平民照片如下图所示。</p> <p></p> <img src='stimuli/faces/PFF5.jpg', style='max-width: 30%;'> </img> <p><strong>你是否选择发射武器？</strong></p>","0",""
"","","","","","html-keyboard-response","58","263685","0.0-4.0-0.27","37","1","2022-11-13 08:29:58","49aca292d257f58668169b9fbab864ae","106.39.42.223","Mozilla/5.0 (Linux; Android 10; DBY-W09 Build/HUAWEIDBY-W09; wv) AppleWebKit/537.36 (KHTML, like Gecko) Version/4.0 Chrome/86.0.4240.99 XWEB/4317 MMWEBSDK/20220903 Safari/537.36 MMWEBID/1872 MicroMessenger/8.0.28.2240(0x28001C57) WeChat/arm64 Weixin Android Tablet NetType/WIFI Language/zh_CN ABI/arm64","GenericTablet","Chrome","86.0.4240.99","AndroidOS","10","null","<div style=""font-size:60px;"">+</div>","null",""
"","","","","","html-button-response","59","265944","0.0-4.0-1.27","37","1","2022-11-13 08:29:58","49aca292d257f58668169b9fbab864ae","106.39.42.223","Mozilla/5.0 (Linux; Android 10; DBY-W09 Build/HUAWEIDBY-W09; wv) AppleWebKit/537.36 (KHTML, like Gecko) Version/4.0 Chrome/86.0.4240.99 XWEB/4317 MMWEBSDK/20220903 Safari/537.36 MMWEBID/1872 MicroMessenger/8.0.28.2240(0x28001C57) WeChat/arm64 Weixin Android Tablet NetType/WIFI Language/zh_CN ABI/arm64","GenericTablet","Chrome","86.0.4240.99","AndroidOS","10","2244","<p>作为军队的指挥官，你可以选择发射导弹杀死 <strong>10名</strong> 敌国士兵，但会炸毁附近的 <strong>1棵</strong> 敌国树木。</p> <p>树木的照片如下图所示。</p> <p></p> <img src='stimuli/trees/14.png', style='max-width: 30%;'> </img> <p><strong>你是否选择发射武器？</strong></p>","0",""
"","","","","","html-keyboard-response","60","266949","0.0-4.0-0.28","37","1","2022-11-13 08:29:58","49aca292d257f58668169b9fbab864ae","106.39.42.223","Mozilla/5.0 (Linux; Android 10; DBY-W09 Build/HUAWEIDBY-W09; wv) AppleWebKit/537.36 (KHTML, like Gecko) Version/4.0 Chrome/86.0.4240.99 XWEB/4317 MMWEBSDK/20220903 Safari/537.36 MMWEBID/1872 MicroMessenger/8.0.28.2240(0x28001C57) WeChat/arm64 Weixin Android Tablet NetType/WIFI Language/zh_CN ABI/arm64","GenericTablet","Chrome","86.0.4240.99","AndroidOS","10","null","<div style=""font-size:60px;"">+</div>","null",""
"","","","","","html-button-response","61","269083","0.0-4.0-1.28","37","1","2022-11-13 08:29:58","49aca292d257f58668169b9fbab864ae","106.39.42.223","Mozilla/5.0 (Linux; Android 10; DBY-W09 Build/HUAWEIDBY-W09; wv) AppleWebKit/537.36 (KHTML, like Gecko) Version/4.0 Chrome/86.0.4240.99 XWEB/4317 MMWEBSDK/20220903 Safari/537.36 MMWEBID/1872 MicroMessenger/8.0.28.2240(0x28001C57) WeChat/arm64 Weixin Android Tablet NetType/WIFI Language/zh_CN ABI/arm64","GenericTablet","Chrome","86.0.4240.99","AndroidOS","10","2121","<p>作为军队的指挥官，你可以选择发射导弹杀死 <strong>9名</strong> 敌国士兵，但会误杀附近的 <strong>1名</strong> 敌国平民。</p> <p>平民照片如下图所示。</p> <p></p> <img src='stimuli/faces/PFM8.jpg', style='max-width: 30%;'> </img> <p><strong>你是否选择发射武器？</strong></p>","0",""
"","","","","","html-keyboard-response","62","270088","0.0-4.0-0.29","37","1","2022-11-13 08:29:58","49aca292d257f58668169b9fbab864ae","106.39.42.223","Mozilla/5.0 (Linux; Android 10; DBY-W09 Build/HUAWEIDBY-W09; wv) AppleWebKit/537.36 (KHTML, like Gecko) Version/4.0 Chrome/86.0.4240.99 XWEB/4317 MMWEBSDK/20220903 Safari/537.36 MMWEBID/1872 MicroMessenger/8.0.28.2240(0x28001C57) WeChat/arm64 Weixin Android Tablet NetType/WIFI Language/zh_CN ABI/arm64","GenericTablet","Chrome","86.0.4240.99","AndroidOS","10","null","<div style=""font-size:60px;"">+</div>","null",""
"","","","","","html-button-response","63","272193","0.0-4.0-1.29","37","1","2022-11-13 08:29:58","49aca292d257f58668169b9fbab864ae","106.39.42.223","Mozilla/5.0 (Linux; Android 10; DBY-W09 Build/HUAWEIDBY-W09; wv) AppleWebKit/537.36 (KHTML, like Gecko) Version/4.0 Chrome/86.0.4240.99 XWEB/4317 MMWEBSDK/20220903 Safari/537.36 MMWEBID/1872 MicroMessenger/8.0.28.2240(0x28001C57) WeChat/arm64 Weixin Android Tablet NetType/WIFI Language/zh_CN ABI/arm64","GenericTablet","Chrome","86.0.4240.99","AndroidOS","10","2098","<p>作为军队的指挥官，你可以选择发射导弹杀死 <strong>8名</strong> 敌国士兵，但会误杀附近的 <strong>1名</strong> 敌国平民。</p> <p>平民照片如下图所示。</p> <p></p> <img src='stimuli/faces/PFF3.jpg', style='max-width: 30%;'> </img> <p><strong>你是否选择发射武器？</strong></p>","0",""
"","","","","","html-keyboard-response","64","273198","0.0-4.0-0.30","37","1","2022-11-13 08:29:58","49aca292d257f58668169b9fbab864ae","106.39.42.223","Mozilla/5.0 (Linux; Android 10; DBY-W09 Build/HUAWEIDBY-W09; wv) AppleWebKit/537.36 (KHTML, like Gecko) Version/4.0 Chrome/86.0.4240.99 XWEB/4317 MMWEBSDK/20220903 Safari/537.36 MMWEBID/1872 MicroMessenger/8.0.28.2240(0x28001C57) WeChat/arm64 Weixin Android Tablet NetType/WIFI Language/zh_CN ABI/arm64","GenericTablet","Chrome","86.0.4240.99","AndroidOS","10","null","<div style=""font-size:60px;"">+</div>","null",""
"","","","","","html-button-response","65","275928","0.0-4.0-1.30","37","1","2022-11-13 08:29:58","49aca292d257f58668169b9fbab864ae","106.39.42.223","Mozilla/5.0 (Linux; Android 10; DBY-W09 Build/HUAWEIDBY-W09; wv) AppleWebKit/537.36 (KHTML, like Gecko) Version/4.0 Chrome/86.0.4240.99 XWEB/4317 MMWEBSDK/20220903 Safari/537.36 MMWEBID/1872 MicroMessenger/8.0.28.2240(0x28001C57) WeChat/arm64 Weixin Android Tablet NetType/WIFI Language/zh_CN ABI/arm64","GenericTablet","Chrome","86.0.4240.99","AndroidOS","10","2716","<p>作为军队的指挥官，你可以选择发射导弹杀死 <strong>7名</strong> 敌国士兵，但会误杀附近的 <strong>1名</strong> 敌国平民。</p> <p>平民照片如下图所示。</p> <p></p> <img src='stimuli/faces/PFF4.jpg', style='max-width: 30%;'> </img> <p><strong>你是否选择发射武器？</strong></p>","0",""
"","","","","","html-keyboard-response","66","276934","0.0-4.0-0.31","37","1","2022-11-13 08:29:58","49aca292d257f58668169b9fbab864ae","106.39.42.223","Mozilla/5.0 (Linux; Android 10; DBY-W09 Build/HUAWEIDBY-W09; wv) AppleWebKit/537.36 (KHTML, like Gecko) Version/4.0 Chrome/86.0.4240.99 XWEB/4317 MMWEBSDK/20220903 Safari/537.36 MMWEBID/1872 MicroMessenger/8.0.28.2240(0x28001C57) WeChat/arm64 Weixin Android Tablet NetType/WIFI Language/zh_CN ABI/arm64","GenericTablet","Chrome","86.0.4240.99","AndroidOS","10","null","<div style=""font-size:60px;"">+</div>","null",""
"","","","","","html-button-response","67","279339","0.0-4.0-1.31","37","1","2022-11-13 08:29:58","49aca292d257f58668169b9fbab864ae","106.39.42.223","Mozilla/5.0 (Linux; Android 10; DBY-W09 Build/HUAWEIDBY-W09; wv) AppleWebKit/537.36 (KHTML, like Gecko) Version/4.0 Chrome/86.0.4240.99 XWEB/4317 MMWEBSDK/20220903 Safari/537.36 MMWEBID/1872 MicroMessenger/8.0.28.2240(0x28001C57) WeChat/arm64 Weixin Android Tablet NetType/WIFI Language/zh_CN ABI/arm64","GenericTablet","Chrome","86.0.4240.99","AndroidOS","10","2397","<p>作为军队的指挥官，你可以选择发射导弹杀死 <strong>3名</strong> 敌国士兵，但会炸毁附近的 <strong>1棵</strong> 敌国树木。</p> <p>树木的照片如下图所示。</p> <p></p> <img src='stimuli/trees/16.png', style='max-width: 30%;'> </img> <p><strong>你是否选择发射武器？</strong></p>","1",""
"","","","","","html-keyboard-response","68","280345","0.0-4.0-0.32","37","1","2022-11-13 08:29:58","49aca292d257f58668169b9fbab864ae","106.39.42.223","Mozilla/5.0 (Linux; Android 10; DBY-W09 Build/HUAWEIDBY-W09; wv) AppleWebKit/537.36 (KHTML, like Gecko) Version/4.0 Chrome/86.0.4240.99 XWEB/4317 MMWEBSDK/20220903 Safari/537.36 MMWEBID/1872 MicroMessenger/8.0.28.2240(0x28001C57) WeChat/arm64 Weixin Android Tablet NetType/WIFI Language/zh_CN ABI/arm64","GenericTablet","Chrome","86.0.4240.99","AndroidOS","10","null","<div style=""font-size:60px;"">+</div>","null",""
"","","","","","html-button-response","69","281743","0.0-4.0-1.32","37","1","2022-11-13 08:29:58","49aca292d257f58668169b9fbab864ae","106.39.42.223","Mozilla/5.0 (Linux; Android 10; DBY-W09 Build/HUAWEIDBY-W09; wv) AppleWebKit/537.36 (KHTML, like Gecko) Version/4.0 Chrome/86.0.4240.99 XWEB/4317 MMWEBSDK/20220903 Safari/537.36 MMWEBID/1872 MicroMessenger/8.0.28.2240(0x28001C57) WeChat/arm64 Weixin Android Tablet NetType/WIFI Language/zh_CN ABI/arm64","GenericTablet","Chrome","86.0.4240.99","AndroidOS","10","1379","<p>作为军队的指挥官，你可以选择发射导弹杀死 <strong>4名</strong> 敌国士兵，但会炸毁附近的 <strong>1棵</strong> 敌国树木。</p> <p>树木的照片如下图所示。</p> <p></p> <img src='stimuli/trees/3.png', style='max-width: 30%;'> </img> <p><strong>你是否选择发射武器？</strong></p>","0",""
"","","","","","html-keyboard-response","70","282750","0.0-4.0-0.33","37","1","2022-11-13 08:29:58","49aca292d257f58668169b9fbab864ae","106.39.42.223","Mozilla/5.0 (Linux; Android 10; DBY-W09 Build/HUAWEIDBY-W09; wv) AppleWebKit/537.36 (KHTML, like Gecko) Version/4.0 Chrome/86.0.4240.99 XWEB/4317 MMWEBSDK/20220903 Safari/537.36 MMWEBID/1872 MicroMessenger/8.0.28.2240(0x28001C57) WeChat/arm64 Weixin Android Tablet NetType/WIFI Language/zh_CN ABI/arm64","GenericTablet","Chrome","86.0.4240.99","AndroidOS","10","null","<div style=""font-size:60px;"">+</div>","null",""
"","","","","","html-button-response","71","285289","0.0-4.0-1.33","37","1","2022-11-13 08:29:58","49aca292d257f58668169b9fbab864ae","106.39.42.223","Mozilla/5.0 (Linux; Android 10; DBY-W09 Build/HUAWEIDBY-W09; wv) AppleWebKit/537.36 (KHTML, like Gecko) Version/4.0 Chrome/86.0.4240.99 XWEB/4317 MMWEBSDK/20220903 Safari/537.36 MMWEBID/1872 MicroMessenger/8.0.28.2240(0x28001C57) WeChat/arm64 Weixin Android Tablet NetType/WIFI Language/zh_CN ABI/arm64","GenericTablet","Chrome","86.0.4240.99","AndroidOS","10","2521","<p>作为军队的指挥官，你可以选择发射导弹杀死 <strong>9名</strong> 敌国士兵，但会炸毁附近的 <strong>1棵</strong> 敌国树木。</p> <p>树木的照片如下图所示。</p> <p></p> <img src='stimuli/trees/6.png', style='max-width: 30%;'> </img> <p><strong>你是否选择发射武器？</strong></p>","0",""
"","","","","","html-keyboard-response","72","286298","0.0-4.0-0.34","37","1","2022-11-13 08:29:58","49aca292d257f58668169b9fbab864ae","106.39.42.223","Mozilla/5.0 (Linux; Android 10; DBY-W09 Build/HUAWEIDBY-W09; wv) AppleWebKit/537.36 (KHTML, like Gecko) Version/4.0 Chrome/86.0.4240.99 XWEB/4317 MMWEBSDK/20220903 Safari/537.36 MMWEBID/1872 MicroMessenger/8.0.28.2240(0x28001C57) WeChat/arm64 Weixin Android Tablet NetType/WIFI Language/zh_CN ABI/arm64","GenericTablet","Chrome","86.0.4240.99","AndroidOS","10","null","<div style=""font-size:60px;"">+</div>","null",""
"","","","","","html-button-response","73","288491","0.0-4.0-1.34","37","1","2022-11-13 08:29:58","49aca292d257f58668169b9fbab864ae","106.39.42.223","Mozilla/5.0 (Linux; Android 10; DBY-W09 Build/HUAWEIDBY-W09; wv) AppleWebKit/537.36 (KHTML, like Gecko) Version/4.0 Chrome/86.0.4240.99 XWEB/4317 MMWEBSDK/20220903 Safari/537.36 MMWEBID/1872 MicroMessenger/8.0.28.2240(0x28001C57) WeChat/arm64 Weixin Android Tablet NetType/WIFI Language/zh_CN ABI/arm64","GenericTablet","Chrome","86.0.4240.99","AndroidOS","10","2180","<p>作为军队的指挥官，你可以选择发射导弹杀死 <strong>5名</strong> 敌国士兵，但会炸毁附近的 <strong>1棵</strong> 敌国树木。</p> <p>树木的照片如下图所示。</p> <p></p> <img src='stimuli/trees/15.png', style='max-width: 30%;'> </img> <p><strong>你是否选择发射武器？</strong></p>","0",""
"","","","","","html-keyboard-response","74","289495","0.0-4.0-0.35","37","1","2022-11-13 08:29:58","49aca292d257f58668169b9fbab864ae","106.39.42.223","Mozilla/5.0 (Linux; Android 10; DBY-W09 Build/HUAWEIDBY-W09; wv) AppleWebKit/537.36 (KHTML, like Gecko) Version/4.0 Chrome/86.0.4240.99 XWEB/4317 MMWEBSDK/20220903 Safari/537.36 MMWEBID/1872 MicroMessenger/8.0.28.2240(0x28001C57) WeChat/arm64 Weixin Android Tablet NetType/WIFI Language/zh_CN ABI/arm64","GenericTablet","Chrome","86.0.4240.99","AndroidOS","10","null","<div style=""font-size:60px;"">+</div>","null",""
"","","","","","html-button-response","75","292520","0.0-4.0-1.35","37","1","2022-11-13 08:29:58","49aca292d257f58668169b9fbab864ae","106.39.42.223","Mozilla/5.0 (Linux; Android 10; DBY-W09 Build/HUAWEIDBY-W09; wv) AppleWebKit/537.36 (KHTML, like Gecko) Version/4.0 Chrome/86.0.4240.99 XWEB/4317 MMWEBSDK/20220903 Safari/537.36 MMWEBID/1872 MicroMessenger/8.0.28.2240(0x28001C57) WeChat/arm64 Weixin Android Tablet NetType/WIFI Language/zh_CN ABI/arm64","GenericTablet","Chrome","86.0.4240.99","AndroidOS","10","3007","<p>作为军队的指挥官，你可以选择发射导弹杀死 <strong>6名</strong> 敌国士兵，但会炸毁附近的 <strong>1棵</strong> 敌国树木。</p> <p>树木的照片如下图所示。</p> <p></p> <img src='stimuli/trees/12.png', style='max-width: 30%;'> </img> <p><strong>你是否选择发射武器？</strong></p>","0",""
"","","","","","html-keyboard-response","76","293525","0.0-4.0-0.36","37","1","2022-11-13 08:29:58","49aca292d257f58668169b9fbab864ae","106.39.42.223","Mozilla/5.0 (Linux; Android 10; DBY-W09 Build/HUAWEIDBY-W09; wv) AppleWebKit/537.36 (KHTML, like Gecko) Version/4.0 Chrome/86.0.4240.99 XWEB/4317 MMWEBSDK/20220903 Safari/537.36 MMWEBID/1872 MicroMessenger/8.0.28.2240(0x28001C57) WeChat/arm64 Weixin Android Tablet NetType/WIFI Language/zh_CN ABI/arm64","GenericTablet","Chrome","86.0.4240.99","AndroidOS","10","null","<div style=""font-size:60px;"">+</div>","null",""
"","","","","","html-button-response","77","295240","0.0-4.0-1.36","37","1","2022-11-13 08:29:58","49aca292d257f58668169b9fbab864ae","106.39.42.223","Mozilla/5.0 (Linux; Android 10; DBY-W09 Build/HUAWEIDBY-W09; wv) AppleWebKit/537.36 (KHTML, like Gecko) Version/4.0 Chrome/86.0.4240.99 XWEB/4317 MMWEBSDK/20220903 Safari/537.36 MMWEBID/1872 MicroMessenger/8.0.28.2240(0x28001C57) WeChat/arm64 Weixin Android Tablet NetType/WIFI Language/zh_CN ABI/arm64","GenericTablet","Chrome","86.0.4240.99","AndroidOS","10","1698","<p>作为军队的指挥官，你可以选择发射导弹杀死 <strong>10名</strong> 敌国士兵，但会炸毁附近的 <strong>1棵</strong> 敌国树木。</p> <p>树木的照片如下图所示。</p> <p></p> <img src='stimuli/trees/13.png', style='max-width: 30%;'> </img> <p><strong>你是否选择发射武器？</strong></p>","0",""
"","","","","","html-keyboard-response","78","296244","0.0-4.0-0.37","37","1","2022-11-13 08:29:58","49aca292d257f58668169b9fbab864ae","106.39.42.223","Mozilla/5.0 (Linux; Android 10; DBY-W09 Build/HUAWEIDBY-W09; wv) AppleWebKit/537.36 (KHTML, like Gecko) Version/4.0 Chrome/86.0.4240.99 XWEB/4317 MMWEBSDK/20220903 Safari/537.36 MMWEBID/1872 MicroMessenger/8.0.28.2240(0x28001C57) WeChat/arm64 Weixin Android Tablet NetType/WIFI Language/zh_CN ABI/arm64","GenericTablet","Chrome","86.0.4240.99","AndroidOS","10","null","<div style=""font-size:60px;"">+</div>","null",""
"","","","","","html-button-response","79","297689","0.0-4.0-1.37","37","1","2022-11-13 08:29:58","49aca292d257f58668169b9fbab864ae","106.39.42.223","Mozilla/5.0 (Linux; Android 10; DBY-W09 Build/HUAWEIDBY-W09; wv) AppleWebKit/537.36 (KHTML, like Gecko) Version/4.0 Chrome/86.0.4240.99 XWEB/4317 MMWEBSDK/20220903 Safari/537.36 MMWEBID/1872 MicroMessenger/8.0.28.2240(0x28001C57) WeChat/arm64 Weixin Android Tablet NetType/WIFI Language/zh_CN ABI/arm64","GenericTablet","Chrome","86.0.4240.99","AndroidOS","10","1427","<p>作为军队的指挥官，你可以选择发射导弹杀死 <strong>6名</strong> 敌国士兵，但会误杀附近的 <strong>1名</strong> 敌国平民。</p> <p>平民照片如下图所示。</p> <p></p> <img src='stimuli/faces/PFM5.jpg', style='max-width: 30%;'> </img> <p><strong>你是否选择发射武器？</strong></p>","0",""
"","","","","","html-keyboard-response","80","298695","0.0-4.0-0.38","37","1","2022-11-13 08:29:58","49aca292d257f58668169b9fbab864ae","106.39.42.223","Mozilla/5.0 (Linux; Android 10; DBY-W09 Build/HUAWEIDBY-W09; wv) AppleWebKit/537.36 (KHTML, like Gecko) Version/4.0 Chrome/86.0.4240.99 XWEB/4317 MMWEBSDK/20220903 Safari/537.36 MMWEBID/1872 MicroMessenger/8.0.28.2240(0x28001C57) WeChat/arm64 Weixin Android Tablet NetType/WIFI Language/zh_CN ABI/arm64","GenericTablet","Chrome","86.0.4240.99","AndroidOS","10","null","<div style=""font-size:60px;"">+</div>","null",""
"","","","","","html-button-response","81","300655","0.0-4.0-1.38","37","1","2022-11-13 08:29:58","49aca292d257f58668169b9fbab864ae","106.39.42.223","Mozilla/5.0 (Linux; Android 10; DBY-W09 Build/HUAWEIDBY-W09; wv) AppleWebKit/537.36 (KHTML, like Gecko) Version/4.0 Chrome/86.0.4240.99 XWEB/4317 MMWEBSDK/20220903 Safari/537.36 MMWEBID/1872 MicroMessenger/8.0.28.2240(0x28001C57) WeChat/arm64 Weixin Android Tablet NetType/WIFI Language/zh_CN ABI/arm64","GenericTablet","Chrome","86.0.4240.99","AndroidOS","10","1943","<p>作为军队的指挥官，你可以选择发射导弹杀死 <strong>2名</strong> 敌国士兵，但会炸毁附近的 <strong>1棵</strong> 敌国树木。</p> <p>树木的照片如下图所示。</p> <p></p> <img src='stimuli/trees/12.png', style='max-width: 30%;'> </img> <p><strong>你是否选择发射武器？</strong></p>","0",""
"","","","","","html-keyboard-response","82","301661","0.0-4.0-0.39","37","1","2022-11-13 08:29:58","49aca292d257f58668169b9fbab864ae","106.39.42.223","Mozilla/5.0 (Linux; Android 10; DBY-W09 Build/HUAWEIDBY-W09; wv) AppleWebKit/537.36 (KHTML, like Gecko) Version/4.0 Chrome/86.0.4240.99 XWEB/4317 MMWEBSDK/20220903 Safari/537.36 MMWEBID/1872 MicroMessenger/8.0.28.2240(0x28001C57) WeChat/arm64 Weixin Android Tablet NetType/WIFI Language/zh_CN ABI/arm64","GenericTablet","Chrome","86.0.4240.99","AndroidOS","10","null","<div style=""font-size:60px;"">+</div>","null",""
"","","","","","html-button-response","83","302853","0.0-4.0-1.39","37","1","2022-11-13 08:29:58","49aca292d257f58668169b9fbab864ae","106.39.42.223","Mozilla/5.0 (Linux; Android 10; DBY-W09 Build/HUAWEIDBY-W09; wv) AppleWebKit/537.36 (KHTML, like Gecko) Version/4.0 Chrome/86.0.4240.99 XWEB/4317 MMWEBSDK/20220903 Safari/537.36 MMWEBID/1872 MicroMessenger/8.0.28.2240(0x28001C57) WeChat/arm64 Weixin Android Tablet NetType/WIFI Language/zh_CN ABI/arm64","GenericTablet","Chrome","86.0.4240.99","AndroidOS","10","1174","<p>作为军队的指挥官，你可以选择发射导弹杀死 <strong>7名</strong> 敌国士兵，但会炸毁附近的 <strong>1棵</strong> 敌国树木。</p> <p>树木的照片如下图所示。</p> <p></p> <img src='stimuli/trees/9.png', style='max-width: 30%;'> </img> <p><strong>你是否选择发射武器？</strong></p>","0",""
"","","","","","html-keyboard-response","84","303866","0.0-4.0-0.40","37","1","2022-11-13 08:29:58","49aca292d257f58668169b9fbab864ae","106.39.42.223","Mozilla/5.0 (Linux; Android 10; DBY-W09 Build/HUAWEIDBY-W09; wv) AppleWebKit/537.36 (KHTML, like Gecko) Version/4.0 Chrome/86.0.4240.99 XWEB/4317 MMWEBSDK/20220903 Safari/537.36 MMWEBID/1872 MicroMessenger/8.0.28.2240(0x28001C57) WeChat/arm64 Weixin Android Tablet NetType/WIFI Language/zh_CN ABI/arm64","GenericTablet","Chrome","86.0.4240.99","AndroidOS","10","null","<div style=""font-size:60px;"">+</div>","null",""
"","","","","","html-button-response","85","305362","0.0-4.0-1.40","37","1","2022-11-13 08:29:58","49aca292d257f58668169b9fbab864ae","106.39.42.223","Mozilla/5.0 (Linux; Android 10; DBY-W09 Build/HUAWEIDBY-W09; wv) AppleWebKit/537.36 (KHTML, like Gecko) Version/4.0 Chrome/86.0.4240.99 XWEB/4317 MMWEBSDK/20220903 Safari/537.36 MMWEBID/1872 MicroMessenger/8.0.28.2240(0x28001C57) WeChat/arm64 Weixin Android Tablet NetType/WIFI Language/zh_CN ABI/arm64","GenericTablet","Chrome","86.0.4240.99","AndroidOS","10","1488","<p>作为军队的指挥官，你可以选择发射导弹杀死 <strong>6名</strong> 敌国士兵，但会误杀附近的 <strong>1名</strong> 敌国平民。</p> <p>平民照片如下图所示。</p> <p></p> <img src='stimuli/faces/PFF8.jpg', style='max-width: 30%;'> </img> <p><strong>你是否选择发射武器？</strong></p>","0",""
"","","","","","html-keyboard-response","86","306368","0.0-4.0-0.41","37","1","2022-11-13 08:29:58","49aca292d257f58668169b9fbab864ae","106.39.42.223","Mozilla/5.0 (Linux; Android 10; DBY-W09 Build/HUAWEIDBY-W09; wv) AppleWebKit/537.36 (KHTML, like Gecko) Version/4.0 Chrome/86.0.4240.99 XWEB/4317 MMWEBSDK/20220903 Safari/537.36 MMWEBID/1872 MicroMessenger/8.0.28.2240(0x28001C57) WeChat/arm64 Weixin Android Tablet NetType/WIFI Language/zh_CN ABI/arm64","GenericTablet","Chrome","86.0.4240.99","AndroidOS","10","null","<div style=""font-size:60px;"">+</div>","null",""
"","","","","","html-button-response","87","307619","0.0-4.0-1.41","37","1","2022-11-13 08:29:58","49aca292d257f58668169b9fbab864ae","106.39.42.223","Mozilla/5.0 (Linux; Android 10; DBY-W09 Build/HUAWEIDBY-W09; wv) AppleWebKit/537.36 (KHTML, like Gecko) Version/4.0 Chrome/86.0.4240.99 XWEB/4317 MMWEBSDK/20220903 Safari/537.36 MMWEBID/1872 MicroMessenger/8.0.28.2240(0x28001C57) WeChat/arm64 Weixin Android Tablet NetType/WIFI Language/zh_CN ABI/arm64","GenericTablet","Chrome","86.0.4240.99","AndroidOS","10","1235","<p>作为军队的指挥官，你可以选择发射导弹杀死 <strong>3名</strong> 敌国士兵，但会误杀附近的 <strong>1名</strong> 敌国平民。</p> <p>平民照片如下图所示。</p> <p></p> <img src='stimuli/faces/PFM4.jpg', style='max-width: 30%;'> </img> <p><strong>你是否选择发射武器？</strong></p>","0",""
"","","","","","html-keyboard-response","88","308623","0.0-4.0-0.42","37","1","2022-11-13 08:29:58","49aca292d257f58668169b9fbab864ae","106.39.42.223","Mozilla/5.0 (Linux; Android 10; DBY-W09 Build/HUAWEIDBY-W09; wv) AppleWebKit/537.36 (KHTML, like Gecko) Version/4.0 Chrome/86.0.4240.99 XWEB/4317 MMWEBSDK/20220903 Safari/537.36 MMWEBID/1872 MicroMessenger/8.0.28.2240(0x28001C57) WeChat/arm64 Weixin Android Tablet NetType/WIFI Language/zh_CN ABI/arm64","GenericTablet","Chrome","86.0.4240.99","AndroidOS","10","null","<div style=""font-size:60px;"">+</div>","null",""
"","","","","","html-button-response","89","309838","0.0-4.0-1.42","37","1","2022-11-13 08:29:58","49aca292d257f58668169b9fbab864ae","106.39.42.223","Mozilla/5.0 (Linux; Android 10; DBY-W09 Build/HUAWEIDBY-W09; wv) AppleWebKit/537.36 (KHTML, like Gecko) Version/4.0 Chrome/86.0.4240.99 XWEB/4317 MMWEBSDK/20220903 Safari/537.36 MMWEBID/1872 MicroMessenger/8.0.28.2240(0x28001C57) WeChat/arm64 Weixin Android Tablet NetType/WIFI Language/zh_CN ABI/arm64","GenericTablet","Chrome","86.0.4240.99","AndroidOS","10","1197","<p>作为军队的指挥官，你可以选择发射导弹杀死 <strong>10名</strong> 敌国士兵，但会炸毁附近的 <strong>1棵</strong> 敌国树木。</p> <p>树木的照片如下图所示。</p> <p></p> <img src='stimuli/trees/2.png', style='max-width: 30%;'> </img> <p><strong>你是否选择发射武器？</strong></p>","0",""
"","","","","","html-keyboard-response","90","310842","0.0-4.0-0.43","37","1","2022-11-13 08:29:58","49aca292d257f58668169b9fbab864ae","106.39.42.223","Mozilla/5.0 (Linux; Android 10; DBY-W09 Build/HUAWEIDBY-W09; wv) AppleWebKit/537.36 (KHTML, like Gecko) Version/4.0 Chrome/86.0.4240.99 XWEB/4317 MMWEBSDK/20220903 Safari/537.36 MMWEBID/1872 MicroMessenger/8.0.28.2240(0x28001C57) WeChat/arm64 Weixin Android Tablet NetType/WIFI Language/zh_CN ABI/arm64","GenericTablet","Chrome","86.0.4240.99","AndroidOS","10","null","<div style=""font-size:60px;"">+</div>","null",""
"","","","","","html-button-response","91","312090","0.0-4.0-1.43","37","1","2022-11-13 08:29:58","49aca292d257f58668169b9fbab864ae","106.39.42.223","Mozilla/5.0 (Linux; Android 10; DBY-W09 Build/HUAWEIDBY-W09; wv) AppleWebKit/537.36 (KHTML, like Gecko) Version/4.0 Chrome/86.0.4240.99 XWEB/4317 MMWEBSDK/20220903 Safari/537.36 MMWEBID/1872 MicroMessenger/8.0.28.2240(0x28001C57) WeChat/arm64 Weixin Android Tablet NetType/WIFI Language/zh_CN ABI/arm64","GenericTablet","Chrome","86.0.4240.99","AndroidOS","10","1236","<p>作为军队的指挥官，你可以选择发射导弹杀死 <strong>4名</strong> 敌国士兵，但会炸毁附近的 <strong>1棵</strong> 敌国树木。</p> <p>树木的照片如下图所示。</p> <p></p> <img src='stimuli/trees/11.png', style='max-width: 30%;'> </img> <p><strong>你是否选择发射武器？</strong></p>","0",""
"","","","","","html-keyboard-response","92","313096","0.0-4.0-0.44","37","1","2022-11-13 08:29:58","49aca292d257f58668169b9fbab864ae","106.39.42.223","Mozilla/5.0 (Linux; Android 10; DBY-W09 Build/HUAWEIDBY-W09; wv) AppleWebKit/537.36 (KHTML, like Gecko) Version/4.0 Chrome/86.0.4240.99 XWEB/4317 MMWEBSDK/20220903 Safari/537.36 MMWEBID/1872 MicroMessenger/8.0.28.2240(0x28001C57) WeChat/arm64 Weixin Android Tablet NetType/WIFI Language/zh_CN ABI/arm64","GenericTablet","Chrome","86.0.4240.99","AndroidOS","10","null","<div style=""font-size:60px;"">+</div>","null",""
"","","","","","html-button-response","93","315231","0.0-4.0-1.44","37","1","2022-11-13 08:29:58","49aca292d257f58668169b9fbab864ae","106.39.42.223","Mozilla/5.0 (Linux; Android 10; DBY-W09 Build/HUAWEIDBY-W09; wv) AppleWebKit/537.36 (KHTML, like Gecko) Version/4.0 Chrome/86.0.4240.99 XWEB/4317 MMWEBSDK/20220903 Safari/537.36 MMWEBID/1872 MicroMessenger/8.0.28.2240(0x28001C57) WeChat/arm64 Weixin Android Tablet NetType/WIFI Language/zh_CN ABI/arm64","GenericTablet","Chrome","86.0.4240.99","AndroidOS","10","2118","<p>作为军队的指挥官，你可以选择发射导弹杀死 <strong>7名</strong> 敌国士兵，但会误杀附近的 <strong>1名</strong> 敌国平民。</p> <p>平民照片如下图所示。</p> <p></p> <img src='stimuli/faces/PFF6.jpg', style='max-width: 30%;'> </img> <p><strong>你是否选择发射武器？</strong></p>","0",""
"","","","","","html-keyboard-response","94","316236","0.0-4.0-0.45","37","1","2022-11-13 08:29:58","49aca292d257f58668169b9fbab864ae","106.39.42.223","Mozilla/5.0 (Linux; Android 10; DBY-W09 Build/HUAWEIDBY-W09; wv) AppleWebKit/537.36 (KHTML, like Gecko) Version/4.0 Chrome/86.0.4240.99 XWEB/4317 MMWEBSDK/20220903 Safari/537.36 MMWEBID/1872 MicroMessenger/8.0.28.2240(0x28001C57) WeChat/arm64 Weixin Android Tablet NetType/WIFI Language/zh_CN ABI/arm64","GenericTablet","Chrome","86.0.4240.99","AndroidOS","10","null","<div style=""font-size:60px;"">+</div>","null",""
"","","","","","html-button-response","95","318888","0.0-4.0-1.45","37","1","2022-11-13 08:29:58","49aca292d257f58668169b9fbab864ae","106.39.42.223","Mozilla/5.0 (Linux; Android 10; DBY-W09 Build/HUAWEIDBY-W09; wv) AppleWebKit/537.36 (KHTML, like Gecko) Version/4.0 Chrome/86.0.4240.99 XWEB/4317 MMWEBSDK/20220903 Safari/537.36 MMWEBID/1872 MicroMessenger/8.0.28.2240(0x28001C57) WeChat/arm64 Weixin Android Tablet NetType/WIFI Language/zh_CN ABI/arm64","GenericTablet","Chrome","86.0.4240.99","AndroidOS","10","2633","<p>作为军队的指挥官，你可以选择发射导弹杀死 <strong>8名</strong> 敌国士兵，但会误杀附近的 <strong>1名</strong> 敌国平民。</p> <p>平民照片如下图所示。</p> <p></p> <img src='stimuli/faces/PFF2.jpg', style='max-width: 30%;'> </img> <p><strong>你是否选择发射武器？</strong></p>","0",""
"","","","","","html-keyboard-response","96","319893","0.0-4.0-0.46","37","1","2022-11-13 08:29:58","49aca292d257f58668169b9fbab864ae","106.39.42.223","Mozilla/5.0 (Linux; Android 10; DBY-W09 Build/HUAWEIDBY-W09; wv) AppleWebKit/537.36 (KHTML, like Gecko) Version/4.0 Chrome/86.0.4240.99 XWEB/4317 MMWEBSDK/20220903 Safari/537.36 MMWEBID/1872 MicroMessenger/8.0.28.2240(0x28001C57) WeChat/arm64 Weixin Android Tablet NetType/WIFI Language/zh_CN ABI/arm64","GenericTablet","Chrome","86.0.4240.99","AndroidOS","10","null","<div style=""font-size:60px;"">+</div>","null",""
"","","","","","html-button-response","97","320948","0.0-4.0-1.46","37","1","2022-11-13 08:29:58","49aca292d257f58668169b9fbab864ae","106.39.42.223","Mozilla/5.0 (Linux; Android 10; DBY-W09 Build/HUAWEIDBY-W09; wv) AppleWebKit/537.36 (KHTML, like Gecko) Version/4.0 Chrome/86.0.4240.99 XWEB/4317 MMWEBSDK/20220903 Safari/537.36 MMWEBID/1872 MicroMessenger/8.0.28.2240(0x28001C57) WeChat/arm64 Weixin Android Tablet NetType/WIFI Language/zh_CN ABI/arm64","GenericTablet","Chrome","86.0.4240.99","AndroidOS","10","1035","<p>作为军队的指挥官，你可以选择发射导弹杀死 <strong>2名</strong> 敌国士兵，但会炸毁附近的 <strong>1棵</strong> 敌国树木。</p> <p>树木的照片如下图所示。</p> <p></p> <img src='stimuli/trees/10.png', style='max-width: 30%;'> </img> <p><strong>你是否选择发射武器？</strong></p>","0",""
"","","","","","html-keyboard-response","98","321954","0.0-4.0-0.47","37","1","2022-11-13 08:29:58","49aca292d257f58668169b9fbab864ae","106.39.42.223","Mozilla/5.0 (Linux; Android 10; DBY-W09 Build/HUAWEIDBY-W09; wv) AppleWebKit/537.36 (KHTML, like Gecko) Version/4.0 Chrome/86.0.4240.99 XWEB/4317 MMWEBSDK/20220903 Safari/537.36 MMWEBID/1872 MicroMessenger/8.0.28.2240(0x28001C57) WeChat/arm64 Weixin Android Tablet NetType/WIFI Language/zh_CN ABI/arm64","GenericTablet","Chrome","86.0.4240.99","AndroidOS","10","null","<div style=""font-size:60px;"">+</div>","null",""
"","","","","","html-button-response","99","323096","0.0-4.0-1.47","37","1","2022-11-13 08:29:58","49aca292d257f58668169b9fbab864ae","106.39.42.223","Mozilla/5.0 (Linux; Android 10; DBY-W09 Build/HUAWEIDBY-W09; wv) AppleWebKit/537.36 (KHTML, like Gecko) Version/4.0 Chrome/86.0.4240.99 XWEB/4317 MMWEBSDK/20220903 Safari/537.36 MMWEBID/1872 MicroMessenger/8.0.28.2240(0x28001C57) WeChat/arm64 Weixin Android Tablet NetType/WIFI Language/zh_CN ABI/arm64","GenericTablet","Chrome","86.0.4240.99","AndroidOS","10","1123","<p>作为军队的指挥官，你可以选择发射导弹杀死 <strong>2名</strong> 敌国士兵，但会炸毁附近的 <strong>1棵</strong> 敌国树木。</p> <p>树木的照片如下图所示。</p> <p></p> <img src='stimuli/trees/5.png', style='max-width: 30%;'> </img> <p><strong>你是否选择发射武器？</strong></p>","0",""
"","","","","","html-keyboard-response","100","324102","0.0-4.0-0.48","37","1","2022-11-13 08:29:58","49aca292d257f58668169b9fbab864ae","106.39.42.223","Mozilla/5.0 (Linux; Android 10; DBY-W09 Build/HUAWEIDBY-W09; wv) AppleWebKit/537.36 (KHTML, like Gecko) Version/4.0 Chrome/86.0.4240.99 XWEB/4317 MMWEBSDK/20220903 Safari/537.36 MMWEBID/1872 MicroMessenger/8.0.28.2240(0x28001C57) WeChat/arm64 Weixin Android Tablet NetType/WIFI Language/zh_CN ABI/arm64","GenericTablet","Chrome","86.0.4240.99","AndroidOS","10","null","<div style=""font-size:60px;"">+</div>","null",""
"","","","","","html-button-response","101","325491","0.0-4.0-1.48","37","1","2022-11-13 08:29:58","49aca292d257f58668169b9fbab864ae","106.39.42.223","Mozilla/5.0 (Linux; Android 10; DBY-W09 Build/HUAWEIDBY-W09; wv) AppleWebKit/537.36 (KHTML, like Gecko) Version/4.0 Chrome/86.0.4240.99 XWEB/4317 MMWEBSDK/20220903 Safari/537.36 MMWEBID/1872 MicroMessenger/8.0.28.2240(0x28001C57) WeChat/arm64 Weixin Android Tablet NetType/WIFI Language/zh_CN ABI/arm64","GenericTablet","Chrome","86.0.4240.99","AndroidOS","10","1368","<p>作为军队的指挥官，你可以选择发射导弹杀死 <strong>10名</strong> 敌国士兵，但会炸毁附近的 <strong>1棵</strong> 敌国树木。</p> <p>树木的照片如下图所示。</p> <p></p> <img src='stimuli/trees/7.png', style='max-width: 30%;'> </img> <p><strong>你是否选择发射武器？</strong></p>","0",""
"","","","","","html-keyboard-response","102","326499","0.0-4.0-0.49","37","1","2022-11-13 08:29:58","49aca292d257f58668169b9fbab864ae","106.39.42.223","Mozilla/5.0 (Linux; Android 10; DBY-W09 Build/HUAWEIDBY-W09; wv) AppleWebKit/537.36 (KHTML, like Gecko) Version/4.0 Chrome/86.0.4240.99 XWEB/4317 MMWEBSDK/20220903 Safari/537.36 MMWEBID/1872 MicroMessenger/8.0.28.2240(0x28001C57) WeChat/arm64 Weixin Android Tablet NetType/WIFI Language/zh_CN ABI/arm64","GenericTablet","Chrome","86.0.4240.99","AndroidOS","10","null","<div style=""font-size:60px;"">+</div>","null",""
"","","","","","html-button-response","103","330426","0.0-4.0-1.49","37","1","2022-11-13 08:29:58","49aca292d257f58668169b9fbab864ae","106.39.42.223","Mozilla/5.0 (Linux; Android 10; DBY-W09 Build/HUAWEIDBY-W09; wv) AppleWebKit/537.36 (KHTML, like Gecko) Version/4.0 Chrome/86.0.4240.99 XWEB/4317 MMWEBSDK/20220903 Safari/537.36 MMWEBID/1872 MicroMessenger/8.0.28.2240(0x28001C57) WeChat/arm64 Weixin Android Tablet NetType/WIFI Language/zh_CN ABI/arm64","GenericTablet","Chrome","86.0.4240.99","AndroidOS","10","3916","<p>作为军队的指挥官，你可以选择发射导弹杀死 <strong>9名</strong> 敌国士兵，但会误杀附近的 <strong>1名</strong> 敌国平民。</p> <p>平民照片如下图所示。</p> <p></p> <img src='stimuli/faces/PFM4.jpg', style='max-width: 30%;'> </img> <p><strong>你是否选择发射武器？</strong></p>","0",""
"","","","","","html-keyboard-response","104","331431","0.0-4.0-0.50","37","1","2022-11-13 08:29:58","49aca292d257f58668169b9fbab864ae","106.39.42.223","Mozilla/5.0 (Linux; Android 10; DBY-W09 Build/HUAWEIDBY-W09; wv) AppleWebKit/537.36 (KHTML, like Gecko) Version/4.0 Chrome/86.0.4240.99 XWEB/4317 MMWEBSDK/20220903 Safari/537.36 MMWEBID/1872 MicroMessenger/8.0.28.2240(0x28001C57) WeChat/arm64 Weixin Android Tablet NetType/WIFI Language/zh_CN ABI/arm64","GenericTablet","Chrome","86.0.4240.99","AndroidOS","10","null","<div style=""font-size:60px;"">+</div>","null",""
"","","","","","html-button-response","105","332591","0.0-4.0-1.50","37","1","2022-11-13 08:29:58","49aca292d257f58668169b9fbab864ae","106.39.42.223","Mozilla/5.0 (Linux; Android 10; DBY-W09 Build/HUAWEIDBY-W09; wv) AppleWebKit/537.36 (KHTML, like Gecko) Version/4.0 Chrome/86.0.4240.99 XWEB/4317 MMWEBSDK/20220903 Safari/537.36 MMWEBID/1872 MicroMessenger/8.0.28.2240(0x28001C57) WeChat/arm64 Weixin Android Tablet NetType/WIFI Language/zh_CN ABI/arm64","GenericTablet","Chrome","86.0.4240.99","AndroidOS","10","1149","<p>作为军队的指挥官，你可以选择发射导弹杀死 <strong>9名</strong> 敌国士兵，但会误杀附近的 <strong>1名</strong> 敌国平民。</p> <p>平民照片如下图所示。</p> <p></p> <img src='stimuli/faces/PFM2.jpg', style='max-width: 30%;'> </img> <p><strong>你是否选择发射武器？</strong></p>","0",""
"","","","","","html-keyboard-response","106","333601","0.0-4.0-0.51","37","1","2022-11-13 08:29:58","49aca292d257f58668169b9fbab864ae","106.39.42.223","Mozilla/5.0 (Linux; Android 10; DBY-W09 Build/HUAWEIDBY-W09; wv) AppleWebKit/537.36 (KHTML, like Gecko) Version/4.0 Chrome/86.0.4240.99 XWEB/4317 MMWEBSDK/20220903 Safari/537.36 MMWEBID/1872 MicroMessenger/8.0.28.2240(0x28001C57) WeChat/arm64 Weixin Android Tablet NetType/WIFI Language/zh_CN ABI/arm64","GenericTablet","Chrome","86.0.4240.99","AndroidOS","10","null","<div style=""font-size:60px;"">+</div>","null",""
"","","","","","html-button-response","107","335721","0.0-4.0-1.51","37","1","2022-11-13 08:29:58","49aca292d257f58668169b9fbab864ae","106.39.42.223","Mozilla/5.0 (Linux; Android 10; DBY-W09 Build/HUAWEIDBY-W09; wv) AppleWebKit/537.36 (KHTML, like Gecko) Version/4.0 Chrome/86.0.4240.99 XWEB/4317 MMWEBSDK/20220903 Safari/537.36 MMWEBID/1872 MicroMessenger/8.0.28.2240(0x28001C57) WeChat/arm64 Weixin Android Tablet NetType/WIFI Language/zh_CN ABI/arm64","GenericTablet","Chrome","86.0.4240.99","AndroidOS","10","2103","<p>作为军队的指挥官，你可以选择发射导弹杀死 <strong>3名</strong> 敌国士兵，但会炸毁附近的 <strong>1棵</strong> 敌国树木。</p> <p>树木的照片如下图所示。</p> <p></p> <img src='stimuli/trees/1.png', style='max-width: 30%;'> </img> <p><strong>你是否选择发射武器？</strong></p>","1",""
"","","","","","html-keyboard-response","108","336727","0.0-4.0-0.52","37","1","2022-11-13 08:29:58","49aca292d257f58668169b9fbab864ae","106.39.42.223","Mozilla/5.0 (Linux; Android 10; DBY-W09 Build/HUAWEIDBY-W09; wv) AppleWebKit/537.36 (KHTML, like Gecko) Version/4.0 Chrome/86.0.4240.99 XWEB/4317 MMWEBSDK/20220903 Safari/537.36 MMWEBID/1872 MicroMessenger/8.0.28.2240(0x28001C57) WeChat/arm64 Weixin Android Tablet NetType/WIFI Language/zh_CN ABI/arm64","GenericTablet","Chrome","86.0.4240.99","AndroidOS","10","null","<div style=""font-size:60px;"">+</div>","null",""
"","","","","","html-button-response","109","338256","0.0-4.0-1.52","37","1","2022-11-13 08:29:58","49aca292d257f58668169b9fbab864ae","106.39.42.223","Mozilla/5.0 (Linux; Android 10; DBY-W09 Build/HUAWEIDBY-W09; wv) AppleWebKit/537.36 (KHTML, like Gecko) Version/4.0 Chrome/86.0.4240.99 XWEB/4317 MMWEBSDK/20220903 Safari/537.36 MMWEBID/1872 MicroMessenger/8.0.28.2240(0x28001C57) WeChat/arm64 Weixin Android Tablet NetType/WIFI Language/zh_CN ABI/arm64","GenericTablet","Chrome","86.0.4240.99","AndroidOS","10","1522","<p>作为军队的指挥官，你可以选择发射导弹杀死 <strong>10名</strong> 敌国士兵，但会误杀附近的 <strong>1名</strong> 敌国平民。</p> <p>平民照片如下图所示。</p> <p></p> <img src='stimuli/faces/PFM7.jpg', style='max-width: 30%;'> </img> <p><strong>你是否选择发射武器？</strong></p>","0",""
"","","","","","html-keyboard-response","110","339262","0.0-4.0-0.53","37","1","2022-11-13 08:29:58","49aca292d257f58668169b9fbab864ae","106.39.42.223","Mozilla/5.0 (Linux; Android 10; DBY-W09 Build/HUAWEIDBY-W09; wv) AppleWebKit/537.36 (KHTML, like Gecko) Version/4.0 Chrome/86.0.4240.99 XWEB/4317 MMWEBSDK/20220903 Safari/537.36 MMWEBID/1872 MicroMessenger/8.0.28.2240(0x28001C57) WeChat/arm64 Weixin Android Tablet NetType/WIFI Language/zh_CN ABI/arm64","GenericTablet","Chrome","86.0.4240.99","AndroidOS","10","null","<div style=""font-size:60px;"">+</div>","null",""
"","","","","","html-button-response","111","341644","0.0-4.0-1.53","37","1","2022-11-13 08:29:58","49aca292d257f58668169b9fbab864ae","106.39.42.223","Mozilla/5.0 (Linux; Android 10; DBY-W09 Build/HUAWEIDBY-W09; wv) AppleWebKit/537.36 (KHTML, like Gecko) Version/4.0 Chrome/86.0.4240.99 XWEB/4317 MMWEBSDK/20220903 Safari/537.36 MMWEBID/1872 MicroMessenger/8.0.28.2240(0x28001C57) WeChat/arm64 Weixin Android Tablet NetType/WIFI Language/zh_CN ABI/arm64","GenericTablet","Chrome","86.0.4240.99","AndroidOS","10","2371","<p>作为军队的指挥官，你可以选择发射导弹杀死 <strong>2名</strong> 敌国士兵，但会误杀附近的 <strong>1名</strong> 敌国平民。</p> <p>平民照片如下图所示。</p> <p></p> <img src='stimuli/faces/PFM2.jpg', style='max-width: 30%;'> </img> <p><strong>你是否选择发射武器？</strong></p>","1",""
"","","","","","html-keyboard-response","112","342650","0.0-4.0-0.54","37","1","2022-11-13 08:29:58","49aca292d257f58668169b9fbab864ae","106.39.42.223","Mozilla/5.0 (Linux; Android 10; DBY-W09 Build/HUAWEIDBY-W09; wv) AppleWebKit/537.36 (KHTML, like Gecko) Version/4.0 Chrome/86.0.4240.99 XWEB/4317 MMWEBSDK/20220903 Safari/537.36 MMWEBID/1872 MicroMessenger/8.0.28.2240(0x28001C57) WeChat/arm64 Weixin Android Tablet NetType/WIFI Language/zh_CN ABI/arm64","GenericTablet","Chrome","86.0.4240.99","AndroidOS","10","null","<div style=""font-size:60px;"">+</div>","null",""
"","","","","","html-button-response","113","345140","0.0-4.0-1.54","37","1","2022-11-13 08:29:58","49aca292d257f58668169b9fbab864ae","106.39.42.223","Mozilla/5.0 (Linux; Android 10; DBY-W09 Build/HUAWEIDBY-W09; wv) AppleWebKit/537.36 (KHTML, like Gecko) Version/4.0 Chrome/86.0.4240.99 XWEB/4317 MMWEBSDK/20220903 Safari/537.36 MMWEBID/1872 MicroMessenger/8.0.28.2240(0x28001C57) WeChat/arm64 Weixin Android Tablet NetType/WIFI Language/zh_CN ABI/arm64","GenericTablet","Chrome","86.0.4240.99","AndroidOS","10","2475","<p>作为军队的指挥官，你可以选择发射导弹杀死 <strong>9名</strong> 敌国士兵，但会炸毁附近的 <strong>1棵</strong> 敌国树木。</p> <p>树木的照片如下图所示。</p> <p></p> <img src='stimuli/trees/1.png', style='max-width: 30%;'> </img> <p><strong>你是否选择发射武器？</strong></p>","1",""
"","","","","","html-keyboard-response","114","346148","0.0-4.0-0.55","37","1","2022-11-13 08:29:58","49aca292d257f58668169b9fbab864ae","106.39.42.223","Mozilla/5.0 (Linux; Android 10; DBY-W09 Build/HUAWEIDBY-W09; wv) AppleWebKit/537.36 (KHTML, like Gecko) Version/4.0 Chrome/86.0.4240.99 XWEB/4317 MMWEBSDK/20220903 Safari/537.36 MMWEBID/1872 MicroMessenger/8.0.28.2240(0x28001C57) WeChat/arm64 Weixin Android Tablet NetType/WIFI Language/zh_CN ABI/arm64","GenericTablet","Chrome","86.0.4240.99","AndroidOS","10","null","<div style=""font-size:60px;"">+</div>","null",""
"","","","","","html-button-response","115","347415","0.0-4.0-1.55","37","1","2022-11-13 08:29:58","49aca292d257f58668169b9fbab864ae","106.39.42.223","Mozilla/5.0 (Linux; Android 10; DBY-W09 Build/HUAWEIDBY-W09; wv) AppleWebKit/537.36 (KHTML, like Gecko) Version/4.0 Chrome/86.0.4240.99 XWEB/4317 MMWEBSDK/20220903 Safari/537.36 MMWEBID/1872 MicroMessenger/8.0.28.2240(0x28001C57) WeChat/arm64 Weixin Android Tablet NetType/WIFI Language/zh_CN ABI/arm64","GenericTablet","Chrome","86.0.4240.99","AndroidOS","10","1258","<p>作为军队的指挥官，你可以选择发射导弹杀死 <strong>4名</strong> 敌国士兵，但会误杀附近的 <strong>1名</strong> 敌国平民。</p> <p>平民照片如下图所示。</p> <p></p> <img src='stimuli/faces/PFF6.jpg', style='max-width: 30%;'> </img> <p><strong>你是否选择发射武器？</strong></p>","0",""
"","","","","","html-keyboard-response","116","348421","0.0-4.0-0.56","37","1","2022-11-13 08:29:58","49aca292d257f58668169b9fbab864ae","106.39.42.223","Mozilla/5.0 (Linux; Android 10; DBY-W09 Build/HUAWEIDBY-W09; wv) AppleWebKit/537.36 (KHTML, like Gecko) Version/4.0 Chrome/86.0.4240.99 XWEB/4317 MMWEBSDK/20220903 Safari/537.36 MMWEBID/1872 MicroMessenger/8.0.28.2240(0x28001C57) WeChat/arm64 Weixin Android Tablet NetType/WIFI Language/zh_CN ABI/arm64","GenericTablet","Chrome","86.0.4240.99","AndroidOS","10","null","<div style=""font-size:60px;"">+</div>","null",""
"","","","","","html-button-response","117","349827","0.0-4.0-1.56","37","1","2022-11-13 08:29:58","49aca292d257f58668169b9fbab864ae","106.39.42.223","Mozilla/5.0 (Linux; Android 10; DBY-W09 Build/HUAWEIDBY-W09; wv) AppleWebKit/537.36 (KHTML, like Gecko) Version/4.0 Chrome/86.0.4240.99 XWEB/4317 MMWEBSDK/20220903 Safari/537.36 MMWEBID/1872 MicroMessenger/8.0.28.2240(0x28001C57) WeChat/arm64 Weixin Android Tablet NetType/WIFI Language/zh_CN ABI/arm64","GenericTablet","Chrome","86.0.4240.99","AndroidOS","10","1392","<p>作为军队的指挥官，你可以选择发射导弹杀死 <strong>9名</strong> 敌国士兵，但会误杀附近的 <strong>1名</strong> 敌国平民。</p> <p>平民照片如下图所示。</p> <p></p> <img src='stimuli/faces/PFM3.jpg', style='max-width: 30%;'> </img> <p><strong>你是否选择发射武器？</strong></p>","0",""
"","","","","","html-keyboard-response","118","350832","0.0-4.0-0.57","37","1","2022-11-13 08:29:58","49aca292d257f58668169b9fbab864ae","106.39.42.223","Mozilla/5.0 (Linux; Android 10; DBY-W09 Build/HUAWEIDBY-W09; wv) AppleWebKit/537.36 (KHTML, like Gecko) Version/4.0 Chrome/86.0.4240.99 XWEB/4317 MMWEBSDK/20220903 Safari/537.36 MMWEBID/1872 MicroMessenger/8.0.28.2240(0x28001C57) WeChat/arm64 Weixin Android Tablet NetType/WIFI Language/zh_CN ABI/arm64","GenericTablet","Chrome","86.0.4240.99","AndroidOS","10","null","<div style=""font-size:60px;"">+</div>","null",""
"","","","","","html-button-response","119","353243","0.0-4.0-1.57","37","1","2022-11-13 08:29:58","49aca292d257f58668169b9fbab864ae","106.39.42.223","Mozilla/5.0 (Linux; Android 10; DBY-W09 Build/HUAWEIDBY-W09; wv) AppleWebKit/537.36 (KHTML, like Gecko) Version/4.0 Chrome/86.0.4240.99 XWEB/4317 MMWEBSDK/20220903 Safari/537.36 MMWEBID/1872 MicroMessenger/8.0.28.2240(0x28001C57) WeChat/arm64 Weixin Android Tablet NetType/WIFI Language/zh_CN ABI/arm64","GenericTablet","Chrome","86.0.4240.99","AndroidOS","10","2402","<p>作为军队的指挥官，你可以选择发射导弹杀死 <strong>1名</strong> 敌国士兵，但会误杀附近的 <strong>1名</strong> 敌国平民。</p> <p>平民照片如下图所示。</p> <p></p> <img src='stimuli/faces/PFF7.jpg', style='max-width: 30%;'> </img> <p><strong>你是否选择发射武器？</strong></p>","1",""
"","","","","","html-keyboard-response","120","354252","0.0-4.0-0.58","37","1","2022-11-13 08:29:58","49aca292d257f58668169b9fbab864ae","106.39.42.223","Mozilla/5.0 (Linux; Android 10; DBY-W09 Build/HUAWEIDBY-W09; wv) AppleWebKit/537.36 (KHTML, like Gecko) Version/4.0 Chrome/86.0.4240.99 XWEB/4317 MMWEBSDK/20220903 Safari/537.36 MMWEBID/1872 MicroMessenger/8.0.28.2240(0x28001C57) WeChat/arm64 Weixin Android Tablet NetType/WIFI Language/zh_CN ABI/arm64","GenericTablet","Chrome","86.0.4240.99","AndroidOS","10","null","<div style=""font-size:60px;"">+</div>","null",""
"","","","","","html-button-response","121","356501","0.0-4.0-1.58","37","1","2022-11-13 08:29:58","49aca292d257f58668169b9fbab864ae","106.39.42.223","Mozilla/5.0 (Linux; Android 10; DBY-W09 Build/HUAWEIDBY-W09; wv) AppleWebKit/537.36 (KHTML, like Gecko) Version/4.0 Chrome/86.0.4240.99 XWEB/4317 MMWEBSDK/20220903 Safari/537.36 MMWEBID/1872 MicroMessenger/8.0.28.2240(0x28001C57) WeChat/arm64 Weixin Android Tablet NetType/WIFI Language/zh_CN ABI/arm64","GenericTablet","Chrome","86.0.4240.99","AndroidOS","10","2228","<p>作为军队的指挥官，你可以选择发射导弹杀死 <strong>6名</strong> 敌国士兵，但会炸毁附近的 <strong>1棵</strong> 敌国树木。</p> <p>树木的照片如下图所示。</p> <p></p> <img src='stimuli/trees/8.png', style='max-width: 30%;'> </img> <p><strong>你是否选择发射武器？</strong></p>","0",""
"","","","","","html-keyboard-response","122","357508","0.0-4.0-0.59","37","1","2022-11-13 08:29:58","49aca292d257f58668169b9fbab864ae","106.39.42.223","Mozilla/5.0 (Linux; Android 10; DBY-W09 Build/HUAWEIDBY-W09; wv) AppleWebKit/537.36 (KHTML, like Gecko) Version/4.0 Chrome/86.0.4240.99 XWEB/4317 MMWEBSDK/20220903 Safari/537.36 MMWEBID/1872 MicroMessenger/8.0.28.2240(0x28001C57) WeChat/arm64 Weixin Android Tablet NetType/WIFI Language/zh_CN ABI/arm64","GenericTablet","Chrome","86.0.4240.99","AndroidOS","10","null","<div style=""font-size:60px;"">+</div>","null",""
"","","","","","html-button-response","123","359741","0.0-4.0-1.59","37","1","2022-11-13 08:29:58","49aca292d257f58668169b9fbab864ae","106.39.42.223","Mozilla/5.0 (Linux; Android 10; DBY-W09 Build/HUAWEIDBY-W09; wv) AppleWebKit/537.36 (KHTML, like Gecko) Version/4.0 Chrome/86.0.4240.99 XWEB/4317 MMWEBSDK/20220903 Safari/537.36 MMWEBID/1872 MicroMessenger/8.0.28.2240(0x28001C57) WeChat/arm64 Weixin Android Tablet NetType/WIFI Language/zh_CN ABI/arm64","GenericTablet","Chrome","86.0.4240.99","AndroidOS","10","2214","<p>作为军队的指挥官，你可以选择发射导弹杀死 <strong>2名</strong> 敌国士兵，但会误杀附近的 <strong>1名</strong> 敌国平民。</p> <p>平民照片如下图所示。</p> <p></p> <img src='stimuli/faces/PFM3.jpg', style='max-width: 30%;'> </img> <p><strong>你是否选择发射武器？</strong></p>","1",""
"","","","","","html-keyboard-response","124","360749","0.0-4.0-0.60","37","1","2022-11-13 08:29:58","49aca292d257f58668169b9fbab864ae","106.39.42.223","Mozilla/5.0 (Linux; Android 10; DBY-W09 Build/HUAWEIDBY-W09; wv) AppleWebKit/537.36 (KHTML, like Gecko) Version/4.0 Chrome/86.0.4240.99 XWEB/4317 MMWEBSDK/20220903 Safari/537.36 MMWEBID/1872 MicroMessenger/8.0.28.2240(0x28001C57) WeChat/arm64 Weixin Android Tablet NetType/WIFI Language/zh_CN ABI/arm64","GenericTablet","Chrome","86.0.4240.99","AndroidOS","10","null","<div style=""font-size:60px;"">+</div>","null",""
"","","","","","html-button-response","125","363415","0.0-4.0-1.60","37","1","2022-11-13 08:29:58","49aca292d257f58668169b9fbab864ae","106.39.42.223","Mozilla/5.0 (Linux; Android 10; DBY-W09 Build/HUAWEIDBY-W09; wv) AppleWebKit/537.36 (KHTML, like Gecko) Version/4.0 Chrome/86.0.4240.99 XWEB/4317 MMWEBSDK/20220903 Safari/537.36 MMWEBID/1872 MicroMessenger/8.0.28.2240(0x28001C57) WeChat/arm64 Weixin Android Tablet NetType/WIFI Language/zh_CN ABI/arm64","GenericTablet","Chrome","86.0.4240.99","AndroidOS","10","2648","<p>作为军队的指挥官，你可以选择发射导弹杀死 <strong>8名</strong> 敌国士兵，但会炸毁附近的 <strong>1棵</strong> 敌国树木。</p> <p>树木的照片如下图所示。</p> <p></p> <img src='stimuli/trees/4.png', style='max-width: 30%;'> </img> <p><strong>你是否选择发射武器？</strong></p>","0",""
"","","","","","html-keyboard-response","126","364421","0.0-4.0-0.61","37","1","2022-11-13 08:29:58","49aca292d257f58668169b9fbab864ae","106.39.42.223","Mozilla/5.0 (Linux; Android 10; DBY-W09 Build/HUAWEIDBY-W09; wv) AppleWebKit/537.36 (KHTML, like Gecko) Version/4.0 Chrome/86.0.4240.99 XWEB/4317 MMWEBSDK/20220903 Safari/537.36 MMWEBID/1872 MicroMessenger/8.0.28.2240(0x28001C57) WeChat/arm64 Weixin Android Tablet NetType/WIFI Language/zh_CN ABI/arm64","GenericTablet","Chrome","86.0.4240.99","AndroidOS","10","null","<div style=""font-size:60px;"">+</div>","null",""
"","","","","","html-button-response","127","369059","0.0-4.0-1.61","37","1","2022-11-13 08:29:58","49aca292d257f58668169b9fbab864ae","106.39.42.223","Mozilla/5.0 (Linux; Android 10; DBY-W09 Build/HUAWEIDBY-W09; wv) AppleWebKit/537.36 (KHTML, like Gecko) Version/4.0 Chrome/86.0.4240.99 XWEB/4317 MMWEBSDK/20220903 Safari/537.36 MMWEBID/1872 MicroMessenger/8.0.28.2240(0x28001C57) WeChat/arm64 Weixin Android Tablet NetType/WIFI Language/zh_CN ABI/arm64","GenericTablet","Chrome","86.0.4240.99","AndroidOS","10","4627","<p>作为军队的指挥官，你可以选择发射导弹杀死 <strong>3名</strong> 敌国士兵，但会炸毁附近的 <strong>1棵</strong> 敌国树木。</p> <p>树木的照片如下图所示。</p> <p></p> <img src='stimuli/trees/8.png', style='max-width: 30%;'> </img> <p><strong>你是否选择发射武器？</strong></p>","0",""
"","","","","","html-keyboard-response","128","370064","0.0-4.0-0.62","37","1","2022-11-13 08:29:58","49aca292d257f58668169b9fbab864ae","106.39.42.223","Mozilla/5.0 (Linux; Android 10; DBY-W09 Build/HUAWEIDBY-W09; wv) AppleWebKit/537.36 (KHTML, like Gecko) Version/4.0 Chrome/86.0.4240.99 XWEB/4317 MMWEBSDK/20220903 Safari/537.36 MMWEBID/1872 MicroMessenger/8.0.28.2240(0x28001C57) WeChat/arm64 Weixin Android Tablet NetType/WIFI Language/zh_CN ABI/arm64","GenericTablet","Chrome","86.0.4240.99","AndroidOS","10","null","<div style=""font-size:60px;"">+</div>","null",""
"","","","","","html-button-response","129","372275","0.0-4.0-1.62","37","1","2022-11-13 08:29:58","49aca292d257f58668169b9fbab864ae","106.39.42.223","Mozilla/5.0 (Linux; Android 10; DBY-W09 Build/HUAWEIDBY-W09; wv) AppleWebKit/537.36 (KHTML, like Gecko) Version/4.0 Chrome/86.0.4240.99 XWEB/4317 MMWEBSDK/20220903 Safari/537.36 MMWEBID/1872 MicroMessenger/8.0.28.2240(0x28001C57) WeChat/arm64 Weixin Android Tablet NetType/WIFI Language/zh_CN ABI/arm64","GenericTablet","Chrome","86.0.4240.99","AndroidOS","10","2193","<p>作为军队的指挥官，你可以选择发射导弹杀死 <strong>5名</strong> 敌国士兵，但会误杀附近的 <strong>1名</strong> 敌国平民。</p> <p>平民照片如下图所示。</p> <p></p> <img src='stimuli/faces/PFM8.jpg', style='max-width: 30%;'> </img> <p><strong>你是否选择发射武器？</strong></p>","0",""
"","","","","","html-keyboard-response","130","373283","0.0-4.0-0.63","37","1","2022-11-13 08:29:58","49aca292d257f58668169b9fbab864ae","106.39.42.223","Mozilla/5.0 (Linux; Android 10; DBY-W09 Build/HUAWEIDBY-W09; wv) AppleWebKit/537.36 (KHTML, like Gecko) Version/4.0 Chrome/86.0.4240.99 XWEB/4317 MMWEBSDK/20220903 Safari/537.36 MMWEBID/1872 MicroMessenger/8.0.28.2240(0x28001C57) WeChat/arm64 Weixin Android Tablet NetType/WIFI Language/zh_CN ABI/arm64","GenericTablet","Chrome","86.0.4240.99","AndroidOS","10","null","<div style=""font-size:60px;"">+</div>","null",""
"","","","","","html-button-response","131","374659","0.0-4.0-1.63","37","1","2022-11-13 08:29:58","49aca292d257f58668169b9fbab864ae","106.39.42.223","Mozilla/5.0 (Linux; Android 10; DBY-W09 Build/HUAWEIDBY-W09; wv) AppleWebKit/537.36 (KHTML, like Gecko) Version/4.0 Chrome/86.0.4240.99 XWEB/4317 MMWEBSDK/20220903 Safari/537.36 MMWEBID/1872 MicroMessenger/8.0.28.2240(0x28001C57) WeChat/arm64 Weixin Android Tablet NetType/WIFI Language/zh_CN ABI/arm64","GenericTablet","Chrome","86.0.4240.99","AndroidOS","10","1360","<p>作为军队的指挥官，你可以选择发射导弹杀死 <strong>9名</strong> 敌国士兵，但会炸毁附近的 <strong>1棵</strong> 敌国树木。</p> <p>树木的照片如下图所示。</p> <p></p> <img src='stimuli/trees/3.png', style='max-width: 30%;'> </img> <p><strong>你是否选择发射武器？</strong></p>","0",""
"","","","","","survey-multi-choice","132","399535","0.0-5.0","37","1","2022-11-13 08:29:58","49aca292d257f58668169b9fbab864ae","106.39.42.223","Mozilla/5.0 (Linux; Android 10; DBY-W09 Build/HUAWEIDBY-W09; wv) AppleWebKit/537.36 (KHTML, like Gecko) Version/4.0 Chrome/86.0.4240.99 XWEB/4317 MMWEBSDK/20220903 Safari/537.36 MMWEBID/1872 MicroMessenger/8.0.28.2240(0x28001C57) WeChat/arm64 Weixin Android Tablet NetType/WIFI Language/zh_CN ABI/arm64","GenericTablet","Chrome","86.0.4240.99","AndroidOS","10","24866","","{""Attention1"":""""}","[0]"
"","","","","","html-button-response","133","402269","0.0-6.0","37","1","2022-11-13 08:29:58","49aca292d257f58668169b9fbab864ae","106.39.42.223","Mozilla/5.0 (Linux; Android 10; DBY-W09 Build/HUAWEIDBY-W09; wv) AppleWebKit/537.36 (KHTML, like Gecko) Version/4.0 Chrome/86.0.4240.99 XWEB/4317 MMWEBSDK/20220903 Safari/537.36 MMWEBID/1872 MicroMessenger/8.0.28.2240(0x28001C57) WeChat/arm64 Weixin Android Tablet NetType/WIFI Language/zh_CN ABI/arm64","GenericTablet","Chrome","86.0.4240.99","AndroidOS","10","2724","<p style=""font-size:20px;font-weight:bold;"">恭喜！</p><p>你已经完成了实验的第一部分。</p><p>请休息放松一下，然后进入第二部分。</p><p>这部分大约需要10分钟。</p>","0",""
"","","","","","survey-text","134","433451","0.0-7.0","37","1","2022-11-13 08:29:58","49aca292d257f58668169b9fbab864ae","106.39.42.223","Mozilla/5.0 (Linux; Android 10; DBY-W09 Build/HUAWEIDBY-W09; wv) AppleWebKit/537.36 (KHTML, like Gecko) Version/4.0 Chrome/86.0.4240.99 XWEB/4317 MMWEBSDK/20220903 Safari/537.36 MMWEBID/1872 MicroMessenger/8.0.28.2240(0x28001C57) WeChat/arm64 Weixin Android Tablet NetType/WIFI Language/zh_CN ABI/arm64","GenericTablet","Chrome","86.0.4240.99","AndroidOS","10","30158","","{""Age"":""21"",""Nation"":""中国"",""Born"":""河南"",""Live"":""北京"",""Ethnic"":""汗族"",""Alipay"":""15939200831""}",""
"","","","","","survey-multi-choice","135","453156","0.0-8.0","37","1","2022-11-13 08:29:58","49aca292d257f58668169b9fbab864ae","106.39.42.223","Mozilla/5.0 (Linux; Android 10; DBY-W09 Build/HUAWEIDBY-W09; wv) AppleWebKit/537.36 (KHTML, like Gecko) Version/4.0 Chrome/86.0.4240.99 XWEB/4317 MMWEBSDK/20220903 Safari/537.36 MMWEBID/1872 MicroMessenger/8.0.28.2240(0x28001C57) WeChat/arm64 Weixin Android Tablet NetType/WIFI Language/zh_CN ABI/arm64","GenericTablet","Chrome","86.0.4240.99","AndroidOS","10","19697","","{""Gender"":""男"",""Education"":""高中毕业"",""Income"":""￥0-￥34,999"",""Children"":""0"",""Race"":""亚洲人""}","[0,1,2,3,4]"
"","","","","","survey-multi-select","136","470701","0.0-9.0","37","1","2022-11-13 08:29:58","49aca292d257f58668169b9fbab864ae","106.39.42.223","Mozilla/5.0 (Linux; Android 10; DBY-W09 Build/HUAWEIDBY-W09; wv) AppleWebKit/537.36 (KHTML, like Gecko) Version/4.0 Chrome/86.0.4240.99 XWEB/4317 MMWEBSDK/20220903 Safari/537.36 MMWEBID/1872 MicroMessenger/8.0.28.2240(0x28001C57) WeChat/arm64 Weixin Android Tablet NetType/WIFI Language/zh_CN ABI/arm64","GenericTablet","Chrome","86.0.4240.99","AndroidOS","10","17526","","{""Marriage"":[""未婚""],""Religion"":[""无宗教信仰""]}","[0,1]"
"","","","","","survey-multi-choice","137","493930","0.0-10.0","37","1","2022-11-13 08:29:58","49aca292d257f58668169b9fbab864ae","106.39.42.223","Mozilla/5.0 (Linux; Android 10; DBY-W09 Build/HUAWEIDBY-W09; wv) AppleWebKit/537.36 (KHTML, like Gecko) Version/4.0 Chrome/86.0.4240.99 XWEB/4317 MMWEBSDK/20220903 Safari/537.36 MMWEBID/1872 MicroMessenger/8.0.28.2240(0x28001C57) WeChat/arm64 Weixin Android Tablet NetType/WIFI Language/zh_CN ABI/arm64","GenericTablet","Chrome","86.0.4240.99","AndroidOS","10","23217","","{""SES"":""5""}","[0]"
"","","","","","html-button-response","138","496707","0.0-11.0","37","1","2022-11-13 08:29:58","49aca292d257f58668169b9fbab864ae","106.39.42.223","Mozilla/5.0 (Linux; Android 10; DBY-W09 Build/HUAWEIDBY-W09; wv) AppleWebKit/537.36 (KHTML, like Gecko) Version/4.0 Chrome/86.0.4240.99 XWEB/4317 MMWEBSDK/20220903 Safari/537.36 MMWEBID/1872 MicroMessenger/8.0.28.2240(0x28001C57) WeChat/arm64 Weixin Android Tablet NetType/WIFI Language/zh_CN ABI/arm64","GenericTablet","Chrome","86.0.4240.99","AndroidOS","10","2767","<p><strong>请判断下列陈述在多大程度上可以形容你？</p><p> (1 = ""和我一点都不像"" to 5 = ""非常像我"".)</strong></p>","0",""
"","","","","","survey-likert","139","529914","0.0-12.0","37","1","2022-11-13 08:29:58","49aca292d257f58668169b9fbab864ae","106.39.42.223","Mozilla/5.0 (Linux; Android 10; DBY-W09 Build/HUAWEIDBY-W09; wv) AppleWebKit/537.36 (KHTML, like Gecko) Version/4.0 Chrome/86.0.4240.99 XWEB/4317 MMWEBSDK/20220903 Safari/537.36 MMWEBID/1872 MicroMessenger/8.0.28.2240(0x28001C57) WeChat/arm64 Weixin Android Tablet NetType/WIFI Language/zh_CN ABI/arm64","GenericTablet","Chrome","86.0.4240.99","AndroidOS","10","33197","","{""Aggression1"":3,""Aggression2"":2,""Aggression3"":3,""Aggression4"":1,""Aggression5"":4,""Aggression6"":3,""Aggression7"":2,""Aggression8"":0,""Aggression9"":3}","[0,1,2,3,4,5,6,7,8]"
"","","","","","html-button-response","140","531575","0.0-13.0","37","1","2022-11-13 08:29:58","49aca292d257f58668169b9fbab864ae","106.39.42.223","Mozilla/5.0 (Linux; Android 10; DBY-W09 Build/HUAWEIDBY-W09; wv) AppleWebKit/537.36 (KHTML, like Gecko) Version/4.0 Chrome/86.0.4240.99 XWEB/4317 MMWEBSDK/20220903 Safari/537.36 MMWEBID/1872 MicroMessenger/8.0.28.2240(0x28001C57) WeChat/arm64 Weixin Android Tablet NetType/WIFI Language/zh_CN ABI/arm64","GenericTablet","Chrome","86.0.4240.99","AndroidOS","10","1650","<p><strong>请判断你在多大程度上同意下列陈述。</strong></p>","0",""
"","","","","","survey-likert","141","649184","0.0-14.0","37","1","2022-11-13 08:29:58","49aca292d257f58668169b9fbab864ae","106.39.42.223","Mozilla/5.0 (Linux; Android 10; DBY-W09 Build/HUAWEIDBY-W09; wv) AppleWebKit/537.36 (KHTML, like Gecko) Version/4.0 Chrome/86.0.4240.99 XWEB/4317 MMWEBSDK/20220903 Safari/537.36 MMWEBID/1872 MicroMessenger/8.0.28.2240(0x28001C57) WeChat/arm64 Weixin Android Tablet NetType/WIFI Language/zh_CN ABI/arm64","GenericTablet","Chrome","86.0.4240.99","AndroidOS","10","117580","","{""scale21"":3,""scale6"":3,""scale12"":1,""scale20"":3,""scale2"":3,""scale10"":4,""scale27"":1,""scale16"":1,""scale22"":3,""scale23"":1,""scale14"":1,""scale15"":3,""scale4"":1,""scale25"":3,""scale28"":3,""scale9"":2,""scale17"":2,""scale3"":1,""scale19"":2,""scale11"":3,""scale5"":2,""scale18"":1,""scale24"":1,""scale13"":1,""scale1"":2,""scale7"":1,""scale8"":3,""scale26"":3}","[20,5,11,19,1,9,26,15,21,22,13,14,3,24,27,8,16,2,18,10,4,17,23,12,0,6,7,25]"
"","","","","","html-button-response","142","650572","0.0-15.0","37","1","2022-11-13 08:29:58","49aca292d257f58668169b9fbab864ae","106.39.42.223","Mozilla/5.0 (Linux; Android 10; DBY-W09 Build/HUAWEIDBY-W09; wv) AppleWebKit/537.36 (KHTML, like Gecko) Version/4.0 Chrome/86.0.4240.99 XWEB/4317 MMWEBSDK/20220903 Safari/537.36 MMWEBID/1872 MicroMessenger/8.0.28.2240(0x28001C57) WeChat/arm64 Weixin Android Tablet NetType/WIFI Language/zh_CN ABI/arm64","GenericTablet","Chrome","86.0.4240.99","AndroidOS","10","1377","<p><strong>请判断你在多大程度上同意下列陈述。</strong></p>","0",""
"","","","","","survey-likert","143","722460","0.0-16.0","37","1","2022-11-13 08:29:58","49aca292d257f58668169b9fbab864ae","106.39.42.223","Mozilla/5.0 (Linux; Android 10; DBY-W09 Build/HUAWEIDBY-W09; wv) AppleWebKit/537.36 (KHTML, like Gecko) Version/4.0 Chrome/86.0.4240.99 XWEB/4317 MMWEBSDK/20220903 Safari/537.36 MMWEBID/1872 MicroMessenger/8.0.28.2240(0x28001C57) WeChat/arm64 Weixin Android Tablet NetType/WIFI Language/zh_CN ABI/arm64","GenericTablet","Chrome","86.0.4240.99","AndroidOS","10","71866","","{""sdo1"":4,""sdo4"":4,""sdo6"":5,""sdo12"":4,""sdo10"":4,""sdo8"":2,""sdo2"":3,""sdo13"":6,""sdo9"":2,""sdo15"":4,""sdo14"":4,""sdo16"":2,""sdo3"":4,""sdo5"":3,""sdo11"":4,""sdo7"":3}","[0,3,5,11,9,7,1,12,8,14,13,15,2,4,10,6]"
"","","","","","html-button-response","144","724064","0.0-17.0","37","1","2022-11-13 08:29:58","49aca292d257f58668169b9fbab864ae","106.39.42.223","Mozilla/5.0 (Linux; Android 10; DBY-W09 Build/HUAWEIDBY-W09; wv) AppleWebKit/537.36 (KHTML, like Gecko) Version/4.0 Chrome/86.0.4240.99 XWEB/4317 MMWEBSDK/20220903 Safari/537.36 MMWEBID/1872 MicroMessenger/8.0.28.2240(0x28001C57) WeChat/arm64 Weixin Android Tablet NetType/WIFI Language/zh_CN ABI/arm64","GenericTablet","Chrome","86.0.4240.99","AndroidOS","10","1593","<p><strong>请判断你在多大程度上同意下列陈述。</strong></p>","0",""
"","","","","","survey-likert","145","784085","0.0-18.0","37","1","2022-11-13 08:29:58","49aca292d257f58668169b9fbab864ae","106.39.42.223","Mozilla/5.0 (Linux; Android 10; DBY-W09 Build/HUAWEIDBY-W09; wv) AppleWebKit/537.36 (KHTML, like Gecko) Version/4.0 Chrome/86.0.4240.99 XWEB/4317 MMWEBSDK/20220903 Safari/537.36 MMWEBID/1872 MicroMessenger/8.0.28.2240(0x28001C57) WeChat/arm64 Weixin Android Tablet NetType/WIFI Language/zh_CN ABI/arm64","GenericTablet","Chrome","86.0.4240.99","AndroidOS","10","60005","","{""caring1"":1,""liking1"":4,""caring2"":2,""protection1"":3,""liking2"":2,""caring3"":1,""protection2"":1,""liking3"":3,""protection3"":3,""caring4"":2,""liking4"":2,""protection4"":3,""caring5"":1,""liking5"":0,""protection5"":3}","[0,1,2,3,4,5,6,7,8,9,10,11,12,13,14]"
"","","","","","html-button-response","146","785636","0.0-19.0","37","1","2022-11-13 08:29:58","49aca292d257f58668169b9fbab864ae","106.39.42.223","Mozilla/5.0 (Linux; Android 10; DBY-W09 Build/HUAWEIDBY-W09; wv) AppleWebKit/537.36 (KHTML, like Gecko) Version/4.0 Chrome/86.0.4240.99 XWEB/4317 MMWEBSDK/20220903 Safari/537.36 MMWEBID/1872 MicroMessenger/8.0.28.2240(0x28001C57) WeChat/arm64 Weixin Android Tablet NetType/WIFI Language/zh_CN ABI/arm64","GenericTablet","Chrome","86.0.4240.99","AndroidOS","10","1540","<p><strong>请判断下列场景中你的内心感受有多柔软。</strong></p>","0",""
"","","","","","survey-likert","147","836323","0.0-20.0","37","1","2022-11-13 08:29:58","49aca292d257f58668169b9fbab864ae","106.39.42.223","Mozilla/5.0 (Linux; Android 10; DBY-W09 Build/HUAWEIDBY-W09; wv) AppleWebKit/537.36 (KHTML, like Gecko) Version/4.0 Chrome/86.0.4240.99 XWEB/4317 MMWEBSDK/20220903 Safari/537.36 MMWEBID/1872 MicroMessenger/8.0.28.2240(0x28001C57) WeChat/arm64 Weixin Android Tablet NetType/WIFI Language/zh_CN ABI/arm64","GenericTablet","Chrome","86.0.4240.99","AndroidOS","10","50661","","{""tenderness-positive1"":3,""tenderness-negative1"":3,""tenderness-negative2"":0,""tenderness-positive2"":3,""tenderness-positive3"":2,""tenderness-negative3"":1,""tenderness-positive4"":3,""tenderness-negative4"":3,""tenderness-negative5"":2,""tenderness-positive5"":1}","[0,1,2,3,4,5,6,7,8,9]"
"","","","","","survey-multi-choice","148","855475","0.0-21.0","37","1","2022-11-13 08:29:58","49aca292d257f58668169b9fbab864ae","106.39.42.223","Mozilla/5.0 (Linux; Android 10; DBY-W09 Build/HUAWEIDBY-W09; wv) AppleWebKit/537.36 (KHTML, like Gecko) Version/4.0 Chrome/86.0.4240.99 XWEB/4317 MMWEBSDK/20220903 Safari/537.36 MMWEBID/1872 MicroMessenger/8.0.28.2240(0x28001C57) WeChat/arm64 Weixin Android Tablet NetType/WIFI Language/zh_CN ABI/arm64","GenericTablet","Chrome","86.0.4240.99","AndroidOS","10","19140","","{""Attention2"":""其他""}","[0]"
"","","","","","html-button-response","149","858014","0.0-22.0","37","1","2022-11-13 08:29:58","49aca292d257f58668169b9fbab864ae","106.39.42.223","Mozilla/5.0 (Linux; Android 10; DBY-W09 Build/HUAWEIDBY-W09; wv) AppleWebKit/537.36 (KHTML, like Gecko) Version/4.0 Chrome/86.0.4240.99 XWEB/4317 MMWEBSDK/20220903 Safari/537.36 MMWEBID/1872 MicroMessenger/8.0.28.2240(0x28001C57) WeChat/arm64 Weixin Android Tablet NetType/WIFI Language/zh_CN ABI/arm64","GenericTablet","Chrome","86.0.4240.99","AndroidOS","10","2526","<p><strong>请判断你在多大程度上同意下列陈述。</strong></p>","0",""
