"success","timeout","failed_images","failed_audio","failed_video","trial_type","trial_index","time_elapsed","internal_node_id","run_id","condition","recorded_at","source_code_version","ip","user_agent","device","browser","browser_version","platform","platform_version","rt","stimulus","response","question_order"
"true","false","[]","[]","[]","preload","0","3514","0.0-0.0","50","1","2022-11-13 08:39:55","49aca292d257f58668169b9fbab864ae","119.4.228.202","Mozilla/5.0 (Windows NT 6.1; Win64; x64) AppleWebKit/537.36 (KHTML, like Gecko) Chrome/98.0.4758.139 Safari/537.36","WebKit","Chrome","98.0.4758.139","Windows","6.1","","","",""
"true","","","","","fullscreen","1","25949","0.0-1.0","50","1","2022-11-13 08:39:55","49aca292d257f58668169b9fbab864ae","119.4.228.202","Mozilla/5.0 (Windows NT 6.1; Win64; x64) AppleWebKit/537.36 (KHTML, like Gecko) Chrome/98.0.4758.139 Safari/537.36","WebKit","Chrome","98.0.4758.139","Windows","6.1","","","",""
"","","","","","html-button-response","2","53195","0.0-2.0","50","1","2022-11-13 08:39:55","49aca292d257f58668169b9fbab864ae","119.4.228.202","Mozilla/5.0 (Windows NT 6.1; Win64; x64) AppleWebKit/537.36 (KHTML, like Gecko) Chrome/98.0.4758.139 Safari/537.36","WebKit","Chrome","98.0.4758.139","Windows","6.1","27243","<p style=""font-size:20px;font-weight:bold;"">实验知情同意书</p><p style=""text-align:left;""><strong>实验名称：</strong>社会冲突研究</p><p style=""text-align:left;""><strong>主要研究者：</strong>韩晓春副教授（北京师范大学心理学部）</p><p style=""text-align:left;""><strong>联系方式：</strong>发送邮件至xiaochun.han@bnu.edu.cn</p><p style=""text-align:left;""><strong>研究目的：</strong>研究旨在了解人类面对群体冲突时的决策方式，以及相关的心理学特质。实验调查大约需要20分钟。</p><p style=""text-align:left;""><strong>实验流程：</strong>实验包含两部分。第一部分呈现一系列群体冲突场景，请你决定如何对这些冲突进行反应，大约需要10分钟完成。第二部分包含一系列人口统计学信息收集和心理学问卷，大约需要10分钟完成。</p><p style=""text-align:left;""><strong>参加及退出规则：</strong>参加本实验完全取决于您的个人意愿。在参与过程中，您可以随时退出，并且不用承担任何后果。</p><p style=""text-align:left;""><strong>隐私：</strong>本实验完全匿名进行，不会收集您的姓名或其他能够识别您身份的信息。实验中收集的作答仅用作科学研究使用，可能会在学术期刊/书籍上发表，或者用于教学，您的数据未来可能会和其他研究者或实验室分享，但您的个人身份不会被识别。</p><p style=""text-align:left;""><strong>实验报酬：</strong>实验完成后，您将获得15元人民币报酬，以感谢您的时间和努力。调查问卷中包含几道题目用以测验您作答时的认真度。只有完成全部实验，并且正确回答认真度测验的被试才能获得实验报酬。实验报酬将通过支付宝转账发放。</p><p style=""text-align:left;font-size:20px;""><strong>如果您同意以上实验知情同意书的内容，请点击'同意并且开始实验'按钮；否则请关闭浏览器界面，退出实验。</strong></p>","0",""
"","","","","","html-button-response","3","67747","0.0-3.0","50","1","2022-11-13 08:39:55","49aca292d257f58668169b9fbab864ae","119.4.228.202","Mozilla/5.0 (Windows NT 6.1; Win64; x64) AppleWebKit/537.36 (KHTML, like Gecko) Chrome/98.0.4758.139 Safari/537.36","WebKit","Chrome","98.0.4758.139","Windows","6.1","14547","<p ><strong>实验任务一：</strong></p><p>请想象你的国家与另一个国家发生了军事冲突。</p><p>你是国家军队的指挥官，你将如何在冲突中进行决策。</p><p>具体来说，作为军队指挥官，请你决定是否发射导弹进行打击。</p><p>接下来，你会面对一系列场景，请仔细阅读每个场景，然后进行决策。</p><p>这部分实验任务大约需要10分钟。</p><p><strong>实验过程中，请集中注意力。</strong></p>","0",""
"","","","","","html-keyboard-response","4","68750","0.0-4.0-0.0","50","1","2022-11-13 08:39:55","49aca292d257f58668169b9fbab864ae","119.4.228.202","Mozilla/5.0 (Windows NT 6.1; Win64; x64) AppleWebKit/537.36 (KHTML, like Gecko) Chrome/98.0.4758.139 Safari/537.36","WebKit","Chrome","98.0.4758.139","Windows","6.1","null","<div style=""font-size:60px;"">+</div>","null",""
"","","","","","html-button-response","5","80524","0.0-4.0-1.0","50","1","2022-11-13 08:39:55","49aca292d257f58668169b9fbab864ae","119.4.228.202","Mozilla/5.0 (Windows NT 6.1; Win64; x64) AppleWebKit/537.36 (KHTML, like Gecko) Chrome/98.0.4758.139 Safari/537.36","WebKit","Chrome","98.0.4758.139","Windows","6.1","11769","<p>作为军队的指挥官，你可以选择发射导弹杀死 <strong>4名</strong> 敌国士兵，但会误杀附近的 <strong>1名</strong> 敌国平民。</p> <p>平民照片如下图所示。</p> <p></p> <img src='stimuli/faces/PFM3.jpg', style='max-width: 30%;'> </img> <p><strong>你是否选择发射武器？</strong></p>","0",""
"","","","","","html-keyboard-response","6","81527","0.0-4.0-0.1","50","1","2022-11-13 08:39:55","49aca292d257f58668169b9fbab864ae","119.4.228.202","Mozilla/5.0 (Windows NT 6.1; Win64; x64) AppleWebKit/537.36 (KHTML, like Gecko) Chrome/98.0.4758.139 Safari/537.36","WebKit","Chrome","98.0.4758.139","Windows","6.1","null","<div style=""font-size:60px;"">+</div>","null",""
"","","","","","html-button-response","7","88248","0.0-4.0-1.1","50","1","2022-11-13 08:39:55","49aca292d257f58668169b9fbab864ae","119.4.228.202","Mozilla/5.0 (Windows NT 6.1; Win64; x64) AppleWebKit/537.36 (KHTML, like Gecko) Chrome/98.0.4758.139 Safari/537.36","WebKit","Chrome","98.0.4758.139","Windows","6.1","6718","<p>作为军队的指挥官，你可以选择发射导弹杀死 <strong>3名</strong> 敌国士兵，但会误杀附近的 <strong>1名</strong> 敌国平民。</p> <p>平民照片如下图所示。</p> <p></p> <img src='stimuli/faces/PFF1.jpg', style='max-width: 30%;'> </img> <p><strong>你是否选择发射武器？</strong></p>","0",""
"","","","","","html-keyboard-response","8","89250","0.0-4.0-0.2","50","1","2022-11-13 08:39:55","49aca292d257f58668169b9fbab864ae","119.4.228.202","Mozilla/5.0 (Windows NT 6.1; Win64; x64) AppleWebKit/537.36 (KHTML, like Gecko) Chrome/98.0.4758.139 Safari/537.36","WebKit","Chrome","98.0.4758.139","Windows","6.1","null","<div style=""font-size:60px;"">+</div>","null",""
"","","","","","html-button-response","9","92566","0.0-4.0-1.2","50","1","2022-11-13 08:39:55","49aca292d257f58668169b9fbab864ae","119.4.228.202","Mozilla/5.0 (Windows NT 6.1; Win64; x64) AppleWebKit/537.36 (KHTML, like Gecko) Chrome/98.0.4758.139 Safari/537.36","WebKit","Chrome","98.0.4758.139","Windows","6.1","3311","<p>作为军队的指挥官，你可以选择发射导弹杀死 <strong>6名</strong> 敌国士兵，但会误杀附近的 <strong>1名</strong> 敌国平民。</p> <p>平民照片如下图所示。</p> <p></p> <img src='stimuli/faces/PFM2.jpg', style='max-width: 30%;'> </img> <p><strong>你是否选择发射武器？</strong></p>","0",""
"","","","","","html-keyboard-response","10","93568","0.0-4.0-0.3","50","1","2022-11-13 08:39:55","49aca292d257f58668169b9fbab864ae","119.4.228.202","Mozilla/5.0 (Windows NT 6.1; Win64; x64) AppleWebKit/537.36 (KHTML, like Gecko) Chrome/98.0.4758.139 Safari/537.36","WebKit","Chrome","98.0.4758.139","Windows","6.1","null","<div style=""font-size:60px;"">+</div>","null",""
"","","","","","html-button-response","11","97395","0.0-4.0-1.3","50","1","2022-11-13 08:39:55","49aca292d257f58668169b9fbab864ae","119.4.228.202","Mozilla/5.0 (Windows NT 6.1; Win64; x64) AppleWebKit/537.36 (KHTML, like Gecko) Chrome/98.0.4758.139 Safari/537.36","WebKit","Chrome","98.0.4758.139","Windows","6.1","3823","<p>作为军队的指挥官，你可以选择发射导弹杀死 <strong>5名</strong> 敌国士兵，但会炸毁附近的 <strong>1棵</strong> 敌国树木。</p> <p>树木的照片如下图所示。</p> <p></p> <img src='stimuli/trees/15.png', style='max-width: 30%;'> </img> <p><strong>你是否选择发射武器？</strong></p>","0",""
"","","","","","html-keyboard-response","12","98398","0.0-4.0-0.4","50","1","2022-11-13 08:39:55","49aca292d257f58668169b9fbab864ae","119.4.228.202","Mozilla/5.0 (Windows NT 6.1; Win64; x64) AppleWebKit/537.36 (KHTML, like Gecko) Chrome/98.0.4758.139 Safari/537.36","WebKit","Chrome","98.0.4758.139","Windows","6.1","null","<div style=""font-size:60px;"">+</div>","null",""
"","","","","","html-button-response","13","101216","0.0-4.0-1.4","50","1","2022-11-13 08:39:55","49aca292d257f58668169b9fbab864ae","119.4.228.202","Mozilla/5.0 (Windows NT 6.1; Win64; x64) AppleWebKit/537.36 (KHTML, like Gecko) Chrome/98.0.4758.139 Safari/537.36","WebKit","Chrome","98.0.4758.139","Windows","6.1","2815","<p>作为军队的指挥官，你可以选择发射导弹杀死 <strong>3名</strong> 敌国士兵，但会误杀附近的 <strong>1名</strong> 敌国平民。</p> <p>平民照片如下图所示。</p> <p></p> <img src='stimuli/faces/PFM5.jpg', style='max-width: 30%;'> </img> <p><strong>你是否选择发射武器？</strong></p>","0",""
"","","","","","html-keyboard-response","14","102218","0.0-4.0-0.5","50","1","2022-11-13 08:39:55","49aca292d257f58668169b9fbab864ae","119.4.228.202","Mozilla/5.0 (Windows NT 6.1; Win64; x64) AppleWebKit/537.36 (KHTML, like Gecko) Chrome/98.0.4758.139 Safari/537.36","WebKit","Chrome","98.0.4758.139","Windows","6.1","null","<div style=""font-size:60px;"">+</div>","null",""
"","","","","","html-button-response","15","104829","0.0-4.0-1.5","50","1","2022-11-13 08:39:55","49aca292d257f58668169b9fbab864ae","119.4.228.202","Mozilla/5.0 (Windows NT 6.1; Win64; x64) AppleWebKit/537.36 (KHTML, like Gecko) Chrome/98.0.4758.139 Safari/537.36","WebKit","Chrome","98.0.4758.139","Windows","6.1","2608","<p>作为军队的指挥官，你可以选择发射导弹杀死 <strong>4名</strong> 敌国士兵，但会误杀附近的 <strong>1名</strong> 敌国平民。</p> <p>平民照片如下图所示。</p> <p></p> <img src='stimuli/faces/PFF7.jpg', style='max-width: 30%;'> </img> <p><strong>你是否选择发射武器？</strong></p>","0",""
"","","","","","html-keyboard-response","16","105832","0.0-4.0-0.6","50","1","2022-11-13 08:39:55","49aca292d257f58668169b9fbab864ae","119.4.228.202","Mozilla/5.0 (Windows NT 6.1; Win64; x64) AppleWebKit/537.36 (KHTML, like Gecko) Chrome/98.0.4758.139 Safari/537.36","WebKit","Chrome","98.0.4758.139","Windows","6.1","null","<div style=""font-size:60px;"">+</div>","null",""
"","","","","","html-button-response","17","108860","0.0-4.0-1.6","50","1","2022-11-13 08:39:55","49aca292d257f58668169b9fbab864ae","119.4.228.202","Mozilla/5.0 (Windows NT 6.1; Win64; x64) AppleWebKit/537.36 (KHTML, like Gecko) Chrome/98.0.4758.139 Safari/537.36","WebKit","Chrome","98.0.4758.139","Windows","6.1","3025","<p>作为军队的指挥官，你可以选择发射导弹杀死 <strong>2名</strong> 敌国士兵，但会误杀附近的 <strong>1名</strong> 敌国平民。</p> <p>平民照片如下图所示。</p> <p></p> <img src='stimuli/faces/PFF6.jpg', style='max-width: 30%;'> </img> <p><strong>你是否选择发射武器？</strong></p>","0",""
"","","","","","html-keyboard-response","18","109862","0.0-4.0-0.7","50","1","2022-11-13 08:39:55","49aca292d257f58668169b9fbab864ae","119.4.228.202","Mozilla/5.0 (Windows NT 6.1; Win64; x64) AppleWebKit/537.36 (KHTML, like Gecko) Chrome/98.0.4758.139 Safari/537.36","WebKit","Chrome","98.0.4758.139","Windows","6.1","null","<div style=""font-size:60px;"">+</div>","null",""
"","","","","","html-button-response","19","112213","0.0-4.0-1.7","50","1","2022-11-13 08:39:55","49aca292d257f58668169b9fbab864ae","119.4.228.202","Mozilla/5.0 (Windows NT 6.1; Win64; x64) AppleWebKit/537.36 (KHTML, like Gecko) Chrome/98.0.4758.139 Safari/537.36","WebKit","Chrome","98.0.4758.139","Windows","6.1","2347","<p>作为军队的指挥官，你可以选择发射导弹杀死 <strong>7名</strong> 敌国士兵，但会误杀附近的 <strong>1名</strong> 敌国平民。</p> <p>平民照片如下图所示。</p> <p></p> <img src='stimuli/faces/PFF1.jpg', style='max-width: 30%;'> </img> <p><strong>你是否选择发射武器？</strong></p>","0",""
"","","","","","html-keyboard-response","20","113215","0.0-4.0-0.8","50","1","2022-11-13 08:39:55","49aca292d257f58668169b9fbab864ae","119.4.228.202","Mozilla/5.0 (Windows NT 6.1; Win64; x64) AppleWebKit/537.36 (KHTML, like Gecko) Chrome/98.0.4758.139 Safari/537.36","WebKit","Chrome","98.0.4758.139","Windows","6.1","null","<div style=""font-size:60px;"">+</div>","null",""
"","","","","","html-button-response","21","115404","0.0-4.0-1.8","50","1","2022-11-13 08:39:55","49aca292d257f58668169b9fbab864ae","119.4.228.202","Mozilla/5.0 (Windows NT 6.1; Win64; x64) AppleWebKit/537.36 (KHTML, like Gecko) Chrome/98.0.4758.139 Safari/537.36","WebKit","Chrome","98.0.4758.139","Windows","6.1","2185","<p>作为军队的指挥官，你可以选择发射导弹杀死 <strong>9名</strong> 敌国士兵，但会误杀附近的 <strong>1名</strong> 敌国平民。</p> <p>平民照片如下图所示。</p> <p></p> <img src='stimuli/faces/PFM3.jpg', style='max-width: 30%;'> </img> <p><strong>你是否选择发射武器？</strong></p>","0",""
"","","","","","html-keyboard-response","22","116406","0.0-4.0-0.9","50","1","2022-11-13 08:39:55","49aca292d257f58668169b9fbab864ae","119.4.228.202","Mozilla/5.0 (Windows NT 6.1; Win64; x64) AppleWebKit/537.36 (KHTML, like Gecko) Chrome/98.0.4758.139 Safari/537.36","WebKit","Chrome","98.0.4758.139","Windows","6.1","null","<div style=""font-size:60px;"">+</div>","null",""
"","","","","","html-button-response","23","118517","0.0-4.0-1.9","50","1","2022-11-13 08:39:55","49aca292d257f58668169b9fbab864ae","119.4.228.202","Mozilla/5.0 (Windows NT 6.1; Win64; x64) AppleWebKit/537.36 (KHTML, like Gecko) Chrome/98.0.4758.139 Safari/537.36","WebKit","Chrome","98.0.4758.139","Windows","6.1","2107","<p>作为军队的指挥官，你可以选择发射导弹杀死 <strong>2名</strong> 敌国士兵，但会误杀附近的 <strong>1名</strong> 敌国平民。</p> <p>平民照片如下图所示。</p> <p></p> <img src='stimuli/faces/PFF8.jpg', style='max-width: 30%;'> </img> <p><strong>你是否选择发射武器？</strong></p>","0",""
"","","","","","html-keyboard-response","24","119522","0.0-4.0-0.10","50","1","2022-11-13 08:39:55","49aca292d257f58668169b9fbab864ae","119.4.228.202","Mozilla/5.0 (Windows NT 6.1; Win64; x64) AppleWebKit/537.36 (KHTML, like Gecko) Chrome/98.0.4758.139 Safari/537.36","WebKit","Chrome","98.0.4758.139","Windows","6.1","null","<div style=""font-size:60px;"">+</div>","null",""
"","","","","","html-button-response","25","122100","0.0-4.0-1.10","50","1","2022-11-13 08:39:55","49aca292d257f58668169b9fbab864ae","119.4.228.202","Mozilla/5.0 (Windows NT 6.1; Win64; x64) AppleWebKit/537.36 (KHTML, like Gecko) Chrome/98.0.4758.139 Safari/537.36","WebKit","Chrome","98.0.4758.139","Windows","6.1","2574","<p>作为军队的指挥官，你可以选择发射导弹杀死 <strong>1名</strong> 敌国士兵，但会误杀附近的 <strong>1名</strong> 敌国平民。</p> <p>平民照片如下图所示。</p> <p></p> <img src='stimuli/faces/PFM7.jpg', style='max-width: 30%;'> </img> <p><strong>你是否选择发射武器？</strong></p>","0",""
"","","","","","html-keyboard-response","26","123103","0.0-4.0-0.11","50","1","2022-11-13 08:39:55","49aca292d257f58668169b9fbab864ae","119.4.228.202","Mozilla/5.0 (Windows NT 6.1; Win64; x64) AppleWebKit/537.36 (KHTML, like Gecko) Chrome/98.0.4758.139 Safari/537.36","WebKit","Chrome","98.0.4758.139","Windows","6.1","null","<div style=""font-size:60px;"">+</div>","null",""
"","","","","","html-button-response","27","127446","0.0-4.0-1.11","50","1","2022-11-13 08:39:55","49aca292d257f58668169b9fbab864ae","119.4.228.202","Mozilla/5.0 (Windows NT 6.1; Win64; x64) AppleWebKit/537.36 (KHTML, like Gecko) Chrome/98.0.4758.139 Safari/537.36","WebKit","Chrome","98.0.4758.139","Windows","6.1","4340","<p>作为军队的指挥官，你可以选择发射导弹杀死 <strong>7名</strong> 敌国士兵，但会炸毁附近的 <strong>1棵</strong> 敌国树木。</p> <p>树木的照片如下图所示。</p> <p></p> <img src='stimuli/trees/13.png', style='max-width: 30%;'> </img> <p><strong>你是否选择发射武器？</strong></p>","0",""
"","","","","","html-keyboard-response","28","128449","0.0-4.0-0.12","50","1","2022-11-13 08:39:55","49aca292d257f58668169b9fbab864ae","119.4.228.202","Mozilla/5.0 (Windows NT 6.1; Win64; x64) AppleWebKit/537.36 (KHTML, like Gecko) Chrome/98.0.4758.139 Safari/537.36","WebKit","Chrome","98.0.4758.139","Windows","6.1","null","<div style=""font-size:60px;"">+</div>","null",""
"","","","","","html-button-response","29","131374","0.0-4.0-1.12","50","1","2022-11-13 08:39:55","49aca292d257f58668169b9fbab864ae","119.4.228.202","Mozilla/5.0 (Windows NT 6.1; Win64; x64) AppleWebKit/537.36 (KHTML, like Gecko) Chrome/98.0.4758.139 Safari/537.36","WebKit","Chrome","98.0.4758.139","Windows","6.1","2922","<p>作为军队的指挥官，你可以选择发射导弹杀死 <strong>7名</strong> 敌国士兵，但会炸毁附近的 <strong>1棵</strong> 敌国树木。</p> <p>树木的照片如下图所示。</p> <p></p> <img src='stimuli/trees/2.png', style='max-width: 30%;'> </img> <p><strong>你是否选择发射武器？</strong></p>","0",""
"","","","","","html-keyboard-response","30","132377","0.0-4.0-0.13","50","1","2022-11-13 08:39:55","49aca292d257f58668169b9fbab864ae","119.4.228.202","Mozilla/5.0 (Windows NT 6.1; Win64; x64) AppleWebKit/537.36 (KHTML, like Gecko) Chrome/98.0.4758.139 Safari/537.36","WebKit","Chrome","98.0.4758.139","Windows","6.1","null","<div style=""font-size:60px;"">+</div>","null",""
"","","","","","html-button-response","31","135249","0.0-4.0-1.13","50","1","2022-11-13 08:39:55","49aca292d257f58668169b9fbab864ae","119.4.228.202","Mozilla/5.0 (Windows NT 6.1; Win64; x64) AppleWebKit/537.36 (KHTML, like Gecko) Chrome/98.0.4758.139 Safari/537.36","WebKit","Chrome","98.0.4758.139","Windows","6.1","2868","<p>作为军队的指挥官，你可以选择发射导弹杀死 <strong>8名</strong> 敌国士兵，但会误杀附近的 <strong>1名</strong> 敌国平民。</p> <p>平民照片如下图所示。</p> <p></p> <img src='stimuli/faces/PFF7.jpg', style='max-width: 30%;'> </img> <p><strong>你是否选择发射武器？</strong></p>","0",""
"","","","","","html-keyboard-response","32","136252","0.0-4.0-0.14","50","1","2022-11-13 08:39:55","49aca292d257f58668169b9fbab864ae","119.4.228.202","Mozilla/5.0 (Windows NT 6.1; Win64; x64) AppleWebKit/537.36 (KHTML, like Gecko) Chrome/98.0.4758.139 Safari/537.36","WebKit","Chrome","98.0.4758.139","Windows","6.1","null","<div style=""font-size:60px;"">+</div>","null",""
"","","","","","html-button-response","33","137935","0.0-4.0-1.14","50","1","2022-11-13 08:39:55","49aca292d257f58668169b9fbab864ae","119.4.228.202","Mozilla/5.0 (Windows NT 6.1; Win64; x64) AppleWebKit/537.36 (KHTML, like Gecko) Chrome/98.0.4758.139 Safari/537.36","WebKit","Chrome","98.0.4758.139","Windows","6.1","1679","<p>作为军队的指挥官，你可以选择发射导弹杀死 <strong>4名</strong> 敌国士兵，但会炸毁附近的 <strong>1棵</strong> 敌国树木。</p> <p>树木的照片如下图所示。</p> <p></p> <img src='stimuli/trees/6.png', style='max-width: 30%;'> </img> <p><strong>你是否选择发射武器？</strong></p>","0",""
"","","","","","html-keyboard-response","34","138938","0.0-4.0-0.15","50","1","2022-11-13 08:39:55","49aca292d257f58668169b9fbab864ae","119.4.228.202","Mozilla/5.0 (Windows NT 6.1; Win64; x64) AppleWebKit/537.36 (KHTML, like Gecko) Chrome/98.0.4758.139 Safari/537.36","WebKit","Chrome","98.0.4758.139","Windows","6.1","null","<div style=""font-size:60px;"">+</div>","null",""
"","","","","","html-button-response","35","140871","0.0-4.0-1.15","50","1","2022-11-13 08:39:55","49aca292d257f58668169b9fbab864ae","119.4.228.202","Mozilla/5.0 (Windows NT 6.1; Win64; x64) AppleWebKit/537.36 (KHTML, like Gecko) Chrome/98.0.4758.139 Safari/537.36","WebKit","Chrome","98.0.4758.139","Windows","6.1","1929","<p>作为军队的指挥官，你可以选择发射导弹杀死 <strong>9名</strong> 敌国士兵，但会误杀附近的 <strong>1名</strong> 敌国平民。</p> <p>平民照片如下图所示。</p> <p></p> <img src='stimuli/faces/PFF3.jpg', style='max-width: 30%;'> </img> <p><strong>你是否选择发射武器？</strong></p>","0",""
"","","","","","html-keyboard-response","36","141874","0.0-4.0-0.16","50","1","2022-11-13 08:39:55","49aca292d257f58668169b9fbab864ae","119.4.228.202","Mozilla/5.0 (Windows NT 6.1; Win64; x64) AppleWebKit/537.36 (KHTML, like Gecko) Chrome/98.0.4758.139 Safari/537.36","WebKit","Chrome","98.0.4758.139","Windows","6.1","null","<div style=""font-size:60px;"">+</div>","null",""
"","","","","","html-button-response","37","143656","0.0-4.0-1.16","50","1","2022-11-13 08:39:55","49aca292d257f58668169b9fbab864ae","119.4.228.202","Mozilla/5.0 (Windows NT 6.1; Win64; x64) AppleWebKit/537.36 (KHTML, like Gecko) Chrome/98.0.4758.139 Safari/537.36","WebKit","Chrome","98.0.4758.139","Windows","6.1","1778","<p>作为军队的指挥官，你可以选择发射导弹杀死 <strong>6名</strong> 敌国士兵，但会误杀附近的 <strong>1名</strong> 敌国平民。</p> <p>平民照片如下图所示。</p> <p></p> <img src='stimuli/faces/PFF6.jpg', style='max-width: 30%;'> </img> <p><strong>你是否选择发射武器？</strong></p>","0",""
"","","","","","html-keyboard-response","38","144659","0.0-4.0-0.17","50","1","2022-11-13 08:39:55","49aca292d257f58668169b9fbab864ae","119.4.228.202","Mozilla/5.0 (Windows NT 6.1; Win64; x64) AppleWebKit/537.36 (KHTML, like Gecko) Chrome/98.0.4758.139 Safari/537.36","WebKit","Chrome","98.0.4758.139","Windows","6.1","null","<div style=""font-size:60px;"">+</div>","null",""
"","","","","","html-button-response","39","146225","0.0-4.0-1.17","50","1","2022-11-13 08:39:55","49aca292d257f58668169b9fbab864ae","119.4.228.202","Mozilla/5.0 (Windows NT 6.1; Win64; x64) AppleWebKit/537.36 (KHTML, like Gecko) Chrome/98.0.4758.139 Safari/537.36","WebKit","Chrome","98.0.4758.139","Windows","6.1","1562","<p>作为军队的指挥官，你可以选择发射导弹杀死 <strong>4名</strong> 敌国士兵，但会误杀附近的 <strong>1名</strong> 敌国平民。</p> <p>平民照片如下图所示。</p> <p></p> <img src='stimuli/faces/PFM2.jpg', style='max-width: 30%;'> </img> <p><strong>你是否选择发射武器？</strong></p>","0",""
"","","","","","html-keyboard-response","40","147227","0.0-4.0-0.18","50","1","2022-11-13 08:39:55","49aca292d257f58668169b9fbab864ae","119.4.228.202","Mozilla/5.0 (Windows NT 6.1; Win64; x64) AppleWebKit/537.36 (KHTML, like Gecko) Chrome/98.0.4758.139 Safari/537.36","WebKit","Chrome","98.0.4758.139","Windows","6.1","null","<div style=""font-size:60px;"">+</div>","null",""
"","","","","","html-button-response","41","149227","0.0-4.0-1.18","50","1","2022-11-13 08:39:55","49aca292d257f58668169b9fbab864ae","119.4.228.202","Mozilla/5.0 (Windows NT 6.1; Win64; x64) AppleWebKit/537.36 (KHTML, like Gecko) Chrome/98.0.4758.139 Safari/537.36","WebKit","Chrome","98.0.4758.139","Windows","6.1","1996","<p>作为军队的指挥官，你可以选择发射导弹杀死 <strong>6名</strong> 敌国士兵，但会炸毁附近的 <strong>1棵</strong> 敌国树木。</p> <p>树木的照片如下图所示。</p> <p></p> <img src='stimuli/trees/6.png', style='max-width: 30%;'> </img> <p><strong>你是否选择发射武器？</strong></p>","0",""
"","","","","","html-keyboard-response","42","150230","0.0-4.0-0.19","50","1","2022-11-13 08:39:55","49aca292d257f58668169b9fbab864ae","119.4.228.202","Mozilla/5.0 (Windows NT 6.1; Win64; x64) AppleWebKit/537.36 (KHTML, like Gecko) Chrome/98.0.4758.139 Safari/537.36","WebKit","Chrome","98.0.4758.139","Windows","6.1","null","<div style=""font-size:60px;"">+</div>","null",""
"","","","","","html-button-response","43","152051","0.0-4.0-1.19","50","1","2022-11-13 08:39:55","49aca292d257f58668169b9fbab864ae","119.4.228.202","Mozilla/5.0 (Windows NT 6.1; Win64; x64) AppleWebKit/537.36 (KHTML, like Gecko) Chrome/98.0.4758.139 Safari/537.36","WebKit","Chrome","98.0.4758.139","Windows","6.1","1817","<p>作为军队的指挥官，你可以选择发射导弹杀死 <strong>2名</strong> 敌国士兵，但会误杀附近的 <strong>1名</strong> 敌国平民。</p> <p>平民照片如下图所示。</p> <p></p> <img src='stimuli/faces/PFM6.jpg', style='max-width: 30%;'> </img> <p><strong>你是否选择发射武器？</strong></p>","0",""
"","","","","","html-keyboard-response","44","153054","0.0-4.0-0.20","50","1","2022-11-13 08:39:55","49aca292d257f58668169b9fbab864ae","119.4.228.202","Mozilla/5.0 (Windows NT 6.1; Win64; x64) AppleWebKit/537.36 (KHTML, like Gecko) Chrome/98.0.4758.139 Safari/537.36","WebKit","Chrome","98.0.4758.139","Windows","6.1","null","<div style=""font-size:60px;"">+</div>","null",""
"","","","","","html-button-response","45","155282","0.0-4.0-1.20","50","1","2022-11-13 08:39:55","49aca292d257f58668169b9fbab864ae","119.4.228.202","Mozilla/5.0 (Windows NT 6.1; Win64; x64) AppleWebKit/537.36 (KHTML, like Gecko) Chrome/98.0.4758.139 Safari/537.36","WebKit","Chrome","98.0.4758.139","Windows","6.1","2224","<p>作为军队的指挥官，你可以选择发射导弹杀死 <strong>10名</strong> 敌国士兵，但会炸毁附近的 <strong>1棵</strong> 敌国树木。</p> <p>树木的照片如下图所示。</p> <p></p> <img src='stimuli/trees/10.png', style='max-width: 30%;'> </img> <p><strong>你是否选择发射武器？</strong></p>","0",""
"","","","","","html-keyboard-response","46","156286","0.0-4.0-0.21","50","1","2022-11-13 08:39:55","49aca292d257f58668169b9fbab864ae","119.4.228.202","Mozilla/5.0 (Windows NT 6.1; Win64; x64) AppleWebKit/537.36 (KHTML, like Gecko) Chrome/98.0.4758.139 Safari/537.36","WebKit","Chrome","98.0.4758.139","Windows","6.1","null","<div style=""font-size:60px;"">+</div>","null",""
"","","","","","html-button-response","47","158258","0.0-4.0-1.21","50","1","2022-11-13 08:39:55","49aca292d257f58668169b9fbab864ae","119.4.228.202","Mozilla/5.0 (Windows NT 6.1; Win64; x64) AppleWebKit/537.36 (KHTML, like Gecko) Chrome/98.0.4758.139 Safari/537.36","WebKit","Chrome","98.0.4758.139","Windows","6.1","1968","<p>作为军队的指挥官，你可以选择发射导弹杀死 <strong>5名</strong> 敌国士兵，但会炸毁附近的 <strong>1棵</strong> 敌国树木。</p> <p>树木的照片如下图所示。</p> <p></p> <img src='stimuli/trees/1.png', style='max-width: 30%;'> </img> <p><strong>你是否选择发射武器？</strong></p>","0",""
"","","","","","html-keyboard-response","48","159261","0.0-4.0-0.22","50","1","2022-11-13 08:39:55","49aca292d257f58668169b9fbab864ae","119.4.228.202","Mozilla/5.0 (Windows NT 6.1; Win64; x64) AppleWebKit/537.36 (KHTML, like Gecko) Chrome/98.0.4758.139 Safari/537.36","WebKit","Chrome","98.0.4758.139","Windows","6.1","null","<div style=""font-size:60px;"">+</div>","null",""
"","","","","","html-button-response","49","160943","0.0-4.0-1.22","50","1","2022-11-13 08:39:55","49aca292d257f58668169b9fbab864ae","119.4.228.202","Mozilla/5.0 (Windows NT 6.1; Win64; x64) AppleWebKit/537.36 (KHTML, like Gecko) Chrome/98.0.4758.139 Safari/537.36","WebKit","Chrome","98.0.4758.139","Windows","6.1","1677","<p>作为军队的指挥官，你可以选择发射导弹杀死 <strong>10名</strong> 敌国士兵，但会炸毁附近的 <strong>1棵</strong> 敌国树木。</p> <p>树木的照片如下图所示。</p> <p></p> <img src='stimuli/trees/7.png', style='max-width: 30%;'> </img> <p><strong>你是否选择发射武器？</strong></p>","0",""
"","","","","","html-keyboard-response","50","161946","0.0-4.0-0.23","50","1","2022-11-13 08:39:55","49aca292d257f58668169b9fbab864ae","119.4.228.202","Mozilla/5.0 (Windows NT 6.1; Win64; x64) AppleWebKit/537.36 (KHTML, like Gecko) Chrome/98.0.4758.139 Safari/537.36","WebKit","Chrome","98.0.4758.139","Windows","6.1","null","<div style=""font-size:60px;"">+</div>","null",""
"","","","","","html-button-response","51","163936","0.0-4.0-1.23","50","1","2022-11-13 08:39:55","49aca292d257f58668169b9fbab864ae","119.4.228.202","Mozilla/5.0 (Windows NT 6.1; Win64; x64) AppleWebKit/537.36 (KHTML, like Gecko) Chrome/98.0.4758.139 Safari/537.36","WebKit","Chrome","98.0.4758.139","Windows","6.1","1986","<p>作为军队的指挥官，你可以选择发射导弹杀死 <strong>3名</strong> 敌国士兵，但会炸毁附近的 <strong>1棵</strong> 敌国树木。</p> <p>树木的照片如下图所示。</p> <p></p> <img src='stimuli/trees/9.png', style='max-width: 30%;'> </img> <p><strong>你是否选择发射武器？</strong></p>","0",""
"","","","","","html-keyboard-response","52","164940","0.0-4.0-0.24","50","1","2022-11-13 08:39:55","49aca292d257f58668169b9fbab864ae","119.4.228.202","Mozilla/5.0 (Windows NT 6.1; Win64; x64) AppleWebKit/537.36 (KHTML, like Gecko) Chrome/98.0.4758.139 Safari/537.36","WebKit","Chrome","98.0.4758.139","Windows","6.1","null","<div style=""font-size:60px;"">+</div>","null",""
"","","","","","html-button-response","53","166804","0.0-4.0-1.24","50","1","2022-11-13 08:39:55","49aca292d257f58668169b9fbab864ae","119.4.228.202","Mozilla/5.0 (Windows NT 6.1; Win64; x64) AppleWebKit/537.36 (KHTML, like Gecko) Chrome/98.0.4758.139 Safari/537.36","WebKit","Chrome","98.0.4758.139","Windows","6.1","1860","<p>作为军队的指挥官，你可以选择发射导弹杀死 <strong>2名</strong> 敌国士兵，但会炸毁附近的 <strong>1棵</strong> 敌国树木。</p> <p>树木的照片如下图所示。</p> <p></p> <img src='stimuli/trees/14.png', style='max-width: 30%;'> </img> <p><strong>你是否选择发射武器？</strong></p>","0",""
"","","","","","html-keyboard-response","54","167808","0.0-4.0-0.25","50","1","2022-11-13 08:39:55","49aca292d257f58668169b9fbab864ae","119.4.228.202","Mozilla/5.0 (Windows NT 6.1; Win64; x64) AppleWebKit/537.36 (KHTML, like Gecko) Chrome/98.0.4758.139 Safari/537.36","WebKit","Chrome","98.0.4758.139","Windows","6.1","null","<div style=""font-size:60px;"">+</div>","null",""
"","","","","","html-button-response","55","170173","0.0-4.0-1.25","50","1","2022-11-13 08:39:55","49aca292d257f58668169b9fbab864ae","119.4.228.202","Mozilla/5.0 (Windows NT 6.1; Win64; x64) AppleWebKit/537.36 (KHTML, like Gecko) Chrome/98.0.4758.139 Safari/537.36","WebKit","Chrome","98.0.4758.139","Windows","6.1","2362","<p>作为军队的指挥官，你可以选择发射导弹杀死 <strong>9名</strong> 敌国士兵，但会误杀附近的 <strong>1名</strong> 敌国平民。</p> <p>平民照片如下图所示。</p> <p></p> <img src='stimuli/faces/PFM5.jpg', style='max-width: 30%;'> </img> <p><strong>你是否选择发射武器？</strong></p>","0",""
"","","","","","html-keyboard-response","56","171177","0.0-4.0-0.26","50","1","2022-11-13 08:39:55","49aca292d257f58668169b9fbab864ae","119.4.228.202","Mozilla/5.0 (Windows NT 6.1; Win64; x64) AppleWebKit/537.36 (KHTML, like Gecko) Chrome/98.0.4758.139 Safari/537.36","WebKit","Chrome","98.0.4758.139","Windows","6.1","null","<div style=""font-size:60px;"">+</div>","null",""
"","","","","","html-button-response","57","173067","0.0-4.0-1.26","50","1","2022-11-13 08:39:55","49aca292d257f58668169b9fbab864ae","119.4.228.202","Mozilla/5.0 (Windows NT 6.1; Win64; x64) AppleWebKit/537.36 (KHTML, like Gecko) Chrome/98.0.4758.139 Safari/537.36","WebKit","Chrome","98.0.4758.139","Windows","6.1","1886","<p>作为军队的指挥官，你可以选择发射导弹杀死 <strong>9名</strong> 敌国士兵，但会误杀附近的 <strong>1名</strong> 敌国平民。</p> <p>平民照片如下图所示。</p> <p></p> <img src='stimuli/faces/PFM1.jpg', style='max-width: 30%;'> </img> <p><strong>你是否选择发射武器？</strong></p>","0",""
"","","","","","html-keyboard-response","58","174070","0.0-4.0-0.27","50","1","2022-11-13 08:39:55","49aca292d257f58668169b9fbab864ae","119.4.228.202","Mozilla/5.0 (Windows NT 6.1; Win64; x64) AppleWebKit/537.36 (KHTML, like Gecko) Chrome/98.0.4758.139 Safari/537.36","WebKit","Chrome","98.0.4758.139","Windows","6.1","null","<div style=""font-size:60px;"">+</div>","null",""
"","","","","","html-button-response","59","177374","0.0-4.0-1.27","50","1","2022-11-13 08:39:55","49aca292d257f58668169b9fbab864ae","119.4.228.202","Mozilla/5.0 (Windows NT 6.1; Win64; x64) AppleWebKit/537.36 (KHTML, like Gecko) Chrome/98.0.4758.139 Safari/537.36","WebKit","Chrome","98.0.4758.139","Windows","6.1","3300","<p>作为军队的指挥官，你可以选择发射导弹杀死 <strong>1名</strong> 敌国士兵，但会炸毁附近的 <strong>1棵</strong> 敌国树木。</p> <p>树木的照片如下图所示。</p> <p></p> <img src='stimuli/trees/4.png', style='max-width: 30%;'> </img> <p><strong>你是否选择发射武器？</strong></p>","0",""
"","","","","","html-keyboard-response","60","178378","0.0-4.0-0.28","50","1","2022-11-13 08:39:55","49aca292d257f58668169b9fbab864ae","119.4.228.202","Mozilla/5.0 (Windows NT 6.1; Win64; x64) AppleWebKit/537.36 (KHTML, like Gecko) Chrome/98.0.4758.139 Safari/537.36","WebKit","Chrome","98.0.4758.139","Windows","6.1","null","<div style=""font-size:60px;"">+</div>","null",""
"","","","","","html-button-response","61","180194","0.0-4.0-1.28","50","1","2022-11-13 08:39:55","49aca292d257f58668169b9fbab864ae","119.4.228.202","Mozilla/5.0 (Windows NT 6.1; Win64; x64) AppleWebKit/537.36 (KHTML, like Gecko) Chrome/98.0.4758.139 Safari/537.36","WebKit","Chrome","98.0.4758.139","Windows","6.1","1809","<p>作为军队的指挥官，你可以选择发射导弹杀死 <strong>2名</strong> 敌国士兵，但会炸毁附近的 <strong>1棵</strong> 敌国树木。</p> <p>树木的照片如下图所示。</p> <p></p> <img src='stimuli/trees/5.png', style='max-width: 30%;'> </img> <p><strong>你是否选择发射武器？</strong></p>","0",""
"","","","","","html-keyboard-response","62","181198","0.0-4.0-0.29","50","1","2022-11-13 08:39:55","49aca292d257f58668169b9fbab864ae","119.4.228.202","Mozilla/5.0 (Windows NT 6.1; Win64; x64) AppleWebKit/537.36 (KHTML, like Gecko) Chrome/98.0.4758.139 Safari/537.36","WebKit","Chrome","98.0.4758.139","Windows","6.1","null","<div style=""font-size:60px;"">+</div>","null",""
"","","","","","html-button-response","63","184516","0.0-4.0-1.29","50","1","2022-11-13 08:39:55","49aca292d257f58668169b9fbab864ae","119.4.228.202","Mozilla/5.0 (Windows NT 6.1; Win64; x64) AppleWebKit/537.36 (KHTML, like Gecko) Chrome/98.0.4758.139 Safari/537.36","WebKit","Chrome","98.0.4758.139","Windows","6.1","3312","<p>作为军队的指挥官，你可以选择发射导弹杀死 <strong>1名</strong> 敌国士兵，但会误杀附近的 <strong>1名</strong> 敌国平民。</p> <p>平民照片如下图所示。</p> <p></p> <img src='stimuli/faces/PFM4.jpg', style='max-width: 30%;'> </img> <p><strong>你是否选择发射武器？</strong></p>","0",""
"","","","","","html-keyboard-response","64","185520","0.0-4.0-0.30","50","1","2022-11-13 08:39:55","49aca292d257f58668169b9fbab864ae","119.4.228.202","Mozilla/5.0 (Windows NT 6.1; Win64; x64) AppleWebKit/537.36 (KHTML, like Gecko) Chrome/98.0.4758.139 Safari/537.36","WebKit","Chrome","98.0.4758.139","Windows","6.1","null","<div style=""font-size:60px;"">+</div>","null",""
"","","","","","html-button-response","65","187566","0.0-4.0-1.30","50","1","2022-11-13 08:39:55","49aca292d257f58668169b9fbab864ae","119.4.228.202","Mozilla/5.0 (Windows NT 6.1; Win64; x64) AppleWebKit/537.36 (KHTML, like Gecko) Chrome/98.0.4758.139 Safari/537.36","WebKit","Chrome","98.0.4758.139","Windows","6.1","2041","<p>作为军队的指挥官，你可以选择发射导弹杀死 <strong>2名</strong> 敌国士兵，但会炸毁附近的 <strong>1棵</strong> 敌国树木。</p> <p>树木的照片如下图所示。</p> <p></p> <img src='stimuli/trees/8.png', style='max-width: 30%;'> </img> <p><strong>你是否选择发射武器？</strong></p>","0",""
"","","","","","html-keyboard-response","66","188569","0.0-4.0-0.31","50","1","2022-11-13 08:39:55","49aca292d257f58668169b9fbab864ae","119.4.228.202","Mozilla/5.0 (Windows NT 6.1; Win64; x64) AppleWebKit/537.36 (KHTML, like Gecko) Chrome/98.0.4758.139 Safari/537.36","WebKit","Chrome","98.0.4758.139","Windows","6.1","null","<div style=""font-size:60px;"">+</div>","null",""
"","","","","","html-button-response","67","190280","0.0-4.0-1.31","50","1","2022-11-13 08:39:55","49aca292d257f58668169b9fbab864ae","119.4.228.202","Mozilla/5.0 (Windows NT 6.1; Win64; x64) AppleWebKit/537.36 (KHTML, like Gecko) Chrome/98.0.4758.139 Safari/537.36","WebKit","Chrome","98.0.4758.139","Windows","6.1","1707","<p>作为军队的指挥官，你可以选择发射导弹杀死 <strong>5名</strong> 敌国士兵，但会炸毁附近的 <strong>1棵</strong> 敌国树木。</p> <p>树木的照片如下图所示。</p> <p></p> <img src='stimuli/trees/3.png', style='max-width: 30%;'> </img> <p><strong>你是否选择发射武器？</strong></p>","0",""
"","","","","","html-keyboard-response","68","191284","0.0-4.0-0.32","50","1","2022-11-13 08:39:55","49aca292d257f58668169b9fbab864ae","119.4.228.202","Mozilla/5.0 (Windows NT 6.1; Win64; x64) AppleWebKit/537.36 (KHTML, like Gecko) Chrome/98.0.4758.139 Safari/537.36","WebKit","Chrome","98.0.4758.139","Windows","6.1","null","<div style=""font-size:60px;"">+</div>","null",""
"","","","","","html-button-response","69","193032","0.0-4.0-1.32","50","1","2022-11-13 08:39:55","49aca292d257f58668169b9fbab864ae","119.4.228.202","Mozilla/5.0 (Windows NT 6.1; Win64; x64) AppleWebKit/537.36 (KHTML, like Gecko) Chrome/98.0.4758.139 Safari/537.36","WebKit","Chrome","98.0.4758.139","Windows","6.1","1744","<p>作为军队的指挥官，你可以选择发射导弹杀死 <strong>10名</strong> 敌国士兵，但会误杀附近的 <strong>1名</strong> 敌国平民。</p> <p>平民照片如下图所示。</p> <p></p> <img src='stimuli/faces/PFM7.jpg', style='max-width: 30%;'> </img> <p><strong>你是否选择发射武器？</strong></p>","0",""
"","","","","","html-keyboard-response","70","194036","0.0-4.0-0.33","50","1","2022-11-13 08:39:55","49aca292d257f58668169b9fbab864ae","119.4.228.202","Mozilla/5.0 (Windows NT 6.1; Win64; x64) AppleWebKit/537.36 (KHTML, like Gecko) Chrome/98.0.4758.139 Safari/537.36","WebKit","Chrome","98.0.4758.139","Windows","6.1","null","<div style=""font-size:60px;"">+</div>","null",""
"","","","","","html-button-response","71","196062","0.0-4.0-1.33","50","1","2022-11-13 08:39:55","49aca292d257f58668169b9fbab864ae","119.4.228.202","Mozilla/5.0 (Windows NT 6.1; Win64; x64) AppleWebKit/537.36 (KHTML, like Gecko) Chrome/98.0.4758.139 Safari/537.36","WebKit","Chrome","98.0.4758.139","Windows","6.1","2022","<p>作为军队的指挥官，你可以选择发射导弹杀死 <strong>1名</strong> 敌国士兵，但会炸毁附近的 <strong>1棵</strong> 敌国树木。</p> <p>树木的照片如下图所示。</p> <p></p> <img src='stimuli/trees/12.png', style='max-width: 30%;'> </img> <p><strong>你是否选择发射武器？</strong></p>","0",""
"","","","","","html-keyboard-response","72","197066","0.0-4.0-0.34","50","1","2022-11-13 08:39:55","49aca292d257f58668169b9fbab864ae","119.4.228.202","Mozilla/5.0 (Windows NT 6.1; Win64; x64) AppleWebKit/537.36 (KHTML, like Gecko) Chrome/98.0.4758.139 Safari/537.36","WebKit","Chrome","98.0.4758.139","Windows","6.1","null","<div style=""font-size:60px;"">+</div>","null",""
"","","","","","html-button-response","73","198928","0.0-4.0-1.34","50","1","2022-11-13 08:39:55","49aca292d257f58668169b9fbab864ae","119.4.228.202","Mozilla/5.0 (Windows NT 6.1; Win64; x64) AppleWebKit/537.36 (KHTML, like Gecko) Chrome/98.0.4758.139 Safari/537.36","WebKit","Chrome","98.0.4758.139","Windows","6.1","1858","<p>作为军队的指挥官，你可以选择发射导弹杀死 <strong>9名</strong> 敌国士兵，但会炸毁附近的 <strong>1棵</strong> 敌国树木。</p> <p>树木的照片如下图所示。</p> <p></p> <img src='stimuli/trees/4.png', style='max-width: 30%;'> </img> <p><strong>你是否选择发射武器？</strong></p>","0",""
"","","","","","html-keyboard-response","74","199932","0.0-4.0-0.35","50","1","2022-11-13 08:39:55","49aca292d257f58668169b9fbab864ae","119.4.228.202","Mozilla/5.0 (Windows NT 6.1; Win64; x64) AppleWebKit/537.36 (KHTML, like Gecko) Chrome/98.0.4758.139 Safari/537.36","WebKit","Chrome","98.0.4758.139","Windows","6.1","null","<div style=""font-size:60px;"">+</div>","null",""
"","","","","","html-button-response","75","201655","0.0-4.0-1.35","50","1","2022-11-13 08:39:55","49aca292d257f58668169b9fbab864ae","119.4.228.202","Mozilla/5.0 (Windows NT 6.1; Win64; x64) AppleWebKit/537.36 (KHTML, like Gecko) Chrome/98.0.4758.139 Safari/537.36","WebKit","Chrome","98.0.4758.139","Windows","6.1","1717","<p>作为军队的指挥官，你可以选择发射导弹杀死 <strong>6名</strong> 敌国士兵，但会炸毁附近的 <strong>1棵</strong> 敌国树木。</p> <p>树木的照片如下图所示。</p> <p></p> <img src='stimuli/trees/16.png', style='max-width: 30%;'> </img> <p><strong>你是否选择发射武器？</strong></p>","0",""
"","","","","","html-keyboard-response","76","202658","0.0-4.0-0.36","50","1","2022-11-13 08:39:55","49aca292d257f58668169b9fbab864ae","119.4.228.202","Mozilla/5.0 (Windows NT 6.1; Win64; x64) AppleWebKit/537.36 (KHTML, like Gecko) Chrome/98.0.4758.139 Safari/537.36","WebKit","Chrome","98.0.4758.139","Windows","6.1","null","<div style=""font-size:60px;"">+</div>","null",""
"","","","","","html-button-response","77","204419","0.0-4.0-1.36","50","1","2022-11-13 08:39:55","49aca292d257f58668169b9fbab864ae","119.4.228.202","Mozilla/5.0 (Windows NT 6.1; Win64; x64) AppleWebKit/537.36 (KHTML, like Gecko) Chrome/98.0.4758.139 Safari/537.36","WebKit","Chrome","98.0.4758.139","Windows","6.1","1755","<p>作为军队的指挥官，你可以选择发射导弹杀死 <strong>3名</strong> 敌国士兵，但会误杀附近的 <strong>1名</strong> 敌国平民。</p> <p>平民照片如下图所示。</p> <p></p> <img src='stimuli/faces/PFF5.jpg', style='max-width: 30%;'> </img> <p><strong>你是否选择发射武器？</strong></p>","0",""
"","","","","","html-keyboard-response","78","205423","0.0-4.0-0.37","50","1","2022-11-13 08:39:55","49aca292d257f58668169b9fbab864ae","119.4.228.202","Mozilla/5.0 (Windows NT 6.1; Win64; x64) AppleWebKit/537.36 (KHTML, like Gecko) Chrome/98.0.4758.139 Safari/537.36","WebKit","Chrome","98.0.4758.139","Windows","6.1","null","<div style=""font-size:60px;"">+</div>","null",""
"","","","","","html-button-response","79","207184","0.0-4.0-1.37","50","1","2022-11-13 08:39:55","49aca292d257f58668169b9fbab864ae","119.4.228.202","Mozilla/5.0 (Windows NT 6.1; Win64; x64) AppleWebKit/537.36 (KHTML, like Gecko) Chrome/98.0.4758.139 Safari/537.36","WebKit","Chrome","98.0.4758.139","Windows","6.1","1756","<p>作为军队的指挥官，你可以选择发射导弹杀死 <strong>6名</strong> 敌国士兵，但会误杀附近的 <strong>1名</strong> 敌国平民。</p> <p>平民照片如下图所示。</p> <p></p> <img src='stimuli/faces/PFF5.jpg', style='max-width: 30%;'> </img> <p><strong>你是否选择发射武器？</strong></p>","0",""
"","","","","","html-keyboard-response","80","208188","0.0-4.0-0.38","50","1","2022-11-13 08:39:55","49aca292d257f58668169b9fbab864ae","119.4.228.202","Mozilla/5.0 (Windows NT 6.1; Win64; x64) AppleWebKit/537.36 (KHTML, like Gecko) Chrome/98.0.4758.139 Safari/537.36","WebKit","Chrome","98.0.4758.139","Windows","6.1","null","<div style=""font-size:60px;"">+</div>","null",""
"","","","","","html-button-response","81","209795","0.0-4.0-1.38","50","1","2022-11-13 08:39:55","49aca292d257f58668169b9fbab864ae","119.4.228.202","Mozilla/5.0 (Windows NT 6.1; Win64; x64) AppleWebKit/537.36 (KHTML, like Gecko) Chrome/98.0.4758.139 Safari/537.36","WebKit","Chrome","98.0.4758.139","Windows","6.1","1601","<p>作为军队的指挥官，你可以选择发射导弹杀死 <strong>1名</strong> 敌国士兵，但会误杀附近的 <strong>1名</strong> 敌国平民。</p> <p>平民照片如下图所示。</p> <p></p> <img src='stimuli/faces/PFM1.jpg', style='max-width: 30%;'> </img> <p><strong>你是否选择发射武器？</strong></p>","0",""
"","","","","","html-keyboard-response","82","210799","0.0-4.0-0.39","50","1","2022-11-13 08:39:55","49aca292d257f58668169b9fbab864ae","119.4.228.202","Mozilla/5.0 (Windows NT 6.1; Win64; x64) AppleWebKit/537.36 (KHTML, like Gecko) Chrome/98.0.4758.139 Safari/537.36","WebKit","Chrome","98.0.4758.139","Windows","6.1","null","<div style=""font-size:60px;"">+</div>","null",""
"","","","","","html-button-response","83","212216","0.0-4.0-1.39","50","1","2022-11-13 08:39:55","49aca292d257f58668169b9fbab864ae","119.4.228.202","Mozilla/5.0 (Windows NT 6.1; Win64; x64) AppleWebKit/537.36 (KHTML, like Gecko) Chrome/98.0.4758.139 Safari/537.36","WebKit","Chrome","98.0.4758.139","Windows","6.1","1411","<p>作为军队的指挥官，你可以选择发射导弹杀死 <strong>3名</strong> 敌国士兵，但会误杀附近的 <strong>1名</strong> 敌国平民。</p> <p>平民照片如下图所示。</p> <p></p> <img src='stimuli/faces/PFF2.jpg', style='max-width: 30%;'> </img> <p><strong>你是否选择发射武器？</strong></p>","0",""
"","","","","","html-keyboard-response","84","213220","0.0-4.0-0.40","50","1","2022-11-13 08:39:55","49aca292d257f58668169b9fbab864ae","119.4.228.202","Mozilla/5.0 (Windows NT 6.1; Win64; x64) AppleWebKit/537.36 (KHTML, like Gecko) Chrome/98.0.4758.139 Safari/537.36","WebKit","Chrome","98.0.4758.139","Windows","6.1","null","<div style=""font-size:60px;"">+</div>","null",""
"","","","","","html-button-response","85","215277","0.0-4.0-1.40","50","1","2022-11-13 08:39:55","49aca292d257f58668169b9fbab864ae","119.4.228.202","Mozilla/5.0 (Windows NT 6.1; Win64; x64) AppleWebKit/537.36 (KHTML, like Gecko) Chrome/98.0.4758.139 Safari/537.36","WebKit","Chrome","98.0.4758.139","Windows","6.1","2051","<p>作为军队的指挥官，你可以选择发射导弹杀死 <strong>5名</strong> 敌国士兵，但会炸毁附近的 <strong>1棵</strong> 敌国树木。</p> <p>树木的照片如下图所示。</p> <p></p> <img src='stimuli/trees/11.png', style='max-width: 30%;'> </img> <p><strong>你是否选择发射武器？</strong></p>","0",""
"","","","","","html-keyboard-response","86","216281","0.0-4.0-0.41","50","1","2022-11-13 08:39:55","49aca292d257f58668169b9fbab864ae","119.4.228.202","Mozilla/5.0 (Windows NT 6.1; Win64; x64) AppleWebKit/537.36 (KHTML, like Gecko) Chrome/98.0.4758.139 Safari/537.36","WebKit","Chrome","98.0.4758.139","Windows","6.1","null","<div style=""font-size:60px;"">+</div>","null",""
"","","","","","html-button-response","87","218554","0.0-4.0-1.41","50","1","2022-11-13 08:39:55","49aca292d257f58668169b9fbab864ae","119.4.228.202","Mozilla/5.0 (Windows NT 6.1; Win64; x64) AppleWebKit/537.36 (KHTML, like Gecko) Chrome/98.0.4758.139 Safari/537.36","WebKit","Chrome","98.0.4758.139","Windows","6.1","2267","<p>作为军队的指挥官，你可以选择发射导弹杀死 <strong>8名</strong> 敌国士兵，但会炸毁附近的 <strong>1棵</strong> 敌国树木。</p> <p>树木的照片如下图所示。</p> <p></p> <img src='stimuli/trees/3.png', style='max-width: 30%;'> </img> <p><strong>你是否选择发射武器？</strong></p>","0",""
"","","","","","html-keyboard-response","88","219558","0.0-4.0-0.42","50","1","2022-11-13 08:39:55","49aca292d257f58668169b9fbab864ae","119.4.228.202","Mozilla/5.0 (Windows NT 6.1; Win64; x64) AppleWebKit/537.36 (KHTML, like Gecko) Chrome/98.0.4758.139 Safari/537.36","WebKit","Chrome","98.0.4758.139","Windows","6.1","null","<div style=""font-size:60px;"">+</div>","null",""
"","","","","","html-button-response","89","221536","0.0-4.0-1.42","50","1","2022-11-13 08:39:55","49aca292d257f58668169b9fbab864ae","119.4.228.202","Mozilla/5.0 (Windows NT 6.1; Win64; x64) AppleWebKit/537.36 (KHTML, like Gecko) Chrome/98.0.4758.139 Safari/537.36","WebKit","Chrome","98.0.4758.139","Windows","6.1","1972","<p>作为军队的指挥官，你可以选择发射导弹杀死 <strong>8名</strong> 敌国士兵，但会误杀附近的 <strong>1名</strong> 敌国平民。</p> <p>平民照片如下图所示。</p> <p></p> <img src='stimuli/faces/PFM4.jpg', style='max-width: 30%;'> </img> <p><strong>你是否选择发射武器？</strong></p>","0",""
"","","","","","html-keyboard-response","90","222542","0.0-4.0-0.43","50","1","2022-11-13 08:39:55","49aca292d257f58668169b9fbab864ae","119.4.228.202","Mozilla/5.0 (Windows NT 6.1; Win64; x64) AppleWebKit/537.36 (KHTML, like Gecko) Chrome/98.0.4758.139 Safari/537.36","WebKit","Chrome","98.0.4758.139","Windows","6.1","null","<div style=""font-size:60px;"">+</div>","null",""
"","","","","","html-button-response","91","224078","0.0-4.0-1.43","50","1","2022-11-13 08:39:55","49aca292d257f58668169b9fbab864ae","119.4.228.202","Mozilla/5.0 (Windows NT 6.1; Win64; x64) AppleWebKit/537.36 (KHTML, like Gecko) Chrome/98.0.4758.139 Safari/537.36","WebKit","Chrome","98.0.4758.139","Windows","6.1","1531","<p>作为军队的指挥官，你可以选择发射导弹杀死 <strong>6名</strong> 敌国士兵，但会误杀附近的 <strong>1名</strong> 敌国平民。</p> <p>平民照片如下图所示。</p> <p></p> <img src='stimuli/faces/PFF8.jpg', style='max-width: 30%;'> </img> <p><strong>你是否选择发射武器？</strong></p>","0",""
"","","","","","html-keyboard-response","92","225083","0.0-4.0-0.44","50","1","2022-11-13 08:39:55","49aca292d257f58668169b9fbab864ae","119.4.228.202","Mozilla/5.0 (Windows NT 6.1; Win64; x64) AppleWebKit/537.36 (KHTML, like Gecko) Chrome/98.0.4758.139 Safari/537.36","WebKit","Chrome","98.0.4758.139","Windows","6.1","null","<div style=""font-size:60px;"">+</div>","null",""
"","","","","","html-button-response","93","227290","0.0-4.0-1.44","50","1","2022-11-13 08:39:55","49aca292d257f58668169b9fbab864ae","119.4.228.202","Mozilla/5.0 (Windows NT 6.1; Win64; x64) AppleWebKit/537.36 (KHTML, like Gecko) Chrome/98.0.4758.139 Safari/537.36","WebKit","Chrome","98.0.4758.139","Windows","6.1","2202","<p>作为军队的指挥官，你可以选择发射导弹杀死 <strong>1名</strong> 敌国士兵，但会炸毁附近的 <strong>1棵</strong> 敌国树木。</p> <p>树木的照片如下图所示。</p> <p></p> <img src='stimuli/trees/10.png', style='max-width: 30%;'> </img> <p><strong>你是否选择发射武器？</strong></p>","0",""
"","","","","","html-keyboard-response","94","228295","0.0-4.0-0.45","50","1","2022-11-13 08:39:55","49aca292d257f58668169b9fbab864ae","119.4.228.202","Mozilla/5.0 (Windows NT 6.1; Win64; x64) AppleWebKit/537.36 (KHTML, like Gecko) Chrome/98.0.4758.139 Safari/537.36","WebKit","Chrome","98.0.4758.139","Windows","6.1","null","<div style=""font-size:60px;"">+</div>","null",""
"","","","","","html-button-response","95","230289","0.0-4.0-1.45","50","1","2022-11-13 08:39:55","49aca292d257f58668169b9fbab864ae","119.4.228.202","Mozilla/5.0 (Windows NT 6.1; Win64; x64) AppleWebKit/537.36 (KHTML, like Gecko) Chrome/98.0.4758.139 Safari/537.36","WebKit","Chrome","98.0.4758.139","Windows","6.1","1989","<p>作为军队的指挥官，你可以选择发射导弹杀死 <strong>6名</strong> 敌国士兵，但会误杀附近的 <strong>1名</strong> 敌国平民。</p> <p>平民照片如下图所示。</p> <p></p> <img src='stimuli/faces/PFF2.jpg', style='max-width: 30%;'> </img> <p><strong>你是否选择发射武器？</strong></p>","0",""
"","","","","","html-keyboard-response","96","231294","0.0-4.0-0.46","50","1","2022-11-13 08:39:55","49aca292d257f58668169b9fbab864ae","119.4.228.202","Mozilla/5.0 (Windows NT 6.1; Win64; x64) AppleWebKit/537.36 (KHTML, like Gecko) Chrome/98.0.4758.139 Safari/537.36","WebKit","Chrome","98.0.4758.139","Windows","6.1","null","<div style=""font-size:60px;"">+</div>","null",""
"","","","","","html-button-response","97","232907","0.0-4.0-1.46","50","1","2022-11-13 08:39:55","49aca292d257f58668169b9fbab864ae","119.4.228.202","Mozilla/5.0 (Windows NT 6.1; Win64; x64) AppleWebKit/537.36 (KHTML, like Gecko) Chrome/98.0.4758.139 Safari/537.36","WebKit","Chrome","98.0.4758.139","Windows","6.1","1608","<p>作为军队的指挥官，你可以选择发射导弹杀死 <strong>8名</strong> 敌国士兵，但会炸毁附近的 <strong>1棵</strong> 敌国树木。</p> <p>树木的照片如下图所示。</p> <p></p> <img src='stimuli/trees/11.png', style='max-width: 30%;'> </img> <p><strong>你是否选择发射武器？</strong></p>","0",""
"","","","","","html-keyboard-response","98","233912","0.0-4.0-0.47","50","1","2022-11-13 08:39:55","49aca292d257f58668169b9fbab864ae","119.4.228.202","Mozilla/5.0 (Windows NT 6.1; Win64; x64) AppleWebKit/537.36 (KHTML, like Gecko) Chrome/98.0.4758.139 Safari/537.36","WebKit","Chrome","98.0.4758.139","Windows","6.1","null","<div style=""font-size:60px;"">+</div>","null",""
"","","","","","html-button-response","99","235066","0.0-4.0-1.47","50","1","2022-11-13 08:39:55","49aca292d257f58668169b9fbab864ae","119.4.228.202","Mozilla/5.0 (Windows NT 6.1; Win64; x64) AppleWebKit/537.36 (KHTML, like Gecko) Chrome/98.0.4758.139 Safari/537.36","WebKit","Chrome","98.0.4758.139","Windows","6.1","1150","<p>作为军队的指挥官，你可以选择发射导弹杀死 <strong>4名</strong> 敌国士兵，但会炸毁附近的 <strong>1棵</strong> 敌国树木。</p> <p>树木的照片如下图所示。</p> <p></p> <img src='stimuli/trees/13.png', style='max-width: 30%;'> </img> <p><strong>你是否选择发射武器？</strong></p>","0",""
"","","","","","html-keyboard-response","100","236071","0.0-4.0-0.48","50","1","2022-11-13 08:39:55","49aca292d257f58668169b9fbab864ae","119.4.228.202","Mozilla/5.0 (Windows NT 6.1; Win64; x64) AppleWebKit/537.36 (KHTML, like Gecko) Chrome/98.0.4758.139 Safari/537.36","WebKit","Chrome","98.0.4758.139","Windows","6.1","null","<div style=""font-size:60px;"">+</div>","null",""
"","","","","","html-button-response","101","237473","0.0-4.0-1.48","50","1","2022-11-13 08:39:55","49aca292d257f58668169b9fbab864ae","119.4.228.202","Mozilla/5.0 (Windows NT 6.1; Win64; x64) AppleWebKit/537.36 (KHTML, like Gecko) Chrome/98.0.4758.139 Safari/537.36","WebKit","Chrome","98.0.4758.139","Windows","6.1","1395","<p>作为军队的指挥官，你可以选择发射导弹杀死 <strong>6名</strong> 敌国士兵，但会炸毁附近的 <strong>1棵</strong> 敌国树木。</p> <p>树木的照片如下图所示。</p> <p></p> <img src='stimuli/trees/15.png', style='max-width: 30%;'> </img> <p><strong>你是否选择发射武器？</strong></p>","0",""
"","","","","","html-keyboard-response","102","238478","0.0-4.0-0.49","50","1","2022-11-13 08:39:55","49aca292d257f58668169b9fbab864ae","119.4.228.202","Mozilla/5.0 (Windows NT 6.1; Win64; x64) AppleWebKit/537.36 (KHTML, like Gecko) Chrome/98.0.4758.139 Safari/537.36","WebKit","Chrome","98.0.4758.139","Windows","6.1","null","<div style=""font-size:60px;"">+</div>","null",""
"","","","","","html-button-response","103","240184","0.0-4.0-1.49","50","1","2022-11-13 08:39:55","49aca292d257f58668169b9fbab864ae","119.4.228.202","Mozilla/5.0 (Windows NT 6.1; Win64; x64) AppleWebKit/537.36 (KHTML, like Gecko) Chrome/98.0.4758.139 Safari/537.36","WebKit","Chrome","98.0.4758.139","Windows","6.1","1699","<p>作为军队的指挥官，你可以选择发射导弹杀死 <strong>9名</strong> 敌国士兵，但会炸毁附近的 <strong>1棵</strong> 敌国树木。</p> <p>树木的照片如下图所示。</p> <p></p> <img src='stimuli/trees/14.png', style='max-width: 30%;'> </img> <p><strong>你是否选择发射武器？</strong></p>","0",""
"","","","","","html-keyboard-response","104","241190","0.0-4.0-0.50","50","1","2022-11-13 08:39:55","49aca292d257f58668169b9fbab864ae","119.4.228.202","Mozilla/5.0 (Windows NT 6.1; Win64; x64) AppleWebKit/537.36 (KHTML, like Gecko) Chrome/98.0.4758.139 Safari/537.36","WebKit","Chrome","98.0.4758.139","Windows","6.1","null","<div style=""font-size:60px;"">+</div>","null",""
"","","","","","html-button-response","105","242911","0.0-4.0-1.50","50","1","2022-11-13 08:39:55","49aca292d257f58668169b9fbab864ae","119.4.228.202","Mozilla/5.0 (Windows NT 6.1; Win64; x64) AppleWebKit/537.36 (KHTML, like Gecko) Chrome/98.0.4758.139 Safari/537.36","WebKit","Chrome","98.0.4758.139","Windows","6.1","1715","<p>作为军队的指挥官，你可以选择发射导弹杀死 <strong>8名</strong> 敌国士兵，但会误杀附近的 <strong>1名</strong> 敌国平民。</p> <p>平民照片如下图所示。</p> <p></p> <img src='stimuli/faces/PFM8.jpg', style='max-width: 30%;'> </img> <p><strong>你是否选择发射武器？</strong></p>","0",""
"","","","","","html-keyboard-response","106","243916","0.0-4.0-0.51","50","1","2022-11-13 08:39:55","49aca292d257f58668169b9fbab864ae","119.4.228.202","Mozilla/5.0 (Windows NT 6.1; Win64; x64) AppleWebKit/537.36 (KHTML, like Gecko) Chrome/98.0.4758.139 Safari/537.36","WebKit","Chrome","98.0.4758.139","Windows","6.1","null","<div style=""font-size:60px;"">+</div>","null",""
"","","","","","html-button-response","107","245671","0.0-4.0-1.51","50","1","2022-11-13 08:39:55","49aca292d257f58668169b9fbab864ae","119.4.228.202","Mozilla/5.0 (Windows NT 6.1; Win64; x64) AppleWebKit/537.36 (KHTML, like Gecko) Chrome/98.0.4758.139 Safari/537.36","WebKit","Chrome","98.0.4758.139","Windows","6.1","1750","<p>作为军队的指挥官，你可以选择发射导弹杀死 <strong>10名</strong> 敌国士兵，但会炸毁附近的 <strong>1棵</strong> 敌国树木。</p> <p>树木的照片如下图所示。</p> <p></p> <img src='stimuli/trees/8.png', style='max-width: 30%;'> </img> <p><strong>你是否选择发射武器？</strong></p>","0",""
"","","","","","html-keyboard-response","108","246676","0.0-4.0-0.52","50","1","2022-11-13 08:39:55","49aca292d257f58668169b9fbab864ae","119.4.228.202","Mozilla/5.0 (Windows NT 6.1; Win64; x64) AppleWebKit/537.36 (KHTML, like Gecko) Chrome/98.0.4758.139 Safari/537.36","WebKit","Chrome","98.0.4758.139","Windows","6.1","null","<div style=""font-size:60px;"">+</div>","null",""
"","","","","","html-button-response","109","248036","0.0-4.0-1.52","50","1","2022-11-13 08:39:55","49aca292d257f58668169b9fbab864ae","119.4.228.202","Mozilla/5.0 (Windows NT 6.1; Win64; x64) AppleWebKit/537.36 (KHTML, like Gecko) Chrome/98.0.4758.139 Safari/537.36","WebKit","Chrome","98.0.4758.139","Windows","6.1","1354","<p>作为军队的指挥官，你可以选择发射导弹杀死 <strong>6名</strong> 敌国士兵，但会炸毁附近的 <strong>1棵</strong> 敌国树木。</p> <p>树木的照片如下图所示。</p> <p></p> <img src='stimuli/trees/1.png', style='max-width: 30%;'> </img> <p><strong>你是否选择发射武器？</strong></p>","0",""
"","","","","","html-keyboard-response","110","249041","0.0-4.0-0.53","50","1","2022-11-13 08:39:55","49aca292d257f58668169b9fbab864ae","119.4.228.202","Mozilla/5.0 (Windows NT 6.1; Win64; x64) AppleWebKit/537.36 (KHTML, like Gecko) Chrome/98.0.4758.139 Safari/537.36","WebKit","Chrome","98.0.4758.139","Windows","6.1","null","<div style=""font-size:60px;"">+</div>","null",""
"","","","","","html-button-response","111","250832","0.0-4.0-1.53","50","1","2022-11-13 08:39:55","49aca292d257f58668169b9fbab864ae","119.4.228.202","Mozilla/5.0 (Windows NT 6.1; Win64; x64) AppleWebKit/537.36 (KHTML, like Gecko) Chrome/98.0.4758.139 Safari/537.36","WebKit","Chrome","98.0.4758.139","Windows","6.1","1785","<p>作为军队的指挥官，你可以选择发射导弹杀死 <strong>3名</strong> 敌国士兵，但会误杀附近的 <strong>1名</strong> 敌国平民。</p> <p>平民照片如下图所示。</p> <p></p> <img src='stimuli/faces/PFM8.jpg', style='max-width: 30%;'> </img> <p><strong>你是否选择发射武器？</strong></p>","0",""
"","","","","","html-keyboard-response","112","251837","0.0-4.0-0.54","50","1","2022-11-13 08:39:55","49aca292d257f58668169b9fbab864ae","119.4.228.202","Mozilla/5.0 (Windows NT 6.1; Win64; x64) AppleWebKit/537.36 (KHTML, like Gecko) Chrome/98.0.4758.139 Safari/537.36","WebKit","Chrome","98.0.4758.139","Windows","6.1","null","<div style=""font-size:60px;"">+</div>","null",""
"","","","","","html-button-response","113","253960","0.0-4.0-1.54","50","1","2022-11-13 08:39:55","49aca292d257f58668169b9fbab864ae","119.4.228.202","Mozilla/5.0 (Windows NT 6.1; Win64; x64) AppleWebKit/537.36 (KHTML, like Gecko) Chrome/98.0.4758.139 Safari/537.36","WebKit","Chrome","98.0.4758.139","Windows","6.1","2118","<p>作为军队的指挥官，你可以选择发射导弹杀死 <strong>2名</strong> 敌国士兵，但会炸毁附近的 <strong>1棵</strong> 敌国树木。</p> <p>树木的照片如下图所示。</p> <p></p> <img src='stimuli/trees/2.png', style='max-width: 30%;'> </img> <p><strong>你是否选择发射武器？</strong></p>","0",""
"","","","","","html-keyboard-response","114","254965","0.0-4.0-0.55","50","1","2022-11-13 08:39:55","49aca292d257f58668169b9fbab864ae","119.4.228.202","Mozilla/5.0 (Windows NT 6.1; Win64; x64) AppleWebKit/537.36 (KHTML, like Gecko) Chrome/98.0.4758.139 Safari/537.36","WebKit","Chrome","98.0.4758.139","Windows","6.1","null","<div style=""font-size:60px;"">+</div>","null",""
"","","","","","html-button-response","115","256809","0.0-4.0-1.55","50","1","2022-11-13 08:39:55","49aca292d257f58668169b9fbab864ae","119.4.228.202","Mozilla/5.0 (Windows NT 6.1; Win64; x64) AppleWebKit/537.36 (KHTML, like Gecko) Chrome/98.0.4758.139 Safari/537.36","WebKit","Chrome","98.0.4758.139","Windows","6.1","1838","<p>作为军队的指挥官，你可以选择发射导弹杀死 <strong>5名</strong> 敌国士兵，但会炸毁附近的 <strong>1棵</strong> 敌国树木。</p> <p>树木的照片如下图所示。</p> <p></p> <img src='stimuli/trees/16.png', style='max-width: 30%;'> </img> <p><strong>你是否选择发射武器？</strong></p>","0",""
"","","","","","html-keyboard-response","116","257815","0.0-4.0-0.56","50","1","2022-11-13 08:39:55","49aca292d257f58668169b9fbab864ae","119.4.228.202","Mozilla/5.0 (Windows NT 6.1; Win64; x64) AppleWebKit/537.36 (KHTML, like Gecko) Chrome/98.0.4758.139 Safari/537.36","WebKit","Chrome","98.0.4758.139","Windows","6.1","null","<div style=""font-size:60px;"">+</div>","null",""
"","","","","","html-button-response","117","259894","0.0-4.0-1.56","50","1","2022-11-13 08:39:55","49aca292d257f58668169b9fbab864ae","119.4.228.202","Mozilla/5.0 (Windows NT 6.1; Win64; x64) AppleWebKit/537.36 (KHTML, like Gecko) Chrome/98.0.4758.139 Safari/537.36","WebKit","Chrome","98.0.4758.139","Windows","6.1","2073","<p>作为军队的指挥官，你可以选择发射导弹杀死 <strong>1名</strong> 敌国士兵，但会炸毁附近的 <strong>1棵</strong> 敌国树木。</p> <p>树木的照片如下图所示。</p> <p></p> <img src='stimuli/trees/7.png', style='max-width: 30%;'> </img> <p><strong>你是否选择发射武器？</strong></p>","0",""
"","","","","","html-keyboard-response","118","260899","0.0-4.0-0.57","50","1","2022-11-13 08:39:55","49aca292d257f58668169b9fbab864ae","119.4.228.202","Mozilla/5.0 (Windows NT 6.1; Win64; x64) AppleWebKit/537.36 (KHTML, like Gecko) Chrome/98.0.4758.139 Safari/537.36","WebKit","Chrome","98.0.4758.139","Windows","6.1","null","<div style=""font-size:60px;"">+</div>","null",""
"","","","","","html-button-response","119","262807","0.0-4.0-1.57","50","1","2022-11-13 08:39:55","49aca292d257f58668169b9fbab864ae","119.4.228.202","Mozilla/5.0 (Windows NT 6.1; Win64; x64) AppleWebKit/537.36 (KHTML, like Gecko) Chrome/98.0.4758.139 Safari/537.36","WebKit","Chrome","98.0.4758.139","Windows","6.1","1902","<p>作为军队的指挥官，你可以选择发射导弹杀死 <strong>5名</strong> 敌国士兵，但会误杀附近的 <strong>1名</strong> 敌国平民。</p> <p>平民照片如下图所示。</p> <p></p> <img src='stimuli/faces/PFF4.jpg', style='max-width: 30%;'> </img> <p><strong>你是否选择发射武器？</strong></p>","0",""
"","","","","","html-keyboard-response","120","263813","0.0-4.0-0.58","50","1","2022-11-13 08:39:55","49aca292d257f58668169b9fbab864ae","119.4.228.202","Mozilla/5.0 (Windows NT 6.1; Win64; x64) AppleWebKit/537.36 (KHTML, like Gecko) Chrome/98.0.4758.139 Safari/537.36","WebKit","Chrome","98.0.4758.139","Windows","6.1","null","<div style=""font-size:60px;"">+</div>","null",""
"","","","","","html-button-response","121","265466","0.0-4.0-1.58","50","1","2022-11-13 08:39:55","49aca292d257f58668169b9fbab864ae","119.4.228.202","Mozilla/5.0 (Windows NT 6.1; Win64; x64) AppleWebKit/537.36 (KHTML, like Gecko) Chrome/98.0.4758.139 Safari/537.36","WebKit","Chrome","98.0.4758.139","Windows","6.1","1647","<p>作为军队的指挥官，你可以选择发射导弹杀死 <strong>7名</strong> 敌国士兵，但会误杀附近的 <strong>1名</strong> 敌国平民。</p> <p>平民照片如下图所示。</p> <p></p> <img src='stimuli/faces/PFM6.jpg', style='max-width: 30%;'> </img> <p><strong>你是否选择发射武器？</strong></p>","0",""
"","","","","","html-keyboard-response","122","266471","0.0-4.0-0.59","50","1","2022-11-13 08:39:55","49aca292d257f58668169b9fbab864ae","119.4.228.202","Mozilla/5.0 (Windows NT 6.1; Win64; x64) AppleWebKit/537.36 (KHTML, like Gecko) Chrome/98.0.4758.139 Safari/537.36","WebKit","Chrome","98.0.4758.139","Windows","6.1","null","<div style=""font-size:60px;"">+</div>","null",""
"","","","","","html-button-response","123","268261","0.0-4.0-1.59","50","1","2022-11-13 08:39:55","49aca292d257f58668169b9fbab864ae","119.4.228.202","Mozilla/5.0 (Windows NT 6.1; Win64; x64) AppleWebKit/537.36 (KHTML, like Gecko) Chrome/98.0.4758.139 Safari/537.36","WebKit","Chrome","98.0.4758.139","Windows","6.1","1784","<p>作为军队的指挥官，你可以选择发射导弹杀死 <strong>8名</strong> 敌国士兵，但会炸毁附近的 <strong>1棵</strong> 敌国树木。</p> <p>树木的照片如下图所示。</p> <p></p> <img src='stimuli/trees/12.png', style='max-width: 30%;'> </img> <p><strong>你是否选择发射武器？</strong></p>","0",""
"","","","","","html-keyboard-response","124","269267","0.0-4.0-0.60","50","1","2022-11-13 08:39:55","49aca292d257f58668169b9fbab864ae","119.4.228.202","Mozilla/5.0 (Windows NT 6.1; Win64; x64) AppleWebKit/537.36 (KHTML, like Gecko) Chrome/98.0.4758.139 Safari/537.36","WebKit","Chrome","98.0.4758.139","Windows","6.1","null","<div style=""font-size:60px;"">+</div>","null",""
"","","","","","html-button-response","125","271044","0.0-4.0-1.60","50","1","2022-11-13 08:39:55","49aca292d257f58668169b9fbab864ae","119.4.228.202","Mozilla/5.0 (Windows NT 6.1; Win64; x64) AppleWebKit/537.36 (KHTML, like Gecko) Chrome/98.0.4758.139 Safari/537.36","WebKit","Chrome","98.0.4758.139","Windows","6.1","1770","<p>作为军队的指挥官，你可以选择发射导弹杀死 <strong>2名</strong> 敌国士兵，但会误杀附近的 <strong>1名</strong> 敌国平民。</p> <p>平民照片如下图所示。</p> <p></p> <img src='stimuli/faces/PFF3.jpg', style='max-width: 30%;'> </img> <p><strong>你是否选择发射武器？</strong></p>","0",""
"","","","","","html-keyboard-response","126","272050","0.0-4.0-0.61","50","1","2022-11-13 08:39:55","49aca292d257f58668169b9fbab864ae","119.4.228.202","Mozilla/5.0 (Windows NT 6.1; Win64; x64) AppleWebKit/537.36 (KHTML, like Gecko) Chrome/98.0.4758.139 Safari/537.36","WebKit","Chrome","98.0.4758.139","Windows","6.1","null","<div style=""font-size:60px;"">+</div>","null",""
"","","","","","html-button-response","127","273556","0.0-4.0-1.61","50","1","2022-11-13 08:39:55","49aca292d257f58668169b9fbab864ae","119.4.228.202","Mozilla/5.0 (Windows NT 6.1; Win64; x64) AppleWebKit/537.36 (KHTML, like Gecko) Chrome/98.0.4758.139 Safari/537.36","WebKit","Chrome","98.0.4758.139","Windows","6.1","1499","<p>作为军队的指挥官，你可以选择发射导弹杀死 <strong>8名</strong> 敌国士兵，但会误杀附近的 <strong>1名</strong> 敌国平民。</p> <p>平民照片如下图所示。</p> <p></p> <img src='stimuli/faces/PFF4.jpg', style='max-width: 30%;'> </img> <p><strong>你是否选择发射武器？</strong></p>","0",""
"","","","","","html-keyboard-response","128","274561","0.0-4.0-0.62","50","1","2022-11-13 08:39:55","49aca292d257f58668169b9fbab864ae","119.4.228.202","Mozilla/5.0 (Windows NT 6.1; Win64; x64) AppleWebKit/537.36 (KHTML, like Gecko) Chrome/98.0.4758.139 Safari/537.36","WebKit","Chrome","98.0.4758.139","Windows","6.1","null","<div style=""font-size:60px;"">+</div>","null",""
"","","","","","html-button-response","129","276352","0.0-4.0-1.62","50","1","2022-11-13 08:39:55","49aca292d257f58668169b9fbab864ae","119.4.228.202","Mozilla/5.0 (Windows NT 6.1; Win64; x64) AppleWebKit/537.36 (KHTML, like Gecko) Chrome/98.0.4758.139 Safari/537.36","WebKit","Chrome","98.0.4758.139","Windows","6.1","1785","<p>作为军队的指挥官，你可以选择发射导弹杀死 <strong>10名</strong> 敌国士兵，但会炸毁附近的 <strong>1棵</strong> 敌国树木。</p> <p>树木的照片如下图所示。</p> <p></p> <img src='stimuli/trees/5.png', style='max-width: 30%;'> </img> <p><strong>你是否选择发射武器？</strong></p>","0",""
"","","","","","html-keyboard-response","130","277357","0.0-4.0-0.63","50","1","2022-11-13 08:39:55","49aca292d257f58668169b9fbab864ae","119.4.228.202","Mozilla/5.0 (Windows NT 6.1; Win64; x64) AppleWebKit/537.36 (KHTML, like Gecko) Chrome/98.0.4758.139 Safari/537.36","WebKit","Chrome","98.0.4758.139","Windows","6.1","null","<div style=""font-size:60px;"">+</div>","null",""
"","","","","","html-button-response","131","279405","0.0-4.0-1.63","50","1","2022-11-13 08:39:55","49aca292d257f58668169b9fbab864ae","119.4.228.202","Mozilla/5.0 (Windows NT 6.1; Win64; x64) AppleWebKit/537.36 (KHTML, like Gecko) Chrome/98.0.4758.139 Safari/537.36","WebKit","Chrome","98.0.4758.139","Windows","6.1","2041","<p>作为军队的指挥官，你可以选择发射导弹杀死 <strong>8名</strong> 敌国士兵，但会炸毁附近的 <strong>1棵</strong> 敌国树木。</p> <p>树木的照片如下图所示。</p> <p></p> <img src='stimuli/trees/9.png', style='max-width: 30%;'> </img> <p><strong>你是否选择发射武器？</strong></p>","0",""
"","","","","","survey-multi-choice","132","305618","0.0-5.0","50","1","2022-11-13 08:39:55","49aca292d257f58668169b9fbab864ae","119.4.228.202","Mozilla/5.0 (Windows NT 6.1; Win64; x64) AppleWebKit/537.36 (KHTML, like Gecko) Chrome/98.0.4758.139 Safari/537.36","WebKit","Chrome","98.0.4758.139","Windows","6.1","26202","","{""Attention1"":""""}","[0]"
"","","","","","html-button-response","133","311133","0.0-6.0","50","1","2022-11-13 08:39:55","49aca292d257f58668169b9fbab864ae","119.4.228.202","Mozilla/5.0 (Windows NT 6.1; Win64; x64) AppleWebKit/537.36 (KHTML, like Gecko) Chrome/98.0.4758.139 Safari/537.36","WebKit","Chrome","98.0.4758.139","Windows","6.1","5505","<p style=""font-size:20px;font-weight:bold;"">恭喜！</p><p>你已经完成了实验的第一部分。</p><p>请休息放松一下，然后进入第二部分。</p><p>这部分大约需要10分钟。</p>","0",""
"","","","","","survey-text","134","355318","0.0-7.0","50","1","2022-11-13 08:39:55","49aca292d257f58668169b9fbab864ae","119.4.228.202","Mozilla/5.0 (Windows NT 6.1; Win64; x64) AppleWebKit/537.36 (KHTML, like Gecko) Chrome/98.0.4758.139 Safari/537.36","WebKit","Chrome","98.0.4758.139","Windows","6.1","43162","","{""Age"":""21"",""Nation"":""中国"",""Born"":""安徽安庆"",""Live"":""四川成都"",""Ethnic"":""汉"",""Alipay"":""15000455002""}",""
"","","","","","survey-multi-choice","135","391744","0.0-8.0","50","1","2022-11-13 08:39:55","49aca292d257f58668169b9fbab864ae","119.4.228.202","Mozilla/5.0 (Windows NT 6.1; Win64; x64) AppleWebKit/537.36 (KHTML, like Gecko) Chrome/98.0.4758.139 Safari/537.36","WebKit","Chrome","98.0.4758.139","Windows","6.1","36416","","{""Gender"":""男"",""Education"":""本科毕业"",""Income"":""￥70,000-￥139,999"",""Children"":""0"",""Race"":""亚洲人""}","[0,1,2,3,4]"
"","","","","","survey-multi-select","136","413123","0.0-9.0","50","1","2022-11-13 08:39:55","49aca292d257f58668169b9fbab864ae","119.4.228.202","Mozilla/5.0 (Windows NT 6.1; Win64; x64) AppleWebKit/537.36 (KHTML, like Gecko) Chrome/98.0.4758.139 Safari/537.36","WebKit","Chrome","98.0.4758.139","Windows","6.1","21362","","{""Marriage"":[""未婚""],""Religion"":[""无神论者""]}","[0,1]"
"","","","","","survey-multi-choice","137","431124","0.0-10.0","50","1","2022-11-13 08:39:55","49aca292d257f58668169b9fbab864ae","119.4.228.202","Mozilla/5.0 (Windows NT 6.1; Win64; x64) AppleWebKit/537.36 (KHTML, like Gecko) Chrome/98.0.4758.139 Safari/537.36","WebKit","Chrome","98.0.4758.139","Windows","6.1","17988","","{""SES"":""4""}","[0]"
"","","","","","html-button-response","138","437445","0.0-11.0","50","1","2022-11-13 08:39:55","49aca292d257f58668169b9fbab864ae","119.4.228.202","Mozilla/5.0 (Windows NT 6.1; Win64; x64) AppleWebKit/537.36 (KHTML, like Gecko) Chrome/98.0.4758.139 Safari/537.36","WebKit","Chrome","98.0.4758.139","Windows","6.1","6311","<p><strong>请判断下列陈述在多大程度上可以形容你？</p><p> (1 = ""和我一点都不像"" to 5 = ""非常像我"".)</strong></p>","0",""
"","","","","","survey-likert","139","488566","0.0-12.0","50","1","2022-11-13 08:39:55","49aca292d257f58668169b9fbab864ae","119.4.228.202","Mozilla/5.0 (Windows NT 6.1; Win64; x64) AppleWebKit/537.36 (KHTML, like Gecko) Chrome/98.0.4758.139 Safari/537.36","WebKit","Chrome","98.0.4758.139","Windows","6.1","51111","","{""Aggression1"":3,""Aggression2"":4,""Aggression3"":4,""Aggression4"":0,""Aggression5"":3,""Aggression6"":3,""Aggression7"":1,""Aggression8"":3,""Aggression9"":1}","[0,1,2,3,4,5,6,7,8]"
"","","","","","html-button-response","140","492963","0.0-13.0","50","1","2022-11-13 08:39:55","49aca292d257f58668169b9fbab864ae","119.4.228.202","Mozilla/5.0 (Windows NT 6.1; Win64; x64) AppleWebKit/537.36 (KHTML, like Gecko) Chrome/98.0.4758.139 Safari/537.36","WebKit","Chrome","98.0.4758.139","Windows","6.1","4386","<p><strong>请判断你在多大程度上同意下列陈述。</strong></p>","0",""
"","","","","","survey-likert","141","629348","0.0-14.0","50","1","2022-11-13 08:39:55","49aca292d257f58668169b9fbab864ae","119.4.228.202","Mozilla/5.0 (Windows NT 6.1; Win64; x64) AppleWebKit/537.36 (KHTML, like Gecko) Chrome/98.0.4758.139 Safari/537.36","WebKit","Chrome","98.0.4758.139","Windows","6.1","136370","","{""scale23"":2,""scale7"":1,""scale18"":2,""scale13"":1,""scale28"":3,""scale5"":2,""scale19"":3,""scale2"":2,""scale11"":4,""scale8"":3,""scale15"":1,""scale14"":2,""scale22"":3,""scale17"":2,""scale24"":0,""scale16"":1,""scale25"":3,""scale26"":3,""scale3"":2,""scale10"":2,""scale1"":1,""scale6"":2,""scale21"":3,""scale27"":1,""scale20"":2,""scale9"":2,""scale4"":3,""scale12"":1}","[22,6,17,12,27,4,18,1,10,7,14,13,21,16,23,15,24,25,2,9,0,5,20,26,19,8,3,11]"
"","","","","","html-button-response","142","631856","0.0-15.0","50","1","2022-11-13 08:39:55","49aca292d257f58668169b9fbab864ae","119.4.228.202","Mozilla/5.0 (Windows NT 6.1; Win64; x64) AppleWebKit/537.36 (KHTML, like Gecko) Chrome/98.0.4758.139 Safari/537.36","WebKit","Chrome","98.0.4758.139","Windows","6.1","2498","<p><strong>请判断你在多大程度上同意下列陈述。</strong></p>","0",""
"","","","","","survey-likert","143","728144","0.0-16.0","50","1","2022-11-13 08:39:55","49aca292d257f58668169b9fbab864ae","119.4.228.202","Mozilla/5.0 (Windows NT 6.1; Win64; x64) AppleWebKit/537.36 (KHTML, like Gecko) Chrome/98.0.4758.139 Safari/537.36","WebKit","Chrome","98.0.4758.139","Windows","6.1","96274","","{""sdo12"":6,""sdo15"":4,""sdo11"":4,""sdo5"":2,""sdo8"":4,""sdo14"":5,""sdo4"":2,""sdo7"":0,""sdo6"":4,""sdo3"":5,""sdo13"":6,""sdo9"":3,""sdo10"":6,""sdo2"":2,""sdo16"":5,""sdo1"":4}","[11,14,10,4,7,13,3,6,5,2,12,8,9,1,15,0]"
"","","","","","html-button-response","144","730739","0.0-17.0","50","1","2022-11-13 08:39:55","49aca292d257f58668169b9fbab864ae","119.4.228.202","Mozilla/5.0 (Windows NT 6.1; Win64; x64) AppleWebKit/537.36 (KHTML, like Gecko) Chrome/98.0.4758.139 Safari/537.36","WebKit","Chrome","98.0.4758.139","Windows","6.1","2587","<p><strong>请判断你在多大程度上同意下列陈述。</strong></p>","0",""
"","","","","","survey-likert","145","795613","0.0-18.0","50","1","2022-11-13 08:39:55","49aca292d257f58668169b9fbab864ae","119.4.228.202","Mozilla/5.0 (Windows NT 6.1; Win64; x64) AppleWebKit/537.36 (KHTML, like Gecko) Chrome/98.0.4758.139 Safari/537.36","WebKit","Chrome","98.0.4758.139","Windows","6.1","64864","","{""caring1"":2,""liking1"":0,""caring2"":3,""protection1"":4,""liking2"":2,""caring3"":3,""protection2"":4,""liking3"":1,""protection3"":3,""caring4"":4,""liking4"":0,""protection4"":3,""caring5"":3,""liking5"":4,""protection5"":2}","[0,1,2,3,4,5,6,7,8,9,10,11,12,13,14]"
"","","","","","html-button-response","146","798197","0.0-19.0","50","1","2022-11-13 08:39:55","49aca292d257f58668169b9fbab864ae","119.4.228.202","Mozilla/5.0 (Windows NT 6.1; Win64; x64) AppleWebKit/537.36 (KHTML, like Gecko) Chrome/98.0.4758.139 Safari/537.36","WebKit","Chrome","98.0.4758.139","Windows","6.1","2574","<p><strong>请判断下列场景中你的内心感受有多柔软。</strong></p>","0",""
"","","","","","survey-likert","147","854230","0.0-20.0","50","1","2022-11-13 08:39:55","49aca292d257f58668169b9fbab864ae","119.4.228.202","Mozilla/5.0 (Windows NT 6.1; Win64; x64) AppleWebKit/537.36 (KHTML, like Gecko) Chrome/98.0.4758.139 Safari/537.36","WebKit","Chrome","98.0.4758.139","Windows","6.1","56023","","{""tenderness-positive1"":4,""tenderness-negative1"":2,""tenderness-negative2"":1,""tenderness-positive2"":3,""tenderness-positive3"":3,""tenderness-negative3"":3,""tenderness-positive4"":4,""tenderness-negative4"":3,""tenderness-negative5"":3,""tenderness-positive5"":4}","[0,1,2,3,4,5,6,7,8,9]"
"","","","","","survey-multi-choice","148","870664","0.0-21.0","50","1","2022-11-13 08:39:55","49aca292d257f58668169b9fbab864ae","119.4.228.202","Mozilla/5.0 (Windows NT 6.1; Win64; x64) AppleWebKit/537.36 (KHTML, like Gecko) Chrome/98.0.4758.139 Safari/537.36","WebKit","Chrome","98.0.4758.139","Windows","6.1","16425","","{""Attention2"":""其他""}","[0]"
"","","","","","html-button-response","149","872845","0.0-22.0","50","1","2022-11-13 08:39:55","49aca292d257f58668169b9fbab864ae","119.4.228.202","Mozilla/5.0 (Windows NT 6.1; Win64; x64) AppleWebKit/537.36 (KHTML, like Gecko) Chrome/98.0.4758.139 Safari/537.36","WebKit","Chrome","98.0.4758.139","Windows","6.1","2172","<p><strong>请判断你在多大程度上同意下列陈述。</strong></p>","0",""
"","","","","","survey-likert","150","1040626","0.0-23.0","50","1","2022-11-13 08:39:55","49aca292d257f58668169b9fbab864ae","119.4.228.202","Mozilla/5.0 (Windows NT 6.1; Win64; x64) AppleWebKit/537.36 (KHTML, like Gecko) Chrome/98.0.4758.139 Safari/537.36","WebKit","Chrome","98.0.4758.139","Windows","6.1","167766","","{""Nation8"":4,""Patri11"":4,""Patri3"":3,""Nation2"":0,""Patri4"":1,""Patri2"":3,""Patri10"":3,""Patri9"":4,""Nation6"":1,""Patri5"":1,""Nation1"":0,""Nation4"":0,""Patri12"":0,""Nation5"":0,""Nation3"":0,""Patri1"":4,""Nation7"":0,""Patri8"":3,""Patri6"":4,""Patri7"":1}","[19,10,2,13,3,1,9,8,17,4,12,15,11,16,14,0,18,7,5,6]"
"","","","","","html-button-response","151","1042791","0.0-24.0","50","1","2022-11-13 08:39:55","49aca292d257f58668169b9fbab864ae","119.4.228.202","Mozilla/5.0 (Windows NT 6.1; Win64; x64) AppleWebKit/537.36 (KHTML, like Gecko) Chrome/98.0.4758.139 Safari/537.36","WebKit","Chrome","98.0.4758.139","Windows","6.1","2155","<p><strong>请判断你在多大程度上同意下列陈述。</strong></p>","0",""
"","","","","","survey-likert","152","1117131","0.0-25.0","50","1","2022-11-13 08:39:55","49aca292d257f58668169b9fbab864ae","119.4.228.202","Mozilla/5.0 (Windows NT 6.1; Win64; x64) AppleWebKit/537.36 (KHTML, like Gecko) Chrome/98.0.4758.139 Safari/537.36","WebKit","Chrome","98.0.4758.139","Windows","6.1","74327","","{""Robot"":6,""hc2"":5,""vi1"":6,""hi1"":7,""vi4"":5,""hi4"":7,""vc4"":4,""hi3"":3,""hi2"":7,""vi2"":2,""hc1"":6,""vc2"":7,""vi3"":6,""hc4"":4,""vc1"":6,""hc3"":3,""vc3"":6}","[7,10,4,0,8,3,16,2,1,5,9,14,6,12,13,11,15]"
"","","","","","survey-text","153","1207967","0.0-26.0","50","1","2022-11-13 08:39:55","49aca292d257f58668169b9fbab864ae","119.4.228.202","Mozilla/5.0 (Windows NT 6.1; Win64; x64) AppleWebKit/537.36 (KHTML, like Gecko) Chrome/98.0.4758.139 Safari/537.36","WebKit","Chrome","98.0.4758.139","Windows","6.1","90804","","{""Comments"":""开始的选择题感觉有点多余""}",""
"","","","","","html-button-response","154","1210714","0.0-27.0","50","1","2022-11-13 08:39:55","49aca292d257f58668169b9fbab864ae","119.4.228.202","Mozilla/5.0 (Windows NT 6.1; Win64; x64) AppleWebKit/537.36 (KHTML, like Gecko) Chrome/98.0.4758.139 Safari/537.36","WebKit","Chrome","98.0.4758.139","Windows","6.1","2740","<strong><p>恭喜你完成了实验！</p><p>感谢您的参与。</p></strong>","0",""
