"success","timeout","failed_images","failed_audio","failed_video","trial_type","trial_index","time_elapsed","internal_node_id","run_id","condition","recorded_at","source_code_version","ip","user_agent","device","browser","browser_version","platform","platform_version","rt","stimulus","response","question_order"
"true","false","[]","[]","[]","preload","0","156","0.0-0.0","65","1","2022-11-13 09:03:54","49aca292d257f58668169b9fbab864ae","223.104.214.152","Mozilla/5.0 (Windows NT 6.1; Win64; x64) AppleWebKit/537.36 (KHTML, like Gecko) Chrome/98.0.4758.139 Safari/537.36","WebKit","Chrome","98.0.4758.139","Windows","6.1","","","",""
"true","","","","","fullscreen","1","5895","0.0-1.0","65","1","2022-11-13 09:03:54","49aca292d257f58668169b9fbab864ae","223.104.214.152","Mozilla/5.0 (Windows NT 6.1; Win64; x64) AppleWebKit/537.36 (KHTML, like Gecko) Chrome/98.0.4758.139 Safari/537.36","WebKit","Chrome","98.0.4758.139","Windows","6.1","","","",""
"","","","","","html-button-response","2","12312","0.0-2.0","65","1","2022-11-13 09:03:54","49aca292d257f58668169b9fbab864ae","223.104.214.152","Mozilla/5.0 (Windows NT 6.1; Win64; x64) AppleWebKit/537.36 (KHTML, like Gecko) Chrome/98.0.4758.139 Safari/537.36","WebKit","Chrome","98.0.4758.139","Windows","6.1","6414","<p style=""font-size:20px;font-weight:bold;"">实验知情同意书</p><p style=""text-align:left;""><strong>实验名称：</strong>社会冲突研究</p><p style=""text-align:left;""><strong>主要研究者：</strong>韩晓春副教授（北京师范大学心理学部）</p><p style=""text-align:left;""><strong>联系方式：</strong>发送邮件至xiaochun.han@bnu.edu.cn</p><p style=""text-align:left;""><strong>研究目的：</strong>研究旨在了解人类面对群体冲突时的决策方式，以及相关的心理学特质。实验调查大约需要20分钟。</p><p style=""text-align:left;""><strong>实验流程：</strong>实验包含两部分。第一部分呈现一系列群体冲突场景，请你决定如何对这些冲突进行反应，大约需要10分钟完成。第二部分包含一系列人口统计学信息收集和心理学问卷，大约需要10分钟完成。</p><p style=""text-align:left;""><strong>参加及退出规则：</strong>参加本实验完全取决于您的个人意愿。在参与过程中，您可以随时退出，并且不用承担任何后果。</p><p style=""text-align:left;""><strong>隐私：</strong>本实验完全匿名进行，不会收集您的姓名或其他能够识别您身份的信息。实验中收集的作答仅用作科学研究使用，可能会在学术期刊/书籍上发表，或者用于教学，您的数据未来可能会和其他研究者或实验室分享，但您的个人身份不会被识别。</p><p style=""text-align:left;""><strong>实验报酬：</strong>实验完成后，您将获得15元人民币报酬，以感谢您的时间和努力。调查问卷中包含几道题目用以测验您作答时的认真度。只有完成全部实验，并且正确回答认真度测验的被试才能获得实验报酬。实验报酬将通过支付宝转账发放。</p><p style=""text-align:left;font-size:20px;""><strong>如果您同意以上实验知情同意书的内容，请点击'同意并且开始实验'按钮；否则请关闭浏览器界面，退出实验。</strong></p>","0",""
"","","","","","html-button-response","3","18554","0.0-3.0","65","1","2022-11-13 09:03:54","49aca292d257f58668169b9fbab864ae","223.104.214.152","Mozilla/5.0 (Windows NT 6.1; Win64; x64) AppleWebKit/537.36 (KHTML, like Gecko) Chrome/98.0.4758.139 Safari/537.36","WebKit","Chrome","98.0.4758.139","Windows","6.1","6239","<p ><strong>实验任务一：</strong></p><p>请想象你的国家与另一个国家发生了军事冲突。</p><p>你是国家军队的指挥官，你将如何在冲突中进行决策。</p><p>具体来说，作为军队指挥官，请你决定是否发射导弹进行打击。</p><p>接下来，你会面对一系列场景，请仔细阅读每个场景，然后进行决策。</p><p>这部分实验任务大约需要10分钟。</p><p><strong>实验过程中，请集中注意力。</strong></p>","0",""
"","","","","","html-keyboard-response","4","19557","0.0-4.0-0.0","65","1","2022-11-13 09:03:54","49aca292d257f58668169b9fbab864ae","223.104.214.152","Mozilla/5.0 (Windows NT 6.1; Win64; x64) AppleWebKit/537.36 (KHTML, like Gecko) Chrome/98.0.4758.139 Safari/537.36","WebKit","Chrome","98.0.4758.139","Windows","6.1","null","<div style=""font-size:60px;"">+</div>","null",""
"","","","","","html-button-response","5","23899","0.0-4.0-1.0","65","1","2022-11-13 09:03:54","49aca292d257f58668169b9fbab864ae","223.104.214.152","Mozilla/5.0 (Windows NT 6.1; Win64; x64) AppleWebKit/537.36 (KHTML, like Gecko) Chrome/98.0.4758.139 Safari/537.36","WebKit","Chrome","98.0.4758.139","Windows","6.1","4338","<p>作为军队的指挥官，你可以选择发射导弹杀死 <strong>6名</strong> 敌国士兵，但会炸毁附近的 <strong>1棵</strong> 敌国树木。</p> <p>树木的照片如下图所示。</p> <p></p> <img src='stimuli/trees/9.png', style='max-width: 30%;'> </img> <p><strong>你是否选择发射武器？</strong></p>","0",""
"","","","","","html-keyboard-response","6","24902","0.0-4.0-0.1","65","1","2022-11-13 09:03:54","49aca292d257f58668169b9fbab864ae","223.104.214.152","Mozilla/5.0 (Windows NT 6.1; Win64; x64) AppleWebKit/537.36 (KHTML, like Gecko) Chrome/98.0.4758.139 Safari/537.36","WebKit","Chrome","98.0.4758.139","Windows","6.1","null","<div style=""font-size:60px;"">+</div>","null",""
"","","","","","html-button-response","7","27935","0.0-4.0-1.1","65","1","2022-11-13 09:03:54","49aca292d257f58668169b9fbab864ae","223.104.214.152","Mozilla/5.0 (Windows NT 6.1; Win64; x64) AppleWebKit/537.36 (KHTML, like Gecko) Chrome/98.0.4758.139 Safari/537.36","WebKit","Chrome","98.0.4758.139","Windows","6.1","3030","<p>作为军队的指挥官，你可以选择发射导弹杀死 <strong>8名</strong> 敌国士兵，但会误杀附近的 <strong>1名</strong> 敌国平民。</p> <p>平民照片如下图所示。</p> <p></p> <img src='stimuli/faces/PFF4.jpg', style='max-width: 30%;'> </img> <p><strong>你是否选择发射武器？</strong></p>","0",""
"","","","","","html-keyboard-response","8","28938","0.0-4.0-0.2","65","1","2022-11-13 09:03:54","49aca292d257f58668169b9fbab864ae","223.104.214.152","Mozilla/5.0 (Windows NT 6.1; Win64; x64) AppleWebKit/537.36 (KHTML, like Gecko) Chrome/98.0.4758.139 Safari/537.36","WebKit","Chrome","98.0.4758.139","Windows","6.1","null","<div style=""font-size:60px;"">+</div>","null",""
"","","","","","html-button-response","9","31342","0.0-4.0-1.2","65","1","2022-11-13 09:03:54","49aca292d257f58668169b9fbab864ae","223.104.214.152","Mozilla/5.0 (Windows NT 6.1; Win64; x64) AppleWebKit/537.36 (KHTML, like Gecko) Chrome/98.0.4758.139 Safari/537.36","WebKit","Chrome","98.0.4758.139","Windows","6.1","2401","<p>作为军队的指挥官，你可以选择发射导弹杀死 <strong>5名</strong> 敌国士兵，但会误杀附近的 <strong>1名</strong> 敌国平民。</p> <p>平民照片如下图所示。</p> <p></p> <img src='stimuli/faces/PFF8.jpg', style='max-width: 30%;'> </img> <p><strong>你是否选择发射武器？</strong></p>","0",""
"","","","","","html-keyboard-response","10","32344","0.0-4.0-0.3","65","1","2022-11-13 09:03:54","49aca292d257f58668169b9fbab864ae","223.104.214.152","Mozilla/5.0 (Windows NT 6.1; Win64; x64) AppleWebKit/537.36 (KHTML, like Gecko) Chrome/98.0.4758.139 Safari/537.36","WebKit","Chrome","98.0.4758.139","Windows","6.1","null","<div style=""font-size:60px;"">+</div>","null",""
"","","","","","html-button-response","11","40710","0.0-4.0-1.3","65","1","2022-11-13 09:03:54","49aca292d257f58668169b9fbab864ae","223.104.214.152","Mozilla/5.0 (Windows NT 6.1; Win64; x64) AppleWebKit/537.36 (KHTML, like Gecko) Chrome/98.0.4758.139 Safari/537.36","WebKit","Chrome","98.0.4758.139","Windows","6.1","8363","<p>作为军队的指挥官，你可以选择发射导弹杀死 <strong>2名</strong> 敌国士兵，但会误杀附近的 <strong>1名</strong> 敌国平民。</p> <p>平民照片如下图所示。</p> <p></p> <img src='stimuli/faces/PFF6.jpg', style='max-width: 30%;'> </img> <p><strong>你是否选择发射武器？</strong></p>","0",""
"","","","","","html-keyboard-response","12","41712","0.0-4.0-0.4","65","1","2022-11-13 09:03:54","49aca292d257f58668169b9fbab864ae","223.104.214.152","Mozilla/5.0 (Windows NT 6.1; Win64; x64) AppleWebKit/537.36 (KHTML, like Gecko) Chrome/98.0.4758.139 Safari/537.36","WebKit","Chrome","98.0.4758.139","Windows","6.1","null","<div style=""font-size:60px;"">+</div>","null",""
"","","","","","html-button-response","13","43317","0.0-4.0-1.4","65","1","2022-11-13 09:03:54","49aca292d257f58668169b9fbab864ae","223.104.214.152","Mozilla/5.0 (Windows NT 6.1; Win64; x64) AppleWebKit/537.36 (KHTML, like Gecko) Chrome/98.0.4758.139 Safari/537.36","WebKit","Chrome","98.0.4758.139","Windows","6.1","1601","<p>作为军队的指挥官，你可以选择发射导弹杀死 <strong>7名</strong> 敌国士兵，但会误杀附近的 <strong>1名</strong> 敌国平民。</p> <p>平民照片如下图所示。</p> <p></p> <img src='stimuli/faces/PFF3.jpg', style='max-width: 30%;'> </img> <p><strong>你是否选择发射武器？</strong></p>","0",""
"","","","","","html-keyboard-response","14","44319","0.0-4.0-0.5","65","1","2022-11-13 09:03:54","49aca292d257f58668169b9fbab864ae","223.104.214.152","Mozilla/5.0 (Windows NT 6.1; Win64; x64) AppleWebKit/537.36 (KHTML, like Gecko) Chrome/98.0.4758.139 Safari/537.36","WebKit","Chrome","98.0.4758.139","Windows","6.1","null","<div style=""font-size:60px;"">+</div>","null",""
"","","","","","html-button-response","15","45901","0.0-4.0-1.5","65","1","2022-11-13 09:03:54","49aca292d257f58668169b9fbab864ae","223.104.214.152","Mozilla/5.0 (Windows NT 6.1; Win64; x64) AppleWebKit/537.36 (KHTML, like Gecko) Chrome/98.0.4758.139 Safari/537.36","WebKit","Chrome","98.0.4758.139","Windows","6.1","1578","<p>作为军队的指挥官，你可以选择发射导弹杀死 <strong>8名</strong> 敌国士兵，但会炸毁附近的 <strong>1棵</strong> 敌国树木。</p> <p>树木的照片如下图所示。</p> <p></p> <img src='stimuli/trees/15.png', style='max-width: 30%;'> </img> <p><strong>你是否选择发射武器？</strong></p>","0",""
"","","","","","html-keyboard-response","16","46904","0.0-4.0-0.6","65","1","2022-11-13 09:03:54","49aca292d257f58668169b9fbab864ae","223.104.214.152","Mozilla/5.0 (Windows NT 6.1; Win64; x64) AppleWebKit/537.36 (KHTML, like Gecko) Chrome/98.0.4758.139 Safari/537.36","WebKit","Chrome","98.0.4758.139","Windows","6.1","null","<div style=""font-size:60px;"">+</div>","null",""
"","","","","","html-button-response","17","48094","0.0-4.0-1.6","65","1","2022-11-13 09:03:54","49aca292d257f58668169b9fbab864ae","223.104.214.152","Mozilla/5.0 (Windows NT 6.1; Win64; x64) AppleWebKit/537.36 (KHTML, like Gecko) Chrome/98.0.4758.139 Safari/537.36","WebKit","Chrome","98.0.4758.139","Windows","6.1","1185","<p>作为军队的指挥官，你可以选择发射导弹杀死 <strong>7名</strong> 敌国士兵，但会误杀附近的 <strong>1名</strong> 敌国平民。</p> <p>平民照片如下图所示。</p> <p></p> <img src='stimuli/faces/PFF1.jpg', style='max-width: 30%;'> </img> <p><strong>你是否选择发射武器？</strong></p>","0",""
"","","","","","html-keyboard-response","18","49096","0.0-4.0-0.7","65","1","2022-11-13 09:03:54","49aca292d257f58668169b9fbab864ae","223.104.214.152","Mozilla/5.0 (Windows NT 6.1; Win64; x64) AppleWebKit/537.36 (KHTML, like Gecko) Chrome/98.0.4758.139 Safari/537.36","WebKit","Chrome","98.0.4758.139","Windows","6.1","null","<div style=""font-size:60px;"">+</div>","null",""
"","","","","","html-button-response","19","50329","0.0-4.0-1.7","65","1","2022-11-13 09:03:54","49aca292d257f58668169b9fbab864ae","223.104.214.152","Mozilla/5.0 (Windows NT 6.1; Win64; x64) AppleWebKit/537.36 (KHTML, like Gecko) Chrome/98.0.4758.139 Safari/537.36","WebKit","Chrome","98.0.4758.139","Windows","6.1","1230","<p>作为军队的指挥官，你可以选择发射导弹杀死 <strong>8名</strong> 敌国士兵，但会误杀附近的 <strong>1名</strong> 敌国平民。</p> <p>平民照片如下图所示。</p> <p></p> <img src='stimuli/faces/PFM4.jpg', style='max-width: 30%;'> </img> <p><strong>你是否选择发射武器？</strong></p>","0",""
"","","","","","html-keyboard-response","20","51332","0.0-4.0-0.8","65","1","2022-11-13 09:03:54","49aca292d257f58668169b9fbab864ae","223.104.214.152","Mozilla/5.0 (Windows NT 6.1; Win64; x64) AppleWebKit/537.36 (KHTML, like Gecko) Chrome/98.0.4758.139 Safari/537.36","WebKit","Chrome","98.0.4758.139","Windows","6.1","null","<div style=""font-size:60px;"">+</div>","null",""
"","","","","","html-button-response","21","52376","0.0-4.0-1.8","65","1","2022-11-13 09:03:54","49aca292d257f58668169b9fbab864ae","223.104.214.152","Mozilla/5.0 (Windows NT 6.1; Win64; x64) AppleWebKit/537.36 (KHTML, like Gecko) Chrome/98.0.4758.139 Safari/537.36","WebKit","Chrome","98.0.4758.139","Windows","6.1","1041","<p>作为军队的指挥官，你可以选择发射导弹杀死 <strong>4名</strong> 敌国士兵，但会误杀附近的 <strong>1名</strong> 敌国平民。</p> <p>平民照片如下图所示。</p> <p></p> <img src='stimuli/faces/PFF7.jpg', style='max-width: 30%;'> </img> <p><strong>你是否选择发射武器？</strong></p>","0",""
"","","","","","html-keyboard-response","22","53378","0.0-4.0-0.9","65","1","2022-11-13 09:03:54","49aca292d257f58668169b9fbab864ae","223.104.214.152","Mozilla/5.0 (Windows NT 6.1; Win64; x64) AppleWebKit/537.36 (KHTML, like Gecko) Chrome/98.0.4758.139 Safari/537.36","WebKit","Chrome","98.0.4758.139","Windows","6.1","null","<div style=""font-size:60px;"">+</div>","null",""
"","","","","","html-button-response","23","54385","0.0-4.0-1.9","65","1","2022-11-13 09:03:54","49aca292d257f58668169b9fbab864ae","223.104.214.152","Mozilla/5.0 (Windows NT 6.1; Win64; x64) AppleWebKit/537.36 (KHTML, like Gecko) Chrome/98.0.4758.139 Safari/537.36","WebKit","Chrome","98.0.4758.139","Windows","6.1","1003","<p>作为军队的指挥官，你可以选择发射导弹杀死 <strong>6名</strong> 敌国士兵，但会误杀附近的 <strong>1名</strong> 敌国平民。</p> <p>平民照片如下图所示。</p> <p></p> <img src='stimuli/faces/PFF8.jpg', style='max-width: 30%;'> </img> <p><strong>你是否选择发射武器？</strong></p>","0",""
"","","","","","html-keyboard-response","24","55387","0.0-4.0-0.10","65","1","2022-11-13 09:03:54","49aca292d257f58668169b9fbab864ae","223.104.214.152","Mozilla/5.0 (Windows NT 6.1; Win64; x64) AppleWebKit/537.36 (KHTML, like Gecko) Chrome/98.0.4758.139 Safari/537.36","WebKit","Chrome","98.0.4758.139","Windows","6.1","null","<div style=""font-size:60px;"">+</div>","null",""
"","","","","","html-button-response","25","56190","0.0-4.0-1.10","65","1","2022-11-13 09:03:54","49aca292d257f58668169b9fbab864ae","223.104.214.152","Mozilla/5.0 (Windows NT 6.1; Win64; x64) AppleWebKit/537.36 (KHTML, like Gecko) Chrome/98.0.4758.139 Safari/537.36","WebKit","Chrome","98.0.4758.139","Windows","6.1","801","<p>作为军队的指挥官，你可以选择发射导弹杀死 <strong>6名</strong> 敌国士兵，但会误杀附近的 <strong>1名</strong> 敌国平民。</p> <p>平民照片如下图所示。</p> <p></p> <img src='stimuli/faces/PFF2.jpg', style='max-width: 30%;'> </img> <p><strong>你是否选择发射武器？</strong></p>","0",""
"","","","","","html-keyboard-response","26","57193","0.0-4.0-0.11","65","1","2022-11-13 09:03:54","49aca292d257f58668169b9fbab864ae","223.104.214.152","Mozilla/5.0 (Windows NT 6.1; Win64; x64) AppleWebKit/537.36 (KHTML, like Gecko) Chrome/98.0.4758.139 Safari/537.36","WebKit","Chrome","98.0.4758.139","Windows","6.1","null","<div style=""font-size:60px;"">+</div>","null",""
"","","","","","html-button-response","27","58486","0.0-4.0-1.11","65","1","2022-11-13 09:03:54","49aca292d257f58668169b9fbab864ae","223.104.214.152","Mozilla/5.0 (Windows NT 6.1; Win64; x64) AppleWebKit/537.36 (KHTML, like Gecko) Chrome/98.0.4758.139 Safari/537.36","WebKit","Chrome","98.0.4758.139","Windows","6.1","1290","<p>作为军队的指挥官，你可以选择发射导弹杀死 <strong>10名</strong> 敌国士兵，但会误杀附近的 <strong>1名</strong> 敌国平民。</p> <p>平民照片如下图所示。</p> <p></p> <img src='stimuli/faces/PFM2.jpg', style='max-width: 30%;'> </img> <p><strong>你是否选择发射武器？</strong></p>","0",""
"","","","","","html-keyboard-response","28","59489","0.0-4.0-0.12","65","1","2022-11-13 09:03:54","49aca292d257f58668169b9fbab864ae","223.104.214.152","Mozilla/5.0 (Windows NT 6.1; Win64; x64) AppleWebKit/537.36 (KHTML, like Gecko) Chrome/98.0.4758.139 Safari/537.36","WebKit","Chrome","98.0.4758.139","Windows","6.1","null","<div style=""font-size:60px;"">+</div>","null",""
"","","","","","html-button-response","29","60622","0.0-4.0-1.12","65","1","2022-11-13 09:03:54","49aca292d257f58668169b9fbab864ae","223.104.214.152","Mozilla/5.0 (Windows NT 6.1; Win64; x64) AppleWebKit/537.36 (KHTML, like Gecko) Chrome/98.0.4758.139 Safari/537.36","WebKit","Chrome","98.0.4758.139","Windows","6.1","1129","<p>作为军队的指挥官，你可以选择发射导弹杀死 <strong>4名</strong> 敌国士兵，但会炸毁附近的 <strong>1棵</strong> 敌国树木。</p> <p>树木的照片如下图所示。</p> <p></p> <img src='stimuli/trees/9.png', style='max-width: 30%;'> </img> <p><strong>你是否选择发射武器？</strong></p>","0",""
"","","","","","html-keyboard-response","30","61624","0.0-4.0-0.13","65","1","2022-11-13 09:03:54","49aca292d257f58668169b9fbab864ae","223.104.214.152","Mozilla/5.0 (Windows NT 6.1; Win64; x64) AppleWebKit/537.36 (KHTML, like Gecko) Chrome/98.0.4758.139 Safari/537.36","WebKit","Chrome","98.0.4758.139","Windows","6.1","null","<div style=""font-size:60px;"">+</div>","null",""
"","","","","","html-button-response","31","68122","0.0-4.0-1.13","65","1","2022-11-13 09:03:54","49aca292d257f58668169b9fbab864ae","223.104.214.152","Mozilla/5.0 (Windows NT 6.1; Win64; x64) AppleWebKit/537.36 (KHTML, like Gecko) Chrome/98.0.4758.139 Safari/537.36","WebKit","Chrome","98.0.4758.139","Windows","6.1","6494","<p>作为军队的指挥官，你可以选择发射导弹杀死 <strong>1名</strong> 敌国士兵，但会炸毁附近的 <strong>1棵</strong> 敌国树木。</p> <p>树木的照片如下图所示。</p> <p></p> <img src='stimuli/trees/3.png', style='max-width: 30%;'> </img> <p><strong>你是否选择发射武器？</strong></p>","0",""
"","","","","","html-keyboard-response","32","69124","0.0-4.0-0.14","65","1","2022-11-13 09:03:54","49aca292d257f58668169b9fbab864ae","223.104.214.152","Mozilla/5.0 (Windows NT 6.1; Win64; x64) AppleWebKit/537.36 (KHTML, like Gecko) Chrome/98.0.4758.139 Safari/537.36","WebKit","Chrome","98.0.4758.139","Windows","6.1","null","<div style=""font-size:60px;"">+</div>","null",""
"","","","","","html-button-response","33","70817","0.0-4.0-1.14","65","1","2022-11-13 09:03:54","49aca292d257f58668169b9fbab864ae","223.104.214.152","Mozilla/5.0 (Windows NT 6.1; Win64; x64) AppleWebKit/537.36 (KHTML, like Gecko) Chrome/98.0.4758.139 Safari/537.36","WebKit","Chrome","98.0.4758.139","Windows","6.1","1689","<p>作为军队的指挥官，你可以选择发射导弹杀死 <strong>1名</strong> 敌国士兵，但会炸毁附近的 <strong>1棵</strong> 敌国树木。</p> <p>树木的照片如下图所示。</p> <p></p> <img src='stimuli/trees/8.png', style='max-width: 30%;'> </img> <p><strong>你是否选择发射武器？</strong></p>","0",""
"","","","","","html-keyboard-response","34","71819","0.0-4.0-0.15","65","1","2022-11-13 09:03:54","49aca292d257f58668169b9fbab864ae","223.104.214.152","Mozilla/5.0 (Windows NT 6.1; Win64; x64) AppleWebKit/537.36 (KHTML, like Gecko) Chrome/98.0.4758.139 Safari/537.36","WebKit","Chrome","98.0.4758.139","Windows","6.1","null","<div style=""font-size:60px;"">+</div>","null",""
"","","","","","html-button-response","35","73293","0.0-4.0-1.15","65","1","2022-11-13 09:03:54","49aca292d257f58668169b9fbab864ae","223.104.214.152","Mozilla/5.0 (Windows NT 6.1; Win64; x64) AppleWebKit/537.36 (KHTML, like Gecko) Chrome/98.0.4758.139 Safari/537.36","WebKit","Chrome","98.0.4758.139","Windows","6.1","1469","<p>作为军队的指挥官，你可以选择发射导弹杀死 <strong>1名</strong> 敌国士兵，但会炸毁附近的 <strong>1棵</strong> 敌国树木。</p> <p>树木的照片如下图所示。</p> <p></p> <img src='stimuli/trees/7.png', style='max-width: 30%;'> </img> <p><strong>你是否选择发射武器？</strong></p>","0",""
"","","","","","html-keyboard-response","36","74296","0.0-4.0-0.16","65","1","2022-11-13 09:03:54","49aca292d257f58668169b9fbab864ae","223.104.214.152","Mozilla/5.0 (Windows NT 6.1; Win64; x64) AppleWebKit/537.36 (KHTML, like Gecko) Chrome/98.0.4758.139 Safari/537.36","WebKit","Chrome","98.0.4758.139","Windows","6.1","null","<div style=""font-size:60px;"">+</div>","null",""
"","","","","","html-button-response","37","75792","0.0-4.0-1.16","65","1","2022-11-13 09:03:54","49aca292d257f58668169b9fbab864ae","223.104.214.152","Mozilla/5.0 (Windows NT 6.1; Win64; x64) AppleWebKit/537.36 (KHTML, like Gecko) Chrome/98.0.4758.139 Safari/537.36","WebKit","Chrome","98.0.4758.139","Windows","6.1","1492","<p>作为军队的指挥官，你可以选择发射导弹杀死 <strong>10名</strong> 敌国士兵，但会炸毁附近的 <strong>1棵</strong> 敌国树木。</p> <p>树木的照片如下图所示。</p> <p></p> <img src='stimuli/trees/10.png', style='max-width: 30%;'> </img> <p><strong>你是否选择发射武器？</strong></p>","0",""
"","","","","","html-keyboard-response","38","76795","0.0-4.0-0.17","65","1","2022-11-13 09:03:54","49aca292d257f58668169b9fbab864ae","223.104.214.152","Mozilla/5.0 (Windows NT 6.1; Win64; x64) AppleWebKit/537.36 (KHTML, like Gecko) Chrome/98.0.4758.139 Safari/537.36","WebKit","Chrome","98.0.4758.139","Windows","6.1","null","<div style=""font-size:60px;"">+</div>","null",""
"","","","","","html-button-response","39","78481","0.0-4.0-1.17","65","1","2022-11-13 09:03:54","49aca292d257f58668169b9fbab864ae","223.104.214.152","Mozilla/5.0 (Windows NT 6.1; Win64; x64) AppleWebKit/537.36 (KHTML, like Gecko) Chrome/98.0.4758.139 Safari/537.36","WebKit","Chrome","98.0.4758.139","Windows","6.1","1681","<p>作为军队的指挥官，你可以选择发射导弹杀死 <strong>1名</strong> 敌国士兵，但会炸毁附近的 <strong>1棵</strong> 敌国树木。</p> <p>树木的照片如下图所示。</p> <p></p> <img src='stimuli/trees/10.png', style='max-width: 30%;'> </img> <p><strong>你是否选择发射武器？</strong></p>","0",""
"","","","","","html-keyboard-response","40","79484","0.0-4.0-0.18","65","1","2022-11-13 09:03:54","49aca292d257f58668169b9fbab864ae","223.104.214.152","Mozilla/5.0 (Windows NT 6.1; Win64; x64) AppleWebKit/537.36 (KHTML, like Gecko) Chrome/98.0.4758.139 Safari/537.36","WebKit","Chrome","98.0.4758.139","Windows","6.1","null","<div style=""font-size:60px;"">+</div>","null",""
"","","","","","html-button-response","41","80900","0.0-4.0-1.18","65","1","2022-11-13 09:03:54","49aca292d257f58668169b9fbab864ae","223.104.214.152","Mozilla/5.0 (Windows NT 6.1; Win64; x64) AppleWebKit/537.36 (KHTML, like Gecko) Chrome/98.0.4758.139 Safari/537.36","WebKit","Chrome","98.0.4758.139","Windows","6.1","1412","<p>作为军队的指挥官，你可以选择发射导弹杀死 <strong>7名</strong> 敌国士兵，但会误杀附近的 <strong>1名</strong> 敌国平民。</p> <p>平民照片如下图所示。</p> <p></p> <img src='stimuli/faces/PFM5.jpg', style='max-width: 30%;'> </img> <p><strong>你是否选择发射武器？</strong></p>","0",""
"","","","","","html-keyboard-response","42","81903","0.0-4.0-0.19","65","1","2022-11-13 09:03:54","49aca292d257f58668169b9fbab864ae","223.104.214.152","Mozilla/5.0 (Windows NT 6.1; Win64; x64) AppleWebKit/537.36 (KHTML, like Gecko) Chrome/98.0.4758.139 Safari/537.36","WebKit","Chrome","98.0.4758.139","Windows","6.1","null","<div style=""font-size:60px;"">+</div>","null",""
"","","","","","html-button-response","43","83461","0.0-4.0-1.19","65","1","2022-11-13 09:03:54","49aca292d257f58668169b9fbab864ae","223.104.214.152","Mozilla/5.0 (Windows NT 6.1; Win64; x64) AppleWebKit/537.36 (KHTML, like Gecko) Chrome/98.0.4758.139 Safari/537.36","WebKit","Chrome","98.0.4758.139","Windows","6.1","1554","<p>作为军队的指挥官，你可以选择发射导弹杀死 <strong>8名</strong> 敌国士兵，但会炸毁附近的 <strong>1棵</strong> 敌国树木。</p> <p>树木的照片如下图所示。</p> <p></p> <img src='stimuli/trees/4.png', style='max-width: 30%;'> </img> <p><strong>你是否选择发射武器？</strong></p>","0",""
"","","","","","html-keyboard-response","44","84465","0.0-4.0-0.20","65","1","2022-11-13 09:03:54","49aca292d257f58668169b9fbab864ae","223.104.214.152","Mozilla/5.0 (Windows NT 6.1; Win64; x64) AppleWebKit/537.36 (KHTML, like Gecko) Chrome/98.0.4758.139 Safari/537.36","WebKit","Chrome","98.0.4758.139","Windows","6.1","null","<div style=""font-size:60px;"">+</div>","null",""
"","","","","","html-button-response","45","86067","0.0-4.0-1.20","65","1","2022-11-13 09:03:54","49aca292d257f58668169b9fbab864ae","223.104.214.152","Mozilla/5.0 (Windows NT 6.1; Win64; x64) AppleWebKit/537.36 (KHTML, like Gecko) Chrome/98.0.4758.139 Safari/537.36","WebKit","Chrome","98.0.4758.139","Windows","6.1","1598","<p>作为军队的指挥官，你可以选择发射导弹杀死 <strong>5名</strong> 敌国士兵，但会误杀附近的 <strong>1名</strong> 敌国平民。</p> <p>平民照片如下图所示。</p> <p></p> <img src='stimuli/faces/PFF3.jpg', style='max-width: 30%;'> </img> <p><strong>你是否选择发射武器？</strong></p>","0",""
"","","","","","html-keyboard-response","46","87070","0.0-4.0-0.21","65","1","2022-11-13 09:03:54","49aca292d257f58668169b9fbab864ae","223.104.214.152","Mozilla/5.0 (Windows NT 6.1; Win64; x64) AppleWebKit/537.36 (KHTML, like Gecko) Chrome/98.0.4758.139 Safari/537.36","WebKit","Chrome","98.0.4758.139","Windows","6.1","null","<div style=""font-size:60px;"">+</div>","null",""
"","","","","","html-button-response","47","88686","0.0-4.0-1.21","65","1","2022-11-13 09:03:54","49aca292d257f58668169b9fbab864ae","223.104.214.152","Mozilla/5.0 (Windows NT 6.1; Win64; x64) AppleWebKit/537.36 (KHTML, like Gecko) Chrome/98.0.4758.139 Safari/537.36","WebKit","Chrome","98.0.4758.139","Windows","6.1","1612","<p>作为军队的指挥官，你可以选择发射导弹杀死 <strong>6名</strong> 敌国士兵，但会炸毁附近的 <strong>1棵</strong> 敌国树木。</p> <p>树木的照片如下图所示。</p> <p></p> <img src='stimuli/trees/6.png', style='max-width: 30%;'> </img> <p><strong>你是否选择发射武器？</strong></p>","0",""
"","","","","","html-keyboard-response","48","89690","0.0-4.0-0.22","65","1","2022-11-13 09:03:54","49aca292d257f58668169b9fbab864ae","223.104.214.152","Mozilla/5.0 (Windows NT 6.1; Win64; x64) AppleWebKit/537.36 (KHTML, like Gecko) Chrome/98.0.4758.139 Safari/537.36","WebKit","Chrome","98.0.4758.139","Windows","6.1","null","<div style=""font-size:60px;"">+</div>","null",""
"","","","","","html-button-response","49","91243","0.0-4.0-1.22","65","1","2022-11-13 09:03:54","49aca292d257f58668169b9fbab864ae","223.104.214.152","Mozilla/5.0 (Windows NT 6.1; Win64; x64) AppleWebKit/537.36 (KHTML, like Gecko) Chrome/98.0.4758.139 Safari/537.36","WebKit","Chrome","98.0.4758.139","Windows","6.1","1549","<p>作为军队的指挥官，你可以选择发射导弹杀死 <strong>9名</strong> 敌国士兵，但会误杀附近的 <strong>1名</strong> 敌国平民。</p> <p>平民照片如下图所示。</p> <p></p> <img src='stimuli/faces/PFF6.jpg', style='max-width: 30%;'> </img> <p><strong>你是否选择发射武器？</strong></p>","0",""
"","","","","","html-keyboard-response","50","92246","0.0-4.0-0.23","65","1","2022-11-13 09:03:54","49aca292d257f58668169b9fbab864ae","223.104.214.152","Mozilla/5.0 (Windows NT 6.1; Win64; x64) AppleWebKit/537.36 (KHTML, like Gecko) Chrome/98.0.4758.139 Safari/537.36","WebKit","Chrome","98.0.4758.139","Windows","6.1","null","<div style=""font-size:60px;"">+</div>","null",""
"","","","","","html-button-response","51","94047","0.0-4.0-1.23","65","1","2022-11-13 09:03:54","49aca292d257f58668169b9fbab864ae","223.104.214.152","Mozilla/5.0 (Windows NT 6.1; Win64; x64) AppleWebKit/537.36 (KHTML, like Gecko) Chrome/98.0.4758.139 Safari/537.36","WebKit","Chrome","98.0.4758.139","Windows","6.1","1797","<p>作为军队的指挥官，你可以选择发射导弹杀死 <strong>4名</strong> 敌国士兵，但会误杀附近的 <strong>1名</strong> 敌国平民。</p> <p>平民照片如下图所示。</p> <p></p> <img src='stimuli/faces/PFM2.jpg', style='max-width: 30%;'> </img> <p><strong>你是否选择发射武器？</strong></p>","0",""
"","","","","","html-keyboard-response","52","95050","0.0-4.0-0.24","65","1","2022-11-13 09:03:54","49aca292d257f58668169b9fbab864ae","223.104.214.152","Mozilla/5.0 (Windows NT 6.1; Win64; x64) AppleWebKit/537.36 (KHTML, like Gecko) Chrome/98.0.4758.139 Safari/537.36","WebKit","Chrome","98.0.4758.139","Windows","6.1","null","<div style=""font-size:60px;"">+</div>","null",""
"","","","","","html-button-response","53","96488","0.0-4.0-1.24","65","1","2022-11-13 09:03:54","49aca292d257f58668169b9fbab864ae","223.104.214.152","Mozilla/5.0 (Windows NT 6.1; Win64; x64) AppleWebKit/537.36 (KHTML, like Gecko) Chrome/98.0.4758.139 Safari/537.36","WebKit","Chrome","98.0.4758.139","Windows","6.1","1434","<p>作为军队的指挥官，你可以选择发射导弹杀死 <strong>7名</strong> 敌国士兵，但会炸毁附近的 <strong>1棵</strong> 敌国树木。</p> <p>树木的照片如下图所示。</p> <p></p> <img src='stimuli/trees/16.png', style='max-width: 30%;'> </img> <p><strong>你是否选择发射武器？</strong></p>","0",""
"","","","","","html-keyboard-response","54","97492","0.0-4.0-0.25","65","1","2022-11-13 09:03:54","49aca292d257f58668169b9fbab864ae","223.104.214.152","Mozilla/5.0 (Windows NT 6.1; Win64; x64) AppleWebKit/537.36 (KHTML, like Gecko) Chrome/98.0.4758.139 Safari/537.36","WebKit","Chrome","98.0.4758.139","Windows","6.1","null","<div style=""font-size:60px;"">+</div>","null",""
"","","","","","html-button-response","55","98930","0.0-4.0-1.25","65","1","2022-11-13 09:03:54","49aca292d257f58668169b9fbab864ae","223.104.214.152","Mozilla/5.0 (Windows NT 6.1; Win64; x64) AppleWebKit/537.36 (KHTML, like Gecko) Chrome/98.0.4758.139 Safari/537.36","WebKit","Chrome","98.0.4758.139","Windows","6.1","1434","<p>作为军队的指挥官，你可以选择发射导弹杀死 <strong>3名</strong> 敌国士兵，但会误杀附近的 <strong>1名</strong> 敌国平民。</p> <p>平民照片如下图所示。</p> <p></p> <img src='stimuli/faces/PFM1.jpg', style='max-width: 30%;'> </img> <p><strong>你是否选择发射武器？</strong></p>","0",""
"","","","","","html-keyboard-response","56","99934","0.0-4.0-0.26","65","1","2022-11-13 09:03:54","49aca292d257f58668169b9fbab864ae","223.104.214.152","Mozilla/5.0 (Windows NT 6.1; Win64; x64) AppleWebKit/537.36 (KHTML, like Gecko) Chrome/98.0.4758.139 Safari/537.36","WebKit","Chrome","98.0.4758.139","Windows","6.1","null","<div style=""font-size:60px;"">+</div>","null",""
"","","","","","html-button-response","57","101408","0.0-4.0-1.26","65","1","2022-11-13 09:03:54","49aca292d257f58668169b9fbab864ae","223.104.214.152","Mozilla/5.0 (Windows NT 6.1; Win64; x64) AppleWebKit/537.36 (KHTML, like Gecko) Chrome/98.0.4758.139 Safari/537.36","WebKit","Chrome","98.0.4758.139","Windows","6.1","1470","<p>作为军队的指挥官，你可以选择发射导弹杀死 <strong>10名</strong> 敌国士兵，但会炸毁附近的 <strong>1棵</strong> 敌国树木。</p> <p>树木的照片如下图所示。</p> <p></p> <img src='stimuli/trees/7.png', style='max-width: 30%;'> </img> <p><strong>你是否选择发射武器？</strong></p>","0",""
"","","","","","html-keyboard-response","58","102411","0.0-4.0-0.27","65","1","2022-11-13 09:03:54","49aca292d257f58668169b9fbab864ae","223.104.214.152","Mozilla/5.0 (Windows NT 6.1; Win64; x64) AppleWebKit/537.36 (KHTML, like Gecko) Chrome/98.0.4758.139 Safari/537.36","WebKit","Chrome","98.0.4758.139","Windows","6.1","null","<div style=""font-size:60px;"">+</div>","null",""
"","","","","","html-button-response","59","103923","0.0-4.0-1.27","65","1","2022-11-13 09:03:54","49aca292d257f58668169b9fbab864ae","223.104.214.152","Mozilla/5.0 (Windows NT 6.1; Win64; x64) AppleWebKit/537.36 (KHTML, like Gecko) Chrome/98.0.4758.139 Safari/537.36","WebKit","Chrome","98.0.4758.139","Windows","6.1","1508","<p>作为军队的指挥官，你可以选择发射导弹杀死 <strong>10名</strong> 敌国士兵，但会误杀附近的 <strong>1名</strong> 敌国平民。</p> <p>平民照片如下图所示。</p> <p></p> <img src='stimuli/faces/PFM8.jpg', style='max-width: 30%;'> </img> <p><strong>你是否选择发射武器？</strong></p>","0",""
"","","","","","html-keyboard-response","60","104927","0.0-4.0-0.28","65","1","2022-11-13 09:03:54","49aca292d257f58668169b9fbab864ae","223.104.214.152","Mozilla/5.0 (Windows NT 6.1; Win64; x64) AppleWebKit/537.36 (KHTML, like Gecko) Chrome/98.0.4758.139 Safari/537.36","WebKit","Chrome","98.0.4758.139","Windows","6.1","null","<div style=""font-size:60px;"">+</div>","null",""
"","","","","","html-button-response","61","106516","0.0-4.0-1.28","65","1","2022-11-13 09:03:54","49aca292d257f58668169b9fbab864ae","223.104.214.152","Mozilla/5.0 (Windows NT 6.1; Win64; x64) AppleWebKit/537.36 (KHTML, like Gecko) Chrome/98.0.4758.139 Safari/537.36","WebKit","Chrome","98.0.4758.139","Windows","6.1","1584","<p>作为军队的指挥官，你可以选择发射导弹杀死 <strong>6名</strong> 敌国士兵，但会误杀附近的 <strong>1名</strong> 敌国平民。</p> <p>平民照片如下图所示。</p> <p></p> <img src='stimuli/faces/PFF5.jpg', style='max-width: 30%;'> </img> <p><strong>你是否选择发射武器？</strong></p>","0",""
"","","","","","html-keyboard-response","62","107520","0.0-4.0-0.29","65","1","2022-11-13 09:03:54","49aca292d257f58668169b9fbab864ae","223.104.214.152","Mozilla/5.0 (Windows NT 6.1; Win64; x64) AppleWebKit/537.36 (KHTML, like Gecko) Chrome/98.0.4758.139 Safari/537.36","WebKit","Chrome","98.0.4758.139","Windows","6.1","null","<div style=""font-size:60px;"">+</div>","null",""
"","","","","","html-button-response","63","108956","0.0-4.0-1.29","65","1","2022-11-13 09:03:54","49aca292d257f58668169b9fbab864ae","223.104.214.152","Mozilla/5.0 (Windows NT 6.1; Win64; x64) AppleWebKit/537.36 (KHTML, like Gecko) Chrome/98.0.4758.139 Safari/537.36","WebKit","Chrome","98.0.4758.139","Windows","6.1","1428","<p>作为军队的指挥官，你可以选择发射导弹杀死 <strong>9名</strong> 敌国士兵，但会误杀附近的 <strong>1名</strong> 敌国平民。</p> <p>平民照片如下图所示。</p> <p></p> <img src='stimuli/faces/PFM3.jpg', style='max-width: 30%;'> </img> <p><strong>你是否选择发射武器？</strong></p>","0",""
"","","","","","html-keyboard-response","64","109960","0.0-4.0-0.30","65","1","2022-11-13 09:03:54","49aca292d257f58668169b9fbab864ae","223.104.214.152","Mozilla/5.0 (Windows NT 6.1; Win64; x64) AppleWebKit/537.36 (KHTML, like Gecko) Chrome/98.0.4758.139 Safari/537.36","WebKit","Chrome","98.0.4758.139","Windows","6.1","null","<div style=""font-size:60px;"">+</div>","null",""
"","","","","","html-button-response","65","114002","0.0-4.0-1.30","65","1","2022-11-13 09:03:54","49aca292d257f58668169b9fbab864ae","223.104.214.152","Mozilla/5.0 (Windows NT 6.1; Win64; x64) AppleWebKit/537.36 (KHTML, like Gecko) Chrome/98.0.4758.139 Safari/537.36","WebKit","Chrome","98.0.4758.139","Windows","6.1","4037","<p>作为军队的指挥官，你可以选择发射导弹杀死 <strong>1名</strong> 敌国士兵，但会误杀附近的 <strong>1名</strong> 敌国平民。</p> <p>平民照片如下图所示。</p> <p></p> <img src='stimuli/faces/PFM8.jpg', style='max-width: 30%;'> </img> <p><strong>你是否选择发射武器？</strong></p>","1",""
"","","","","","html-keyboard-response","66","115005","0.0-4.0-0.31","65","1","2022-11-13 09:03:54","49aca292d257f58668169b9fbab864ae","223.104.214.152","Mozilla/5.0 (Windows NT 6.1; Win64; x64) AppleWebKit/537.36 (KHTML, like Gecko) Chrome/98.0.4758.139 Safari/537.36","WebKit","Chrome","98.0.4758.139","Windows","6.1","null","<div style=""font-size:60px;"">+</div>","null",""
"","","","","","html-button-response","67","116391","0.0-4.0-1.31","65","1","2022-11-13 09:03:54","49aca292d257f58668169b9fbab864ae","223.104.214.152","Mozilla/5.0 (Windows NT 6.1; Win64; x64) AppleWebKit/537.36 (KHTML, like Gecko) Chrome/98.0.4758.139 Safari/537.36","WebKit","Chrome","98.0.4758.139","Windows","6.1","1381","<p>作为军队的指挥官，你可以选择发射导弹杀死 <strong>10名</strong> 敌国士兵，但会炸毁附近的 <strong>1棵</strong> 敌国树木。</p> <p>树木的照片如下图所示。</p> <p></p> <img src='stimuli/trees/11.png', style='max-width: 30%;'> </img> <p><strong>你是否选择发射武器？</strong></p>","0",""
"","","","","","html-keyboard-response","68","117394","0.0-4.0-0.32","65","1","2022-11-13 09:03:54","49aca292d257f58668169b9fbab864ae","223.104.214.152","Mozilla/5.0 (Windows NT 6.1; Win64; x64) AppleWebKit/537.36 (KHTML, like Gecko) Chrome/98.0.4758.139 Safari/537.36","WebKit","Chrome","98.0.4758.139","Windows","6.1","null","<div style=""font-size:60px;"">+</div>","null",""
"","","","","","html-button-response","69","118869","0.0-4.0-1.32","65","1","2022-11-13 09:03:54","49aca292d257f58668169b9fbab864ae","223.104.214.152","Mozilla/5.0 (Windows NT 6.1; Win64; x64) AppleWebKit/537.36 (KHTML, like Gecko) Chrome/98.0.4758.139 Safari/537.36","WebKit","Chrome","98.0.4758.139","Windows","6.1","1470","<p>作为军队的指挥官，你可以选择发射导弹杀死 <strong>6名</strong> 敌国士兵，但会误杀附近的 <strong>1名</strong> 敌国平民。</p> <p>平民照片如下图所示。</p> <p></p> <img src='stimuli/faces/PFF7.jpg', style='max-width: 30%;'> </img> <p><strong>你是否选择发射武器？</strong></p>","0",""
"","","","","","html-keyboard-response","70","119873","0.0-4.0-0.33","65","1","2022-11-13 09:03:54","49aca292d257f58668169b9fbab864ae","223.104.214.152","Mozilla/5.0 (Windows NT 6.1; Win64; x64) AppleWebKit/537.36 (KHTML, like Gecko) Chrome/98.0.4758.139 Safari/537.36","WebKit","Chrome","98.0.4758.139","Windows","6.1","null","<div style=""font-size:60px;"">+</div>","null",""
"","","","","","html-button-response","71","121381","0.0-4.0-1.33","65","1","2022-11-13 09:03:54","49aca292d257f58668169b9fbab864ae","223.104.214.152","Mozilla/5.0 (Windows NT 6.1; Win64; x64) AppleWebKit/537.36 (KHTML, like Gecko) Chrome/98.0.4758.139 Safari/537.36","WebKit","Chrome","98.0.4758.139","Windows","6.1","1503","<p>作为军队的指挥官，你可以选择发射导弹杀死 <strong>2名</strong> 敌国士兵，但会炸毁附近的 <strong>1棵</strong> 敌国树木。</p> <p>树木的照片如下图所示。</p> <p></p> <img src='stimuli/trees/6.png', style='max-width: 30%;'> </img> <p><strong>你是否选择发射武器？</strong></p>","0",""
"","","","","","html-keyboard-response","72","122385","0.0-4.0-0.34","65","1","2022-11-13 09:03:54","49aca292d257f58668169b9fbab864ae","223.104.214.152","Mozilla/5.0 (Windows NT 6.1; Win64; x64) AppleWebKit/537.36 (KHTML, like Gecko) Chrome/98.0.4758.139 Safari/537.36","WebKit","Chrome","98.0.4758.139","Windows","6.1","null","<div style=""font-size:60px;"">+</div>","null",""
"","","","","","html-button-response","73","123796","0.0-4.0-1.34","65","1","2022-11-13 09:03:54","49aca292d257f58668169b9fbab864ae","223.104.214.152","Mozilla/5.0 (Windows NT 6.1; Win64; x64) AppleWebKit/537.36 (KHTML, like Gecko) Chrome/98.0.4758.139 Safari/537.36","WebKit","Chrome","98.0.4758.139","Windows","6.1","1406","<p>作为军队的指挥官，你可以选择发射导弹杀死 <strong>3名</strong> 敌国士兵，但会炸毁附近的 <strong>1棵</strong> 敌国树木。</p> <p>树木的照片如下图所示。</p> <p></p> <img src='stimuli/trees/12.png', style='max-width: 30%;'> </img> <p><strong>你是否选择发射武器？</strong></p>","0",""
"","","","","","html-keyboard-response","74","124800","0.0-4.0-0.35","65","1","2022-11-13 09:03:54","49aca292d257f58668169b9fbab864ae","223.104.214.152","Mozilla/5.0 (Windows NT 6.1; Win64; x64) AppleWebKit/537.36 (KHTML, like Gecko) Chrome/98.0.4758.139 Safari/537.36","WebKit","Chrome","98.0.4758.139","Windows","6.1","null","<div style=""font-size:60px;"">+</div>","null",""
"","","","","","html-button-response","75","126170","0.0-4.0-1.35","65","1","2022-11-13 09:03:54","49aca292d257f58668169b9fbab864ae","223.104.214.152","Mozilla/5.0 (Windows NT 6.1; Win64; x64) AppleWebKit/537.36 (KHTML, like Gecko) Chrome/98.0.4758.139 Safari/537.36","WebKit","Chrome","98.0.4758.139","Windows","6.1","1365","<p>作为军队的指挥官，你可以选择发射导弹杀死 <strong>5名</strong> 敌国士兵，但会炸毁附近的 <strong>1棵</strong> 敌国树木。</p> <p>树木的照片如下图所示。</p> <p></p> <img src='stimuli/trees/1.png', style='max-width: 30%;'> </img> <p><strong>你是否选择发射武器？</strong></p>","0",""
"","","","","","html-keyboard-response","76","127174","0.0-4.0-0.36","65","1","2022-11-13 09:03:54","49aca292d257f58668169b9fbab864ae","223.104.214.152","Mozilla/5.0 (Windows NT 6.1; Win64; x64) AppleWebKit/537.36 (KHTML, like Gecko) Chrome/98.0.4758.139 Safari/537.36","WebKit","Chrome","98.0.4758.139","Windows","6.1","null","<div style=""font-size:60px;"">+</div>","null",""
"","","","","","html-button-response","77","128508","0.0-4.0-1.36","65","1","2022-11-13 09:03:54","49aca292d257f58668169b9fbab864ae","223.104.214.152","Mozilla/5.0 (Windows NT 6.1; Win64; x64) AppleWebKit/537.36 (KHTML, like Gecko) Chrome/98.0.4758.139 Safari/537.36","WebKit","Chrome","98.0.4758.139","Windows","6.1","1329","<p>作为军队的指挥官，你可以选择发射导弹杀死 <strong>7名</strong> 敌国士兵，但会炸毁附近的 <strong>1棵</strong> 敌国树木。</p> <p>树木的照片如下图所示。</p> <p></p> <img src='stimuli/trees/8.png', style='max-width: 30%;'> </img> <p><strong>你是否选择发射武器？</strong></p>","0",""
"","","","","","html-keyboard-response","78","129513","0.0-4.0-0.37","65","1","2022-11-13 09:03:54","49aca292d257f58668169b9fbab864ae","223.104.214.152","Mozilla/5.0 (Windows NT 6.1; Win64; x64) AppleWebKit/537.36 (KHTML, like Gecko) Chrome/98.0.4758.139 Safari/537.36","WebKit","Chrome","98.0.4758.139","Windows","6.1","null","<div style=""font-size:60px;"">+</div>","null",""
"","","","","","html-button-response","79","131386","0.0-4.0-1.37","65","1","2022-11-13 09:03:54","49aca292d257f58668169b9fbab864ae","223.104.214.152","Mozilla/5.0 (Windows NT 6.1; Win64; x64) AppleWebKit/537.36 (KHTML, like Gecko) Chrome/98.0.4758.139 Safari/537.36","WebKit","Chrome","98.0.4758.139","Windows","6.1","1868","<p>作为军队的指挥官，你可以选择发射导弹杀死 <strong>2名</strong> 敌国士兵，但会误杀附近的 <strong>1名</strong> 敌国平民。</p> <p>平民照片如下图所示。</p> <p></p> <img src='stimuli/faces/PFF1.jpg', style='max-width: 30%;'> </img> <p><strong>你是否选择发射武器？</strong></p>","0",""
"","","","","","html-keyboard-response","80","132390","0.0-4.0-0.38","65","1","2022-11-13 09:03:54","49aca292d257f58668169b9fbab864ae","223.104.214.152","Mozilla/5.0 (Windows NT 6.1; Win64; x64) AppleWebKit/537.36 (KHTML, like Gecko) Chrome/98.0.4758.139 Safari/537.36","WebKit","Chrome","98.0.4758.139","Windows","6.1","null","<div style=""font-size:60px;"">+</div>","null",""
"","","","","","html-button-response","81","133955","0.0-4.0-1.38","65","1","2022-11-13 09:03:54","49aca292d257f58668169b9fbab864ae","223.104.214.152","Mozilla/5.0 (Windows NT 6.1; Win64; x64) AppleWebKit/537.36 (KHTML, like Gecko) Chrome/98.0.4758.139 Safari/537.36","WebKit","Chrome","98.0.4758.139","Windows","6.1","1560","<p>作为军队的指挥官，你可以选择发射导弹杀死 <strong>2名</strong> 敌国士兵，但会炸毁附近的 <strong>1棵</strong> 敌国树木。</p> <p>树木的照片如下图所示。</p> <p></p> <img src='stimuli/trees/16.png', style='max-width: 30%;'> </img> <p><strong>你是否选择发射武器？</strong></p>","0",""
"","","","","","html-keyboard-response","82","134959","0.0-4.0-0.39","65","1","2022-11-13 09:03:54","49aca292d257f58668169b9fbab864ae","223.104.214.152","Mozilla/5.0 (Windows NT 6.1; Win64; x64) AppleWebKit/537.36 (KHTML, like Gecko) Chrome/98.0.4758.139 Safari/537.36","WebKit","Chrome","98.0.4758.139","Windows","6.1","null","<div style=""font-size:60px;"">+</div>","null",""
"","","","","","html-button-response","83","136652","0.0-4.0-1.39","65","1","2022-11-13 09:03:54","49aca292d257f58668169b9fbab864ae","223.104.214.152","Mozilla/5.0 (Windows NT 6.1; Win64; x64) AppleWebKit/537.36 (KHTML, like Gecko) Chrome/98.0.4758.139 Safari/537.36","WebKit","Chrome","98.0.4758.139","Windows","6.1","1687","<p>作为军队的指挥官，你可以选择发射导弹杀死 <strong>4名</strong> 敌国士兵，但会误杀附近的 <strong>1名</strong> 敌国平民。</p> <p>平民照片如下图所示。</p> <p></p> <img src='stimuli/faces/PFM7.jpg', style='max-width: 30%;'> </img> <p><strong>你是否选择发射武器？</strong></p>","0",""
"","","","","","html-keyboard-response","84","137656","0.0-4.0-0.40","65","1","2022-11-13 09:03:54","49aca292d257f58668169b9fbab864ae","223.104.214.152","Mozilla/5.0 (Windows NT 6.1; Win64; x64) AppleWebKit/537.36 (KHTML, like Gecko) Chrome/98.0.4758.139 Safari/537.36","WebKit","Chrome","98.0.4758.139","Windows","6.1","null","<div style=""font-size:60px;"">+</div>","null",""
"","","","","","html-button-response","85","139070","0.0-4.0-1.40","65","1","2022-11-13 09:03:54","49aca292d257f58668169b9fbab864ae","223.104.214.152","Mozilla/5.0 (Windows NT 6.1; Win64; x64) AppleWebKit/537.36 (KHTML, like Gecko) Chrome/98.0.4758.139 Safari/537.36","WebKit","Chrome","98.0.4758.139","Windows","6.1","1409","<p>作为军队的指挥官，你可以选择发射导弹杀死 <strong>7名</strong> 敌国士兵，但会炸毁附近的 <strong>1棵</strong> 敌国树木。</p> <p>树木的照片如下图所示。</p> <p></p> <img src='stimuli/trees/13.png', style='max-width: 30%;'> </img> <p><strong>你是否选择发射武器？</strong></p>","0",""
"","","","","","html-keyboard-response","86","140075","0.0-4.0-0.41","65","1","2022-11-13 09:03:54","49aca292d257f58668169b9fbab864ae","223.104.214.152","Mozilla/5.0 (Windows NT 6.1; Win64; x64) AppleWebKit/537.36 (KHTML, like Gecko) Chrome/98.0.4758.139 Safari/537.36","WebKit","Chrome","98.0.4758.139","Windows","6.1","null","<div style=""font-size:60px;"">+</div>","null",""
"","","","","","html-button-response","87","141529","0.0-4.0-1.41","65","1","2022-11-13 09:03:54","49aca292d257f58668169b9fbab864ae","223.104.214.152","Mozilla/5.0 (Windows NT 6.1; Win64; x64) AppleWebKit/537.36 (KHTML, like Gecko) Chrome/98.0.4758.139 Safari/537.36","WebKit","Chrome","98.0.4758.139","Windows","6.1","1449","<p>作为军队的指挥官，你可以选择发射导弹杀死 <strong>3名</strong> 敌国士兵，但会误杀附近的 <strong>1名</strong> 敌国平民。</p> <p>平民照片如下图所示。</p> <p></p> <img src='stimuli/faces/PFF5.jpg', style='max-width: 30%;'> </img> <p><strong>你是否选择发射武器？</strong></p>","0",""
"","","","","","html-keyboard-response","88","142534","0.0-4.0-0.42","65","1","2022-11-13 09:03:54","49aca292d257f58668169b9fbab864ae","223.104.214.152","Mozilla/5.0 (Windows NT 6.1; Win64; x64) AppleWebKit/537.36 (KHTML, like Gecko) Chrome/98.0.4758.139 Safari/537.36","WebKit","Chrome","98.0.4758.139","Windows","6.1","null","<div style=""font-size:60px;"">+</div>","null",""
"","","","","","html-button-response","89","144085","0.0-4.0-1.42","65","1","2022-11-13 09:03:54","49aca292d257f58668169b9fbab864ae","223.104.214.152","Mozilla/5.0 (Windows NT 6.1; Win64; x64) AppleWebKit/537.36 (KHTML, like Gecko) Chrome/98.0.4758.139 Safari/537.36","WebKit","Chrome","98.0.4758.139","Windows","6.1","1546","<p>作为军队的指挥官，你可以选择发射导弹杀死 <strong>3名</strong> 敌国士兵，但会误杀附近的 <strong>1名</strong> 敌国平民。</p> <p>平民照片如下图所示。</p> <p></p> <img src='stimuli/faces/PFM6.jpg', style='max-width: 30%;'> </img> <p><strong>你是否选择发射武器？</strong></p>","0",""
"","","","","","html-keyboard-response","90","145090","0.0-4.0-0.43","65","1","2022-11-13 09:03:54","49aca292d257f58668169b9fbab864ae","223.104.214.152","Mozilla/5.0 (Windows NT 6.1; Win64; x64) AppleWebKit/537.36 (KHTML, like Gecko) Chrome/98.0.4758.139 Safari/537.36","WebKit","Chrome","98.0.4758.139","Windows","6.1","null","<div style=""font-size:60px;"">+</div>","null",""
"","","","","","html-button-response","91","146812","0.0-4.0-1.43","65","1","2022-11-13 09:03:54","49aca292d257f58668169b9fbab864ae","223.104.214.152","Mozilla/5.0 (Windows NT 6.1; Win64; x64) AppleWebKit/537.36 (KHTML, like Gecko) Chrome/98.0.4758.139 Safari/537.36","WebKit","Chrome","98.0.4758.139","Windows","6.1","1716","<p>作为军队的指挥官，你可以选择发射导弹杀死 <strong>2名</strong> 敌国士兵，但会误杀附近的 <strong>1名</strong> 敌国平民。</p> <p>平民照片如下图所示。</p> <p></p> <img src='stimuli/faces/PFF4.jpg', style='max-width: 30%;'> </img> <p><strong>你是否选择发射武器？</strong></p>","0",""
"","","","","","html-keyboard-response","92","147817","0.0-4.0-0.44","65","1","2022-11-13 09:03:54","49aca292d257f58668169b9fbab864ae","223.104.214.152","Mozilla/5.0 (Windows NT 6.1; Win64; x64) AppleWebKit/537.36 (KHTML, like Gecko) Chrome/98.0.4758.139 Safari/537.36","WebKit","Chrome","98.0.4758.139","Windows","6.1","null","<div style=""font-size:60px;"">+</div>","null",""
"","","","","","html-button-response","93","149500","0.0-4.0-1.44","65","1","2022-11-13 09:03:54","49aca292d257f58668169b9fbab864ae","223.104.214.152","Mozilla/5.0 (Windows NT 6.1; Win64; x64) AppleWebKit/537.36 (KHTML, like Gecko) Chrome/98.0.4758.139 Safari/537.36","WebKit","Chrome","98.0.4758.139","Windows","6.1","1678","<p>作为军队的指挥官，你可以选择发射导弹杀死 <strong>9名</strong> 敌国士兵，但会炸毁附近的 <strong>1棵</strong> 敌国树木。</p> <p>树木的照片如下图所示。</p> <p></p> <img src='stimuli/trees/2.png', style='max-width: 30%;'> </img> <p><strong>你是否选择发射武器？</strong></p>","0",""
"","","","","","html-keyboard-response","94","150505","0.0-4.0-0.45","65","1","2022-11-13 09:03:54","49aca292d257f58668169b9fbab864ae","223.104.214.152","Mozilla/5.0 (Windows NT 6.1; Win64; x64) AppleWebKit/537.36 (KHTML, like Gecko) Chrome/98.0.4758.139 Safari/537.36","WebKit","Chrome","98.0.4758.139","Windows","6.1","null","<div style=""font-size:60px;"">+</div>","null",""
"","","","","","html-button-response","95","152370","0.0-4.0-1.45","65","1","2022-11-13 09:03:54","49aca292d257f58668169b9fbab864ae","223.104.214.152","Mozilla/5.0 (Windows NT 6.1; Win64; x64) AppleWebKit/537.36 (KHTML, like Gecko) Chrome/98.0.4758.139 Safari/537.36","WebKit","Chrome","98.0.4758.139","Windows","6.1","1860","<p>作为军队的指挥官，你可以选择发射导弹杀死 <strong>4名</strong> 敌国士兵，但会炸毁附近的 <strong>1棵</strong> 敌国树木。</p> <p>树木的照片如下图所示。</p> <p></p> <img src='stimuli/trees/2.png', style='max-width: 30%;'> </img> <p><strong>你是否选择发射武器？</strong></p>","0",""
"","","","","","html-keyboard-response","96","153375","0.0-4.0-0.46","65","1","2022-11-13 09:03:54","49aca292d257f58668169b9fbab864ae","223.104.214.152","Mozilla/5.0 (Windows NT 6.1; Win64; x64) AppleWebKit/537.36 (KHTML, like Gecko) Chrome/98.0.4758.139 Safari/537.36","WebKit","Chrome","98.0.4758.139","Windows","6.1","null","<div style=""font-size:60px;"">+</div>","null",""
"","","","","","html-button-response","97","154833","0.0-4.0-1.46","65","1","2022-11-13 09:03:54","49aca292d257f58668169b9fbab864ae","223.104.214.152","Mozilla/5.0 (Windows NT 6.1; Win64; x64) AppleWebKit/537.36 (KHTML, like Gecko) Chrome/98.0.4758.139 Safari/537.36","WebKit","Chrome","98.0.4758.139","Windows","6.1","1452","<p>作为军队的指挥官，你可以选择发射导弹杀死 <strong>6名</strong> 敌国士兵，但会误杀附近的 <strong>1名</strong> 敌国平民。</p> <p>平民照片如下图所示。</p> <p></p> <img src='stimuli/faces/PFM1.jpg', style='max-width: 30%;'> </img> <p><strong>你是否选择发射武器？</strong></p>","0",""
"","","","","","html-keyboard-response","98","155837","0.0-4.0-0.47","65","1","2022-11-13 09:03:54","49aca292d257f58668169b9fbab864ae","223.104.214.152","Mozilla/5.0 (Windows NT 6.1; Win64; x64) AppleWebKit/537.36 (KHTML, like Gecko) Chrome/98.0.4758.139 Safari/537.36","WebKit","Chrome","98.0.4758.139","Windows","6.1","null","<div style=""font-size:60px;"">+</div>","null",""
"","","","","","html-button-response","99","157535","0.0-4.0-1.47","65","1","2022-11-13 09:03:54","49aca292d257f58668169b9fbab864ae","223.104.214.152","Mozilla/5.0 (Windows NT 6.1; Win64; x64) AppleWebKit/537.36 (KHTML, like Gecko) Chrome/98.0.4758.139 Safari/537.36","WebKit","Chrome","98.0.4758.139","Windows","6.1","1692","<p>作为军队的指挥官，你可以选择发射导弹杀死 <strong>7名</strong> 敌国士兵，但会炸毁附近的 <strong>1棵</strong> 敌国树木。</p> <p>树木的照片如下图所示。</p> <p></p> <img src='stimuli/trees/1.png', style='max-width: 30%;'> </img> <p><strong>你是否选择发射武器？</strong></p>","0",""
"","","","","","html-keyboard-response","100","158539","0.0-4.0-0.48","65","1","2022-11-13 09:03:54","49aca292d257f58668169b9fbab864ae","223.104.214.152","Mozilla/5.0 (Windows NT 6.1; Win64; x64) AppleWebKit/537.36 (KHTML, like Gecko) Chrome/98.0.4758.139 Safari/537.36","WebKit","Chrome","98.0.4758.139","Windows","6.1","null","<div style=""font-size:60px;"">+</div>","null",""
"","","","","","html-button-response","101","159868","0.0-4.0-1.48","65","1","2022-11-13 09:03:54","49aca292d257f58668169b9fbab864ae","223.104.214.152","Mozilla/5.0 (Windows NT 6.1; Win64; x64) AppleWebKit/537.36 (KHTML, like Gecko) Chrome/98.0.4758.139 Safari/537.36","WebKit","Chrome","98.0.4758.139","Windows","6.1","1323","<p>作为军队的指挥官，你可以选择发射导弹杀死 <strong>5名</strong> 敌国士兵，但会炸毁附近的 <strong>1棵</strong> 敌国树木。</p> <p>树木的照片如下图所示。</p> <p></p> <img src='stimuli/trees/4.png', style='max-width: 30%;'> </img> <p><strong>你是否选择发射武器？</strong></p>","0",""
"","","","","","html-keyboard-response","102","160872","0.0-4.0-0.49","65","1","2022-11-13 09:03:54","49aca292d257f58668169b9fbab864ae","223.104.214.152","Mozilla/5.0 (Windows NT 6.1; Win64; x64) AppleWebKit/537.36 (KHTML, like Gecko) Chrome/98.0.4758.139 Safari/537.36","WebKit","Chrome","98.0.4758.139","Windows","6.1","null","<div style=""font-size:60px;"">+</div>","null",""
"","","","","","html-button-response","103","162568","0.0-4.0-1.49","65","1","2022-11-13 09:03:54","49aca292d257f58668169b9fbab864ae","223.104.214.152","Mozilla/5.0 (Windows NT 6.1; Win64; x64) AppleWebKit/537.36 (KHTML, like Gecko) Chrome/98.0.4758.139 Safari/537.36","WebKit","Chrome","98.0.4758.139","Windows","6.1","1690","<p>作为军队的指挥官，你可以选择发射导弹杀死 <strong>3名</strong> 敌国士兵，但会炸毁附近的 <strong>1棵</strong> 敌国树木。</p> <p>树木的照片如下图所示。</p> <p></p> <img src='stimuli/trees/14.png', style='max-width: 30%;'> </img> <p><strong>你是否选择发射武器？</strong></p>","0",""
"","","","","","html-keyboard-response","104","163573","0.0-4.0-0.50","65","1","2022-11-13 09:03:54","49aca292d257f58668169b9fbab864ae","223.104.214.152","Mozilla/5.0 (Windows NT 6.1; Win64; x64) AppleWebKit/537.36 (KHTML, like Gecko) Chrome/98.0.4758.139 Safari/537.36","WebKit","Chrome","98.0.4758.139","Windows","6.1","null","<div style=""font-size:60px;"">+</div>","null",""
"","","","","","html-button-response","105","164932","0.0-4.0-1.50","65","1","2022-11-13 09:03:54","49aca292d257f58668169b9fbab864ae","223.104.214.152","Mozilla/5.0 (Windows NT 6.1; Win64; x64) AppleWebKit/537.36 (KHTML, like Gecko) Chrome/98.0.4758.139 Safari/537.36","WebKit","Chrome","98.0.4758.139","Windows","6.1","1352","<p>作为军队的指挥官，你可以选择发射导弹杀死 <strong>8名</strong> 敌国士兵，但会误杀附近的 <strong>1名</strong> 敌国平民。</p> <p>平民照片如下图所示。</p> <p></p> <img src='stimuli/faces/PFM7.jpg', style='max-width: 30%;'> </img> <p><strong>你是否选择发射武器？</strong></p>","0",""
"","","","","","html-keyboard-response","106","165936","0.0-4.0-0.51","65","1","2022-11-13 09:03:54","49aca292d257f58668169b9fbab864ae","223.104.214.152","Mozilla/5.0 (Windows NT 6.1; Win64; x64) AppleWebKit/537.36 (KHTML, like Gecko) Chrome/98.0.4758.139 Safari/537.36","WebKit","Chrome","98.0.4758.139","Windows","6.1","null","<div style=""font-size:60px;"">+</div>","null",""
"","","","","","html-button-response","107","167971","0.0-4.0-1.51","65","1","2022-11-13 09:03:54","49aca292d257f58668169b9fbab864ae","223.104.214.152","Mozilla/5.0 (Windows NT 6.1; Win64; x64) AppleWebKit/537.36 (KHTML, like Gecko) Chrome/98.0.4758.139 Safari/537.36","WebKit","Chrome","98.0.4758.139","Windows","6.1","2029","<p>作为军队的指挥官，你可以选择发射导弹杀死 <strong>5名</strong> 敌国士兵，但会误杀附近的 <strong>1名</strong> 敌国平民。</p> <p>平民照片如下图所示。</p> <p></p> <img src='stimuli/faces/PFF2.jpg', style='max-width: 30%;'> </img> <p><strong>你是否选择发射武器？</strong></p>","0",""
"","","","","","html-keyboard-response","108","168978","0.0-4.0-0.52","65","1","2022-11-13 09:03:54","49aca292d257f58668169b9fbab864ae","223.104.214.152","Mozilla/5.0 (Windows NT 6.1; Win64; x64) AppleWebKit/537.36 (KHTML, like Gecko) Chrome/98.0.4758.139 Safari/537.36","WebKit","Chrome","98.0.4758.139","Windows","6.1","null","<div style=""font-size:60px;"">+</div>","null",""
"","","","","","html-button-response","109","170835","0.0-4.0-1.52","65","1","2022-11-13 09:03:54","49aca292d257f58668169b9fbab864ae","223.104.214.152","Mozilla/5.0 (Windows NT 6.1; Win64; x64) AppleWebKit/537.36 (KHTML, like Gecko) Chrome/98.0.4758.139 Safari/537.36","WebKit","Chrome","98.0.4758.139","Windows","6.1","1851","<p>作为军队的指挥官，你可以选择发射导弹杀死 <strong>4名</strong> 敌国士兵，但会炸毁附近的 <strong>1棵</strong> 敌国树木。</p> <p>树木的照片如下图所示。</p> <p></p> <img src='stimuli/trees/15.png', style='max-width: 30%;'> </img> <p><strong>你是否选择发射武器？</strong></p>","0",""
"","","","","","html-keyboard-response","110","171839","0.0-4.0-0.53","65","1","2022-11-13 09:03:54","49aca292d257f58668169b9fbab864ae","223.104.214.152","Mozilla/5.0 (Windows NT 6.1; Win64; x64) AppleWebKit/537.36 (KHTML, like Gecko) Chrome/98.0.4758.139 Safari/537.36","WebKit","Chrome","98.0.4758.139","Windows","6.1","null","<div style=""font-size:60px;"">+</div>","null",""
"","","","","","html-button-response","111","173633","0.0-4.0-1.53","65","1","2022-11-13 09:03:54","49aca292d257f58668169b9fbab864ae","223.104.214.152","Mozilla/5.0 (Windows NT 6.1; Win64; x64) AppleWebKit/537.36 (KHTML, like Gecko) Chrome/98.0.4758.139 Safari/537.36","WebKit","Chrome","98.0.4758.139","Windows","6.1","1788","<p>作为军队的指挥官，你可以选择发射导弹杀死 <strong>1名</strong> 敌国士兵，但会炸毁附近的 <strong>1棵</strong> 敌国树木。</p> <p>树木的照片如下图所示。</p> <p></p> <img src='stimuli/trees/11.png', style='max-width: 30%;'> </img> <p><strong>你是否选择发射武器？</strong></p>","0",""
"","","","","","html-keyboard-response","112","174638","0.0-4.0-0.54","65","1","2022-11-13 09:03:54","49aca292d257f58668169b9fbab864ae","223.104.214.152","Mozilla/5.0 (Windows NT 6.1; Win64; x64) AppleWebKit/537.36 (KHTML, like Gecko) Chrome/98.0.4758.139 Safari/537.36","WebKit","Chrome","98.0.4758.139","Windows","6.1","null","<div style=""font-size:60px;"">+</div>","null",""
"","","","","","html-button-response","113","176092","0.0-4.0-1.54","65","1","2022-11-13 09:03:54","49aca292d257f58668169b9fbab864ae","223.104.214.152","Mozilla/5.0 (Windows NT 6.1; Win64; x64) AppleWebKit/537.36 (KHTML, like Gecko) Chrome/98.0.4758.139 Safari/537.36","WebKit","Chrome","98.0.4758.139","Windows","6.1","1448","<p>作为军队的指挥官，你可以选择发射导弹杀死 <strong>7名</strong> 敌国士兵，但会炸毁附近的 <strong>1棵</strong> 敌国树木。</p> <p>树木的照片如下图所示。</p> <p></p> <img src='stimuli/trees/12.png', style='max-width: 30%;'> </img> <p><strong>你是否选择发射武器？</strong></p>","0",""
"","","","","","html-keyboard-response","114","177097","0.0-4.0-0.55","65","1","2022-11-13 09:03:54","49aca292d257f58668169b9fbab864ae","223.104.214.152","Mozilla/5.0 (Windows NT 6.1; Win64; x64) AppleWebKit/537.36 (KHTML, like Gecko) Chrome/98.0.4758.139 Safari/537.36","WebKit","Chrome","98.0.4758.139","Windows","6.1","null","<div style=""font-size:60px;"">+</div>","null",""
"","","","","","html-button-response","115","178696","0.0-4.0-1.55","65","1","2022-11-13 09:03:54","49aca292d257f58668169b9fbab864ae","223.104.214.152","Mozilla/5.0 (Windows NT 6.1; Win64; x64) AppleWebKit/537.36 (KHTML, like Gecko) Chrome/98.0.4758.139 Safari/537.36","WebKit","Chrome","98.0.4758.139","Windows","6.1","1581","<p>作为军队的指挥官，你可以选择发射导弹杀死 <strong>1名</strong> 敌国士兵，但会炸毁附近的 <strong>1棵</strong> 敌国树木。</p> <p>树木的照片如下图所示。</p> <p></p> <img src='stimuli/trees/13.png', style='max-width: 30%;'> </img> <p><strong>你是否选择发射武器？</strong></p>","0",""
"","","","","","html-keyboard-response","116","179701","0.0-4.0-0.56","65","1","2022-11-13 09:03:54","49aca292d257f58668169b9fbab864ae","223.104.214.152","Mozilla/5.0 (Windows NT 6.1; Win64; x64) AppleWebKit/537.36 (KHTML, like Gecko) Chrome/98.0.4758.139 Safari/537.36","WebKit","Chrome","98.0.4758.139","Windows","6.1","null","<div style=""font-size:60px;"">+</div>","null",""
"","","","","","html-button-response","117","181196","0.0-4.0-1.56","65","1","2022-11-13 09:03:54","49aca292d257f58668169b9fbab864ae","223.104.214.152","Mozilla/5.0 (Windows NT 6.1; Win64; x64) AppleWebKit/537.36 (KHTML, like Gecko) Chrome/98.0.4758.139 Safari/537.36","WebKit","Chrome","98.0.4758.139","Windows","6.1","1489","<p>作为军队的指挥官，你可以选择发射导弹杀死 <strong>3名</strong> 敌国士兵，但会炸毁附近的 <strong>1棵</strong> 敌国树木。</p> <p>树木的照片如下图所示。</p> <p></p> <img src='stimuli/trees/5.png', style='max-width: 30%;'> </img> <p><strong>你是否选择发射武器？</strong></p>","0",""
"","","","","","html-keyboard-response","118","182200","0.0-4.0-0.57","65","1","2022-11-13 09:03:54","49aca292d257f58668169b9fbab864ae","223.104.214.152","Mozilla/5.0 (Windows NT 6.1; Win64; x64) AppleWebKit/537.36 (KHTML, like Gecko) Chrome/98.0.4758.139 Safari/537.36","WebKit","Chrome","98.0.4758.139","Windows","6.1","null","<div style=""font-size:60px;"">+</div>","null",""
"","","","","","html-button-response","119","183718","0.0-4.0-1.57","65","1","2022-11-13 09:03:54","49aca292d257f58668169b9fbab864ae","223.104.214.152","Mozilla/5.0 (Windows NT 6.1; Win64; x64) AppleWebKit/537.36 (KHTML, like Gecko) Chrome/98.0.4758.139 Safari/537.36","WebKit","Chrome","98.0.4758.139","Windows","6.1","1511","<p>作为军队的指挥官，你可以选择发射导弹杀死 <strong>10名</strong> 敌国士兵，但会炸毁附近的 <strong>1棵</strong> 敌国树木。</p> <p>树木的照片如下图所示。</p> <p></p> <img src='stimuli/trees/3.png', style='max-width: 30%;'> </img> <p><strong>你是否选择发射武器？</strong></p>","0",""
"","","","","","html-keyboard-response","120","184722","0.0-4.0-0.58","65","1","2022-11-13 09:03:54","49aca292d257f58668169b9fbab864ae","223.104.214.152","Mozilla/5.0 (Windows NT 6.1; Win64; x64) AppleWebKit/537.36 (KHTML, like Gecko) Chrome/98.0.4758.139 Safari/537.36","WebKit","Chrome","98.0.4758.139","Windows","6.1","null","<div style=""font-size:60px;"">+</div>","null",""
"","","","","","html-button-response","121","186509","0.0-4.0-1.58","65","1","2022-11-13 09:03:54","49aca292d257f58668169b9fbab864ae","223.104.214.152","Mozilla/5.0 (Windows NT 6.1; Win64; x64) AppleWebKit/537.36 (KHTML, like Gecko) Chrome/98.0.4758.139 Safari/537.36","WebKit","Chrome","98.0.4758.139","Windows","6.1","1780","<p>作为军队的指挥官，你可以选择发射导弹杀死 <strong>3名</strong> 敌国士兵，但会误杀附近的 <strong>1名</strong> 敌国平民。</p> <p>平民照片如下图所示。</p> <p></p> <img src='stimuli/faces/PFM4.jpg', style='max-width: 30%;'> </img> <p><strong>你是否选择发射武器？</strong></p>","0",""
"","","","","","html-keyboard-response","122","187514","0.0-4.0-0.59","65","1","2022-11-13 09:03:54","49aca292d257f58668169b9fbab864ae","223.104.214.152","Mozilla/5.0 (Windows NT 6.1; Win64; x64) AppleWebKit/537.36 (KHTML, like Gecko) Chrome/98.0.4758.139 Safari/537.36","WebKit","Chrome","98.0.4758.139","Windows","6.1","null","<div style=""font-size:60px;"">+</div>","null",""
"","","","","","html-button-response","123","189020","0.0-4.0-1.59","65","1","2022-11-13 09:03:54","49aca292d257f58668169b9fbab864ae","223.104.214.152","Mozilla/5.0 (Windows NT 6.1; Win64; x64) AppleWebKit/537.36 (KHTML, like Gecko) Chrome/98.0.4758.139 Safari/537.36","WebKit","Chrome","98.0.4758.139","Windows","6.1","1500","<p>作为军队的指挥官，你可以选择发射导弹杀死 <strong>7名</strong> 敌国士兵，但会炸毁附近的 <strong>1棵</strong> 敌国树木。</p> <p>树木的照片如下图所示。</p> <p></p> <img src='stimuli/trees/5.png', style='max-width: 30%;'> </img> <p><strong>你是否选择发射武器？</strong></p>","0",""
"","","","","","html-keyboard-response","124","190026","0.0-4.0-0.60","65","1","2022-11-13 09:03:54","49aca292d257f58668169b9fbab864ae","223.104.214.152","Mozilla/5.0 (Windows NT 6.1; Win64; x64) AppleWebKit/537.36 (KHTML, like Gecko) Chrome/98.0.4758.139 Safari/537.36","WebKit","Chrome","98.0.4758.139","Windows","6.1","null","<div style=""font-size:60px;"">+</div>","null",""
"","","","","","html-button-response","125","191407","0.0-4.0-1.60","65","1","2022-11-13 09:03:54","49aca292d257f58668169b9fbab864ae","223.104.214.152","Mozilla/5.0 (Windows NT 6.1; Win64; x64) AppleWebKit/537.36 (KHTML, like Gecko) Chrome/98.0.4758.139 Safari/537.36","WebKit","Chrome","98.0.4758.139","Windows","6.1","1375","<p>作为军队的指挥官，你可以选择发射导弹杀死 <strong>10名</strong> 敌国士兵，但会误杀附近的 <strong>1名</strong> 敌国平民。</p> <p>平民照片如下图所示。</p> <p></p> <img src='stimuli/faces/PFM6.jpg', style='max-width: 30%;'> </img> <p><strong>你是否选择发射武器？</strong></p>","0",""
"","","","","","html-keyboard-response","126","192412","0.0-4.0-0.61","65","1","2022-11-13 09:03:54","49aca292d257f58668169b9fbab864ae","223.104.214.152","Mozilla/5.0 (Windows NT 6.1; Win64; x64) AppleWebKit/537.36 (KHTML, like Gecko) Chrome/98.0.4758.139 Safari/537.36","WebKit","Chrome","98.0.4758.139","Windows","6.1","null","<div style=""font-size:60px;"">+</div>","null",""
"","","","","","html-button-response","127","194352","0.0-4.0-1.61","65","1","2022-11-13 09:03:54","49aca292d257f58668169b9fbab864ae","223.104.214.152","Mozilla/5.0 (Windows NT 6.1; Win64; x64) AppleWebKit/537.36 (KHTML, like Gecko) Chrome/98.0.4758.139 Safari/537.36","WebKit","Chrome","98.0.4758.139","Windows","6.1","1933","<p>作为军队的指挥官，你可以选择发射导弹杀死 <strong>9名</strong> 敌国士兵，但会炸毁附近的 <strong>1棵</strong> 敌国树木。</p> <p>树木的照片如下图所示。</p> <p></p> <img src='stimuli/trees/14.png', style='max-width: 30%;'> </img> <p><strong>你是否选择发射武器？</strong></p>","0",""
"","","","","","html-keyboard-response","128","195357","0.0-4.0-0.62","65","1","2022-11-13 09:03:54","49aca292d257f58668169b9fbab864ae","223.104.214.152","Mozilla/5.0 (Windows NT 6.1; Win64; x64) AppleWebKit/537.36 (KHTML, like Gecko) Chrome/98.0.4758.139 Safari/537.36","WebKit","Chrome","98.0.4758.139","Windows","6.1","null","<div style=""font-size:60px;"">+</div>","null",""
"","","","","","html-button-response","129","197172","0.0-4.0-1.62","65","1","2022-11-13 09:03:54","49aca292d257f58668169b9fbab864ae","223.104.214.152","Mozilla/5.0 (Windows NT 6.1; Win64; x64) AppleWebKit/537.36 (KHTML, like Gecko) Chrome/98.0.4758.139 Safari/537.36","WebKit","Chrome","98.0.4758.139","Windows","6.1","1809","<p>作为军队的指挥官，你可以选择发射导弹杀死 <strong>3名</strong> 敌国士兵，但会误杀附近的 <strong>1名</strong> 敌国平民。</p> <p>平民照片如下图所示。</p> <p></p> <img src='stimuli/faces/PFM5.jpg', style='max-width: 30%;'> </img> <p><strong>你是否选择发射武器？</strong></p>","0",""
"","","","","","html-keyboard-response","130","198178","0.0-4.0-0.63","65","1","2022-11-13 09:03:54","49aca292d257f58668169b9fbab864ae","223.104.214.152","Mozilla/5.0 (Windows NT 6.1; Win64; x64) AppleWebKit/537.36 (KHTML, like Gecko) Chrome/98.0.4758.139 Safari/537.36","WebKit","Chrome","98.0.4758.139","Windows","6.1","null","<div style=""font-size:60px;"">+</div>","null",""
"","","","","","html-button-response","131","199685","0.0-4.0-1.63","65","1","2022-11-13 09:03:54","49aca292d257f58668169b9fbab864ae","223.104.214.152","Mozilla/5.0 (Windows NT 6.1; Win64; x64) AppleWebKit/537.36 (KHTML, like Gecko) Chrome/98.0.4758.139 Safari/537.36","WebKit","Chrome","98.0.4758.139","Windows","6.1","1500","<p>作为军队的指挥官，你可以选择发射导弹杀死 <strong>2名</strong> 敌国士兵，但会误杀附近的 <strong>1名</strong> 敌国平民。</p> <p>平民照片如下图所示。</p> <p></p> <img src='stimuli/faces/PFM3.jpg', style='max-width: 30%;'> </img> <p><strong>你是否选择发射武器？</strong></p>","0",""
"","","","","","survey-multi-choice","132","207779","0.0-5.0","65","1","2022-11-13 09:03:54","49aca292d257f58668169b9fbab864ae","223.104.214.152","Mozilla/5.0 (Windows NT 6.1; Win64; x64) AppleWebKit/537.36 (KHTML, like Gecko) Chrome/98.0.4758.139 Safari/537.36","WebKit","Chrome","98.0.4758.139","Windows","6.1","8087","","{""Attention1"":""""}","[0]"
"","","","","","html-button-response","133","271904","0.0-6.0","65","1","2022-11-13 09:03:54","49aca292d257f58668169b9fbab864ae","223.104.214.152","Mozilla/5.0 (Windows NT 6.1; Win64; x64) AppleWebKit/537.36 (KHTML, like Gecko) Chrome/98.0.4758.139 Safari/537.36","WebKit","Chrome","98.0.4758.139","Windows","6.1","64112","<p style=""font-size:20px;font-weight:bold;"">恭喜！</p><p>你已经完成了实验的第一部分。</p><p>请休息放松一下，然后进入第二部分。</p><p>这部分大约需要10分钟。</p>","0",""
"","","","","","survey-text","134","346890","0.0-7.0","65","1","2022-11-13 09:03:54","49aca292d257f58668169b9fbab864ae","223.104.214.152","Mozilla/5.0 (Windows NT 6.1; Win64; x64) AppleWebKit/537.36 (KHTML, like Gecko) Chrome/98.0.4758.139 Safari/537.36","WebKit","Chrome","98.0.4758.139","Windows","6.1","73967","","{""Age"":""18"",""Nation"":""中国"",""Born"":""湖南株洲"",""Live"":""四川成都"",""Ethnic"":""汉"",""Alipay"":""15719450689""}",""
"","","","","","survey-multi-choice","135","433315","0.0-8.0","65","1","2022-11-13 09:03:54","49aca292d257f58668169b9fbab864ae","223.104.214.152","Mozilla/5.0 (Windows NT 6.1; Win64; x64) AppleWebKit/537.36 (KHTML, like Gecko) Chrome/98.0.4758.139 Safari/537.36","WebKit","Chrome","98.0.4758.139","Windows","6.1","86414","","{""Gender"":""男"",""Education"":""高中毕业"",""Income"":""￥70,000-￥139,999"",""Children"":""0"",""Race"":""亚洲人""}","[0,1,2,3,4]"
"","","","","","survey-multi-select","136","474381","0.0-9.0","65","1","2022-11-13 09:03:54","49aca292d257f58668169b9fbab864ae","223.104.214.152","Mozilla/5.0 (Windows NT 6.1; Win64; x64) AppleWebKit/537.36 (KHTML, like Gecko) Chrome/98.0.4758.139 Safari/537.36","WebKit","Chrome","98.0.4758.139","Windows","6.1","41040","","{""Marriage"":[""未婚""],""Religion"":[""无宗教信仰""]}","[0,1]"
"","","","","","survey-multi-choice","137","482864","0.0-10.0","65","1","2022-11-13 09:03:54","49aca292d257f58668169b9fbab864ae","223.104.214.152","Mozilla/5.0 (Windows NT 6.1; Win64; x64) AppleWebKit/537.36 (KHTML, like Gecko) Chrome/98.0.4758.139 Safari/537.36","WebKit","Chrome","98.0.4758.139","Windows","6.1","8473","","{""SES"":""5""}","[0]"
"","","","","","html-button-response","138","485032","0.0-11.0","65","1","2022-11-13 09:03:54","49aca292d257f58668169b9fbab864ae","223.104.214.152","Mozilla/5.0 (Windows NT 6.1; Win64; x64) AppleWebKit/537.36 (KHTML, like Gecko) Chrome/98.0.4758.139 Safari/537.36","WebKit","Chrome","98.0.4758.139","Windows","6.1","2159","<p><strong>请判断下列陈述在多大程度上可以形容你？</p><p> (1 = ""和我一点都不像"" to 5 = ""非常像我"".)</strong></p>","0",""
"","","","","","survey-likert","139","522962","0.0-12.0","65","1","2022-11-13 09:03:54","49aca292d257f58668169b9fbab864ae","223.104.214.152","Mozilla/5.0 (Windows NT 6.1; Win64; x64) AppleWebKit/537.36 (KHTML, like Gecko) Chrome/98.0.4758.139 Safari/537.36","WebKit","Chrome","98.0.4758.139","Windows","6.1","37922","","{""Aggression1"":3,""Aggression2"":3,""Aggression3"":4,""Aggression4"":0,""Aggression5"":4,""Aggression6"":4,""Aggression7"":0,""Aggression8"":4,""Aggression9"":3}","[0,1,2,3,4,5,6,7,8]"
"","","","","","html-button-response","140","524734","0.0-13.0","65","1","2022-11-13 09:03:54","49aca292d257f58668169b9fbab864ae","223.104.214.152","Mozilla/5.0 (Windows NT 6.1; Win64; x64) AppleWebKit/537.36 (KHTML, like Gecko) Chrome/98.0.4758.139 Safari/537.36","WebKit","Chrome","98.0.4758.139","Windows","6.1","1763","<p><strong>请判断你在多大程度上同意下列陈述。</strong></p>","0",""
"","","","","","survey-likert","141","660038","0.0-14.0","65","1","2022-11-13 09:03:54","49aca292d257f58668169b9fbab864ae","223.104.214.152","Mozilla/5.0 (Windows NT 6.1; Win64; x64) AppleWebKit/537.36 (KHTML, like Gecko) Chrome/98.0.4758.139 Safari/537.36","WebKit","Chrome","98.0.4758.139","Windows","6.1","135286","","{""scale19"":3,""scale6"":2,""scale22"":4,""scale23"":3,""scale5"":3,""scale15"":2,""scale28"":3,""scale21"":4,""scale25"":3,""scale12"":0,""scale7"":1,""scale24"":0,""scale4"":2,""scale2"":3,""scale27"":0,""scale20"":3,""scale8"":3,""scale17"":2,""scale16"":3,""scale3"":3,""scale26"":4,""scale1"":2,""scale9"":2,""scale11"":3,""scale13"":1,""scale14"":2,""scale10"":2,""scale18"":3}","[18,5,21,22,4,14,27,20,24,11,6,23,3,1,26,19,7,16,15,2,25,0,8,10,12,13,9,17]"
"","","","","","html-button-response","142","662990","0.0-15.0","65","1","2022-11-13 09:03:54","49aca292d257f58668169b9fbab864ae","223.104.214.152","Mozilla/5.0 (Windows NT 6.1; Win64; x64) AppleWebKit/537.36 (KHTML, like Gecko) Chrome/98.0.4758.139 Safari/537.36","WebKit","Chrome","98.0.4758.139","Windows","6.1","2943","<p><strong>请判断你在多大程度上同意下列陈述。</strong></p>","0",""
"","","","","","survey-likert","143","776193","0.0-16.0","65","1","2022-11-13 09:03:54","49aca292d257f58668169b9fbab864ae","223.104.214.152","Mozilla/5.0 (Windows NT 6.1; Win64; x64) AppleWebKit/537.36 (KHTML, like Gecko) Chrome/98.0.4758.139 Safari/537.36","WebKit","Chrome","98.0.4758.139","Windows","6.1","113187","","{""sdo12"":6,""sdo9"":3,""sdo7"":2,""sdo2"":1,""sdo8"":3,""sdo4"":2,""sdo13"":5,""sdo1"":2,""sdo6"":1,""sdo10"":6,""sdo5"":4,""sdo11"":0,""sdo14"":1,""sdo15"":4,""sdo16"":6,""sdo3"":4}","[11,8,6,1,7,3,12,0,5,9,4,10,13,14,15,2]"
"","","","","","html-button-response","144","779292","0.0-17.0","65","1","2022-11-13 09:03:54","49aca292d257f58668169b9fbab864ae","223.104.214.152","Mozilla/5.0 (Windows NT 6.1; Win64; x64) AppleWebKit/537.36 (KHTML, like Gecko) Chrome/98.0.4758.139 Safari/537.36","WebKit","Chrome","98.0.4758.139","Windows","6.1","3089","<p><strong>请判断你在多大程度上同意下列陈述。</strong></p>","0",""
"","","","","","survey-likert","145","867399","0.0-18.0","65","1","2022-11-13 09:03:54","49aca292d257f58668169b9fbab864ae","223.104.214.152","Mozilla/5.0 (Windows NT 6.1; Win64; x64) AppleWebKit/537.36 (KHTML, like Gecko) Chrome/98.0.4758.139 Safari/537.36","WebKit","Chrome","98.0.4758.139","Windows","6.1","88096","","{""caring1"":3,""liking1"":1,""caring2"":3,""protection1"":2,""liking2"":2,""caring3"":4,""protection2"":1,""liking3"":1,""protection3"":3,""caring4"":4,""liking4"":0,""protection4"":1,""caring5"":1,""liking5"":3,""protection5"":1}","[0,1,2,3,4,5,6,7,8,9,10,11,12,13,14]"
"","","","","","html-button-response","146","869146","0.0-19.0","65","1","2022-11-13 09:03:54","49aca292d257f58668169b9fbab864ae","223.104.214.152","Mozilla/5.0 (Windows NT 6.1; Win64; x64) AppleWebKit/537.36 (KHTML, like Gecko) Chrome/98.0.4758.139 Safari/537.36","WebKit","Chrome","98.0.4758.139","Windows","6.1","1738","<p><strong>请判断下列场景中你的内心感受有多柔软。</strong></p>","0",""
"","","","","","survey-likert","147","912565","0.0-20.0","65","1","2022-11-13 09:03:54","49aca292d257f58668169b9fbab864ae","223.104.214.152","Mozilla/5.0 (Windows NT 6.1; Win64; x64) AppleWebKit/537.36 (KHTML, like Gecko) Chrome/98.0.4758.139 Safari/537.36","WebKit","Chrome","98.0.4758.139","Windows","6.1","43408","","{""tenderness-positive1"":4,""tenderness-negative1"":3,""tenderness-negative2"":3,""tenderness-positive2"":4,""tenderness-positive3"":4,""tenderness-negative3"":3,""tenderness-positive4"":4,""tenderness-negative4"":4,""tenderness-negative5"":3,""tenderness-positive5"":4}","[0,1,2,3,4,5,6,7,8,9]"
"","","","","","survey-multi-choice","148","927149","0.0-21.0","65","1","2022-11-13 09:03:54","49aca292d257f58668169b9fbab864ae","223.104.214.152","Mozilla/5.0 (Windows NT 6.1; Win64; x64) AppleWebKit/537.36 (KHTML, like Gecko) Chrome/98.0.4758.139 Safari/537.36","WebKit","Chrome","98.0.4758.139","Windows","6.1","14574","","{""Attention2"":""其他""}","[0]"
"","","","","","html-button-response","149","928737","0.0-22.0","65","1","2022-11-13 09:03:54","49aca292d257f58668169b9fbab864ae","223.104.214.152","Mozilla/5.0 (Windows NT 6.1; Win64; x64) AppleWebKit/537.36 (KHTML, like Gecko) Chrome/98.0.4758.139 Safari/537.36","WebKit","Chrome","98.0.4758.139","Windows","6.1","1579","<p><strong>请判断你在多大程度上同意下列陈述。</strong></p>","0",""
"","","","","","survey-likert","150","1040944","0.0-23.0","65","1","2022-11-13 09:03:54","49aca292d257f58668169b9fbab864ae","223.104.214.152","Mozilla/5.0 (Windows NT 6.1; Win64; x64) AppleWebKit/537.36 (KHTML, like Gecko) Chrome/98.0.4758.139 Safari/537.36","WebKit","Chrome","98.0.4758.139","Windows","6.1","112193","","{""Nation8"":4,""Nation1"":1,""Patri10"":3,""Patri1"":4,""Nation5"":0,""Patri2"":3,""Patri9"":4,""Patri5"":3,""Patri7"":3,""Nation3"":0,""Patri8"":4,""Nation6"":4,""Nation2"":3,""Patri3"":4,""Patri4"":4,""Patri12"":3,""Patri11"":1,""Nation4"":0,""Nation7"":1,""Patri6"":0}","[19,12,9,0,16,1,8,4,6,14,7,17,13,2,3,11,10,15,18,5]"
"","","","","","html-button-response","151","1043048","0.0-24.0","65","1","2022-11-13 09:03:54","49aca292d257f58668169b9fbab864ae","223.104.214.152","Mozilla/5.0 (Windows NT 6.1; Win64; x64) AppleWebKit/537.36 (KHTML, like Gecko) Chrome/98.0.4758.139 Safari/537.36","WebKit","Chrome","98.0.4758.139","Windows","6.1","2094","<p><strong>请判断你在多大程度上同意下列陈述。</strong></p>","0",""
"","","","","","survey-likert","152","1115994","0.0-25.0","65","1","2022-11-13 09:03:54","49aca292d257f58668169b9fbab864ae","223.104.214.152","Mozilla/5.0 (Windows NT 6.1; Win64; x64) AppleWebKit/537.36 (KHTML, like Gecko) Chrome/98.0.4758.139 Safari/537.36","WebKit","Chrome","98.0.4758.139","Windows","6.1","72932","","{""vi2"":3,""hc3"":6,""hi4"":8,""vi3"":7,""vc4"":6,""hc2"":7,""vc3"":8,""hc4"":6,""vi1"":6,""hi2"":4,""hi3"":1,""Robot"":6,""hc1"":6,""hi1"":5,""vi4"":3,""vc1"":7,""vc2"":8}","[5,11,3,6,16,10,15,12,4,1,2,7,9,0,8,13,14]"
"","","","","","survey-text","153","1170344","0.0-26.0","65","1","2022-11-13 09:03:54","49aca292d257f58668169b9fbab864ae","223.104.214.152","Mozilla/5.0 (Windows NT 6.1; Win64; x64) AppleWebKit/537.36 (KHTML, like Gecko) Chrome/98.0.4758.139 Safari/537.36","WebKit","Chrome","98.0.4758.139","Windows","6.1","54326","","{""Comments"":""没有跟主试联系沟通的方式，有些疑问无法得到回复""}",""
"","","","","","html-button-response","154","1173785","0.0-27.0","65","1","2022-11-13 09:03:54","49aca292d257f58668169b9fbab864ae","223.104.214.152","Mozilla/5.0 (Windows NT 6.1; Win64; x64) AppleWebKit/537.36 (KHTML, like Gecko) Chrome/98.0.4758.139 Safari/537.36","WebKit","Chrome","98.0.4758.139","Windows","6.1","3434","<strong><p>恭喜你完成了实验！</p><p>感谢您的参与。</p></strong>","0",""
