"success","timeout","failed_images","failed_audio","failed_video","trial_type","trial_index","time_elapsed","internal_node_id","run_id","condition","recorded_at","source_code_version","ip","user_agent","device","browser","browser_version","platform","platform_version","rt","stimulus","response","question_order"
"true","false","[]","[]","[]","preload","0","8967","0.0-0.0","74","1","2022-11-13 09:16:23","49aca292d257f58668169b9fbab864ae","36.98.2.153","Mozilla/5.0 (Windows; U; Windows NT 5.2; en-US) AppleWebKit/537.36 (KHTML, like Gecko) Safari/537.36 VivoBrowser/10.8.10.0 Chrome/87.0.4280.141","WebKit","Chrome","87.0.4280.141","Windows","5.2","","","",""
"true","","","","","fullscreen","1","14001","0.0-1.0","74","1","2022-11-13 09:16:23","49aca292d257f58668169b9fbab864ae","36.98.2.153","Mozilla/5.0 (Windows; U; Windows NT 5.2; en-US) AppleWebKit/537.36 (KHTML, like Gecko) Safari/537.36 VivoBrowser/10.8.10.0 Chrome/87.0.4280.141","WebKit","Chrome","87.0.4280.141","Windows","5.2","","","",""
"","","","","","html-button-response","2","181910","0.0-2.0","74","1","2022-11-13 09:16:23","49aca292d257f58668169b9fbab864ae","36.98.2.153","Mozilla/5.0 (Windows; U; Windows NT 5.2; en-US) AppleWebKit/537.36 (KHTML, like Gecko) Safari/537.36 VivoBrowser/10.8.10.0 Chrome/87.0.4280.141","WebKit","Chrome","87.0.4280.141","Windows","5.2","163355","<p style=""font-size:20px;font-weight:bold;"">实验知情同意书</p><p style=""text-align:left;""><strong>实验名称：</strong>社会冲突研究</p><p style=""text-align:left;""><strong>主要研究者：</strong>韩晓春副教授（北京师范大学心理学部）</p><p style=""text-align:left;""><strong>联系方式：</strong>发送邮件至xiaochun.han@bnu.edu.cn</p><p style=""text-align:left;""><strong>研究目的：</strong>研究旨在了解人类面对群体冲突时的决策方式，以及相关的心理学特质。实验调查大约需要20分钟。</p><p style=""text-align:left;""><strong>实验流程：</strong>实验包含两部分。第一部分呈现一系列群体冲突场景，请你决定如何对这些冲突进行反应，大约需要10分钟完成。第二部分包含一系列人口统计学信息收集和心理学问卷，大约需要10分钟完成。</p><p style=""text-align:left;""><strong>参加及退出规则：</strong>参加本实验完全取决于您的个人意愿。在参与过程中，您可以随时退出，并且不用承担任何后果。</p><p style=""text-align:left;""><strong>隐私：</strong>本实验完全匿名进行，不会收集您的姓名或其他能够识别您身份的信息。实验中收集的作答仅用作科学研究使用，可能会在学术期刊/书籍上发表，或者用于教学，您的数据未来可能会和其他研究者或实验室分享，但您的个人身份不会被识别。</p><p style=""text-align:left;""><strong>实验报酬：</strong>实验完成后，您将获得15元人民币报酬，以感谢您的时间和努力。调查问卷中包含几道题目用以测验您作答时的认真度。只有完成全部实验，并且正确回答认真度测验的被试才能获得实验报酬。实验报酬将通过支付宝转账发放。</p><p style=""text-align:left;font-size:20px;""><strong>如果您同意以上实验知情同意书的内容，请点击'同意并且开始实验'按钮；否则请关闭浏览器界面，退出实验。</strong></p>","0",""
"","","","","","html-button-response","3","301533","0.0-3.0","74","1","2022-11-13 09:16:23","49aca292d257f58668169b9fbab864ae","36.98.2.153","Mozilla/5.0 (Windows; U; Windows NT 5.2; en-US) AppleWebKit/537.36 (KHTML, like Gecko) Safari/537.36 VivoBrowser/10.8.10.0 Chrome/87.0.4280.141","WebKit","Chrome","87.0.4280.141","Windows","5.2","119614","<p ><strong>实验任务一：</strong></p><p>请想象你的国家与另一个国家发生了军事冲突。</p><p>你是国家军队的指挥官，你将如何在冲突中进行决策。</p><p>具体来说，作为军队指挥官，请你决定是否发射导弹进行打击。</p><p>接下来，你会面对一系列场景，请仔细阅读每个场景，然后进行决策。</p><p>这部分实验任务大约需要10分钟。</p><p><strong>实验过程中，请集中注意力。</strong></p>","0",""
"","","","","","html-keyboard-response","4","302541","0.0-4.0-0.0","74","1","2022-11-13 09:16:23","49aca292d257f58668169b9fbab864ae","36.98.2.153","Mozilla/5.0 (Windows; U; Windows NT 5.2; en-US) AppleWebKit/537.36 (KHTML, like Gecko) Safari/537.36 VivoBrowser/10.8.10.0 Chrome/87.0.4280.141","WebKit","Chrome","87.0.4280.141","Windows","5.2","null","<div style=""font-size:60px;"">+</div>","null",""
"","","","","","html-button-response","5","321361","0.0-4.0-1.0","74","1","2022-11-13 09:16:23","49aca292d257f58668169b9fbab864ae","36.98.2.153","Mozilla/5.0 (Windows; U; Windows NT 5.2; en-US) AppleWebKit/537.36 (KHTML, like Gecko) Safari/537.36 VivoBrowser/10.8.10.0 Chrome/87.0.4280.141","WebKit","Chrome","87.0.4280.141","Windows","5.2","18805","<p>作为军队的指挥官，你可以选择发射导弹杀死 <strong>6名</strong> 敌国士兵，但会炸毁附近的 <strong>1棵</strong> 敌国树木。</p> <p>树木的照片如下图所示。</p> <p></p> <img src='stimuli/trees/6.png', style='max-width: 30%;'> </img> <p><strong>你是否选择发射武器？</strong></p>","0",""
"","","","","","html-keyboard-response","6","322370","0.0-4.0-0.1","74","1","2022-11-13 09:16:23","49aca292d257f58668169b9fbab864ae","36.98.2.153","Mozilla/5.0 (Windows; U; Windows NT 5.2; en-US) AppleWebKit/537.36 (KHTML, like Gecko) Safari/537.36 VivoBrowser/10.8.10.0 Chrome/87.0.4280.141","WebKit","Chrome","87.0.4280.141","Windows","5.2","null","<div style=""font-size:60px;"">+</div>","null",""
"","","","","","html-button-response","7","334708","0.0-4.0-1.1","74","1","2022-11-13 09:16:23","49aca292d257f58668169b9fbab864ae","36.98.2.153","Mozilla/5.0 (Windows; U; Windows NT 5.2; en-US) AppleWebKit/537.36 (KHTML, like Gecko) Safari/537.36 VivoBrowser/10.8.10.0 Chrome/87.0.4280.141","WebKit","Chrome","87.0.4280.141","Windows","5.2","12327","<p>作为军队的指挥官，你可以选择发射导弹杀死 <strong>1名</strong> 敌国士兵，但会误杀附近的 <strong>1名</strong> 敌国平民。</p> <p>平民照片如下图所示。</p> <p></p> <img src='stimuli/faces/PFM5.jpg', style='max-width: 30%;'> </img> <p><strong>你是否选择发射武器？</strong></p>","1",""
"","","","","","html-keyboard-response","8","335720","0.0-4.0-0.2","74","1","2022-11-13 09:16:23","49aca292d257f58668169b9fbab864ae","36.98.2.153","Mozilla/5.0 (Windows; U; Windows NT 5.2; en-US) AppleWebKit/537.36 (KHTML, like Gecko) Safari/537.36 VivoBrowser/10.8.10.0 Chrome/87.0.4280.141","WebKit","Chrome","87.0.4280.141","Windows","5.2","null","<div style=""font-size:60px;"">+</div>","null",""
"","","","","","html-button-response","9","347126","0.0-4.0-1.2","74","1","2022-11-13 09:16:23","49aca292d257f58668169b9fbab864ae","36.98.2.153","Mozilla/5.0 (Windows; U; Windows NT 5.2; en-US) AppleWebKit/537.36 (KHTML, like Gecko) Safari/537.36 VivoBrowser/10.8.10.0 Chrome/87.0.4280.141","WebKit","Chrome","87.0.4280.141","Windows","5.2","11385","<p>作为军队的指挥官，你可以选择发射导弹杀死 <strong>6名</strong> 敌国士兵，但会炸毁附近的 <strong>1棵</strong> 敌国树木。</p> <p>树木的照片如下图所示。</p> <p></p> <img src='stimuli/trees/7.png', style='max-width: 30%;'> </img> <p><strong>你是否选择发射武器？</strong></p>","0",""
"","","","","","html-keyboard-response","10","348134","0.0-4.0-0.3","74","1","2022-11-13 09:16:23","49aca292d257f58668169b9fbab864ae","36.98.2.153","Mozilla/5.0 (Windows; U; Windows NT 5.2; en-US) AppleWebKit/537.36 (KHTML, like Gecko) Safari/537.36 VivoBrowser/10.8.10.0 Chrome/87.0.4280.141","WebKit","Chrome","87.0.4280.141","Windows","5.2","null","<div style=""font-size:60px;"">+</div>","null",""
"","","","","","html-button-response","11","360775","0.0-4.0-1.3","74","1","2022-11-13 09:16:23","49aca292d257f58668169b9fbab864ae","36.98.2.153","Mozilla/5.0 (Windows; U; Windows NT 5.2; en-US) AppleWebKit/537.36 (KHTML, like Gecko) Safari/537.36 VivoBrowser/10.8.10.0 Chrome/87.0.4280.141","WebKit","Chrome","87.0.4280.141","Windows","5.2","12621","<p>作为军队的指挥官，你可以选择发射导弹杀死 <strong>9名</strong> 敌国士兵，但会误杀附近的 <strong>1名</strong> 敌国平民。</p> <p>平民照片如下图所示。</p> <p></p> <img src='stimuli/faces/PFF7.jpg', style='max-width: 30%;'> </img> <p><strong>你是否选择发射武器？</strong></p>","1",""
"","","","","","html-keyboard-response","12","361785","0.0-4.0-0.4","74","1","2022-11-13 09:16:23","49aca292d257f58668169b9fbab864ae","36.98.2.153","Mozilla/5.0 (Windows; U; Windows NT 5.2; en-US) AppleWebKit/537.36 (KHTML, like Gecko) Safari/537.36 VivoBrowser/10.8.10.0 Chrome/87.0.4280.141","WebKit","Chrome","87.0.4280.141","Windows","5.2","null","<div style=""font-size:60px;"">+</div>","null",""
"","","","","","html-button-response","13","386444","0.0-4.0-1.4","74","1","2022-11-13 09:16:23","49aca292d257f58668169b9fbab864ae","36.98.2.153","Mozilla/5.0 (Windows; U; Windows NT 5.2; en-US) AppleWebKit/537.36 (KHTML, like Gecko) Safari/537.36 VivoBrowser/10.8.10.0 Chrome/87.0.4280.141","WebKit","Chrome","87.0.4280.141","Windows","5.2","24648","<p>作为军队的指挥官，你可以选择发射导弹杀死 <strong>3名</strong> 敌国士兵，但会炸毁附近的 <strong>1棵</strong> 敌国树木。</p> <p>树木的照片如下图所示。</p> <p></p> <img src='stimuli/trees/7.png', style='max-width: 30%;'> </img> <p><strong>你是否选择发射武器？</strong></p>","0",""
"","","","","","html-keyboard-response","14","387448","0.0-4.0-0.5","74","1","2022-11-13 09:16:23","49aca292d257f58668169b9fbab864ae","36.98.2.153","Mozilla/5.0 (Windows; U; Windows NT 5.2; en-US) AppleWebKit/537.36 (KHTML, like Gecko) Safari/537.36 VivoBrowser/10.8.10.0 Chrome/87.0.4280.141","WebKit","Chrome","87.0.4280.141","Windows","5.2","null","<div style=""font-size:60px;"">+</div>","null",""
"","","","","","html-button-response","15","396971","0.0-4.0-1.5","74","1","2022-11-13 09:16:23","49aca292d257f58668169b9fbab864ae","36.98.2.153","Mozilla/5.0 (Windows; U; Windows NT 5.2; en-US) AppleWebKit/537.36 (KHTML, like Gecko) Safari/537.36 VivoBrowser/10.8.10.0 Chrome/87.0.4280.141","WebKit","Chrome","87.0.4280.141","Windows","5.2","9514","<p>作为军队的指挥官，你可以选择发射导弹杀死 <strong>6名</strong> 敌国士兵，但会炸毁附近的 <strong>1棵</strong> 敌国树木。</p> <p>树木的照片如下图所示。</p> <p></p> <img src='stimuli/trees/2.png', style='max-width: 30%;'> </img> <p><strong>你是否选择发射武器？</strong></p>","0",""
"","","","","","html-keyboard-response","16","397977","0.0-4.0-0.6","74","1","2022-11-13 09:16:23","49aca292d257f58668169b9fbab864ae","36.98.2.153","Mozilla/5.0 (Windows; U; Windows NT 5.2; en-US) AppleWebKit/537.36 (KHTML, like Gecko) Safari/537.36 VivoBrowser/10.8.10.0 Chrome/87.0.4280.141","WebKit","Chrome","87.0.4280.141","Windows","5.2","null","<div style=""font-size:60px;"">+</div>","null",""
"","","","","","html-button-response","17","403490","0.0-4.0-1.6","74","1","2022-11-13 09:16:23","49aca292d257f58668169b9fbab864ae","36.98.2.153","Mozilla/5.0 (Windows; U; Windows NT 5.2; en-US) AppleWebKit/537.36 (KHTML, like Gecko) Safari/537.36 VivoBrowser/10.8.10.0 Chrome/87.0.4280.141","WebKit","Chrome","87.0.4280.141","Windows","5.2","5502","<p>作为军队的指挥官，你可以选择发射导弹杀死 <strong>10名</strong> 敌国士兵，但会误杀附近的 <strong>1名</strong> 敌国平民。</p> <p>平民照片如下图所示。</p> <p></p> <img src='stimuli/faces/PFF1.jpg', style='max-width: 30%;'> </img> <p><strong>你是否选择发射武器？</strong></p>","1",""
"","","","","","html-keyboard-response","18","404498","0.0-4.0-0.7","74","1","2022-11-13 09:16:23","49aca292d257f58668169b9fbab864ae","36.98.2.153","Mozilla/5.0 (Windows; U; Windows NT 5.2; en-US) AppleWebKit/537.36 (KHTML, like Gecko) Safari/537.36 VivoBrowser/10.8.10.0 Chrome/87.0.4280.141","WebKit","Chrome","87.0.4280.141","Windows","5.2","null","<div style=""font-size:60px;"">+</div>","null",""
"","","","","","html-button-response","19","411065","0.0-4.0-1.7","74","1","2022-11-13 09:16:23","49aca292d257f58668169b9fbab864ae","36.98.2.153","Mozilla/5.0 (Windows; U; Windows NT 5.2; en-US) AppleWebKit/537.36 (KHTML, like Gecko) Safari/537.36 VivoBrowser/10.8.10.0 Chrome/87.0.4280.141","WebKit","Chrome","87.0.4280.141","Windows","5.2","6546","<p>作为军队的指挥官，你可以选择发射导弹杀死 <strong>1名</strong> 敌国士兵，但会误杀附近的 <strong>1名</strong> 敌国平民。</p> <p>平民照片如下图所示。</p> <p></p> <img src='stimuli/faces/PFF5.jpg', style='max-width: 30%;'> </img> <p><strong>你是否选择发射武器？</strong></p>","1",""
"","","","","","html-keyboard-response","20","412070","0.0-4.0-0.8","74","1","2022-11-13 09:16:23","49aca292d257f58668169b9fbab864ae","36.98.2.153","Mozilla/5.0 (Windows; U; Windows NT 5.2; en-US) AppleWebKit/537.36 (KHTML, like Gecko) Safari/537.36 VivoBrowser/10.8.10.0 Chrome/87.0.4280.141","WebKit","Chrome","87.0.4280.141","Windows","5.2","null","<div style=""font-size:60px;"">+</div>","null",""
"","","","","","html-button-response","21","418193","0.0-4.0-1.8","74","1","2022-11-13 09:16:23","49aca292d257f58668169b9fbab864ae","36.98.2.153","Mozilla/5.0 (Windows; U; Windows NT 5.2; en-US) AppleWebKit/537.36 (KHTML, like Gecko) Safari/537.36 VivoBrowser/10.8.10.0 Chrome/87.0.4280.141","WebKit","Chrome","87.0.4280.141","Windows","5.2","6110","<p>作为军队的指挥官，你可以选择发射导弹杀死 <strong>7名</strong> 敌国士兵，但会误杀附近的 <strong>1名</strong> 敌国平民。</p> <p>平民照片如下图所示。</p> <p></p> <img src='stimuli/faces/PFM6.jpg', style='max-width: 30%;'> </img> <p><strong>你是否选择发射武器？</strong></p>","1",""
"","","","","","html-keyboard-response","22","419200","0.0-4.0-0.9","74","1","2022-11-13 09:16:23","49aca292d257f58668169b9fbab864ae","36.98.2.153","Mozilla/5.0 (Windows; U; Windows NT 5.2; en-US) AppleWebKit/537.36 (KHTML, like Gecko) Safari/537.36 VivoBrowser/10.8.10.0 Chrome/87.0.4280.141","WebKit","Chrome","87.0.4280.141","Windows","5.2","null","<div style=""font-size:60px;"">+</div>","null",""
"","","","","","html-button-response","23","427586","0.0-4.0-1.9","74","1","2022-11-13 09:16:23","49aca292d257f58668169b9fbab864ae","36.98.2.153","Mozilla/5.0 (Windows; U; Windows NT 5.2; en-US) AppleWebKit/537.36 (KHTML, like Gecko) Safari/537.36 VivoBrowser/10.8.10.0 Chrome/87.0.4280.141","WebKit","Chrome","87.0.4280.141","Windows","5.2","8369","<p>作为军队的指挥官，你可以选择发射导弹杀死 <strong>1名</strong> 敌国士兵，但会误杀附近的 <strong>1名</strong> 敌国平民。</p> <p>平民照片如下图所示。</p> <p></p> <img src='stimuli/faces/PFF2.jpg', style='max-width: 30%;'> </img> <p><strong>你是否选择发射武器？</strong></p>","1",""
"","","","","","html-keyboard-response","24","428595","0.0-4.0-0.10","74","1","2022-11-13 09:16:23","49aca292d257f58668169b9fbab864ae","36.98.2.153","Mozilla/5.0 (Windows; U; Windows NT 5.2; en-US) AppleWebKit/537.36 (KHTML, like Gecko) Safari/537.36 VivoBrowser/10.8.10.0 Chrome/87.0.4280.141","WebKit","Chrome","87.0.4280.141","Windows","5.2","null","<div style=""font-size:60px;"">+</div>","null",""
"","","","","","html-button-response","25","436033","0.0-4.0-1.10","74","1","2022-11-13 09:16:23","49aca292d257f58668169b9fbab864ae","36.98.2.153","Mozilla/5.0 (Windows; U; Windows NT 5.2; en-US) AppleWebKit/537.36 (KHTML, like Gecko) Safari/537.36 VivoBrowser/10.8.10.0 Chrome/87.0.4280.141","WebKit","Chrome","87.0.4280.141","Windows","5.2","7416","<p>作为军队的指挥官，你可以选择发射导弹杀死 <strong>10名</strong> 敌国士兵，但会误杀附近的 <strong>1名</strong> 敌国平民。</p> <p>平民照片如下图所示。</p> <p></p> <img src='stimuli/faces/PFF8.jpg', style='max-width: 30%;'> </img> <p><strong>你是否选择发射武器？</strong></p>","1",""
"","","","","","html-keyboard-response","26","437041","0.0-4.0-0.11","74","1","2022-11-13 09:16:23","49aca292d257f58668169b9fbab864ae","36.98.2.153","Mozilla/5.0 (Windows; U; Windows NT 5.2; en-US) AppleWebKit/537.36 (KHTML, like Gecko) Safari/537.36 VivoBrowser/10.8.10.0 Chrome/87.0.4280.141","WebKit","Chrome","87.0.4280.141","Windows","5.2","null","<div style=""font-size:60px;"">+</div>","null",""
"","","","","","html-button-response","27","443773","0.0-4.0-1.11","74","1","2022-11-13 09:16:23","49aca292d257f58668169b9fbab864ae","36.98.2.153","Mozilla/5.0 (Windows; U; Windows NT 5.2; en-US) AppleWebKit/537.36 (KHTML, like Gecko) Safari/537.36 VivoBrowser/10.8.10.0 Chrome/87.0.4280.141","WebKit","Chrome","87.0.4280.141","Windows","5.2","6713","<p>作为军队的指挥官，你可以选择发射导弹杀死 <strong>3名</strong> 敌国士兵，但会炸毁附近的 <strong>1棵</strong> 敌国树木。</p> <p>树木的照片如下图所示。</p> <p></p> <img src='stimuli/trees/1.png', style='max-width: 30%;'> </img> <p><strong>你是否选择发射武器？</strong></p>","0",""
"","","","","","html-keyboard-response","28","444780","0.0-4.0-0.12","74","1","2022-11-13 09:16:23","49aca292d257f58668169b9fbab864ae","36.98.2.153","Mozilla/5.0 (Windows; U; Windows NT 5.2; en-US) AppleWebKit/537.36 (KHTML, like Gecko) Safari/537.36 VivoBrowser/10.8.10.0 Chrome/87.0.4280.141","WebKit","Chrome","87.0.4280.141","Windows","5.2","null","<div style=""font-size:60px;"">+</div>","null",""
"","","","","","html-button-response","29","446846","0.0-4.0-1.12","74","1","2022-11-13 09:16:23","49aca292d257f58668169b9fbab864ae","36.98.2.153","Mozilla/5.0 (Windows; U; Windows NT 5.2; en-US) AppleWebKit/537.36 (KHTML, like Gecko) Safari/537.36 VivoBrowser/10.8.10.0 Chrome/87.0.4280.141","WebKit","Chrome","87.0.4280.141","Windows","5.2","2045","<p>作为军队的指挥官，你可以选择发射导弹杀死 <strong>5名</strong> 敌国士兵，但会炸毁附近的 <strong>1棵</strong> 敌国树木。</p> <p>树木的照片如下图所示。</p> <p></p> <img src='stimuli/trees/2.png', style='max-width: 30%;'> </img> <p><strong>你是否选择发射武器？</strong></p>","0",""
"","","","","","html-keyboard-response","30","447855","0.0-4.0-0.13","74","1","2022-11-13 09:16:23","49aca292d257f58668169b9fbab864ae","36.98.2.153","Mozilla/5.0 (Windows; U; Windows NT 5.2; en-US) AppleWebKit/537.36 (KHTML, like Gecko) Safari/537.36 VivoBrowser/10.8.10.0 Chrome/87.0.4280.141","WebKit","Chrome","87.0.4280.141","Windows","5.2","null","<div style=""font-size:60px;"">+</div>","null",""
"","","","","","html-button-response","31","451111","0.0-4.0-1.13","74","1","2022-11-13 09:16:23","49aca292d257f58668169b9fbab864ae","36.98.2.153","Mozilla/5.0 (Windows; U; Windows NT 5.2; en-US) AppleWebKit/537.36 (KHTML, like Gecko) Safari/537.36 VivoBrowser/10.8.10.0 Chrome/87.0.4280.141","WebKit","Chrome","87.0.4280.141","Windows","5.2","3229","<p>作为军队的指挥官，你可以选择发射导弹杀死 <strong>1名</strong> 敌国士兵，但会误杀附近的 <strong>1名</strong> 敌国平民。</p> <p>平民照片如下图所示。</p> <p></p> <img src='stimuli/faces/PFM7.jpg', style='max-width: 30%;'> </img> <p><strong>你是否选择发射武器？</strong></p>","1",""
"","","","","","html-keyboard-response","32","452120","0.0-4.0-0.14","74","1","2022-11-13 09:16:23","49aca292d257f58668169b9fbab864ae","36.98.2.153","Mozilla/5.0 (Windows; U; Windows NT 5.2; en-US) AppleWebKit/537.36 (KHTML, like Gecko) Safari/537.36 VivoBrowser/10.8.10.0 Chrome/87.0.4280.141","WebKit","Chrome","87.0.4280.141","Windows","5.2","null","<div style=""font-size:60px;"">+</div>","null",""
"","","","","","html-button-response","33","456704","0.0-4.0-1.14","74","1","2022-11-13 09:16:23","49aca292d257f58668169b9fbab864ae","36.98.2.153","Mozilla/5.0 (Windows; U; Windows NT 5.2; en-US) AppleWebKit/537.36 (KHTML, like Gecko) Safari/537.36 VivoBrowser/10.8.10.0 Chrome/87.0.4280.141","WebKit","Chrome","87.0.4280.141","Windows","5.2","4565","<p>作为军队的指挥官，你可以选择发射导弹杀死 <strong>10名</strong> 敌国士兵，但会炸毁附近的 <strong>1棵</strong> 敌国树木。</p> <p>树木的照片如下图所示。</p> <p></p> <img src='stimuli/trees/12.png', style='max-width: 30%;'> </img> <p><strong>你是否选择发射武器？</strong></p>","0",""
"","","","","","html-keyboard-response","34","457712","0.0-4.0-0.15","74","1","2022-11-13 09:16:23","49aca292d257f58668169b9fbab864ae","36.98.2.153","Mozilla/5.0 (Windows; U; Windows NT 5.2; en-US) AppleWebKit/537.36 (KHTML, like Gecko) Safari/537.36 VivoBrowser/10.8.10.0 Chrome/87.0.4280.141","WebKit","Chrome","87.0.4280.141","Windows","5.2","null","<div style=""font-size:60px;"">+</div>","null",""
"","","","","","html-button-response","35","461365","0.0-4.0-1.15","74","1","2022-11-13 09:16:23","49aca292d257f58668169b9fbab864ae","36.98.2.153","Mozilla/5.0 (Windows; U; Windows NT 5.2; en-US) AppleWebKit/537.36 (KHTML, like Gecko) Safari/537.36 VivoBrowser/10.8.10.0 Chrome/87.0.4280.141","WebKit","Chrome","87.0.4280.141","Windows","5.2","3631","<p>作为军队的指挥官，你可以选择发射导弹杀死 <strong>2名</strong> 敌国士兵，但会误杀附近的 <strong>1名</strong> 敌国平民。</p> <p>平民照片如下图所示。</p> <p></p> <img src='stimuli/faces/PFM3.jpg', style='max-width: 30%;'> </img> <p><strong>你是否选择发射武器？</strong></p>","1",""
"","","","","","html-keyboard-response","36","462374","0.0-4.0-0.16","74","1","2022-11-13 09:16:23","49aca292d257f58668169b9fbab864ae","36.98.2.153","Mozilla/5.0 (Windows; U; Windows NT 5.2; en-US) AppleWebKit/537.36 (KHTML, like Gecko) Safari/537.36 VivoBrowser/10.8.10.0 Chrome/87.0.4280.141","WebKit","Chrome","87.0.4280.141","Windows","5.2","null","<div style=""font-size:60px;"">+</div>","null",""
"","","","","","html-button-response","37","470249","0.0-4.0-1.16","74","1","2022-11-13 09:16:23","49aca292d257f58668169b9fbab864ae","36.98.2.153","Mozilla/5.0 (Windows; U; Windows NT 5.2; en-US) AppleWebKit/537.36 (KHTML, like Gecko) Safari/537.36 VivoBrowser/10.8.10.0 Chrome/87.0.4280.141","WebKit","Chrome","87.0.4280.141","Windows","5.2","7850","<p>作为军队的指挥官，你可以选择发射导弹杀死 <strong>5名</strong> 敌国士兵，但会炸毁附近的 <strong>1棵</strong> 敌国树木。</p> <p>树木的照片如下图所示。</p> <p></p> <img src='stimuli/trees/3.png', style='max-width: 30%;'> </img> <p><strong>你是否选择发射武器？</strong></p>","0",""
"","","","","","html-keyboard-response","38","471257","0.0-4.0-0.17","74","1","2022-11-13 09:16:23","49aca292d257f58668169b9fbab864ae","36.98.2.153","Mozilla/5.0 (Windows; U; Windows NT 5.2; en-US) AppleWebKit/537.36 (KHTML, like Gecko) Safari/537.36 VivoBrowser/10.8.10.0 Chrome/87.0.4280.141","WebKit","Chrome","87.0.4280.141","Windows","5.2","null","<div style=""font-size:60px;"">+</div>","null",""
"","","","","","html-button-response","39","475102","0.0-4.0-1.17","74","1","2022-11-13 09:16:23","49aca292d257f58668169b9fbab864ae","36.98.2.153","Mozilla/5.0 (Windows; U; Windows NT 5.2; en-US) AppleWebKit/537.36 (KHTML, like Gecko) Safari/537.36 VivoBrowser/10.8.10.0 Chrome/87.0.4280.141","WebKit","Chrome","87.0.4280.141","Windows","5.2","3823","<p>作为军队的指挥官，你可以选择发射导弹杀死 <strong>5名</strong> 敌国士兵，但会误杀附近的 <strong>1名</strong> 敌国平民。</p> <p>平民照片如下图所示。</p> <p></p> <img src='stimuli/faces/PFM2.jpg', style='max-width: 30%;'> </img> <p><strong>你是否选择发射武器？</strong></p>","1",""
"","","","","","html-keyboard-response","40","476111","0.0-4.0-0.18","74","1","2022-11-13 09:16:23","49aca292d257f58668169b9fbab864ae","36.98.2.153","Mozilla/5.0 (Windows; U; Windows NT 5.2; en-US) AppleWebKit/537.36 (KHTML, like Gecko) Safari/537.36 VivoBrowser/10.8.10.0 Chrome/87.0.4280.141","WebKit","Chrome","87.0.4280.141","Windows","5.2","null","<div style=""font-size:60px;"">+</div>","null",""
"","","","","","html-button-response","41","482230","0.0-4.0-1.18","74","1","2022-11-13 09:16:23","49aca292d257f58668169b9fbab864ae","36.98.2.153","Mozilla/5.0 (Windows; U; Windows NT 5.2; en-US) AppleWebKit/537.36 (KHTML, like Gecko) Safari/537.36 VivoBrowser/10.8.10.0 Chrome/87.0.4280.141","WebKit","Chrome","87.0.4280.141","Windows","5.2","6092","<p>作为军队的指挥官，你可以选择发射导弹杀死 <strong>3名</strong> 敌国士兵，但会误杀附近的 <strong>1名</strong> 敌国平民。</p> <p>平民照片如下图所示。</p> <p></p> <img src='stimuli/faces/PFF7.jpg', style='max-width: 30%;'> </img> <p><strong>你是否选择发射武器？</strong></p>","1",""
"","","","","","html-keyboard-response","42","483239","0.0-4.0-0.19","74","1","2022-11-13 09:16:23","49aca292d257f58668169b9fbab864ae","36.98.2.153","Mozilla/5.0 (Windows; U; Windows NT 5.2; en-US) AppleWebKit/537.36 (KHTML, like Gecko) Safari/537.36 VivoBrowser/10.8.10.0 Chrome/87.0.4280.141","WebKit","Chrome","87.0.4280.141","Windows","5.2","null","<div style=""font-size:60px;"">+</div>","null",""
"","","","","","html-button-response","43","484505","0.0-4.0-1.19","74","1","2022-11-13 09:16:23","49aca292d257f58668169b9fbab864ae","36.98.2.153","Mozilla/5.0 (Windows; U; Windows NT 5.2; en-US) AppleWebKit/537.36 (KHTML, like Gecko) Safari/537.36 VivoBrowser/10.8.10.0 Chrome/87.0.4280.141","WebKit","Chrome","87.0.4280.141","Windows","5.2","1248","<p>作为军队的指挥官，你可以选择发射导弹杀死 <strong>3名</strong> 敌国士兵，但会炸毁附近的 <strong>1棵</strong> 敌国树木。</p> <p>树木的照片如下图所示。</p> <p></p> <img src='stimuli/trees/14.png', style='max-width: 30%;'> </img> <p><strong>你是否选择发射武器？</strong></p>","0",""
"","","","","","html-keyboard-response","44","485515","0.0-4.0-0.20","74","1","2022-11-13 09:16:23","49aca292d257f58668169b9fbab864ae","36.98.2.153","Mozilla/5.0 (Windows; U; Windows NT 5.2; en-US) AppleWebKit/537.36 (KHTML, like Gecko) Safari/537.36 VivoBrowser/10.8.10.0 Chrome/87.0.4280.141","WebKit","Chrome","87.0.4280.141","Windows","5.2","null","<div style=""font-size:60px;"">+</div>","null",""
"","","","","","html-button-response","45","486805","0.0-4.0-1.20","74","1","2022-11-13 09:16:23","49aca292d257f58668169b9fbab864ae","36.98.2.153","Mozilla/5.0 (Windows; U; Windows NT 5.2; en-US) AppleWebKit/537.36 (KHTML, like Gecko) Safari/537.36 VivoBrowser/10.8.10.0 Chrome/87.0.4280.141","WebKit","Chrome","87.0.4280.141","Windows","5.2","1265","<p>作为军队的指挥官，你可以选择发射导弹杀死 <strong>2名</strong> 敌国士兵，但会炸毁附近的 <strong>1棵</strong> 敌国树木。</p> <p>树木的照片如下图所示。</p> <p></p> <img src='stimuli/trees/9.png', style='max-width: 30%;'> </img> <p><strong>你是否选择发射武器？</strong></p>","0",""
"","","","","","html-keyboard-response","46","487815","0.0-4.0-0.21","74","1","2022-11-13 09:16:23","49aca292d257f58668169b9fbab864ae","36.98.2.153","Mozilla/5.0 (Windows; U; Windows NT 5.2; en-US) AppleWebKit/537.36 (KHTML, like Gecko) Safari/537.36 VivoBrowser/10.8.10.0 Chrome/87.0.4280.141","WebKit","Chrome","87.0.4280.141","Windows","5.2","null","<div style=""font-size:60px;"">+</div>","null",""
"","","","","","html-button-response","47","489014","0.0-4.0-1.21","74","1","2022-11-13 09:16:23","49aca292d257f58668169b9fbab864ae","36.98.2.153","Mozilla/5.0 (Windows; U; Windows NT 5.2; en-US) AppleWebKit/537.36 (KHTML, like Gecko) Safari/537.36 VivoBrowser/10.8.10.0 Chrome/87.0.4280.141","WebKit","Chrome","87.0.4280.141","Windows","5.2","1172","<p>作为军队的指挥官，你可以选择发射导弹杀死 <strong>5名</strong> 敌国士兵，但会炸毁附近的 <strong>1棵</strong> 敌国树木。</p> <p>树木的照片如下图所示。</p> <p></p> <img src='stimuli/trees/6.png', style='max-width: 30%;'> </img> <p><strong>你是否选择发射武器？</strong></p>","0",""
"","","","","","html-keyboard-response","48","490025","0.0-4.0-0.22","74","1","2022-11-13 09:16:23","49aca292d257f58668169b9fbab864ae","36.98.2.153","Mozilla/5.0 (Windows; U; Windows NT 5.2; en-US) AppleWebKit/537.36 (KHTML, like Gecko) Safari/537.36 VivoBrowser/10.8.10.0 Chrome/87.0.4280.141","WebKit","Chrome","87.0.4280.141","Windows","5.2","null","<div style=""font-size:60px;"">+</div>","null",""
"","","","","","html-button-response","49","491472","0.0-4.0-1.22","74","1","2022-11-13 09:16:23","49aca292d257f58668169b9fbab864ae","36.98.2.153","Mozilla/5.0 (Windows; U; Windows NT 5.2; en-US) AppleWebKit/537.36 (KHTML, like Gecko) Safari/537.36 VivoBrowser/10.8.10.0 Chrome/87.0.4280.141","WebKit","Chrome","87.0.4280.141","Windows","5.2","1435","<p>作为军队的指挥官，你可以选择发射导弹杀死 <strong>4名</strong> 敌国士兵，但会误杀附近的 <strong>1名</strong> 敌国平民。</p> <p>平民照片如下图所示。</p> <p></p> <img src='stimuli/faces/PFM8.jpg', style='max-width: 30%;'> </img> <p><strong>你是否选择发射武器？</strong></p>","1",""
"","","","","","html-keyboard-response","50","492485","0.0-4.0-0.23","74","1","2022-11-13 09:16:23","49aca292d257f58668169b9fbab864ae","36.98.2.153","Mozilla/5.0 (Windows; U; Windows NT 5.2; en-US) AppleWebKit/537.36 (KHTML, like Gecko) Safari/537.36 VivoBrowser/10.8.10.0 Chrome/87.0.4280.141","WebKit","Chrome","87.0.4280.141","Windows","5.2","null","<div style=""font-size:60px;"">+</div>","null",""
"","","","","","html-button-response","51","493879","0.0-4.0-1.23","74","1","2022-11-13 09:16:23","49aca292d257f58668169b9fbab864ae","36.98.2.153","Mozilla/5.0 (Windows; U; Windows NT 5.2; en-US) AppleWebKit/537.36 (KHTML, like Gecko) Safari/537.36 VivoBrowser/10.8.10.0 Chrome/87.0.4280.141","WebKit","Chrome","87.0.4280.141","Windows","5.2","1368","<p>作为军队的指挥官，你可以选择发射导弹杀死 <strong>10名</strong> 敌国士兵，但会误杀附近的 <strong>1名</strong> 敌国平民。</p> <p>平民照片如下图所示。</p> <p></p> <img src='stimuli/faces/PFF3.jpg', style='max-width: 30%;'> </img> <p><strong>你是否选择发射武器？</strong></p>","1",""
"","","","","","html-keyboard-response","52","494890","0.0-4.0-0.24","74","1","2022-11-13 09:16:23","49aca292d257f58668169b9fbab864ae","36.98.2.153","Mozilla/5.0 (Windows; U; Windows NT 5.2; en-US) AppleWebKit/537.36 (KHTML, like Gecko) Safari/537.36 VivoBrowser/10.8.10.0 Chrome/87.0.4280.141","WebKit","Chrome","87.0.4280.141","Windows","5.2","null","<div style=""font-size:60px;"">+</div>","null",""
"","","","","","html-button-response","53","497189","0.0-4.0-1.24","74","1","2022-11-13 09:16:23","49aca292d257f58668169b9fbab864ae","36.98.2.153","Mozilla/5.0 (Windows; U; Windows NT 5.2; en-US) AppleWebKit/537.36 (KHTML, like Gecko) Safari/537.36 VivoBrowser/10.8.10.0 Chrome/87.0.4280.141","WebKit","Chrome","87.0.4280.141","Windows","5.2","2277","<p>作为军队的指挥官，你可以选择发射导弹杀死 <strong>5名</strong> 敌国士兵，但会误杀附近的 <strong>1名</strong> 敌国平民。</p> <p>平民照片如下图所示。</p> <p></p> <img src='stimuli/faces/PFM6.jpg', style='max-width: 30%;'> </img> <p><strong>你是否选择发射武器？</strong></p>","1",""
"","","","","","html-keyboard-response","54","498200","0.0-4.0-0.25","74","1","2022-11-13 09:16:23","49aca292d257f58668169b9fbab864ae","36.98.2.153","Mozilla/5.0 (Windows; U; Windows NT 5.2; en-US) AppleWebKit/537.36 (KHTML, like Gecko) Safari/537.36 VivoBrowser/10.8.10.0 Chrome/87.0.4280.141","WebKit","Chrome","87.0.4280.141","Windows","5.2","null","<div style=""font-size:60px;"">+</div>","null",""
"","","","","","html-button-response","55","499545","0.0-4.0-1.25","74","1","2022-11-13 09:16:23","49aca292d257f58668169b9fbab864ae","36.98.2.153","Mozilla/5.0 (Windows; U; Windows NT 5.2; en-US) AppleWebKit/537.36 (KHTML, like Gecko) Safari/537.36 VivoBrowser/10.8.10.0 Chrome/87.0.4280.141","WebKit","Chrome","87.0.4280.141","Windows","5.2","1312","<p>作为军队的指挥官，你可以选择发射导弹杀死 <strong>4名</strong> 敌国士兵，但会炸毁附近的 <strong>1棵</strong> 敌国树木。</p> <p>树木的照片如下图所示。</p> <p></p> <img src='stimuli/trees/13.png', style='max-width: 30%;'> </img> <p><strong>你是否选择发射武器？</strong></p>","0",""
"","","","","","html-keyboard-response","56","500553","0.0-4.0-0.26","74","1","2022-11-13 09:16:23","49aca292d257f58668169b9fbab864ae","36.98.2.153","Mozilla/5.0 (Windows; U; Windows NT 5.2; en-US) AppleWebKit/537.36 (KHTML, like Gecko) Safari/537.36 VivoBrowser/10.8.10.0 Chrome/87.0.4280.141","WebKit","Chrome","87.0.4280.141","Windows","5.2","null","<div style=""font-size:60px;"">+</div>","null",""
"","","","","","html-button-response","57","501595","0.0-4.0-1.26","74","1","2022-11-13 09:16:23","49aca292d257f58668169b9fbab864ae","36.98.2.153","Mozilla/5.0 (Windows; U; Windows NT 5.2; en-US) AppleWebKit/537.36 (KHTML, like Gecko) Safari/537.36 VivoBrowser/10.8.10.0 Chrome/87.0.4280.141","WebKit","Chrome","87.0.4280.141","Windows","5.2","1015","<p>作为军队的指挥官，你可以选择发射导弹杀死 <strong>3名</strong> 敌国士兵，但会炸毁附近的 <strong>1棵</strong> 敌国树木。</p> <p>树木的照片如下图所示。</p> <p></p> <img src='stimuli/trees/5.png', style='max-width: 30%;'> </img> <p><strong>你是否选择发射武器？</strong></p>","0",""
"","","","","","html-keyboard-response","58","502609","0.0-4.0-0.27","74","1","2022-11-13 09:16:23","49aca292d257f58668169b9fbab864ae","36.98.2.153","Mozilla/5.0 (Windows; U; Windows NT 5.2; en-US) AppleWebKit/537.36 (KHTML, like Gecko) Safari/537.36 VivoBrowser/10.8.10.0 Chrome/87.0.4280.141","WebKit","Chrome","87.0.4280.141","Windows","5.2","null","<div style=""font-size:60px;"">+</div>","null",""
"","","","","","html-button-response","59","505924","0.0-4.0-1.27","74","1","2022-11-13 09:16:23","49aca292d257f58668169b9fbab864ae","36.98.2.153","Mozilla/5.0 (Windows; U; Windows NT 5.2; en-US) AppleWebKit/537.36 (KHTML, like Gecko) Safari/537.36 VivoBrowser/10.8.10.0 Chrome/87.0.4280.141","WebKit","Chrome","87.0.4280.141","Windows","5.2","3292","<p>作为军队的指挥官，你可以选择发射导弹杀死 <strong>10名</strong> 敌国士兵，但会炸毁附近的 <strong>1棵</strong> 敌国树木。</p> <p>树木的照片如下图所示。</p> <p></p> <img src='stimuli/trees/16.png', style='max-width: 30%;'> </img> <p><strong>你是否选择发射武器？</strong></p>","0",""
"","","","","","html-keyboard-response","60","506939","0.0-4.0-0.28","74","1","2022-11-13 09:16:23","49aca292d257f58668169b9fbab864ae","36.98.2.153","Mozilla/5.0 (Windows; U; Windows NT 5.2; en-US) AppleWebKit/537.36 (KHTML, like Gecko) Safari/537.36 VivoBrowser/10.8.10.0 Chrome/87.0.4280.141","WebKit","Chrome","87.0.4280.141","Windows","5.2","null","<div style=""font-size:60px;"">+</div>","null",""
"","","","","","html-button-response","61","507974","0.0-4.0-1.28","74","1","2022-11-13 09:16:23","49aca292d257f58668169b9fbab864ae","36.98.2.153","Mozilla/5.0 (Windows; U; Windows NT 5.2; en-US) AppleWebKit/537.36 (KHTML, like Gecko) Safari/537.36 VivoBrowser/10.8.10.0 Chrome/87.0.4280.141","WebKit","Chrome","87.0.4280.141","Windows","5.2","1009","<p>作为军队的指挥官，你可以选择发射导弹杀死 <strong>4名</strong> 敌国士兵，但会炸毁附近的 <strong>1棵</strong> 敌国树木。</p> <p>树木的照片如下图所示。</p> <p></p> <img src='stimuli/trees/10.png', style='max-width: 30%;'> </img> <p><strong>你是否选择发射武器？</strong></p>","0",""
"","","","","","html-keyboard-response","62","508986","0.0-4.0-0.29","74","1","2022-11-13 09:16:23","49aca292d257f58668169b9fbab864ae","36.98.2.153","Mozilla/5.0 (Windows; U; Windows NT 5.2; en-US) AppleWebKit/537.36 (KHTML, like Gecko) Safari/537.36 VivoBrowser/10.8.10.0 Chrome/87.0.4280.141","WebKit","Chrome","87.0.4280.141","Windows","5.2","null","<div style=""font-size:60px;"">+</div>","null",""
"","","","","","html-button-response","63","510677","0.0-4.0-1.29","74","1","2022-11-13 09:16:23","49aca292d257f58668169b9fbab864ae","36.98.2.153","Mozilla/5.0 (Windows; U; Windows NT 5.2; en-US) AppleWebKit/537.36 (KHTML, like Gecko) Safari/537.36 VivoBrowser/10.8.10.0 Chrome/87.0.4280.141","WebKit","Chrome","87.0.4280.141","Windows","5.2","1665","<p>作为军队的指挥官，你可以选择发射导弹杀死 <strong>9名</strong> 敌国士兵，但会炸毁附近的 <strong>1棵</strong> 敌国树木。</p> <p>树木的照片如下图所示。</p> <p></p> <img src='stimuli/trees/15.png', style='max-width: 30%;'> </img> <p><strong>你是否选择发射武器？</strong></p>","0",""
"","","","","","html-keyboard-response","64","511693","0.0-4.0-0.30","74","1","2022-11-13 09:16:23","49aca292d257f58668169b9fbab864ae","36.98.2.153","Mozilla/5.0 (Windows; U; Windows NT 5.2; en-US) AppleWebKit/537.36 (KHTML, like Gecko) Safari/537.36 VivoBrowser/10.8.10.0 Chrome/87.0.4280.141","WebKit","Chrome","87.0.4280.141","Windows","5.2","null","<div style=""font-size:60px;"">+</div>","null",""
"","","","","","html-button-response","65","513177","0.0-4.0-1.30","74","1","2022-11-13 09:16:23","49aca292d257f58668169b9fbab864ae","36.98.2.153","Mozilla/5.0 (Windows; U; Windows NT 5.2; en-US) AppleWebKit/537.36 (KHTML, like Gecko) Safari/537.36 VivoBrowser/10.8.10.0 Chrome/87.0.4280.141","WebKit","Chrome","87.0.4280.141","Windows","5.2","1456","<p>作为军队的指挥官，你可以选择发射导弹杀死 <strong>2名</strong> 敌国士兵，但会误杀附近的 <strong>1名</strong> 敌国平民。</p> <p>平民照片如下图所示。</p> <p></p> <img src='stimuli/faces/PFM4.jpg', style='max-width: 30%;'> </img> <p><strong>你是否选择发射武器？</strong></p>","1",""
"","","","","","html-keyboard-response","66","514191","0.0-4.0-0.31","74","1","2022-11-13 09:16:23","49aca292d257f58668169b9fbab864ae","36.98.2.153","Mozilla/5.0 (Windows; U; Windows NT 5.2; en-US) AppleWebKit/537.36 (KHTML, like Gecko) Safari/537.36 VivoBrowser/10.8.10.0 Chrome/87.0.4280.141","WebKit","Chrome","87.0.4280.141","Windows","5.2","null","<div style=""font-size:60px;"">+</div>","null",""
"","","","","","html-button-response","67","515307","0.0-4.0-1.31","74","1","2022-11-13 09:16:23","49aca292d257f58668169b9fbab864ae","36.98.2.153","Mozilla/5.0 (Windows; U; Windows NT 5.2; en-US) AppleWebKit/537.36 (KHTML, like Gecko) Safari/537.36 VivoBrowser/10.8.10.0 Chrome/87.0.4280.141","WebKit","Chrome","87.0.4280.141","Windows","5.2","1089","<p>作为军队的指挥官，你可以选择发射导弹杀死 <strong>6名</strong> 敌国士兵，但会误杀附近的 <strong>1名</strong> 敌国平民。</p> <p>平民照片如下图所示。</p> <p></p> <img src='stimuli/faces/PFM7.jpg', style='max-width: 30%;'> </img> <p><strong>你是否选择发射武器？</strong></p>","1",""
"","","","","","html-keyboard-response","68","516315","0.0-4.0-0.32","74","1","2022-11-13 09:16:23","49aca292d257f58668169b9fbab864ae","36.98.2.153","Mozilla/5.0 (Windows; U; Windows NT 5.2; en-US) AppleWebKit/537.36 (KHTML, like Gecko) Safari/537.36 VivoBrowser/10.8.10.0 Chrome/87.0.4280.141","WebKit","Chrome","87.0.4280.141","Windows","5.2","null","<div style=""font-size:60px;"">+</div>","null",""
"","","","","","html-button-response","69","517328","0.0-4.0-1.32","74","1","2022-11-13 09:16:23","49aca292d257f58668169b9fbab864ae","36.98.2.153","Mozilla/5.0 (Windows; U; Windows NT 5.2; en-US) AppleWebKit/537.36 (KHTML, like Gecko) Safari/537.36 VivoBrowser/10.8.10.0 Chrome/87.0.4280.141","WebKit","Chrome","87.0.4280.141","Windows","5.2","997","<p>作为军队的指挥官，你可以选择发射导弹杀死 <strong>3名</strong> 敌国士兵，但会炸毁附近的 <strong>1棵</strong> 敌国树木。</p> <p>树木的照片如下图所示。</p> <p></p> <img src='stimuli/trees/16.png', style='max-width: 30%;'> </img> <p><strong>你是否选择发射武器？</strong></p>","0",""
"","","","","","html-keyboard-response","70","518342","0.0-4.0-0.33","74","1","2022-11-13 09:16:23","49aca292d257f58668169b9fbab864ae","36.98.2.153","Mozilla/5.0 (Windows; U; Windows NT 5.2; en-US) AppleWebKit/537.36 (KHTML, like Gecko) Safari/537.36 VivoBrowser/10.8.10.0 Chrome/87.0.4280.141","WebKit","Chrome","87.0.4280.141","Windows","5.2","null","<div style=""font-size:60px;"">+</div>","null",""
"","","","","","html-button-response","71","559177","0.0-4.0-1.33","74","1","2022-11-13 09:16:23","49aca292d257f58668169b9fbab864ae","36.98.2.153","Mozilla/5.0 (Windows; U; Windows NT 5.2; en-US) AppleWebKit/537.36 (KHTML, like Gecko) Safari/537.36 VivoBrowser/10.8.10.0 Chrome/87.0.4280.141","WebKit","Chrome","87.0.4280.141","Windows","5.2","40822","<p>作为军队的指挥官，你可以选择发射导弹杀死 <strong>6名</strong> 敌国士兵，但会炸毁附近的 <strong>1棵</strong> 敌国树木。</p> <p>树木的照片如下图所示。</p> <p></p> <img src='stimuli/trees/1.png', style='max-width: 30%;'> </img> <p><strong>你是否选择发射武器？</strong></p>","0",""
"","","","","","html-keyboard-response","72","560187","0.0-4.0-0.34","74","1","2022-11-13 09:16:23","49aca292d257f58668169b9fbab864ae","36.98.2.153","Mozilla/5.0 (Windows; U; Windows NT 5.2; en-US) AppleWebKit/537.36 (KHTML, like Gecko) Safari/537.36 VivoBrowser/10.8.10.0 Chrome/87.0.4280.141","WebKit","Chrome","87.0.4280.141","Windows","5.2","null","<div style=""font-size:60px;"">+</div>","null",""
"","","","","","html-button-response","73","562503","0.0-4.0-1.34","74","1","2022-11-13 09:16:23","49aca292d257f58668169b9fbab864ae","36.98.2.153","Mozilla/5.0 (Windows; U; Windows NT 5.2; en-US) AppleWebKit/537.36 (KHTML, like Gecko) Safari/537.36 VivoBrowser/10.8.10.0 Chrome/87.0.4280.141","WebKit","Chrome","87.0.4280.141","Windows","5.2","2296","<p>作为军队的指挥官，你可以选择发射导弹杀死 <strong>2名</strong> 敌国士兵，但会误杀附近的 <strong>1名</strong> 敌国平民。</p> <p>平民照片如下图所示。</p> <p></p> <img src='stimuli/faces/PFF4.jpg', style='max-width: 30%;'> </img> <p><strong>你是否选择发射武器？</strong></p>","1",""
"","","","","","html-keyboard-response","74","563515","0.0-4.0-0.35","74","1","2022-11-13 09:16:23","49aca292d257f58668169b9fbab864ae","36.98.2.153","Mozilla/5.0 (Windows; U; Windows NT 5.2; en-US) AppleWebKit/537.36 (KHTML, like Gecko) Safari/537.36 VivoBrowser/10.8.10.0 Chrome/87.0.4280.141","WebKit","Chrome","87.0.4280.141","Windows","5.2","null","<div style=""font-size:60px;"">+</div>","null",""
"","","","","","html-button-response","75","565072","0.0-4.0-1.35","74","1","2022-11-13 09:16:23","49aca292d257f58668169b9fbab864ae","36.98.2.153","Mozilla/5.0 (Windows; U; Windows NT 5.2; en-US) AppleWebKit/537.36 (KHTML, like Gecko) Safari/537.36 VivoBrowser/10.8.10.0 Chrome/87.0.4280.141","WebKit","Chrome","87.0.4280.141","Windows","5.2","1539","<p>作为军队的指挥官，你可以选择发射导弹杀死 <strong>9名</strong> 敌国士兵，但会炸毁附近的 <strong>1棵</strong> 敌国树木。</p> <p>树木的照片如下图所示。</p> <p></p> <img src='stimuli/trees/11.png', style='max-width: 30%;'> </img> <p><strong>你是否选择发射武器？</strong></p>","0",""
"","","","","","html-keyboard-response","76","566085","0.0-4.0-0.36","74","1","2022-11-13 09:16:23","49aca292d257f58668169b9fbab864ae","36.98.2.153","Mozilla/5.0 (Windows; U; Windows NT 5.2; en-US) AppleWebKit/537.36 (KHTML, like Gecko) Safari/537.36 VivoBrowser/10.8.10.0 Chrome/87.0.4280.141","WebKit","Chrome","87.0.4280.141","Windows","5.2","null","<div style=""font-size:60px;"">+</div>","null",""
"","","","","","html-button-response","77","567234","0.0-4.0-1.36","74","1","2022-11-13 09:16:23","49aca292d257f58668169b9fbab864ae","36.98.2.153","Mozilla/5.0 (Windows; U; Windows NT 5.2; en-US) AppleWebKit/537.36 (KHTML, like Gecko) Safari/537.36 VivoBrowser/10.8.10.0 Chrome/87.0.4280.141","WebKit","Chrome","87.0.4280.141","Windows","5.2","1123","<p>作为军队的指挥官，你可以选择发射导弹杀死 <strong>2名</strong> 敌国士兵，但会误杀附近的 <strong>1名</strong> 敌国平民。</p> <p>平民照片如下图所示。</p> <p></p> <img src='stimuli/faces/PFF1.jpg', style='max-width: 30%;'> </img> <p><strong>你是否选择发射武器？</strong></p>","1",""
"","","","","","html-keyboard-response","78","568247","0.0-4.0-0.37","74","1","2022-11-13 09:16:23","49aca292d257f58668169b9fbab864ae","36.98.2.153","Mozilla/5.0 (Windows; U; Windows NT 5.2; en-US) AppleWebKit/537.36 (KHTML, like Gecko) Safari/537.36 VivoBrowser/10.8.10.0 Chrome/87.0.4280.141","WebKit","Chrome","87.0.4280.141","Windows","5.2","null","<div style=""font-size:60px;"">+</div>","null",""
"","","","","","html-button-response","79","570118","0.0-4.0-1.37","74","1","2022-11-13 09:16:23","49aca292d257f58668169b9fbab864ae","36.98.2.153","Mozilla/5.0 (Windows; U; Windows NT 5.2; en-US) AppleWebKit/537.36 (KHTML, like Gecko) Safari/537.36 VivoBrowser/10.8.10.0 Chrome/87.0.4280.141","WebKit","Chrome","87.0.4280.141","Windows","5.2","1850","<p>作为军队的指挥官，你可以选择发射导弹杀死 <strong>9名</strong> 敌国士兵，但会炸毁附近的 <strong>1棵</strong> 敌国树木。</p> <p>树木的照片如下图所示。</p> <p></p> <img src='stimuli/trees/9.png', style='max-width: 30%;'> </img> <p><strong>你是否选择发射武器？</strong></p>","0",""
"","","","","","html-keyboard-response","80","571131","0.0-4.0-0.38","74","1","2022-11-13 09:16:23","49aca292d257f58668169b9fbab864ae","36.98.2.153","Mozilla/5.0 (Windows; U; Windows NT 5.2; en-US) AppleWebKit/537.36 (KHTML, like Gecko) Safari/537.36 VivoBrowser/10.8.10.0 Chrome/87.0.4280.141","WebKit","Chrome","87.0.4280.141","Windows","5.2","null","<div style=""font-size:60px;"">+</div>","null",""
"","","","","","html-button-response","81","572249","0.0-4.0-1.38","74","1","2022-11-13 09:16:23","49aca292d257f58668169b9fbab864ae","36.98.2.153","Mozilla/5.0 (Windows; U; Windows NT 5.2; en-US) AppleWebKit/537.36 (KHTML, like Gecko) Safari/537.36 VivoBrowser/10.8.10.0 Chrome/87.0.4280.141","WebKit","Chrome","87.0.4280.141","Windows","5.2","1106","<p>作为军队的指挥官，你可以选择发射导弹杀死 <strong>10名</strong> 敌国士兵，但会误杀附近的 <strong>1名</strong> 敌国平民。</p> <p>平民照片如下图所示。</p> <p></p> <img src='stimuli/faces/PFM3.jpg', style='max-width: 30%;'> </img> <p><strong>你是否选择发射武器？</strong></p>","1",""
"","","","","","html-keyboard-response","82","573273","0.0-4.0-0.39","74","1","2022-11-13 09:16:23","49aca292d257f58668169b9fbab864ae","36.98.2.153","Mozilla/5.0 (Windows; U; Windows NT 5.2; en-US) AppleWebKit/537.36 (KHTML, like Gecko) Safari/537.36 VivoBrowser/10.8.10.0 Chrome/87.0.4280.141","WebKit","Chrome","87.0.4280.141","Windows","5.2","null","<div style=""font-size:60px;"">+</div>","null",""
"","","","","","html-button-response","83","575483","0.0-4.0-1.39","74","1","2022-11-13 09:16:23","49aca292d257f58668169b9fbab864ae","36.98.2.153","Mozilla/5.0 (Windows; U; Windows NT 5.2; en-US) AppleWebKit/537.36 (KHTML, like Gecko) Safari/537.36 VivoBrowser/10.8.10.0 Chrome/87.0.4280.141","WebKit","Chrome","87.0.4280.141","Windows","5.2","2180","<p>作为军队的指挥官，你可以选择发射导弹杀死 <strong>3名</strong> 敌国士兵，但会炸毁附近的 <strong>1棵</strong> 敌国树木。</p> <p>树木的照片如下图所示。</p> <p></p> <img src='stimuli/trees/12.png', style='max-width: 30%;'> </img> <p><strong>你是否选择发射武器？</strong></p>","0",""
"","","","","","html-keyboard-response","84","576498","0.0-4.0-0.40","74","1","2022-11-13 09:16:23","49aca292d257f58668169b9fbab864ae","36.98.2.153","Mozilla/5.0 (Windows; U; Windows NT 5.2; en-US) AppleWebKit/537.36 (KHTML, like Gecko) Safari/537.36 VivoBrowser/10.8.10.0 Chrome/87.0.4280.141","WebKit","Chrome","87.0.4280.141","Windows","5.2","null","<div style=""font-size:60px;"">+</div>","null",""
"","","","","","html-button-response","85","580938","0.0-4.0-1.40","74","1","2022-11-13 09:16:23","49aca292d257f58668169b9fbab864ae","36.98.2.153","Mozilla/5.0 (Windows; U; Windows NT 5.2; en-US) AppleWebKit/537.36 (KHTML, like Gecko) Safari/537.36 VivoBrowser/10.8.10.0 Chrome/87.0.4280.141","WebKit","Chrome","87.0.4280.141","Windows","5.2","4410","<p>作为军队的指挥官，你可以选择发射导弹杀死 <strong>9名</strong> 敌国士兵，但会误杀附近的 <strong>1名</strong> 敌国平民。</p> <p>平民照片如下图所示。</p> <p></p> <img src='stimuli/faces/PFM4.jpg', style='max-width: 30%;'> </img> <p><strong>你是否选择发射武器？</strong></p>","1",""
"","","","","","html-keyboard-response","86","581946","0.0-4.0-0.41","74","1","2022-11-13 09:16:23","49aca292d257f58668169b9fbab864ae","36.98.2.153","Mozilla/5.0 (Windows; U; Windows NT 5.2; en-US) AppleWebKit/537.36 (KHTML, like Gecko) Safari/537.36 VivoBrowser/10.8.10.0 Chrome/87.0.4280.141","WebKit","Chrome","87.0.4280.141","Windows","5.2","null","<div style=""font-size:60px;"">+</div>","null",""
"","","","","","html-button-response","87","585064","0.0-4.0-1.41","74","1","2022-11-13 09:16:23","49aca292d257f58668169b9fbab864ae","36.98.2.153","Mozilla/5.0 (Windows; U; Windows NT 5.2; en-US) AppleWebKit/537.36 (KHTML, like Gecko) Safari/537.36 VivoBrowser/10.8.10.0 Chrome/87.0.4280.141","WebKit","Chrome","87.0.4280.141","Windows","5.2","3098","<p>作为军队的指挥官，你可以选择发射导弹杀死 <strong>7名</strong> 敌国士兵，但会炸毁附近的 <strong>1棵</strong> 敌国树木。</p> <p>树木的照片如下图所示。</p> <p></p> <img src='stimuli/trees/3.png', style='max-width: 30%;'> </img> <p><strong>你是否选择发射武器？</strong></p>","0",""
"","","","","","html-keyboard-response","88","586082","0.0-4.0-0.42","74","1","2022-11-13 09:16:23","49aca292d257f58668169b9fbab864ae","36.98.2.153","Mozilla/5.0 (Windows; U; Windows NT 5.2; en-US) AppleWebKit/537.36 (KHTML, like Gecko) Safari/537.36 VivoBrowser/10.8.10.0 Chrome/87.0.4280.141","WebKit","Chrome","87.0.4280.141","Windows","5.2","null","<div style=""font-size:60px;"">+</div>","null",""
"","","","","","html-button-response","89","587856","0.0-4.0-1.42","74","1","2022-11-13 09:16:23","49aca292d257f58668169b9fbab864ae","36.98.2.153","Mozilla/5.0 (Windows; U; Windows NT 5.2; en-US) AppleWebKit/537.36 (KHTML, like Gecko) Safari/537.36 VivoBrowser/10.8.10.0 Chrome/87.0.4280.141","WebKit","Chrome","87.0.4280.141","Windows","5.2","1747","<p>作为军队的指挥官，你可以选择发射导弹杀死 <strong>1名</strong> 敌国士兵，但会炸毁附近的 <strong>1棵</strong> 敌国树木。</p> <p>树木的照片如下图所示。</p> <p></p> <img src='stimuli/trees/11.png', style='max-width: 30%;'> </img> <p><strong>你是否选择发射武器？</strong></p>","0",""
"","","","","","html-keyboard-response","90","588869","0.0-4.0-0.43","74","1","2022-11-13 09:16:23","49aca292d257f58668169b9fbab864ae","36.98.2.153","Mozilla/5.0 (Windows; U; Windows NT 5.2; en-US) AppleWebKit/537.36 (KHTML, like Gecko) Safari/537.36 VivoBrowser/10.8.10.0 Chrome/87.0.4280.141","WebKit","Chrome","87.0.4280.141","Windows","5.2","null","<div style=""font-size:60px;"">+</div>","null",""
"","","","","","html-button-response","91","590065","0.0-4.0-1.43","74","1","2022-11-13 09:16:23","49aca292d257f58668169b9fbab864ae","36.98.2.153","Mozilla/5.0 (Windows; U; Windows NT 5.2; en-US) AppleWebKit/537.36 (KHTML, like Gecko) Safari/537.36 VivoBrowser/10.8.10.0 Chrome/87.0.4280.141","WebKit","Chrome","87.0.4280.141","Windows","5.2","1177","<p>作为军队的指挥官，你可以选择发射导弹杀死 <strong>10名</strong> 敌国士兵，但会炸毁附近的 <strong>1棵</strong> 敌国树木。</p> <p>树木的照片如下图所示。</p> <p></p> <img src='stimuli/trees/14.png', style='max-width: 30%;'> </img> <p><strong>你是否选择发射武器？</strong></p>","0",""
"","","","","","html-keyboard-response","92","591078","0.0-4.0-0.44","74","1","2022-11-13 09:16:23","49aca292d257f58668169b9fbab864ae","36.98.2.153","Mozilla/5.0 (Windows; U; Windows NT 5.2; en-US) AppleWebKit/537.36 (KHTML, like Gecko) Safari/537.36 VivoBrowser/10.8.10.0 Chrome/87.0.4280.141","WebKit","Chrome","87.0.4280.141","Windows","5.2","null","<div style=""font-size:60px;"">+</div>","null",""
"","","","","","html-button-response","93","592357","0.0-4.0-1.44","74","1","2022-11-13 09:16:23","49aca292d257f58668169b9fbab864ae","36.98.2.153","Mozilla/5.0 (Windows; U; Windows NT 5.2; en-US) AppleWebKit/537.36 (KHTML, like Gecko) Safari/537.36 VivoBrowser/10.8.10.0 Chrome/87.0.4280.141","WebKit","Chrome","87.0.4280.141","Windows","5.2","1250","<p>作为军队的指挥官，你可以选择发射导弹杀死 <strong>9名</strong> 敌国士兵，但会误杀附近的 <strong>1名</strong> 敌国平民。</p> <p>平民照片如下图所示。</p> <p></p> <img src='stimuli/faces/PFM5.jpg', style='max-width: 30%;'> </img> <p><strong>你是否选择发射武器？</strong></p>","1",""
"","","","","","html-keyboard-response","94","593376","0.0-4.0-0.45","74","1","2022-11-13 09:16:23","49aca292d257f58668169b9fbab864ae","36.98.2.153","Mozilla/5.0 (Windows; U; Windows NT 5.2; en-US) AppleWebKit/537.36 (KHTML, like Gecko) Safari/537.36 VivoBrowser/10.8.10.0 Chrome/87.0.4280.141","WebKit","Chrome","87.0.4280.141","Windows","5.2","null","<div style=""font-size:60px;"">+</div>","null",""
"","","","","","html-button-response","95","594695","0.0-4.0-1.45","74","1","2022-11-13 09:16:23","49aca292d257f58668169b9fbab864ae","36.98.2.153","Mozilla/5.0 (Windows; U; Windows NT 5.2; en-US) AppleWebKit/537.36 (KHTML, like Gecko) Safari/537.36 VivoBrowser/10.8.10.0 Chrome/87.0.4280.141","WebKit","Chrome","87.0.4280.141","Windows","5.2","1285","<p>作为军队的指挥官，你可以选择发射导弹杀死 <strong>9名</strong> 敌国士兵，但会炸毁附近的 <strong>1棵</strong> 敌国树木。</p> <p>树木的照片如下图所示。</p> <p></p> <img src='stimuli/trees/10.png', style='max-width: 30%;'> </img> <p><strong>你是否选择发射武器？</strong></p>","0",""
"","","","","","html-keyboard-response","96","595712","0.0-4.0-0.46","74","1","2022-11-13 09:16:23","49aca292d257f58668169b9fbab864ae","36.98.2.153","Mozilla/5.0 (Windows; U; Windows NT 5.2; en-US) AppleWebKit/537.36 (KHTML, like Gecko) Safari/537.36 VivoBrowser/10.8.10.0 Chrome/87.0.4280.141","WebKit","Chrome","87.0.4280.141","Windows","5.2","null","<div style=""font-size:60px;"">+</div>","null",""
"","","","","","html-button-response","97","596684","0.0-4.0-1.46","74","1","2022-11-13 09:16:23","49aca292d257f58668169b9fbab864ae","36.98.2.153","Mozilla/5.0 (Windows; U; Windows NT 5.2; en-US) AppleWebKit/537.36 (KHTML, like Gecko) Safari/537.36 VivoBrowser/10.8.10.0 Chrome/87.0.4280.141","WebKit","Chrome","87.0.4280.141","Windows","5.2","937","<p>作为军队的指挥官，你可以选择发射导弹杀死 <strong>8名</strong> 敌国士兵，但会误杀附近的 <strong>1名</strong> 敌国平民。</p> <p>平民照片如下图所示。</p> <p></p> <img src='stimuli/faces/PFF5.jpg', style='max-width: 30%;'> </img> <p><strong>你是否选择发射武器？</strong></p>","1",""
"","","","","","html-keyboard-response","98","597700","0.0-4.0-0.47","74","1","2022-11-13 09:16:23","49aca292d257f58668169b9fbab864ae","36.98.2.153","Mozilla/5.0 (Windows; U; Windows NT 5.2; en-US) AppleWebKit/537.36 (KHTML, like Gecko) Safari/537.36 VivoBrowser/10.8.10.0 Chrome/87.0.4280.141","WebKit","Chrome","87.0.4280.141","Windows","5.2","null","<div style=""font-size:60px;"">+</div>","null",""
"","","","","","html-button-response","99","599646","0.0-4.0-1.47","74","1","2022-11-13 09:16:23","49aca292d257f58668169b9fbab864ae","36.98.2.153","Mozilla/5.0 (Windows; U; Windows NT 5.2; en-US) AppleWebKit/537.36 (KHTML, like Gecko) Safari/537.36 VivoBrowser/10.8.10.0 Chrome/87.0.4280.141","WebKit","Chrome","87.0.4280.141","Windows","5.2","1932","<p>作为军队的指挥官，你可以选择发射导弹杀死 <strong>4名</strong> 敌国士兵，但会炸毁附近的 <strong>1棵</strong> 敌国树木。</p> <p>树木的照片如下图所示。</p> <p></p> <img src='stimuli/trees/4.png', style='max-width: 30%;'> </img> <p><strong>你是否选择发射武器？</strong></p>","0",""
"","","","","","html-keyboard-response","100","600658","0.0-4.0-0.48","74","1","2022-11-13 09:16:23","49aca292d257f58668169b9fbab864ae","36.98.2.153","Mozilla/5.0 (Windows; U; Windows NT 5.2; en-US) AppleWebKit/537.36 (KHTML, like Gecko) Safari/537.36 VivoBrowser/10.8.10.0 Chrome/87.0.4280.141","WebKit","Chrome","87.0.4280.141","Windows","5.2","null","<div style=""font-size:60px;"">+</div>","null",""
"","","","","","html-button-response","101","601828","0.0-4.0-1.48","74","1","2022-11-13 09:16:23","49aca292d257f58668169b9fbab864ae","36.98.2.153","Mozilla/5.0 (Windows; U; Windows NT 5.2; en-US) AppleWebKit/537.36 (KHTML, like Gecko) Safari/537.36 VivoBrowser/10.8.10.0 Chrome/87.0.4280.141","WebKit","Chrome","87.0.4280.141","Windows","5.2","1141","<p>作为军队的指挥官，你可以选择发射导弹杀死 <strong>6名</strong> 敌国士兵，但会误杀附近的 <strong>1名</strong> 敌国平民。</p> <p>平民照片如下图所示。</p> <p></p> <img src='stimuli/faces/PFM8.jpg', style='max-width: 30%;'> </img> <p><strong>你是否选择发射武器？</strong></p>","1",""
"","","","","","html-keyboard-response","102","602845","0.0-4.0-0.49","74","1","2022-11-13 09:16:23","49aca292d257f58668169b9fbab864ae","36.98.2.153","Mozilla/5.0 (Windows; U; Windows NT 5.2; en-US) AppleWebKit/537.36 (KHTML, like Gecko) Safari/537.36 VivoBrowser/10.8.10.0 Chrome/87.0.4280.141","WebKit","Chrome","87.0.4280.141","Windows","5.2","null","<div style=""font-size:60px;"">+</div>","null",""
"","","","","","html-button-response","103","604666","0.0-4.0-1.49","74","1","2022-11-13 09:16:23","49aca292d257f58668169b9fbab864ae","36.98.2.153","Mozilla/5.0 (Windows; U; Windows NT 5.2; en-US) AppleWebKit/537.36 (KHTML, like Gecko) Safari/537.36 VivoBrowser/10.8.10.0 Chrome/87.0.4280.141","WebKit","Chrome","87.0.4280.141","Windows","5.2","1795","<p>作为军队的指挥官，你可以选择发射导弹杀死 <strong>10名</strong> 敌国士兵，但会炸毁附近的 <strong>1棵</strong> 敌国树木。</p> <p>树木的照片如下图所示。</p> <p></p> <img src='stimuli/trees/5.png', style='max-width: 30%;'> </img> <p><strong>你是否选择发射武器？</strong></p>","0",""
"","","","","","html-keyboard-response","104","605682","0.0-4.0-0.50","74","1","2022-11-13 09:16:23","49aca292d257f58668169b9fbab864ae","36.98.2.153","Mozilla/5.0 (Windows; U; Windows NT 5.2; en-US) AppleWebKit/537.36 (KHTML, like Gecko) Safari/537.36 VivoBrowser/10.8.10.0 Chrome/87.0.4280.141","WebKit","Chrome","87.0.4280.141","Windows","5.2","null","<div style=""font-size:60px;"">+</div>","null",""
"","","","","","html-button-response","105","614283","0.0-4.0-1.50","74","1","2022-11-13 09:16:23","49aca292d257f58668169b9fbab864ae","36.98.2.153","Mozilla/5.0 (Windows; U; Windows NT 5.2; en-US) AppleWebKit/537.36 (KHTML, like Gecko) Safari/537.36 VivoBrowser/10.8.10.0 Chrome/87.0.4280.141","WebKit","Chrome","87.0.4280.141","Windows","5.2","8567","<p>作为军队的指挥官，你可以选择发射导弹杀死 <strong>10名</strong> 敌国士兵，但会误杀附近的 <strong>1名</strong> 敌国平民。</p> <p>平民照片如下图所示。</p> <p></p> <img src='stimuli/faces/PFM1.jpg', style='max-width: 30%;'> </img> <p><strong>你是否选择发射武器？</strong></p>","1",""
"","","","","","html-keyboard-response","106","615297","0.0-4.0-0.51","74","1","2022-11-13 09:16:23","49aca292d257f58668169b9fbab864ae","36.98.2.153","Mozilla/5.0 (Windows; U; Windows NT 5.2; en-US) AppleWebKit/537.36 (KHTML, like Gecko) Safari/537.36 VivoBrowser/10.8.10.0 Chrome/87.0.4280.141","WebKit","Chrome","87.0.4280.141","Windows","5.2","null","<div style=""font-size:60px;"">+</div>","null",""
"","","","","","html-button-response","107","617069","0.0-4.0-1.51","74","1","2022-11-13 09:16:23","49aca292d257f58668169b9fbab864ae","36.98.2.153","Mozilla/5.0 (Windows; U; Windows NT 5.2; en-US) AppleWebKit/537.36 (KHTML, like Gecko) Safari/537.36 VivoBrowser/10.8.10.0 Chrome/87.0.4280.141","WebKit","Chrome","87.0.4280.141","Windows","5.2","1741","<p>作为军队的指挥官，你可以选择发射导弹杀死 <strong>3名</strong> 敌国士兵，但会误杀附近的 <strong>1名</strong> 敌国平民。</p> <p>平民照片如下图所示。</p> <p></p> <img src='stimuli/faces/PFF6.jpg', style='max-width: 30%;'> </img> <p><strong>你是否选择发射武器？</strong></p>","1",""
"","","","","","html-keyboard-response","108","618087","0.0-4.0-0.52","74","1","2022-11-13 09:16:23","49aca292d257f58668169b9fbab864ae","36.98.2.153","Mozilla/5.0 (Windows; U; Windows NT 5.2; en-US) AppleWebKit/537.36 (KHTML, like Gecko) Safari/537.36 VivoBrowser/10.8.10.0 Chrome/87.0.4280.141","WebKit","Chrome","87.0.4280.141","Windows","5.2","null","<div style=""font-size:60px;"">+</div>","null",""
"","","","","","html-button-response","109","640582","0.0-4.0-1.52","74","1","2022-11-13 09:16:23","49aca292d257f58668169b9fbab864ae","36.98.2.153","Mozilla/5.0 (Windows; U; Windows NT 5.2; en-US) AppleWebKit/537.36 (KHTML, like Gecko) Safari/537.36 VivoBrowser/10.8.10.0 Chrome/87.0.4280.141","WebKit","Chrome","87.0.4280.141","Windows","5.2","22474","<p>作为军队的指挥官，你可以选择发射导弹杀死 <strong>10名</strong> 敌国士兵，但会炸毁附近的 <strong>1棵</strong> 敌国树木。</p> <p>树木的照片如下图所示。</p> <p></p> <img src='stimuli/trees/13.png', style='max-width: 30%;'> </img> <p><strong>你是否选择发射武器？</strong></p>","0",""
"","","","","","html-keyboard-response","110","641600","0.0-4.0-0.53","74","1","2022-11-13 09:16:23","49aca292d257f58668169b9fbab864ae","36.98.2.153","Mozilla/5.0 (Windows; U; Windows NT 5.2; en-US) AppleWebKit/537.36 (KHTML, like Gecko) Safari/537.36 VivoBrowser/10.8.10.0 Chrome/87.0.4280.141","WebKit","Chrome","87.0.4280.141","Windows","5.2","null","<div style=""font-size:60px;"">+</div>","null",""
"","","","","","html-button-response","111","642820","0.0-4.0-1.53","74","1","2022-11-13 09:16:23","49aca292d257f58668169b9fbab864ae","36.98.2.153","Mozilla/5.0 (Windows; U; Windows NT 5.2; en-US) AppleWebKit/537.36 (KHTML, like Gecko) Safari/537.36 VivoBrowser/10.8.10.0 Chrome/87.0.4280.141","WebKit","Chrome","87.0.4280.141","Windows","5.2","1185","<p>作为军队的指挥官，你可以选择发射导弹杀死 <strong>2名</strong> 敌国士兵，但会炸毁附近的 <strong>1棵</strong> 敌国树木。</p> <p>树木的照片如下图所示。</p> <p></p> <img src='stimuli/trees/8.png', style='max-width: 30%;'> </img> <p><strong>你是否选择发射武器？</strong></p>","0",""
"","","","","","html-keyboard-response","112","643834","0.0-4.0-0.54","74","1","2022-11-13 09:16:23","49aca292d257f58668169b9fbab864ae","36.98.2.153","Mozilla/5.0 (Windows; U; Windows NT 5.2; en-US) AppleWebKit/537.36 (KHTML, like Gecko) Safari/537.36 VivoBrowser/10.8.10.0 Chrome/87.0.4280.141","WebKit","Chrome","87.0.4280.141","Windows","5.2","null","<div style=""font-size:60px;"">+</div>","null",""
"","","","","","html-button-response","113","645953","0.0-4.0-1.54","74","1","2022-11-13 09:16:23","49aca292d257f58668169b9fbab864ae","36.98.2.153","Mozilla/5.0 (Windows; U; Windows NT 5.2; en-US) AppleWebKit/537.36 (KHTML, like Gecko) Safari/537.36 VivoBrowser/10.8.10.0 Chrome/87.0.4280.141","WebKit","Chrome","87.0.4280.141","Windows","5.2","2087","<p>作为军队的指挥官，你可以选择发射导弹杀死 <strong>8名</strong> 敌国士兵，但会误杀附近的 <strong>1名</strong> 敌国平民。</p> <p>平民照片如下图所示。</p> <p></p> <img src='stimuli/faces/PFF2.jpg', style='max-width: 30%;'> </img> <p><strong>你是否选择发射武器？</strong></p>","1",""
"","","","","","html-keyboard-response","114","646970","0.0-4.0-0.55","74","1","2022-11-13 09:16:23","49aca292d257f58668169b9fbab864ae","36.98.2.153","Mozilla/5.0 (Windows; U; Windows NT 5.2; en-US) AppleWebKit/537.36 (KHTML, like Gecko) Safari/537.36 VivoBrowser/10.8.10.0 Chrome/87.0.4280.141","WebKit","Chrome","87.0.4280.141","Windows","5.2","null","<div style=""font-size:60px;"">+</div>","null",""
"","","","","","html-button-response","115","648025","0.0-4.0-1.55","74","1","2022-11-13 09:16:23","49aca292d257f58668169b9fbab864ae","36.98.2.153","Mozilla/5.0 (Windows; U; Windows NT 5.2; en-US) AppleWebKit/537.36 (KHTML, like Gecko) Safari/537.36 VivoBrowser/10.8.10.0 Chrome/87.0.4280.141","WebKit","Chrome","87.0.4280.141","Windows","5.2","1036","<p>作为军队的指挥官，你可以选择发射导弹杀死 <strong>8名</strong> 敌国士兵，但会炸毁附近的 <strong>1棵</strong> 敌国树木。</p> <p>树木的照片如下图所示。</p> <p></p> <img src='stimuli/trees/4.png', style='max-width: 30%;'> </img> <p><strong>你是否选择发射武器？</strong></p>","0",""
"","","","","","html-keyboard-response","116","649041","0.0-4.0-0.56","74","1","2022-11-13 09:16:23","49aca292d257f58668169b9fbab864ae","36.98.2.153","Mozilla/5.0 (Windows; U; Windows NT 5.2; en-US) AppleWebKit/537.36 (KHTML, like Gecko) Safari/537.36 VivoBrowser/10.8.10.0 Chrome/87.0.4280.141","WebKit","Chrome","87.0.4280.141","Windows","5.2","null","<div style=""font-size:60px;"">+</div>","null",""
"","","","","","html-button-response","117","650336","0.0-4.0-1.56","74","1","2022-11-13 09:16:23","49aca292d257f58668169b9fbab864ae","36.98.2.153","Mozilla/5.0 (Windows; U; Windows NT 5.2; en-US) AppleWebKit/537.36 (KHTML, like Gecko) Safari/537.36 VivoBrowser/10.8.10.0 Chrome/87.0.4280.141","WebKit","Chrome","87.0.4280.141","Windows","5.2","1266","<p>作为军队的指挥官，你可以选择发射导弹杀死 <strong>6名</strong> 敌国士兵，但会误杀附近的 <strong>1名</strong> 敌国平民。</p> <p>平民照片如下图所示。</p> <p></p> <img src='stimuli/faces/PFF4.jpg', style='max-width: 30%;'> </img> <p><strong>你是否选择发射武器？</strong></p>","1",""
"","","","","","html-keyboard-response","118","651368","0.0-4.0-0.57","74","1","2022-11-13 09:16:23","49aca292d257f58668169b9fbab864ae","36.98.2.153","Mozilla/5.0 (Windows; U; Windows NT 5.2; en-US) AppleWebKit/537.36 (KHTML, like Gecko) Safari/537.36 VivoBrowser/10.8.10.0 Chrome/87.0.4280.141","WebKit","Chrome","87.0.4280.141","Windows","5.2","null","<div style=""font-size:60px;"">+</div>","null",""
"","","","","","html-button-response","119","652787","0.0-4.0-1.57","74","1","2022-11-13 09:16:23","49aca292d257f58668169b9fbab864ae","36.98.2.153","Mozilla/5.0 (Windows; U; Windows NT 5.2; en-US) AppleWebKit/537.36 (KHTML, like Gecko) Safari/537.36 VivoBrowser/10.8.10.0 Chrome/87.0.4280.141","WebKit","Chrome","87.0.4280.141","Windows","5.2","1386","<p>作为军队的指挥官，你可以选择发射导弹杀死 <strong>8名</strong> 敌国士兵，但会误杀附近的 <strong>1名</strong> 敌国平民。</p> <p>平民照片如下图所示。</p> <p></p> <img src='stimuli/faces/PFF6.jpg', style='max-width: 30%;'> </img> <p><strong>你是否选择发射武器？</strong></p>","1",""
"","","","","","html-keyboard-response","120","653799","0.0-4.0-0.58","74","1","2022-11-13 09:16:23","49aca292d257f58668169b9fbab864ae","36.98.2.153","Mozilla/5.0 (Windows; U; Windows NT 5.2; en-US) AppleWebKit/537.36 (KHTML, like Gecko) Safari/537.36 VivoBrowser/10.8.10.0 Chrome/87.0.4280.141","WebKit","Chrome","87.0.4280.141","Windows","5.2","null","<div style=""font-size:60px;"">+</div>","null",""
"","","","","","html-button-response","121","658438","0.0-4.0-1.58","74","1","2022-11-13 09:16:23","49aca292d257f58668169b9fbab864ae","36.98.2.153","Mozilla/5.0 (Windows; U; Windows NT 5.2; en-US) AppleWebKit/537.36 (KHTML, like Gecko) Safari/537.36 VivoBrowser/10.8.10.0 Chrome/87.0.4280.141","WebKit","Chrome","87.0.4280.141","Windows","5.2","4603","<p>作为军队的指挥官，你可以选择发射导弹杀死 <strong>1名</strong> 敌国士兵，但会误杀附近的 <strong>1名</strong> 敌国平民。</p> <p>平民照片如下图所示。</p> <p></p> <img src='stimuli/faces/PFF8.jpg', style='max-width: 30%;'> </img> <p><strong>你是否选择发射武器？</strong></p>","1",""
"","","","","","html-keyboard-response","122","659453","0.0-4.0-0.59","74","1","2022-11-13 09:16:23","49aca292d257f58668169b9fbab864ae","36.98.2.153","Mozilla/5.0 (Windows; U; Windows NT 5.2; en-US) AppleWebKit/537.36 (KHTML, like Gecko) Safari/537.36 VivoBrowser/10.8.10.0 Chrome/87.0.4280.141","WebKit","Chrome","87.0.4280.141","Windows","5.2","null","<div style=""font-size:60px;"">+</div>","null",""
"","","","","","html-button-response","123","665319","0.0-4.0-1.59","74","1","2022-11-13 09:16:23","49aca292d257f58668169b9fbab864ae","36.98.2.153","Mozilla/5.0 (Windows; U; Windows NT 5.2; en-US) AppleWebKit/537.36 (KHTML, like Gecko) Safari/537.36 VivoBrowser/10.8.10.0 Chrome/87.0.4280.141","WebKit","Chrome","87.0.4280.141","Windows","5.2","5851","<p>作为军队的指挥官，你可以选择发射导弹杀死 <strong>4名</strong> 敌国士兵，但会炸毁附近的 <strong>1棵</strong> 敌国树木。</p> <p>树木的照片如下图所示。</p> <p></p> <img src='stimuli/trees/15.png', style='max-width: 30%;'> </img> <p><strong>你是否选择发射武器？</strong></p>","0",""
"","","","","","html-keyboard-response","124","666336","0.0-4.0-0.60","74","1","2022-11-13 09:16:23","49aca292d257f58668169b9fbab864ae","36.98.2.153","Mozilla/5.0 (Windows; U; Windows NT 5.2; en-US) AppleWebKit/537.36 (KHTML, like Gecko) Safari/537.36 VivoBrowser/10.8.10.0 Chrome/87.0.4280.141","WebKit","Chrome","87.0.4280.141","Windows","5.2","null","<div style=""font-size:60px;"">+</div>","null",""
"","","","","","html-button-response","125","667760","0.0-4.0-1.60","74","1","2022-11-13 09:16:23","49aca292d257f58668169b9fbab864ae","36.98.2.153","Mozilla/5.0 (Windows; U; Windows NT 5.2; en-US) AppleWebKit/537.36 (KHTML, like Gecko) Safari/537.36 VivoBrowser/10.8.10.0 Chrome/87.0.4280.141","WebKit","Chrome","87.0.4280.141","Windows","5.2","1403","<p>作为军队的指挥官，你可以选择发射导弹杀死 <strong>8名</strong> 敌国士兵，但会误杀附近的 <strong>1名</strong> 敌国平民。</p> <p>平民照片如下图所示。</p> <p></p> <img src='stimuli/faces/PFM2.jpg', style='max-width: 30%;'> </img> <p><strong>你是否选择发射武器？</strong></p>","1",""
"","","","","","html-keyboard-response","126","668774","0.0-4.0-0.61","74","1","2022-11-13 09:16:23","49aca292d257f58668169b9fbab864ae","36.98.2.153","Mozilla/5.0 (Windows; U; Windows NT 5.2; en-US) AppleWebKit/537.36 (KHTML, like Gecko) Safari/537.36 VivoBrowser/10.8.10.0 Chrome/87.0.4280.141","WebKit","Chrome","87.0.4280.141","Windows","5.2","null","<div style=""font-size:60px;"">+</div>","null",""
"","","","","","html-button-response","127","671182","0.0-4.0-1.61","74","1","2022-11-13 09:16:23","49aca292d257f58668169b9fbab864ae","36.98.2.153","Mozilla/5.0 (Windows; U; Windows NT 5.2; en-US) AppleWebKit/537.36 (KHTML, like Gecko) Safari/537.36 VivoBrowser/10.8.10.0 Chrome/87.0.4280.141","WebKit","Chrome","87.0.4280.141","Windows","5.2","2392","<p>作为军队的指挥官，你可以选择发射导弹杀死 <strong>6名</strong> 敌国士兵，但会炸毁附近的 <strong>1棵</strong> 敌国树木。</p> <p>树木的照片如下图所示。</p> <p></p> <img src='stimuli/trees/8.png', style='max-width: 30%;'> </img> <p><strong>你是否选择发射武器？</strong></p>","0",""
"","","","","","html-keyboard-response","128","672200","0.0-4.0-0.62","74","1","2022-11-13 09:16:23","49aca292d257f58668169b9fbab864ae","36.98.2.153","Mozilla/5.0 (Windows; U; Windows NT 5.2; en-US) AppleWebKit/537.36 (KHTML, like Gecko) Safari/537.36 VivoBrowser/10.8.10.0 Chrome/87.0.4280.141","WebKit","Chrome","87.0.4280.141","Windows","5.2","null","<div style=""font-size:60px;"">+</div>","null",""
"","","","","","html-button-response","129","673627","0.0-4.0-1.62","74","1","2022-11-13 09:16:23","49aca292d257f58668169b9fbab864ae","36.98.2.153","Mozilla/5.0 (Windows; U; Windows NT 5.2; en-US) AppleWebKit/537.36 (KHTML, like Gecko) Safari/537.36 VivoBrowser/10.8.10.0 Chrome/87.0.4280.141","WebKit","Chrome","87.0.4280.141","Windows","5.2","1409","<p>作为军队的指挥官，你可以选择发射导弹杀死 <strong>4名</strong> 敌国士兵，但会误杀附近的 <strong>1名</strong> 敌国平民。</p> <p>平民照片如下图所示。</p> <p></p> <img src='stimuli/faces/PFM1.jpg', style='max-width: 30%;'> </img> <p><strong>你是否选择发射武器？</strong></p>","1",""
"","","","","","html-keyboard-response","130","674643","0.0-4.0-0.63","74","1","2022-11-13 09:16:23","49aca292d257f58668169b9fbab864ae","36.98.2.153","Mozilla/5.0 (Windows; U; Windows NT 5.2; en-US) AppleWebKit/537.36 (KHTML, like Gecko) Safari/537.36 VivoBrowser/10.8.10.0 Chrome/87.0.4280.141","WebKit","Chrome","87.0.4280.141","Windows","5.2","null","<div style=""font-size:60px;"">+</div>","null",""
"","","","","","html-button-response","131","676308","0.0-4.0-1.63","74","1","2022-11-13 09:16:23","49aca292d257f58668169b9fbab864ae","36.98.2.153","Mozilla/5.0 (Windows; U; Windows NT 5.2; en-US) AppleWebKit/537.36 (KHTML, like Gecko) Safari/537.36 VivoBrowser/10.8.10.0 Chrome/87.0.4280.141","WebKit","Chrome","87.0.4280.141","Windows","5.2","1641","<p>作为军队的指挥官，你可以选择发射导弹杀死 <strong>3名</strong> 敌国士兵，但会误杀附近的 <strong>1名</strong> 敌国平民。</p> <p>平民照片如下图所示。</p> <p></p> <img src='stimuli/faces/PFF3.jpg', style='max-width: 30%;'> </img> <p><strong>你是否选择发射武器？</strong></p>","1",""
"","","","","","survey-multi-choice","132","717640","0.0-5.0","74","1","2022-11-13 09:16:23","49aca292d257f58668169b9fbab864ae","36.98.2.153","Mozilla/5.0 (Windows; U; Windows NT 5.2; en-US) AppleWebKit/537.36 (KHTML, like Gecko) Safari/537.36 VivoBrowser/10.8.10.0 Chrome/87.0.4280.141","WebKit","Chrome","87.0.4280.141","Windows","5.2","41304","","{""Attention1"":""""}","[0]"
"","","","","","html-button-response","133","724909","0.0-6.0","74","1","2022-11-13 09:16:23","49aca292d257f58668169b9fbab864ae","36.98.2.153","Mozilla/5.0 (Windows; U; Windows NT 5.2; en-US) AppleWebKit/537.36 (KHTML, like Gecko) Safari/537.36 VivoBrowser/10.8.10.0 Chrome/87.0.4280.141","WebKit","Chrome","87.0.4280.141","Windows","5.2","7252","<p style=""font-size:20px;font-weight:bold;"">恭喜！</p><p>你已经完成了实验的第一部分。</p><p>请休息放松一下，然后进入第二部分。</p><p>这部分大约需要10分钟。</p>","0",""
"","","","","","survey-text","134","775884","0.0-7.0","74","1","2022-11-13 09:16:23","49aca292d257f58668169b9fbab864ae","36.98.2.153","Mozilla/5.0 (Windows; U; Windows NT 5.2; en-US) AppleWebKit/537.36 (KHTML, like Gecko) Safari/537.36 VivoBrowser/10.8.10.0 Chrome/87.0.4280.141","WebKit","Chrome","87.0.4280.141","Windows","5.2","49921","","{""Age"":""20"",""Nation"":""中国"",""Born"":""河北省沧州市"",""Live"":""河北省沧州市"",""Ethnic"":""汉族"",""Alipay"":""18832703375""}",""
"","","","","","survey-multi-choice","135","819048","0.0-8.0","74","1","2022-11-13 09:16:23","49aca292d257f58668169b9fbab864ae","36.98.2.153","Mozilla/5.0 (Windows; U; Windows NT 5.2; en-US) AppleWebKit/537.36 (KHTML, like Gecko) Safari/537.36 VivoBrowser/10.8.10.0 Chrome/87.0.4280.141","WebKit","Chrome","87.0.4280.141","Windows","5.2","43145","","{""Gender"":""男"",""Education"":""本科毕业"",""Income"":""￥0-￥34,999"",""Children"":""0"",""Race"":""亚洲人""}","[0,1,2,3,4]"
"","","","","","survey-multi-select","136","838927","0.0-9.0","74","1","2022-11-13 09:16:23","49aca292d257f58668169b9fbab864ae","36.98.2.153","Mozilla/5.0 (Windows; U; Windows NT 5.2; en-US) AppleWebKit/537.36 (KHTML, like Gecko) Safari/537.36 VivoBrowser/10.8.10.0 Chrome/87.0.4280.141","WebKit","Chrome","87.0.4280.141","Windows","5.2","19853","","{""Marriage"":[""未婚""],""Religion"":[""无宗教信仰""]}","[0,1]"
"","","","","","survey-multi-choice","137","899379","0.0-10.0","74","1","2022-11-13 09:16:23","49aca292d257f58668169b9fbab864ae","36.98.2.153","Mozilla/5.0 (Windows; U; Windows NT 5.2; en-US) AppleWebKit/537.36 (KHTML, like Gecko) Safari/537.36 VivoBrowser/10.8.10.0 Chrome/87.0.4280.141","WebKit","Chrome","87.0.4280.141","Windows","5.2","60433","","{""SES"":""3""}","[0]"
"","","","","","html-button-response","138","912678","0.0-11.0","74","1","2022-11-13 09:16:23","49aca292d257f58668169b9fbab864ae","36.98.2.153","Mozilla/5.0 (Windows; U; Windows NT 5.2; en-US) AppleWebKit/537.36 (KHTML, like Gecko) Safari/537.36 VivoBrowser/10.8.10.0 Chrome/87.0.4280.141","WebKit","Chrome","87.0.4280.141","Windows","5.2","13281","<p><strong>请判断下列陈述在多大程度上可以形容你？</p><p> (1 = ""和我一点都不像"" to 5 = ""非常像我"".)</strong></p>","0",""
"","","","","","survey-likert","139","958873","0.0-12.0","74","1","2022-11-13 09:16:23","49aca292d257f58668169b9fbab864ae","36.98.2.153","Mozilla/5.0 (Windows; U; Windows NT 5.2; en-US) AppleWebKit/537.36 (KHTML, like Gecko) Safari/537.36 VivoBrowser/10.8.10.0 Chrome/87.0.4280.141","WebKit","Chrome","87.0.4280.141","Windows","5.2","46170","","{""Aggression1"":2,""Aggression2"":3,""Aggression3"":4,""Aggression4"":1,""Aggression5"":4,""Aggression6"":4,""Aggression7"":2,""Aggression8"":1,""Aggression9"":0}","[0,1,2,3,4,5,6,7,8]"
"","","","","","html-button-response","140","963796","0.0-13.0","74","1","2022-11-13 09:16:23","49aca292d257f58668169b9fbab864ae","36.98.2.153","Mozilla/5.0 (Windows; U; Windows NT 5.2; en-US) AppleWebKit/537.36 (KHTML, like Gecko) Safari/537.36 VivoBrowser/10.8.10.0 Chrome/87.0.4280.141","WebKit","Chrome","87.0.4280.141","Windows","5.2","4907","<p><strong>请判断你在多大程度上同意下列陈述。</strong></p>","0",""
"","","","","","survey-likert","141","1156201","0.0-14.0","74","1","2022-11-13 09:16:23","49aca292d257f58668169b9fbab864ae","36.98.2.153","Mozilla/5.0 (Windows; U; Windows NT 5.2; en-US) AppleWebKit/537.36 (KHTML, like Gecko) Safari/537.36 VivoBrowser/10.8.10.0 Chrome/87.0.4280.141","WebKit","Chrome","87.0.4280.141","Windows","5.2","192362","","{""scale14"":2,""scale15"":1,""scale12"":1,""scale1"":0,""scale4"":0,""scale20"":3,""scale19"":2,""scale26"":2,""scale11"":2,""scale7"":1,""scale13"":0,""scale27"":2,""scale18"":0,""scale8"":1,""scale21"":2,""scale6"":4,""scale9"":4,""scale10"":4,""scale5"":4,""scale23"":4,""scale16"":4,""scale28"":3,""scale24"":2,""scale17"":3,""scale25"":2,""scale22"":2,""scale2"":4,""scale3"":4}","[13,14,11,0,3,19,18,25,10,6,12,26,17,7,20,5,8,9,4,22,15,27,23,16,24,21,1,2]"
"","","","","","html-button-response","142","1158748","0.0-15.0","74","1","2022-11-13 09:16:23","49aca292d257f58668169b9fbab864ae","36.98.2.153","Mozilla/5.0 (Windows; U; Windows NT 5.2; en-US) AppleWebKit/537.36 (KHTML, like Gecko) Safari/537.36 VivoBrowser/10.8.10.0 Chrome/87.0.4280.141","WebKit","Chrome","87.0.4280.141","Windows","5.2","2536","<p><strong>请判断你在多大程度上同意下列陈述。</strong></p>","0",""
"","","","","","survey-likert","143","1302548","0.0-16.0","74","1","2022-11-13 09:16:23","49aca292d257f58668169b9fbab864ae","36.98.2.153","Mozilla/5.0 (Windows; U; Windows NT 5.2; en-US) AppleWebKit/537.36 (KHTML, like Gecko) Safari/537.36 VivoBrowser/10.8.10.0 Chrome/87.0.4280.141","WebKit","Chrome","87.0.4280.141","Windows","5.2","143765","","{""sdo9"":5,""sdo7"":1,""sdo12"":4,""sdo14"":3,""sdo2"":0,""sdo11"":6,""sdo15"":6,""sdo1"":0,""sdo4"":2,""sdo5"":3,""sdo10"":1,""sdo8"":0,""sdo6"":4,""sdo13"":6,""sdo3"":3,""sdo16"":6}","[8,6,11,13,1,10,14,0,3,4,9,7,5,12,2,15]"
"","","","","","html-button-response","144","1304572","0.0-17.0","74","1","2022-11-13 09:16:23","49aca292d257f58668169b9fbab864ae","36.98.2.153","Mozilla/5.0 (Windows; U; Windows NT 5.2; en-US) AppleWebKit/537.36 (KHTML, like Gecko) Safari/537.36 VivoBrowser/10.8.10.0 Chrome/87.0.4280.141","WebKit","Chrome","87.0.4280.141","Windows","5.2","2010","<p><strong>请判断你在多大程度上同意下列陈述。</strong></p>","0",""
"","","","","","survey-likert","145","1360305","0.0-18.0","74","1","2022-11-13 09:16:23","49aca292d257f58668169b9fbab864ae","36.98.2.153","Mozilla/5.0 (Windows; U; Windows NT 5.2; en-US) AppleWebKit/537.36 (KHTML, like Gecko) Safari/537.36 VivoBrowser/10.8.10.0 Chrome/87.0.4280.141","WebKit","Chrome","87.0.4280.141","Windows","5.2","55699","","{""caring1"":2,""liking1"":3,""caring2"":4,""protection1"":4,""liking2"":1,""caring3"":3,""protection2"":2,""liking3"":2,""protection3"":4,""caring4"":4,""liking4"":1,""protection4"":2,""caring5"":3,""liking5"":2,""protection5"":4}","[0,1,2,3,4,5,6,7,8,9,10,11,12,13,14]"
"","","","","","html-button-response","146","1361822","0.0-19.0","74","1","2022-11-13 09:16:23","49aca292d257f58668169b9fbab864ae","36.98.2.153","Mozilla/5.0 (Windows; U; Windows NT 5.2; en-US) AppleWebKit/537.36 (KHTML, like Gecko) Safari/537.36 VivoBrowser/10.8.10.0 Chrome/87.0.4280.141","WebKit","Chrome","87.0.4280.141","Windows","5.2","1499","<p><strong>请判断下列场景中你的内心感受有多柔软。</strong></p>","0",""
"","","","","","survey-likert","147","1399336","0.0-20.0","74","1","2022-11-13 09:16:23","49aca292d257f58668169b9fbab864ae","36.98.2.153","Mozilla/5.0 (Windows; U; Windows NT 5.2; en-US) AppleWebKit/537.36 (KHTML, like Gecko) Safari/537.36 VivoBrowser/10.8.10.0 Chrome/87.0.4280.141","WebKit","Chrome","87.0.4280.141","Windows","5.2","37490","","{""tenderness-positive1"":4,""tenderness-negative1"":3,""tenderness-negative2"":4,""tenderness-positive2"":3,""tenderness-positive3"":3,""tenderness-negative3"":3,""tenderness-positive4"":4,""tenderness-negative4"":4,""tenderness-negative5"":3,""tenderness-positive5"":4}","[0,1,2,3,4,5,6,7,8,9]"
"","","","","","survey-multi-choice","148","1435174","0.0-21.0","74","1","2022-11-13 09:16:23","49aca292d257f58668169b9fbab864ae","36.98.2.153","Mozilla/5.0 (Windows; U; Windows NT 5.2; en-US) AppleWebKit/537.36 (KHTML, like Gecko) Safari/537.36 VivoBrowser/10.8.10.0 Chrome/87.0.4280.141","WebKit","Chrome","87.0.4280.141","Windows","5.2","35828","","{""Attention2"":""其他""}","[0]"
"","","","","","html-button-response","149","1436692","0.0-22.0","74","1","2022-11-13 09:16:23","49aca292d257f58668169b9fbab864ae","36.98.2.153","Mozilla/5.0 (Windows; U; Windows NT 5.2; en-US) AppleWebKit/537.36 (KHTML, like Gecko) Safari/537.36 VivoBrowser/10.8.10.0 Chrome/87.0.4280.141","WebKit","Chrome","87.0.4280.141","Windows","5.2","1492","<p><strong>请判断你在多大程度上同意下列陈述。</strong></p>","0",""
"","","","","","survey-likert","150","1539722","0.0-23.0","74","1","2022-11-13 09:16:23","49aca292d257f58668169b9fbab864ae","36.98.2.153","Mozilla/5.0 (Windows; U; Windows NT 5.2; en-US) AppleWebKit/537.36 (KHTML, like Gecko) Safari/537.36 VivoBrowser/10.8.10.0 Chrome/87.0.4280.141","WebKit","Chrome","87.0.4280.141","Windows","5.2","102997","","{""Patri2"":4,""Nation4"":2,""Patri11"":1,""Nation3"":3,""Patri10"":0,""Patri7"":4,""Patri9"":0,""Patri12"":1,""Patri4"":4,""Nation5"":2,""Nation6"":4,""Patri6"":0,""Patri1"":4,""Patri5"":4,""Nation1"":1,""Patri3"":4,""Nation8"":1,""Patri8"":4,""Nation2"":4,""Nation7"":4}","[1,15,10,14,9,6,8,11,3,16,17,5,0,4,12,2,19,7,13,18]"
"","","","","","html-button-response","151","1541710","0.0-24.0","74","1","2022-11-13 09:16:23","49aca292d257f58668169b9fbab864ae","36.98.2.153","Mozilla/5.0 (Windows; U; Windows NT 5.2; en-US) AppleWebKit/537.36 (KHTML, like Gecko) Safari/537.36 VivoBrowser/10.8.10.0 Chrome/87.0.4280.141","WebKit","Chrome","87.0.4280.141","Windows","5.2","1978","<p><strong>请判断你在多大程度上同意下列陈述。</strong></p>","0",""
"","","","","","survey-likert","152","1613722","0.0-25.0","74","1","2022-11-13 09:16:23","49aca292d257f58668169b9fbab864ae","36.98.2.153","Mozilla/5.0 (Windows; U; Windows NT 5.2; en-US) AppleWebKit/537.36 (KHTML, like Gecko) Safari/537.36 VivoBrowser/10.8.10.0 Chrome/87.0.4280.141","WebKit","Chrome","87.0.4280.141","Windows","5.2","71967","","{""hi3"":6,""hi1"":2,""hi2"":7,""vc1"":6,""hc3"":7,""vi4"":6,""hi4"":7,""hc1"":6,""vi2"":1,""vc4"":5,""hc4"":7,""hc2"":7,""Robot"":6,""vi3"":8,""vc3"":8,""vi1"":5,""vc2"":8}","[2,0,1,13,11,8,3,9,5,16,12,10,7,6,15,4,14]"
"","","","","","survey-text","153","1729365","0.0-26.0","74","1","2022-11-13 09:16:23","49aca292d257f58668169b9fbab864ae","36.98.2.153","Mozilla/5.0 (Windows; U; Windows NT 5.2; en-US) AppleWebKit/537.36 (KHTML, like Gecko) Safari/537.36 VivoBrowser/10.8.10.0 Chrome/87.0.4280.141","WebKit","Chrome","87.0.4280.141","Windows","5.2","115625","","{""Comments"":""问题五花八门，不知道这么问有什么目的""}",""
"","","","","","html-button-response","154","1735924","0.0-27.0","74","1","2022-11-13 09:16:23","49aca292d257f58668169b9fbab864ae","36.98.2.153","Mozilla/5.0 (Windows; U; Windows NT 5.2; en-US) AppleWebKit/537.36 (KHTML, like Gecko) Safari/537.36 VivoBrowser/10.8.10.0 Chrome/87.0.4280.141","WebKit","Chrome","87.0.4280.141","Windows","5.2","6527","<strong><p>恭喜你完成了实验！</p><p>感谢您的参与。</p></strong>","0",""
