"success","timeout","failed_images","failed_audio","failed_video","trial_type","trial_index","time_elapsed","internal_node_id","run_id","condition","recorded_at","source_code_version","ip","user_agent","device","browser","browser_version","platform","platform_version","rt","stimulus","response","question_order"
"true","false","[]","[]","[]","preload","0","3525","0.0-0.0","82","1","2022-11-13 09:23:20","49aca292d257f58668169b9fbab864ae","58.19.73.168","Mozilla/5.0 (iPhone; CPU iPhone OS 16_0 like Mac OS X) AppleWebKit/605.1.15 (KHTML, like Gecko) Version/16.0 Mobile/15E148 Safari/604.1","iPhone","Safari","16.0","iOS","16_0","","","",""
"true","","","","","fullscreen","1","7118","0.0-1.0","82","1","2022-11-13 09:23:20","49aca292d257f58668169b9fbab864ae","58.19.73.168","Mozilla/5.0 (iPhone; CPU iPhone OS 16_0 like Mac OS X) AppleWebKit/605.1.15 (KHTML, like Gecko) Version/16.0 Mobile/15E148 Safari/604.1","iPhone","Safari","16.0","iOS","16_0","","","",""
"","","","","","html-button-response","2","20231","0.0-2.0","82","1","2022-11-13 09:23:20","49aca292d257f58668169b9fbab864ae","58.19.73.168","Mozilla/5.0 (iPhone; CPU iPhone OS 16_0 like Mac OS X) AppleWebKit/605.1.15 (KHTML, like Gecko) Version/16.0 Mobile/15E148 Safari/604.1","iPhone","Safari","16.0","iOS","16_0","13111","<p style=""font-size:20px;font-weight:bold;"">实验知情同意书</p><p style=""text-align:left;""><strong>实验名称：</strong>社会冲突研究</p><p style=""text-align:left;""><strong>主要研究者：</strong>韩晓春副教授（北京师范大学心理学部）</p><p style=""text-align:left;""><strong>联系方式：</strong>发送邮件至xiaochun.han@bnu.edu.cn</p><p style=""text-align:left;""><strong>研究目的：</strong>研究旨在了解人类面对群体冲突时的决策方式，以及相关的心理学特质。实验调查大约需要20分钟。</p><p style=""text-align:left;""><strong>实验流程：</strong>实验包含两部分。第一部分呈现一系列群体冲突场景，请你决定如何对这些冲突进行反应，大约需要10分钟完成。第二部分包含一系列人口统计学信息收集和心理学问卷，大约需要10分钟完成。</p><p style=""text-align:left;""><strong>参加及退出规则：</strong>参加本实验完全取决于您的个人意愿。在参与过程中，您可以随时退出，并且不用承担任何后果。</p><p style=""text-align:left;""><strong>隐私：</strong>本实验完全匿名进行，不会收集您的姓名或其他能够识别您身份的信息。实验中收集的作答仅用作科学研究使用，可能会在学术期刊/书籍上发表，或者用于教学，您的数据未来可能会和其他研究者或实验室分享，但您的个人身份不会被识别。</p><p style=""text-align:left;""><strong>实验报酬：</strong>实验完成后，您将获得15元人民币报酬，以感谢您的时间和努力。调查问卷中包含几道题目用以测验您作答时的认真度。只有完成全部实验，并且正确回答认真度测验的被试才能获得实验报酬。实验报酬将通过支付宝转账发放。</p><p style=""text-align:left;font-size:20px;""><strong>如果您同意以上实验知情同意书的内容，请点击'同意并且开始实验'按钮；否则请关闭浏览器界面，退出实验。</strong></p>","0",""
"","","","","","html-button-response","3","33981","0.0-3.0","82","1","2022-11-13 09:23:20","49aca292d257f58668169b9fbab864ae","58.19.73.168","Mozilla/5.0 (iPhone; CPU iPhone OS 16_0 like Mac OS X) AppleWebKit/605.1.15 (KHTML, like Gecko) Version/16.0 Mobile/15E148 Safari/604.1","iPhone","Safari","16.0","iOS","16_0","13745","<p ><strong>实验任务一：</strong></p><p>请想象你的国家与另一个国家发生了军事冲突。</p><p>你是国家军队的指挥官，你将如何在冲突中进行决策。</p><p>具体来说，作为军队指挥官，请你决定是否发射导弹进行打击。</p><p>接下来，你会面对一系列场景，请仔细阅读每个场景，然后进行决策。</p><p>这部分实验任务大约需要10分钟。</p><p><strong>实验过程中，请集中注意力。</strong></p>","0",""
"","","","","","html-keyboard-response","4","34987","0.0-4.0-0.0","82","1","2022-11-13 09:23:20","49aca292d257f58668169b9fbab864ae","58.19.73.168","Mozilla/5.0 (iPhone; CPU iPhone OS 16_0 like Mac OS X) AppleWebKit/605.1.15 (KHTML, like Gecko) Version/16.0 Mobile/15E148 Safari/604.1","iPhone","Safari","16.0","iOS","16_0","null","<div style=""font-size:60px;"">+</div>","null",""
"","","","","","html-button-response","5","48586","0.0-4.0-1.0","82","1","2022-11-13 09:23:20","49aca292d257f58668169b9fbab864ae","58.19.73.168","Mozilla/5.0 (iPhone; CPU iPhone OS 16_0 like Mac OS X) AppleWebKit/605.1.15 (KHTML, like Gecko) Version/16.0 Mobile/15E148 Safari/604.1","iPhone","Safari","16.0","iOS","16_0","13592","<p>作为军队的指挥官，你可以选择发射导弹杀死 <strong>8名</strong> 敌国士兵，但会误杀附近的 <strong>1名</strong> 敌国平民。</p> <p>平民照片如下图所示。</p> <p></p> <img src='stimuli/faces/PFM7.jpg', style='max-width: 30%;'> </img> <p><strong>你是否选择发射武器？</strong></p>","1",""
"","","","","","html-keyboard-response","6","49590","0.0-4.0-0.1","82","1","2022-11-13 09:23:20","49aca292d257f58668169b9fbab864ae","58.19.73.168","Mozilla/5.0 (iPhone; CPU iPhone OS 16_0 like Mac OS X) AppleWebKit/605.1.15 (KHTML, like Gecko) Version/16.0 Mobile/15E148 Safari/604.1","iPhone","Safari","16.0","iOS","16_0","null","<div style=""font-size:60px;"">+</div>","null",""
"","","","","","html-button-response","7","52784","0.0-4.0-1.1","82","1","2022-11-13 09:23:20","49aca292d257f58668169b9fbab864ae","58.19.73.168","Mozilla/5.0 (iPhone; CPU iPhone OS 16_0 like Mac OS X) AppleWebKit/605.1.15 (KHTML, like Gecko) Version/16.0 Mobile/15E148 Safari/604.1","iPhone","Safari","16.0","iOS","16_0","3190","<p>作为军队的指挥官，你可以选择发射导弹杀死 <strong>4名</strong> 敌国士兵，但会炸毁附近的 <strong>1棵</strong> 敌国树木。</p> <p>树木的照片如下图所示。</p> <p></p> <img src='stimuli/trees/13.png', style='max-width: 30%;'> </img> <p><strong>你是否选择发射武器？</strong></p>","0",""
"","","","","","html-keyboard-response","8","53788","0.0-4.0-0.2","82","1","2022-11-13 09:23:20","49aca292d257f58668169b9fbab864ae","58.19.73.168","Mozilla/5.0 (iPhone; CPU iPhone OS 16_0 like Mac OS X) AppleWebKit/605.1.15 (KHTML, like Gecko) Version/16.0 Mobile/15E148 Safari/604.1","iPhone","Safari","16.0","iOS","16_0","null","<div style=""font-size:60px;"">+</div>","null",""
"","","","","","html-button-response","9","56867","0.0-4.0-1.2","82","1","2022-11-13 09:23:20","49aca292d257f58668169b9fbab864ae","58.19.73.168","Mozilla/5.0 (iPhone; CPU iPhone OS 16_0 like Mac OS X) AppleWebKit/605.1.15 (KHTML, like Gecko) Version/16.0 Mobile/15E148 Safari/604.1","iPhone","Safari","16.0","iOS","16_0","3075","<p>作为军队的指挥官，你可以选择发射导弹杀死 <strong>1名</strong> 敌国士兵，但会炸毁附近的 <strong>1棵</strong> 敌国树木。</p> <p>树木的照片如下图所示。</p> <p></p> <img src='stimuli/trees/1.png', style='max-width: 30%;'> </img> <p><strong>你是否选择发射武器？</strong></p>","0",""
"","","","","","html-keyboard-response","10","57871","0.0-4.0-0.3","82","1","2022-11-13 09:23:20","49aca292d257f58668169b9fbab864ae","58.19.73.168","Mozilla/5.0 (iPhone; CPU iPhone OS 16_0 like Mac OS X) AppleWebKit/605.1.15 (KHTML, like Gecko) Version/16.0 Mobile/15E148 Safari/604.1","iPhone","Safari","16.0","iOS","16_0","null","<div style=""font-size:60px;"">+</div>","null",""
"","","","","","html-button-response","11","64010","0.0-4.0-1.3","82","1","2022-11-13 09:23:20","49aca292d257f58668169b9fbab864ae","58.19.73.168","Mozilla/5.0 (iPhone; CPU iPhone OS 16_0 like Mac OS X) AppleWebKit/605.1.15 (KHTML, like Gecko) Version/16.0 Mobile/15E148 Safari/604.1","iPhone","Safari","16.0","iOS","16_0","6136","<p>作为军队的指挥官，你可以选择发射导弹杀死 <strong>2名</strong> 敌国士兵，但会炸毁附近的 <strong>1棵</strong> 敌国树木。</p> <p>树木的照片如下图所示。</p> <p></p> <img src='stimuli/trees/9.png', style='max-width: 30%;'> </img> <p><strong>你是否选择发射武器？</strong></p>","0",""
"","","","","","html-keyboard-response","12","65014","0.0-4.0-0.4","82","1","2022-11-13 09:23:20","49aca292d257f58668169b9fbab864ae","58.19.73.168","Mozilla/5.0 (iPhone; CPU iPhone OS 16_0 like Mac OS X) AppleWebKit/605.1.15 (KHTML, like Gecko) Version/16.0 Mobile/15E148 Safari/604.1","iPhone","Safari","16.0","iOS","16_0","null","<div style=""font-size:60px;"">+</div>","null",""
"","","","","","html-button-response","13","67857","0.0-4.0-1.4","82","1","2022-11-13 09:23:20","49aca292d257f58668169b9fbab864ae","58.19.73.168","Mozilla/5.0 (iPhone; CPU iPhone OS 16_0 like Mac OS X) AppleWebKit/605.1.15 (KHTML, like Gecko) Version/16.0 Mobile/15E148 Safari/604.1","iPhone","Safari","16.0","iOS","16_0","2838","<p>作为军队的指挥官，你可以选择发射导弹杀死 <strong>6名</strong> 敌国士兵，但会误杀附近的 <strong>1名</strong> 敌国平民。</p> <p>平民照片如下图所示。</p> <p></p> <img src='stimuli/faces/PFF6.jpg', style='max-width: 30%;'> </img> <p><strong>你是否选择发射武器？</strong></p>","1",""
"","","","","","html-keyboard-response","14","68862","0.0-4.0-0.5","82","1","2022-11-13 09:23:20","49aca292d257f58668169b9fbab864ae","58.19.73.168","Mozilla/5.0 (iPhone; CPU iPhone OS 16_0 like Mac OS X) AppleWebKit/605.1.15 (KHTML, like Gecko) Version/16.0 Mobile/15E148 Safari/604.1","iPhone","Safari","16.0","iOS","16_0","null","<div style=""font-size:60px;"">+</div>","null",""
"","","","","","html-button-response","15","71938","0.0-4.0-1.5","82","1","2022-11-13 09:23:20","49aca292d257f58668169b9fbab864ae","58.19.73.168","Mozilla/5.0 (iPhone; CPU iPhone OS 16_0 like Mac OS X) AppleWebKit/605.1.15 (KHTML, like Gecko) Version/16.0 Mobile/15E148 Safari/604.1","iPhone","Safari","16.0","iOS","16_0","3072","<p>作为军队的指挥官，你可以选择发射导弹杀死 <strong>8名</strong> 敌国士兵，但会误杀附近的 <strong>1名</strong> 敌国平民。</p> <p>平民照片如下图所示。</p> <p></p> <img src='stimuli/faces/PFM4.jpg', style='max-width: 30%;'> </img> <p><strong>你是否选择发射武器？</strong></p>","1",""
"","","","","","html-keyboard-response","16","72942","0.0-4.0-0.6","82","1","2022-11-13 09:23:20","49aca292d257f58668169b9fbab864ae","58.19.73.168","Mozilla/5.0 (iPhone; CPU iPhone OS 16_0 like Mac OS X) AppleWebKit/605.1.15 (KHTML, like Gecko) Version/16.0 Mobile/15E148 Safari/604.1","iPhone","Safari","16.0","iOS","16_0","null","<div style=""font-size:60px;"">+</div>","null",""
"","","","","","html-button-response","17","74130","0.0-4.0-1.6","82","1","2022-11-13 09:23:20","49aca292d257f58668169b9fbab864ae","58.19.73.168","Mozilla/5.0 (iPhone; CPU iPhone OS 16_0 like Mac OS X) AppleWebKit/605.1.15 (KHTML, like Gecko) Version/16.0 Mobile/15E148 Safari/604.1","iPhone","Safari","16.0","iOS","16_0","1182","<p>作为军队的指挥官，你可以选择发射导弹杀死 <strong>6名</strong> 敌国士兵，但会误杀附近的 <strong>1名</strong> 敌国平民。</p> <p>平民照片如下图所示。</p> <p></p> <img src='stimuli/faces/PFM3.jpg', style='max-width: 30%;'> </img> <p><strong>你是否选择发射武器？</strong></p>","1",""
"","","","","","html-keyboard-response","18","75134","0.0-4.0-0.7","82","1","2022-11-13 09:23:20","49aca292d257f58668169b9fbab864ae","58.19.73.168","Mozilla/5.0 (iPhone; CPU iPhone OS 16_0 like Mac OS X) AppleWebKit/605.1.15 (KHTML, like Gecko) Version/16.0 Mobile/15E148 Safari/604.1","iPhone","Safari","16.0","iOS","16_0","null","<div style=""font-size:60px;"">+</div>","null",""
"","","","","","html-button-response","19","77258","0.0-4.0-1.7","82","1","2022-11-13 09:23:20","49aca292d257f58668169b9fbab864ae","58.19.73.168","Mozilla/5.0 (iPhone; CPU iPhone OS 16_0 like Mac OS X) AppleWebKit/605.1.15 (KHTML, like Gecko) Version/16.0 Mobile/15E148 Safari/604.1","iPhone","Safari","16.0","iOS","16_0","2119","<p>作为军队的指挥官，你可以选择发射导弹杀死 <strong>2名</strong> 敌国士兵，但会误杀附近的 <strong>1名</strong> 敌国平民。</p> <p>平民照片如下图所示。</p> <p></p> <img src='stimuli/faces/PFM1.jpg', style='max-width: 30%;'> </img> <p><strong>你是否选择发射武器？</strong></p>","1",""
"","","","","","html-keyboard-response","20","78271","0.0-4.0-0.8","82","1","2022-11-13 09:23:20","49aca292d257f58668169b9fbab864ae","58.19.73.168","Mozilla/5.0 (iPhone; CPU iPhone OS 16_0 like Mac OS X) AppleWebKit/605.1.15 (KHTML, like Gecko) Version/16.0 Mobile/15E148 Safari/604.1","iPhone","Safari","16.0","iOS","16_0","null","<div style=""font-size:60px;"">+</div>","null",""
"","","","","","html-button-response","21","79550","0.0-4.0-1.8","82","1","2022-11-13 09:23:20","49aca292d257f58668169b9fbab864ae","58.19.73.168","Mozilla/5.0 (iPhone; CPU iPhone OS 16_0 like Mac OS X) AppleWebKit/605.1.15 (KHTML, like Gecko) Version/16.0 Mobile/15E148 Safari/604.1","iPhone","Safari","16.0","iOS","16_0","1272","<p>作为军队的指挥官，你可以选择发射导弹杀死 <strong>6名</strong> 敌国士兵，但会误杀附近的 <strong>1名</strong> 敌国平民。</p> <p>平民照片如下图所示。</p> <p></p> <img src='stimuli/faces/PFF1.jpg', style='max-width: 30%;'> </img> <p><strong>你是否选择发射武器？</strong></p>","1",""
"","","","","","html-keyboard-response","22","80555","0.0-4.0-0.9","82","1","2022-11-13 09:23:20","49aca292d257f58668169b9fbab864ae","58.19.73.168","Mozilla/5.0 (iPhone; CPU iPhone OS 16_0 like Mac OS X) AppleWebKit/605.1.15 (KHTML, like Gecko) Version/16.0 Mobile/15E148 Safari/604.1","iPhone","Safari","16.0","iOS","16_0","null","<div style=""font-size:60px;"">+</div>","null",""
"","","","","","html-button-response","23","81808","0.0-4.0-1.9","82","1","2022-11-13 09:23:20","49aca292d257f58668169b9fbab864ae","58.19.73.168","Mozilla/5.0 (iPhone; CPU iPhone OS 16_0 like Mac OS X) AppleWebKit/605.1.15 (KHTML, like Gecko) Version/16.0 Mobile/15E148 Safari/604.1","iPhone","Safari","16.0","iOS","16_0","1248","<p>作为军队的指挥官，你可以选择发射导弹杀死 <strong>10名</strong> 敌国士兵，但会炸毁附近的 <strong>1棵</strong> 敌国树木。</p> <p>树木的照片如下图所示。</p> <p></p> <img src='stimuli/trees/8.png', style='max-width: 30%;'> </img> <p><strong>你是否选择发射武器？</strong></p>","0",""
"","","","","","html-keyboard-response","24","82812","0.0-4.0-0.10","82","1","2022-11-13 09:23:20","49aca292d257f58668169b9fbab864ae","58.19.73.168","Mozilla/5.0 (iPhone; CPU iPhone OS 16_0 like Mac OS X) AppleWebKit/605.1.15 (KHTML, like Gecko) Version/16.0 Mobile/15E148 Safari/604.1","iPhone","Safari","16.0","iOS","16_0","null","<div style=""font-size:60px;"">+</div>","null",""
"","","","","","html-button-response","25","84284","0.0-4.0-1.10","82","1","2022-11-13 09:23:20","49aca292d257f58668169b9fbab864ae","58.19.73.168","Mozilla/5.0 (iPhone; CPU iPhone OS 16_0 like Mac OS X) AppleWebKit/605.1.15 (KHTML, like Gecko) Version/16.0 Mobile/15E148 Safari/604.1","iPhone","Safari","16.0","iOS","16_0","1467","<p>作为军队的指挥官，你可以选择发射导弹杀死 <strong>2名</strong> 敌国士兵，但会误杀附近的 <strong>1名</strong> 敌国平民。</p> <p>平民照片如下图所示。</p> <p></p> <img src='stimuli/faces/PFM8.jpg', style='max-width: 30%;'> </img> <p><strong>你是否选择发射武器？</strong></p>","1",""
"","","","","","html-keyboard-response","26","85288","0.0-4.0-0.11","82","1","2022-11-13 09:23:20","49aca292d257f58668169b9fbab864ae","58.19.73.168","Mozilla/5.0 (iPhone; CPU iPhone OS 16_0 like Mac OS X) AppleWebKit/605.1.15 (KHTML, like Gecko) Version/16.0 Mobile/15E148 Safari/604.1","iPhone","Safari","16.0","iOS","16_0","null","<div style=""font-size:60px;"">+</div>","null",""
"","","","","","html-button-response","27","86726","0.0-4.0-1.11","82","1","2022-11-13 09:23:20","49aca292d257f58668169b9fbab864ae","58.19.73.168","Mozilla/5.0 (iPhone; CPU iPhone OS 16_0 like Mac OS X) AppleWebKit/605.1.15 (KHTML, like Gecko) Version/16.0 Mobile/15E148 Safari/604.1","iPhone","Safari","16.0","iOS","16_0","1432","<p>作为军队的指挥官，你可以选择发射导弹杀死 <strong>4名</strong> 敌国士兵，但会误杀附近的 <strong>1名</strong> 敌国平民。</p> <p>平民照片如下图所示。</p> <p></p> <img src='stimuli/faces/PFF3.jpg', style='max-width: 30%;'> </img> <p><strong>你是否选择发射武器？</strong></p>","1",""
"","","","","","html-keyboard-response","28","87730","0.0-4.0-0.12","82","1","2022-11-13 09:23:20","49aca292d257f58668169b9fbab864ae","58.19.73.168","Mozilla/5.0 (iPhone; CPU iPhone OS 16_0 like Mac OS X) AppleWebKit/605.1.15 (KHTML, like Gecko) Version/16.0 Mobile/15E148 Safari/604.1","iPhone","Safari","16.0","iOS","16_0","null","<div style=""font-size:60px;"">+</div>","null",""
"","","","","","html-button-response","29","88951","0.0-4.0-1.12","82","1","2022-11-13 09:23:20","49aca292d257f58668169b9fbab864ae","58.19.73.168","Mozilla/5.0 (iPhone; CPU iPhone OS 16_0 like Mac OS X) AppleWebKit/605.1.15 (KHTML, like Gecko) Version/16.0 Mobile/15E148 Safari/604.1","iPhone","Safari","16.0","iOS","16_0","1214","<p>作为军队的指挥官，你可以选择发射导弹杀死 <strong>7名</strong> 敌国士兵，但会误杀附近的 <strong>1名</strong> 敌国平民。</p> <p>平民照片如下图所示。</p> <p></p> <img src='stimuli/faces/PFM8.jpg', style='max-width: 30%;'> </img> <p><strong>你是否选择发射武器？</strong></p>","1",""
"","","","","","html-keyboard-response","30","89955","0.0-4.0-0.13","82","1","2022-11-13 09:23:20","49aca292d257f58668169b9fbab864ae","58.19.73.168","Mozilla/5.0 (iPhone; CPU iPhone OS 16_0 like Mac OS X) AppleWebKit/605.1.15 (KHTML, like Gecko) Version/16.0 Mobile/15E148 Safari/604.1","iPhone","Safari","16.0","iOS","16_0","null","<div style=""font-size:60px;"">+</div>","null",""
"","","","","","html-button-response","31","92010","0.0-4.0-1.13","82","1","2022-11-13 09:23:20","49aca292d257f58668169b9fbab864ae","58.19.73.168","Mozilla/5.0 (iPhone; CPU iPhone OS 16_0 like Mac OS X) AppleWebKit/605.1.15 (KHTML, like Gecko) Version/16.0 Mobile/15E148 Safari/604.1","iPhone","Safari","16.0","iOS","16_0","2050","<p>作为军队的指挥官，你可以选择发射导弹杀死 <strong>7名</strong> 敌国士兵，但会误杀附近的 <strong>1名</strong> 敌国平民。</p> <p>平民照片如下图所示。</p> <p></p> <img src='stimuli/faces/PFF2.jpg', style='max-width: 30%;'> </img> <p><strong>你是否选择发射武器？</strong></p>","1",""
"","","","","","html-keyboard-response","32","93014","0.0-4.0-0.14","82","1","2022-11-13 09:23:20","49aca292d257f58668169b9fbab864ae","58.19.73.168","Mozilla/5.0 (iPhone; CPU iPhone OS 16_0 like Mac OS X) AppleWebKit/605.1.15 (KHTML, like Gecko) Version/16.0 Mobile/15E148 Safari/604.1","iPhone","Safari","16.0","iOS","16_0","null","<div style=""font-size:60px;"">+</div>","null",""
"","","","","","html-button-response","33","94469","0.0-4.0-1.14","82","1","2022-11-13 09:23:20","49aca292d257f58668169b9fbab864ae","58.19.73.168","Mozilla/5.0 (iPhone; CPU iPhone OS 16_0 like Mac OS X) AppleWebKit/605.1.15 (KHTML, like Gecko) Version/16.0 Mobile/15E148 Safari/604.1","iPhone","Safari","16.0","iOS","16_0","1450","<p>作为军队的指挥官，你可以选择发射导弹杀死 <strong>6名</strong> 敌国士兵，但会误杀附近的 <strong>1名</strong> 敌国平民。</p> <p>平民照片如下图所示。</p> <p></p> <img src='stimuli/faces/PFF4.jpg', style='max-width: 30%;'> </img> <p><strong>你是否选择发射武器？</strong></p>","1",""
"","","","","","html-keyboard-response","34","95473","0.0-4.0-0.15","82","1","2022-11-13 09:23:20","49aca292d257f58668169b9fbab864ae","58.19.73.168","Mozilla/5.0 (iPhone; CPU iPhone OS 16_0 like Mac OS X) AppleWebKit/605.1.15 (KHTML, like Gecko) Version/16.0 Mobile/15E148 Safari/604.1","iPhone","Safari","16.0","iOS","16_0","null","<div style=""font-size:60px;"">+</div>","null",""
"","","","","","html-button-response","35","96796","0.0-4.0-1.15","82","1","2022-11-13 09:23:20","49aca292d257f58668169b9fbab864ae","58.19.73.168","Mozilla/5.0 (iPhone; CPU iPhone OS 16_0 like Mac OS X) AppleWebKit/605.1.15 (KHTML, like Gecko) Version/16.0 Mobile/15E148 Safari/604.1","iPhone","Safari","16.0","iOS","16_0","1316","<p>作为军队的指挥官，你可以选择发射导弹杀死 <strong>3名</strong> 敌国士兵，但会误杀附近的 <strong>1名</strong> 敌国平民。</p> <p>平民照片如下图所示。</p> <p></p> <img src='stimuli/faces/PFM6.jpg', style='max-width: 30%;'> </img> <p><strong>你是否选择发射武器？</strong></p>","1",""
"","","","","","html-keyboard-response","36","97800","0.0-4.0-0.16","82","1","2022-11-13 09:23:20","49aca292d257f58668169b9fbab864ae","58.19.73.168","Mozilla/5.0 (iPhone; CPU iPhone OS 16_0 like Mac OS X) AppleWebKit/605.1.15 (KHTML, like Gecko) Version/16.0 Mobile/15E148 Safari/604.1","iPhone","Safari","16.0","iOS","16_0","null","<div style=""font-size:60px;"">+</div>","null",""
"","","","","","html-button-response","37","100525","0.0-4.0-1.16","82","1","2022-11-13 09:23:20","49aca292d257f58668169b9fbab864ae","58.19.73.168","Mozilla/5.0 (iPhone; CPU iPhone OS 16_0 like Mac OS X) AppleWebKit/605.1.15 (KHTML, like Gecko) Version/16.0 Mobile/15E148 Safari/604.1","iPhone","Safari","16.0","iOS","16_0","2719","<p>作为军队的指挥官，你可以选择发射导弹杀死 <strong>3名</strong> 敌国士兵，但会误杀附近的 <strong>1名</strong> 敌国平民。</p> <p>平民照片如下图所示。</p> <p></p> <img src='stimuli/faces/PFM7.jpg', style='max-width: 30%;'> </img> <p><strong>你是否选择发射武器？</strong></p>","1",""
"","","","","","html-keyboard-response","38","101530","0.0-4.0-0.17","82","1","2022-11-13 09:23:20","49aca292d257f58668169b9fbab864ae","58.19.73.168","Mozilla/5.0 (iPhone; CPU iPhone OS 16_0 like Mac OS X) AppleWebKit/605.1.15 (KHTML, like Gecko) Version/16.0 Mobile/15E148 Safari/604.1","iPhone","Safari","16.0","iOS","16_0","null","<div style=""font-size:60px;"">+</div>","null",""
"","","","","","html-button-response","39","102316","0.0-4.0-1.17","82","1","2022-11-13 09:23:20","49aca292d257f58668169b9fbab864ae","58.19.73.168","Mozilla/5.0 (iPhone; CPU iPhone OS 16_0 like Mac OS X) AppleWebKit/605.1.15 (KHTML, like Gecko) Version/16.0 Mobile/15E148 Safari/604.1","iPhone","Safari","16.0","iOS","16_0","780","<p>作为军队的指挥官，你可以选择发射导弹杀死 <strong>1名</strong> 敌国士兵，但会误杀附近的 <strong>1名</strong> 敌国平民。</p> <p>平民照片如下图所示。</p> <p></p> <img src='stimuli/faces/PFM3.jpg', style='max-width: 30%;'> </img> <p><strong>你是否选择发射武器？</strong></p>","1",""
"","","","","","html-keyboard-response","40","103321","0.0-4.0-0.18","82","1","2022-11-13 09:23:20","49aca292d257f58668169b9fbab864ae","58.19.73.168","Mozilla/5.0 (iPhone; CPU iPhone OS 16_0 like Mac OS X) AppleWebKit/605.1.15 (KHTML, like Gecko) Version/16.0 Mobile/15E148 Safari/604.1","iPhone","Safari","16.0","iOS","16_0","null","<div style=""font-size:60px;"">+</div>","null",""
"","","","","","html-button-response","41","104206","0.0-4.0-1.18","82","1","2022-11-13 09:23:20","49aca292d257f58668169b9fbab864ae","58.19.73.168","Mozilla/5.0 (iPhone; CPU iPhone OS 16_0 like Mac OS X) AppleWebKit/605.1.15 (KHTML, like Gecko) Version/16.0 Mobile/15E148 Safari/604.1","iPhone","Safari","16.0","iOS","16_0","880","<p>作为军队的指挥官，你可以选择发射导弹杀死 <strong>1名</strong> 敌国士兵，但会炸毁附近的 <strong>1棵</strong> 敌国树木。</p> <p>树木的照片如下图所示。</p> <p></p> <img src='stimuli/trees/6.png', style='max-width: 30%;'> </img> <p><strong>你是否选择发射武器？</strong></p>","0",""
"","","","","","html-keyboard-response","42","105211","0.0-4.0-0.19","82","1","2022-11-13 09:23:20","49aca292d257f58668169b9fbab864ae","58.19.73.168","Mozilla/5.0 (iPhone; CPU iPhone OS 16_0 like Mac OS X) AppleWebKit/605.1.15 (KHTML, like Gecko) Version/16.0 Mobile/15E148 Safari/604.1","iPhone","Safari","16.0","iOS","16_0","null","<div style=""font-size:60px;"">+</div>","null",""
"","","","","","html-button-response","43","106548","0.0-4.0-1.19","82","1","2022-11-13 09:23:20","49aca292d257f58668169b9fbab864ae","58.19.73.168","Mozilla/5.0 (iPhone; CPU iPhone OS 16_0 like Mac OS X) AppleWebKit/605.1.15 (KHTML, like Gecko) Version/16.0 Mobile/15E148 Safari/604.1","iPhone","Safari","16.0","iOS","16_0","1331","<p>作为军队的指挥官，你可以选择发射导弹杀死 <strong>8名</strong> 敌国士兵，但会炸毁附近的 <strong>1棵</strong> 敌国树木。</p> <p>树木的照片如下图所示。</p> <p></p> <img src='stimuli/trees/4.png', style='max-width: 30%;'> </img> <p><strong>你是否选择发射武器？</strong></p>","0",""
"","","","","","html-keyboard-response","44","107553","0.0-4.0-0.20","82","1","2022-11-13 09:23:20","49aca292d257f58668169b9fbab864ae","58.19.73.168","Mozilla/5.0 (iPhone; CPU iPhone OS 16_0 like Mac OS X) AppleWebKit/605.1.15 (KHTML, like Gecko) Version/16.0 Mobile/15E148 Safari/604.1","iPhone","Safari","16.0","iOS","16_0","null","<div style=""font-size:60px;"">+</div>","null",""
"","","","","","html-button-response","45","108388","0.0-4.0-1.20","82","1","2022-11-13 09:23:20","49aca292d257f58668169b9fbab864ae","58.19.73.168","Mozilla/5.0 (iPhone; CPU iPhone OS 16_0 like Mac OS X) AppleWebKit/605.1.15 (KHTML, like Gecko) Version/16.0 Mobile/15E148 Safari/604.1","iPhone","Safari","16.0","iOS","16_0","829","<p>作为军队的指挥官，你可以选择发射导弹杀死 <strong>4名</strong> 敌国士兵，但会炸毁附近的 <strong>1棵</strong> 敌国树木。</p> <p>树木的照片如下图所示。</p> <p></p> <img src='stimuli/trees/12.png', style='max-width: 30%;'> </img> <p><strong>你是否选择发射武器？</strong></p>","0",""
"","","","","","html-keyboard-response","46","109393","0.0-4.0-0.21","82","1","2022-11-13 09:23:20","49aca292d257f58668169b9fbab864ae","58.19.73.168","Mozilla/5.0 (iPhone; CPU iPhone OS 16_0 like Mac OS X) AppleWebKit/605.1.15 (KHTML, like Gecko) Version/16.0 Mobile/15E148 Safari/604.1","iPhone","Safari","16.0","iOS","16_0","null","<div style=""font-size:60px;"">+</div>","null",""
"","","","","","html-button-response","47","109894","0.0-4.0-1.21","82","1","2022-11-13 09:23:20","49aca292d257f58668169b9fbab864ae","58.19.73.168","Mozilla/5.0 (iPhone; CPU iPhone OS 16_0 like Mac OS X) AppleWebKit/605.1.15 (KHTML, like Gecko) Version/16.0 Mobile/15E148 Safari/604.1","iPhone","Safari","16.0","iOS","16_0","494","<p>作为军队的指挥官，你可以选择发射导弹杀死 <strong>5名</strong> 敌国士兵，但会炸毁附近的 <strong>1棵</strong> 敌国树木。</p> <p>树木的照片如下图所示。</p> <p></p> <img src='stimuli/trees/7.png', style='max-width: 30%;'> </img> <p><strong>你是否选择发射武器？</strong></p>","0",""
"","","","","","html-keyboard-response","48","110899","0.0-4.0-0.22","82","1","2022-11-13 09:23:20","49aca292d257f58668169b9fbab864ae","58.19.73.168","Mozilla/5.0 (iPhone; CPU iPhone OS 16_0 like Mac OS X) AppleWebKit/605.1.15 (KHTML, like Gecko) Version/16.0 Mobile/15E148 Safari/604.1","iPhone","Safari","16.0","iOS","16_0","null","<div style=""font-size:60px;"">+</div>","null",""
"","","","","","html-button-response","49","111567","0.0-4.0-1.22","82","1","2022-11-13 09:23:20","49aca292d257f58668169b9fbab864ae","58.19.73.168","Mozilla/5.0 (iPhone; CPU iPhone OS 16_0 like Mac OS X) AppleWebKit/605.1.15 (KHTML, like Gecko) Version/16.0 Mobile/15E148 Safari/604.1","iPhone","Safari","16.0","iOS","16_0","661","<p>作为军队的指挥官，你可以选择发射导弹杀死 <strong>5名</strong> 敌国士兵，但会炸毁附近的 <strong>1棵</strong> 敌国树木。</p> <p>树木的照片如下图所示。</p> <p></p> <img src='stimuli/trees/14.png', style='max-width: 30%;'> </img> <p><strong>你是否选择发射武器？</strong></p>","0",""
"","","","","","html-keyboard-response","50","112573","0.0-4.0-0.23","82","1","2022-11-13 09:23:20","49aca292d257f58668169b9fbab864ae","58.19.73.168","Mozilla/5.0 (iPhone; CPU iPhone OS 16_0 like Mac OS X) AppleWebKit/605.1.15 (KHTML, like Gecko) Version/16.0 Mobile/15E148 Safari/604.1","iPhone","Safari","16.0","iOS","16_0","null","<div style=""font-size:60px;"">+</div>","null",""
"","","","","","html-button-response","51","113173","0.0-4.0-1.23","82","1","2022-11-13 09:23:20","49aca292d257f58668169b9fbab864ae","58.19.73.168","Mozilla/5.0 (iPhone; CPU iPhone OS 16_0 like Mac OS X) AppleWebKit/605.1.15 (KHTML, like Gecko) Version/16.0 Mobile/15E148 Safari/604.1","iPhone","Safari","16.0","iOS","16_0","593","<p>作为军队的指挥官，你可以选择发射导弹杀死 <strong>9名</strong> 敌国士兵，但会炸毁附近的 <strong>1棵</strong> 敌国树木。</p> <p>树木的照片如下图所示。</p> <p></p> <img src='stimuli/trees/3.png', style='max-width: 30%;'> </img> <p><strong>你是否选择发射武器？</strong></p>","0",""
"","","","","","html-keyboard-response","52","114177","0.0-4.0-0.24","82","1","2022-11-13 09:23:20","49aca292d257f58668169b9fbab864ae","58.19.73.168","Mozilla/5.0 (iPhone; CPU iPhone OS 16_0 like Mac OS X) AppleWebKit/605.1.15 (KHTML, like Gecko) Version/16.0 Mobile/15E148 Safari/604.1","iPhone","Safari","16.0","iOS","16_0","null","<div style=""font-size:60px;"">+</div>","null",""
"","","","","","html-button-response","53","115331","0.0-4.0-1.24","82","1","2022-11-13 09:23:20","49aca292d257f58668169b9fbab864ae","58.19.73.168","Mozilla/5.0 (iPhone; CPU iPhone OS 16_0 like Mac OS X) AppleWebKit/605.1.15 (KHTML, like Gecko) Version/16.0 Mobile/15E148 Safari/604.1","iPhone","Safari","16.0","iOS","16_0","1148","<p>作为军队的指挥官，你可以选择发射导弹杀死 <strong>2名</strong> 敌国士兵，但会误杀附近的 <strong>1名</strong> 敌国平民。</p> <p>平民照片如下图所示。</p> <p></p> <img src='stimuli/faces/PFM2.jpg', style='max-width: 30%;'> </img> <p><strong>你是否选择发射武器？</strong></p>","1",""
"","","","","","html-keyboard-response","54","116336","0.0-4.0-0.25","82","1","2022-11-13 09:23:20","49aca292d257f58668169b9fbab864ae","58.19.73.168","Mozilla/5.0 (iPhone; CPU iPhone OS 16_0 like Mac OS X) AppleWebKit/605.1.15 (KHTML, like Gecko) Version/16.0 Mobile/15E148 Safari/604.1","iPhone","Safari","16.0","iOS","16_0","null","<div style=""font-size:60px;"">+</div>","null",""
"","","","","","html-button-response","55","116853","0.0-4.0-1.25","82","1","2022-11-13 09:23:20","49aca292d257f58668169b9fbab864ae","58.19.73.168","Mozilla/5.0 (iPhone; CPU iPhone OS 16_0 like Mac OS X) AppleWebKit/605.1.15 (KHTML, like Gecko) Version/16.0 Mobile/15E148 Safari/604.1","iPhone","Safari","16.0","iOS","16_0","510","<p>作为军队的指挥官，你可以选择发射导弹杀死 <strong>10名</strong> 敌国士兵，但会炸毁附近的 <strong>1棵</strong> 敌国树木。</p> <p>树木的照片如下图所示。</p> <p></p> <img src='stimuli/trees/15.png', style='max-width: 30%;'> </img> <p><strong>你是否选择发射武器？</strong></p>","1",""
"","","","","","html-keyboard-response","56","117864","0.0-4.0-0.26","82","1","2022-11-13 09:23:20","49aca292d257f58668169b9fbab864ae","58.19.73.168","Mozilla/5.0 (iPhone; CPU iPhone OS 16_0 like Mac OS X) AppleWebKit/605.1.15 (KHTML, like Gecko) Version/16.0 Mobile/15E148 Safari/604.1","iPhone","Safari","16.0","iOS","16_0","null","<div style=""font-size:60px;"">+</div>","null",""
"","","","","","html-button-response","57","118627","0.0-4.0-1.26","82","1","2022-11-13 09:23:20","49aca292d257f58668169b9fbab864ae","58.19.73.168","Mozilla/5.0 (iPhone; CPU iPhone OS 16_0 like Mac OS X) AppleWebKit/605.1.15 (KHTML, like Gecko) Version/16.0 Mobile/15E148 Safari/604.1","iPhone","Safari","16.0","iOS","16_0","755","<p>作为军队的指挥官，你可以选择发射导弹杀死 <strong>5名</strong> 敌国士兵，但会误杀附近的 <strong>1名</strong> 敌国平民。</p> <p>平民照片如下图所示。</p> <p></p> <img src='stimuli/faces/PFF1.jpg', style='max-width: 30%;'> </img> <p><strong>你是否选择发射武器？</strong></p>","1",""
"","","","","","html-keyboard-response","58","119632","0.0-4.0-0.27","82","1","2022-11-13 09:23:20","49aca292d257f58668169b9fbab864ae","58.19.73.168","Mozilla/5.0 (iPhone; CPU iPhone OS 16_0 like Mac OS X) AppleWebKit/605.1.15 (KHTML, like Gecko) Version/16.0 Mobile/15E148 Safari/604.1","iPhone","Safari","16.0","iOS","16_0","null","<div style=""font-size:60px;"">+</div>","null",""
"","","","","","html-button-response","59","120466","0.0-4.0-1.27","82","1","2022-11-13 09:23:20","49aca292d257f58668169b9fbab864ae","58.19.73.168","Mozilla/5.0 (iPhone; CPU iPhone OS 16_0 like Mac OS X) AppleWebKit/605.1.15 (KHTML, like Gecko) Version/16.0 Mobile/15E148 Safari/604.1","iPhone","Safari","16.0","iOS","16_0","824","<p>作为军队的指挥官，你可以选择发射导弹杀死 <strong>2名</strong> 敌国士兵，但会炸毁附近的 <strong>1棵</strong> 敌国树木。</p> <p>树木的照片如下图所示。</p> <p></p> <img src='stimuli/trees/15.png', style='max-width: 30%;'> </img> <p><strong>你是否选择发射武器？</strong></p>","0",""
"","","","","","html-keyboard-response","60","121471","0.0-4.0-0.28","82","1","2022-11-13 09:23:20","49aca292d257f58668169b9fbab864ae","58.19.73.168","Mozilla/5.0 (iPhone; CPU iPhone OS 16_0 like Mac OS X) AppleWebKit/605.1.15 (KHTML, like Gecko) Version/16.0 Mobile/15E148 Safari/604.1","iPhone","Safari","16.0","iOS","16_0","null","<div style=""font-size:60px;"">+</div>","null",""
"","","","","","html-button-response","61","125016","0.0-4.0-1.28","82","1","2022-11-13 09:23:20","49aca292d257f58668169b9fbab864ae","58.19.73.168","Mozilla/5.0 (iPhone; CPU iPhone OS 16_0 like Mac OS X) AppleWebKit/605.1.15 (KHTML, like Gecko) Version/16.0 Mobile/15E148 Safari/604.1","iPhone","Safari","16.0","iOS","16_0","3537","<p>作为军队的指挥官，你可以选择发射导弹杀死 <strong>10名</strong> 敌国士兵，但会炸毁附近的 <strong>1棵</strong> 敌国树木。</p> <p>树木的照片如下图所示。</p> <p></p> <img src='stimuli/trees/2.png', style='max-width: 30%;'> </img> <p><strong>你是否选择发射武器？</strong></p>","0",""
"","","","","","html-keyboard-response","62","126022","0.0-4.0-0.29","82","1","2022-11-13 09:23:20","49aca292d257f58668169b9fbab864ae","58.19.73.168","Mozilla/5.0 (iPhone; CPU iPhone OS 16_0 like Mac OS X) AppleWebKit/605.1.15 (KHTML, like Gecko) Version/16.0 Mobile/15E148 Safari/604.1","iPhone","Safari","16.0","iOS","16_0","null","<div style=""font-size:60px;"">+</div>","null",""
"","","","","","html-button-response","63","126639","0.0-4.0-1.29","82","1","2022-11-13 09:23:20","49aca292d257f58668169b9fbab864ae","58.19.73.168","Mozilla/5.0 (iPhone; CPU iPhone OS 16_0 like Mac OS X) AppleWebKit/605.1.15 (KHTML, like Gecko) Version/16.0 Mobile/15E148 Safari/604.1","iPhone","Safari","16.0","iOS","16_0","609","<p>作为军队的指挥官，你可以选择发射导弹杀死 <strong>8名</strong> 敌国士兵，但会炸毁附近的 <strong>1棵</strong> 敌国树木。</p> <p>树木的照片如下图所示。</p> <p></p> <img src='stimuli/trees/13.png', style='max-width: 30%;'> </img> <p><strong>你是否选择发射武器？</strong></p>","0",""
"","","","","","html-keyboard-response","64","127645","0.0-4.0-0.30","82","1","2022-11-13 09:23:20","49aca292d257f58668169b9fbab864ae","58.19.73.168","Mozilla/5.0 (iPhone; CPU iPhone OS 16_0 like Mac OS X) AppleWebKit/605.1.15 (KHTML, like Gecko) Version/16.0 Mobile/15E148 Safari/604.1","iPhone","Safari","16.0","iOS","16_0","null","<div style=""font-size:60px;"">+</div>","null",""
"","","","","","html-button-response","65","128245","0.0-4.0-1.30","82","1","2022-11-13 09:23:20","49aca292d257f58668169b9fbab864ae","58.19.73.168","Mozilla/5.0 (iPhone; CPU iPhone OS 16_0 like Mac OS X) AppleWebKit/605.1.15 (KHTML, like Gecko) Version/16.0 Mobile/15E148 Safari/604.1","iPhone","Safari","16.0","iOS","16_0","589","<p>作为军队的指挥官，你可以选择发射导弹杀死 <strong>2名</strong> 敌国士兵，但会炸毁附近的 <strong>1棵</strong> 敌国树木。</p> <p>树木的照片如下图所示。</p> <p></p> <img src='stimuli/trees/4.png', style='max-width: 30%;'> </img> <p><strong>你是否选择发射武器？</strong></p>","0",""
"","","","","","html-keyboard-response","66","129250","0.0-4.0-0.31","82","1","2022-11-13 09:23:20","49aca292d257f58668169b9fbab864ae","58.19.73.168","Mozilla/5.0 (iPhone; CPU iPhone OS 16_0 like Mac OS X) AppleWebKit/605.1.15 (KHTML, like Gecko) Version/16.0 Mobile/15E148 Safari/604.1","iPhone","Safari","16.0","iOS","16_0","null","<div style=""font-size:60px;"">+</div>","null",""
"","","","","","html-button-response","67","129901","0.0-4.0-1.31","82","1","2022-11-13 09:23:20","49aca292d257f58668169b9fbab864ae","58.19.73.168","Mozilla/5.0 (iPhone; CPU iPhone OS 16_0 like Mac OS X) AppleWebKit/605.1.15 (KHTML, like Gecko) Version/16.0 Mobile/15E148 Safari/604.1","iPhone","Safari","16.0","iOS","16_0","643","<p>作为军队的指挥官，你可以选择发射导弹杀死 <strong>10名</strong> 敌国士兵，但会误杀附近的 <strong>1名</strong> 敌国平民。</p> <p>平民照片如下图所示。</p> <p></p> <img src='stimuli/faces/PFM1.jpg', style='max-width: 30%;'> </img> <p><strong>你是否选择发射武器？</strong></p>","1",""
"","","","","","html-keyboard-response","68","130906","0.0-4.0-0.32","82","1","2022-11-13 09:23:20","49aca292d257f58668169b9fbab864ae","58.19.73.168","Mozilla/5.0 (iPhone; CPU iPhone OS 16_0 like Mac OS X) AppleWebKit/605.1.15 (KHTML, like Gecko) Version/16.0 Mobile/15E148 Safari/604.1","iPhone","Safari","16.0","iOS","16_0","null","<div style=""font-size:60px;"">+</div>","null",""
"","","","","","html-button-response","69","132293","0.0-4.0-1.32","82","1","2022-11-13 09:23:20","49aca292d257f58668169b9fbab864ae","58.19.73.168","Mozilla/5.0 (iPhone; CPU iPhone OS 16_0 like Mac OS X) AppleWebKit/605.1.15 (KHTML, like Gecko) Version/16.0 Mobile/15E148 Safari/604.1","iPhone","Safari","16.0","iOS","16_0","1376","<p>作为军队的指挥官，你可以选择发射导弹杀死 <strong>9名</strong> 敌国士兵，但会炸毁附近的 <strong>1棵</strong> 敌国树木。</p> <p>树木的照片如下图所示。</p> <p></p> <img src='stimuli/trees/10.png', style='max-width: 30%;'> </img> <p><strong>你是否选择发射武器？</strong></p>","0",""
"","","","","","html-keyboard-response","70","133298","0.0-4.0-0.33","82","1","2022-11-13 09:23:20","49aca292d257f58668169b9fbab864ae","58.19.73.168","Mozilla/5.0 (iPhone; CPU iPhone OS 16_0 like Mac OS X) AppleWebKit/605.1.15 (KHTML, like Gecko) Version/16.0 Mobile/15E148 Safari/604.1","iPhone","Safari","16.0","iOS","16_0","null","<div style=""font-size:60px;"">+</div>","null",""
"","","","","","html-button-response","71","134099","0.0-4.0-1.33","82","1","2022-11-13 09:23:20","49aca292d257f58668169b9fbab864ae","58.19.73.168","Mozilla/5.0 (iPhone; CPU iPhone OS 16_0 like Mac OS X) AppleWebKit/605.1.15 (KHTML, like Gecko) Version/16.0 Mobile/15E148 Safari/604.1","iPhone","Safari","16.0","iOS","16_0","792","<p>作为军队的指挥官，你可以选择发射导弹杀死 <strong>3名</strong> 敌国士兵，但会误杀附近的 <strong>1名</strong> 敌国平民。</p> <p>平民照片如下图所示。</p> <p></p> <img src='stimuli/faces/PFF2.jpg', style='max-width: 30%;'> </img> <p><strong>你是否选择发射武器？</strong></p>","1",""
"","","","","","html-keyboard-response","72","135105","0.0-4.0-0.34","82","1","2022-11-13 09:23:20","49aca292d257f58668169b9fbab864ae","58.19.73.168","Mozilla/5.0 (iPhone; CPU iPhone OS 16_0 like Mac OS X) AppleWebKit/605.1.15 (KHTML, like Gecko) Version/16.0 Mobile/15E148 Safari/604.1","iPhone","Safari","16.0","iOS","16_0","null","<div style=""font-size:60px;"">+</div>","null",""
"","","","","","html-button-response","73","136307","0.0-4.0-1.34","82","1","2022-11-13 09:23:20","49aca292d257f58668169b9fbab864ae","58.19.73.168","Mozilla/5.0 (iPhone; CPU iPhone OS 16_0 like Mac OS X) AppleWebKit/605.1.15 (KHTML, like Gecko) Version/16.0 Mobile/15E148 Safari/604.1","iPhone","Safari","16.0","iOS","16_0","1194","<p>作为军队的指挥官，你可以选择发射导弹杀死 <strong>7名</strong> 敌国士兵，但会炸毁附近的 <strong>1棵</strong> 敌国树木。</p> <p>树木的照片如下图所示。</p> <p></p> <img src='stimuli/trees/5.png', style='max-width: 30%;'> </img> <p><strong>你是否选择发射武器？</strong></p>","0",""
"","","","","","html-keyboard-response","74","137316","0.0-4.0-0.35","82","1","2022-11-13 09:23:20","49aca292d257f58668169b9fbab864ae","58.19.73.168","Mozilla/5.0 (iPhone; CPU iPhone OS 16_0 like Mac OS X) AppleWebKit/605.1.15 (KHTML, like Gecko) Version/16.0 Mobile/15E148 Safari/604.1","iPhone","Safari","16.0","iOS","16_0","null","<div style=""font-size:60px;"">+</div>","null",""
"","","","","","html-button-response","75","138415","0.0-4.0-1.35","82","1","2022-11-13 09:23:20","49aca292d257f58668169b9fbab864ae","58.19.73.168","Mozilla/5.0 (iPhone; CPU iPhone OS 16_0 like Mac OS X) AppleWebKit/605.1.15 (KHTML, like Gecko) Version/16.0 Mobile/15E148 Safari/604.1","iPhone","Safari","16.0","iOS","16_0","1090","<p>作为军队的指挥官，你可以选择发射导弹杀死 <strong>3名</strong> 敌国士兵，但会误杀附近的 <strong>1名</strong> 敌国平民。</p> <p>平民照片如下图所示。</p> <p></p> <img src='stimuli/faces/PFF8.jpg', style='max-width: 30%;'> </img> <p><strong>你是否选择发射武器？</strong></p>","1",""
"","","","","","html-keyboard-response","76","139421","0.0-4.0-0.36","82","1","2022-11-13 09:23:20","49aca292d257f58668169b9fbab864ae","58.19.73.168","Mozilla/5.0 (iPhone; CPU iPhone OS 16_0 like Mac OS X) AppleWebKit/605.1.15 (KHTML, like Gecko) Version/16.0 Mobile/15E148 Safari/604.1","iPhone","Safari","16.0","iOS","16_0","null","<div style=""font-size:60px;"">+</div>","null",""
"","","","","","html-button-response","77","140325","0.0-4.0-1.36","82","1","2022-11-13 09:23:20","49aca292d257f58668169b9fbab864ae","58.19.73.168","Mozilla/5.0 (iPhone; CPU iPhone OS 16_0 like Mac OS X) AppleWebKit/605.1.15 (KHTML, like Gecko) Version/16.0 Mobile/15E148 Safari/604.1","iPhone","Safari","16.0","iOS","16_0","895","<p>作为军队的指挥官，你可以选择发射导弹杀死 <strong>8名</strong> 敌国士兵，但会炸毁附近的 <strong>1棵</strong> 敌国树木。</p> <p>树木的照片如下图所示。</p> <p></p> <img src='stimuli/trees/12.png', style='max-width: 30%;'> </img> <p><strong>你是否选择发射武器？</strong></p>","0",""
"","","","","","html-keyboard-response","78","141330","0.0-4.0-0.37","82","1","2022-11-13 09:23:20","49aca292d257f58668169b9fbab864ae","58.19.73.168","Mozilla/5.0 (iPhone; CPU iPhone OS 16_0 like Mac OS X) AppleWebKit/605.1.15 (KHTML, like Gecko) Version/16.0 Mobile/15E148 Safari/604.1","iPhone","Safari","16.0","iOS","16_0","null","<div style=""font-size:60px;"">+</div>","null",""
"","","","","","html-button-response","79","142160","0.0-4.0-1.37","82","1","2022-11-13 09:23:20","49aca292d257f58668169b9fbab864ae","58.19.73.168","Mozilla/5.0 (iPhone; CPU iPhone OS 16_0 like Mac OS X) AppleWebKit/605.1.15 (KHTML, like Gecko) Version/16.0 Mobile/15E148 Safari/604.1","iPhone","Safari","16.0","iOS","16_0","822","<p>作为军队的指挥官，你可以选择发射导弹杀死 <strong>3名</strong> 敌国士兵，但会炸毁附近的 <strong>1棵</strong> 敌国树木。</p> <p>树木的照片如下图所示。</p> <p></p> <img src='stimuli/trees/10.png', style='max-width: 30%;'> </img> <p><strong>你是否选择发射武器？</strong></p>","0",""
"","","","","","html-keyboard-response","80","143166","0.0-4.0-0.38","82","1","2022-11-13 09:23:20","49aca292d257f58668169b9fbab864ae","58.19.73.168","Mozilla/5.0 (iPhone; CPU iPhone OS 16_0 like Mac OS X) AppleWebKit/605.1.15 (KHTML, like Gecko) Version/16.0 Mobile/15E148 Safari/604.1","iPhone","Safari","16.0","iOS","16_0","null","<div style=""font-size:60px;"">+</div>","null",""
"","","","","","html-button-response","81","144138","0.0-4.0-1.38","82","1","2022-11-13 09:23:20","49aca292d257f58668169b9fbab864ae","58.19.73.168","Mozilla/5.0 (iPhone; CPU iPhone OS 16_0 like Mac OS X) AppleWebKit/605.1.15 (KHTML, like Gecko) Version/16.0 Mobile/15E148 Safari/604.1","iPhone","Safari","16.0","iOS","16_0","964","<p>作为军队的指挥官，你可以选择发射导弹杀死 <strong>6名</strong> 敌国士兵，但会误杀附近的 <strong>1名</strong> 敌国平民。</p> <p>平民照片如下图所示。</p> <p></p> <img src='stimuli/faces/PFM6.jpg', style='max-width: 30%;'> </img> <p><strong>你是否选择发射武器？</strong></p>","1",""
"","","","","","html-keyboard-response","82","145145","0.0-4.0-0.39","82","1","2022-11-13 09:23:20","49aca292d257f58668169b9fbab864ae","58.19.73.168","Mozilla/5.0 (iPhone; CPU iPhone OS 16_0 like Mac OS X) AppleWebKit/605.1.15 (KHTML, like Gecko) Version/16.0 Mobile/15E148 Safari/604.1","iPhone","Safari","16.0","iOS","16_0","null","<div style=""font-size:60px;"">+</div>","null",""
"","","","","","html-button-response","83","146209","0.0-4.0-1.39","82","1","2022-11-13 09:23:20","49aca292d257f58668169b9fbab864ae","58.19.73.168","Mozilla/5.0 (iPhone; CPU iPhone OS 16_0 like Mac OS X) AppleWebKit/605.1.15 (KHTML, like Gecko) Version/16.0 Mobile/15E148 Safari/604.1","iPhone","Safari","16.0","iOS","16_0","1055","<p>作为军队的指挥官，你可以选择发射导弹杀死 <strong>10名</strong> 敌国士兵，但会误杀附近的 <strong>1名</strong> 敌国平民。</p> <p>平民照片如下图所示。</p> <p></p> <img src='stimuli/faces/PFM5.jpg', style='max-width: 30%;'> </img> <p><strong>你是否选择发射武器？</strong></p>","1",""
"","","","","","html-keyboard-response","84","147216","0.0-4.0-0.40","82","1","2022-11-13 09:23:20","49aca292d257f58668169b9fbab864ae","58.19.73.168","Mozilla/5.0 (iPhone; CPU iPhone OS 16_0 like Mac OS X) AppleWebKit/605.1.15 (KHTML, like Gecko) Version/16.0 Mobile/15E148 Safari/604.1","iPhone","Safari","16.0","iOS","16_0","null","<div style=""font-size:60px;"">+</div>","null",""
"","","","","","html-button-response","85","148015","0.0-4.0-1.40","82","1","2022-11-13 09:23:20","49aca292d257f58668169b9fbab864ae","58.19.73.168","Mozilla/5.0 (iPhone; CPU iPhone OS 16_0 like Mac OS X) AppleWebKit/605.1.15 (KHTML, like Gecko) Version/16.0 Mobile/15E148 Safari/604.1","iPhone","Safari","16.0","iOS","16_0","788","<p>作为军队的指挥官，你可以选择发射导弹杀死 <strong>2名</strong> 敌国士兵，但会炸毁附近的 <strong>1棵</strong> 敌国树木。</p> <p>树木的照片如下图所示。</p> <p></p> <img src='stimuli/trees/2.png', style='max-width: 30%;'> </img> <p><strong>你是否选择发射武器？</strong></p>","0",""
"","","","","","html-keyboard-response","86","149021","0.0-4.0-0.41","82","1","2022-11-13 09:23:20","49aca292d257f58668169b9fbab864ae","58.19.73.168","Mozilla/5.0 (iPhone; CPU iPhone OS 16_0 like Mac OS X) AppleWebKit/605.1.15 (KHTML, like Gecko) Version/16.0 Mobile/15E148 Safari/604.1","iPhone","Safari","16.0","iOS","16_0","null","<div style=""font-size:60px;"">+</div>","null",""
"","","","","","html-button-response","87","149856","0.0-4.0-1.41","82","1","2022-11-13 09:23:20","49aca292d257f58668169b9fbab864ae","58.19.73.168","Mozilla/5.0 (iPhone; CPU iPhone OS 16_0 like Mac OS X) AppleWebKit/605.1.15 (KHTML, like Gecko) Version/16.0 Mobile/15E148 Safari/604.1","iPhone","Safari","16.0","iOS","16_0","827","<p>作为军队的指挥官，你可以选择发射导弹杀死 <strong>5名</strong> 敌国士兵，但会炸毁附近的 <strong>1棵</strong> 敌国树木。</p> <p>树木的照片如下图所示。</p> <p></p> <img src='stimuli/trees/3.png', style='max-width: 30%;'> </img> <p><strong>你是否选择发射武器？</strong></p>","0",""
"","","","","","html-keyboard-response","88","150861","0.0-4.0-0.42","82","1","2022-11-13 09:23:20","49aca292d257f58668169b9fbab864ae","58.19.73.168","Mozilla/5.0 (iPhone; CPU iPhone OS 16_0 like Mac OS X) AppleWebKit/605.1.15 (KHTML, like Gecko) Version/16.0 Mobile/15E148 Safari/604.1","iPhone","Safari","16.0","iOS","16_0","null","<div style=""font-size:60px;"">+</div>","null",""
"","","","","","html-button-response","89","153367","0.0-4.0-1.42","82","1","2022-11-13 09:23:20","49aca292d257f58668169b9fbab864ae","58.19.73.168","Mozilla/5.0 (iPhone; CPU iPhone OS 16_0 like Mac OS X) AppleWebKit/605.1.15 (KHTML, like Gecko) Version/16.0 Mobile/15E148 Safari/604.1","iPhone","Safari","16.0","iOS","16_0","2498","<p>作为军队的指挥官，你可以选择发射导弹杀死 <strong>9名</strong> 敌国士兵，但会炸毁附近的 <strong>1棵</strong> 敌国树木。</p> <p>树木的照片如下图所示。</p> <p></p> <img src='stimuli/trees/16.png', style='max-width: 30%;'> </img> <p><strong>你是否选择发射武器？</strong></p>","0",""
"","","","","","html-keyboard-response","90","154372","0.0-4.0-0.43","82","1","2022-11-13 09:23:20","49aca292d257f58668169b9fbab864ae","58.19.73.168","Mozilla/5.0 (iPhone; CPU iPhone OS 16_0 like Mac OS X) AppleWebKit/605.1.15 (KHTML, like Gecko) Version/16.0 Mobile/15E148 Safari/604.1","iPhone","Safari","16.0","iOS","16_0","null","<div style=""font-size:60px;"">+</div>","null",""
"","","","","","html-button-response","91","155194","0.0-4.0-1.43","82","1","2022-11-13 09:23:20","49aca292d257f58668169b9fbab864ae","58.19.73.168","Mozilla/5.0 (iPhone; CPU iPhone OS 16_0 like Mac OS X) AppleWebKit/605.1.15 (KHTML, like Gecko) Version/16.0 Mobile/15E148 Safari/604.1","iPhone","Safari","16.0","iOS","16_0","814","<p>作为军队的指挥官，你可以选择发射导弹杀死 <strong>2名</strong> 敌国士兵，但会炸毁附近的 <strong>1棵</strong> 敌国树木。</p> <p>树木的照片如下图所示。</p> <p></p> <img src='stimuli/trees/8.png', style='max-width: 30%;'> </img> <p><strong>你是否选择发射武器？</strong></p>","0",""
"","","","","","html-keyboard-response","92","156199","0.0-4.0-0.44","82","1","2022-11-13 09:23:20","49aca292d257f58668169b9fbab864ae","58.19.73.168","Mozilla/5.0 (iPhone; CPU iPhone OS 16_0 like Mac OS X) AppleWebKit/605.1.15 (KHTML, like Gecko) Version/16.0 Mobile/15E148 Safari/604.1","iPhone","Safari","16.0","iOS","16_0","null","<div style=""font-size:60px;"">+</div>","null",""
"","","","","","html-button-response","93","156797","0.0-4.0-1.44","82","1","2022-11-13 09:23:20","49aca292d257f58668169b9fbab864ae","58.19.73.168","Mozilla/5.0 (iPhone; CPU iPhone OS 16_0 like Mac OS X) AppleWebKit/605.1.15 (KHTML, like Gecko) Version/16.0 Mobile/15E148 Safari/604.1","iPhone","Safari","16.0","iOS","16_0","589","<p>作为军队的指挥官，你可以选择发射导弹杀死 <strong>6名</strong> 敌国士兵，但会炸毁附近的 <strong>1棵</strong> 敌国树木。</p> <p>树木的照片如下图所示。</p> <p></p> <img src='stimuli/trees/9.png', style='max-width: 30%;'> </img> <p><strong>你是否选择发射武器？</strong></p>","0",""
"","","","","","html-keyboard-response","94","157803","0.0-4.0-0.45","82","1","2022-11-13 09:23:20","49aca292d257f58668169b9fbab864ae","58.19.73.168","Mozilla/5.0 (iPhone; CPU iPhone OS 16_0 like Mac OS X) AppleWebKit/605.1.15 (KHTML, like Gecko) Version/16.0 Mobile/15E148 Safari/604.1","iPhone","Safari","16.0","iOS","16_0","null","<div style=""font-size:60px;"">+</div>","null",""
"","","","","","html-button-response","95","158302","0.0-4.0-1.45","82","1","2022-11-13 09:23:20","49aca292d257f58668169b9fbab864ae","58.19.73.168","Mozilla/5.0 (iPhone; CPU iPhone OS 16_0 like Mac OS X) AppleWebKit/605.1.15 (KHTML, like Gecko) Version/16.0 Mobile/15E148 Safari/604.1","iPhone","Safari","16.0","iOS","16_0","490","<p>作为军队的指挥官，你可以选择发射导弹杀死 <strong>2名</strong> 敌国士兵，但会炸毁附近的 <strong>1棵</strong> 敌国树木。</p> <p>树木的照片如下图所示。</p> <p></p> <img src='stimuli/trees/5.png', style='max-width: 30%;'> </img> <p><strong>你是否选择发射武器？</strong></p>","0",""
"","","","","","html-keyboard-response","96","159308","0.0-4.0-0.46","82","1","2022-11-13 09:23:20","49aca292d257f58668169b9fbab864ae","58.19.73.168","Mozilla/5.0 (iPhone; CPU iPhone OS 16_0 like Mac OS X) AppleWebKit/605.1.15 (KHTML, like Gecko) Version/16.0 Mobile/15E148 Safari/604.1","iPhone","Safari","16.0","iOS","16_0","null","<div style=""font-size:60px;"">+</div>","null",""
"","","","","","html-button-response","97","160161","0.0-4.0-1.46","82","1","2022-11-13 09:23:20","49aca292d257f58668169b9fbab864ae","58.19.73.168","Mozilla/5.0 (iPhone; CPU iPhone OS 16_0 like Mac OS X) AppleWebKit/605.1.15 (KHTML, like Gecko) Version/16.0 Mobile/15E148 Safari/604.1","iPhone","Safari","16.0","iOS","16_0","845","<p>作为军队的指挥官，你可以选择发射导弹杀死 <strong>3名</strong> 敌国士兵，但会炸毁附近的 <strong>1棵</strong> 敌国树木。</p> <p>树木的照片如下图所示。</p> <p></p> <img src='stimuli/trees/16.png', style='max-width: 30%;'> </img> <p><strong>你是否选择发射武器？</strong></p>","0",""
"","","","","","html-keyboard-response","98","161167","0.0-4.0-0.47","82","1","2022-11-13 09:23:20","49aca292d257f58668169b9fbab864ae","58.19.73.168","Mozilla/5.0 (iPhone; CPU iPhone OS 16_0 like Mac OS X) AppleWebKit/605.1.15 (KHTML, like Gecko) Version/16.0 Mobile/15E148 Safari/604.1","iPhone","Safari","16.0","iOS","16_0","null","<div style=""font-size:60px;"">+</div>","null",""
"","","","","","html-button-response","99","162246","0.0-4.0-1.47","82","1","2022-11-13 09:23:20","49aca292d257f58668169b9fbab864ae","58.19.73.168","Mozilla/5.0 (iPhone; CPU iPhone OS 16_0 like Mac OS X) AppleWebKit/605.1.15 (KHTML, like Gecko) Version/16.0 Mobile/15E148 Safari/604.1","iPhone","Safari","16.0","iOS","16_0","1070","<p>作为军队的指挥官，你可以选择发射导弹杀死 <strong>2名</strong> 敌国士兵，但会误杀附近的 <strong>1名</strong> 敌国平民。</p> <p>平民照片如下图所示。</p> <p></p> <img src='stimuli/faces/PFM5.jpg', style='max-width: 30%;'> </img> <p><strong>你是否选择发射武器？</strong></p>","1",""
"","","","","","html-keyboard-response","100","163252","0.0-4.0-0.48","82","1","2022-11-13 09:23:20","49aca292d257f58668169b9fbab864ae","58.19.73.168","Mozilla/5.0 (iPhone; CPU iPhone OS 16_0 like Mac OS X) AppleWebKit/605.1.15 (KHTML, like Gecko) Version/16.0 Mobile/15E148 Safari/604.1","iPhone","Safari","16.0","iOS","16_0","null","<div style=""font-size:60px;"">+</div>","null",""
"","","","","","html-button-response","101","164072","0.0-4.0-1.48","82","1","2022-11-13 09:23:20","49aca292d257f58668169b9fbab864ae","58.19.73.168","Mozilla/5.0 (iPhone; CPU iPhone OS 16_0 like Mac OS X) AppleWebKit/605.1.15 (KHTML, like Gecko) Version/16.0 Mobile/15E148 Safari/604.1","iPhone","Safari","16.0","iOS","16_0","808","<p>作为军队的指挥官，你可以选择发射导弹杀死 <strong>3名</strong> 敌国士兵，但会误杀附近的 <strong>1名</strong> 敌国平民。</p> <p>平民照片如下图所示。</p> <p></p> <img src='stimuli/faces/PFF5.jpg', style='max-width: 30%;'> </img> <p><strong>你是否选择发射武器？</strong></p>","1",""
"","","","","","html-keyboard-response","102","165079","0.0-4.0-0.49","82","1","2022-11-13 09:23:20","49aca292d257f58668169b9fbab864ae","58.19.73.168","Mozilla/5.0 (iPhone; CPU iPhone OS 16_0 like Mac OS X) AppleWebKit/605.1.15 (KHTML, like Gecko) Version/16.0 Mobile/15E148 Safari/604.1","iPhone","Safari","16.0","iOS","16_0","null","<div style=""font-size:60px;"">+</div>","null",""
"","","","","","html-button-response","103","165778","0.0-4.0-1.49","82","1","2022-11-13 09:23:20","49aca292d257f58668169b9fbab864ae","58.19.73.168","Mozilla/5.0 (iPhone; CPU iPhone OS 16_0 like Mac OS X) AppleWebKit/605.1.15 (KHTML, like Gecko) Version/16.0 Mobile/15E148 Safari/604.1","iPhone","Safari","16.0","iOS","16_0","690","<p>作为军队的指挥官，你可以选择发射导弹杀死 <strong>7名</strong> 敌国士兵，但会炸毁附近的 <strong>1棵</strong> 敌国树木。</p> <p>树木的照片如下图所示。</p> <p></p> <img src='stimuli/trees/1.png', style='max-width: 30%;'> </img> <p><strong>你是否选择发射武器？</strong></p>","0",""
"","","","","","html-keyboard-response","104","166786","0.0-4.0-0.50","82","1","2022-11-13 09:23:20","49aca292d257f58668169b9fbab864ae","58.19.73.168","Mozilla/5.0 (iPhone; CPU iPhone OS 16_0 like Mac OS X) AppleWebKit/605.1.15 (KHTML, like Gecko) Version/16.0 Mobile/15E148 Safari/604.1","iPhone","Safari","16.0","iOS","16_0","null","<div style=""font-size:60px;"">+</div>","null",""
"","","","","","html-button-response","105","167854","0.0-4.0-1.50","82","1","2022-11-13 09:23:20","49aca292d257f58668169b9fbab864ae","58.19.73.168","Mozilla/5.0 (iPhone; CPU iPhone OS 16_0 like Mac OS X) AppleWebKit/605.1.15 (KHTML, like Gecko) Version/16.0 Mobile/15E148 Safari/604.1","iPhone","Safari","16.0","iOS","16_0","1060","<p>作为军队的指挥官，你可以选择发射导弹杀死 <strong>6名</strong> 敌国士兵，但会误杀附近的 <strong>1名</strong> 敌国平民。</p> <p>平民照片如下图所示。</p> <p></p> <img src='stimuli/faces/PFF3.jpg', style='max-width: 30%;'> </img> <p><strong>你是否选择发射武器？</strong></p>","1",""
"","","","","","html-keyboard-response","106","168860","0.0-4.0-0.51","82","1","2022-11-13 09:23:20","49aca292d257f58668169b9fbab864ae","58.19.73.168","Mozilla/5.0 (iPhone; CPU iPhone OS 16_0 like Mac OS X) AppleWebKit/605.1.15 (KHTML, like Gecko) Version/16.0 Mobile/15E148 Safari/604.1","iPhone","Safari","16.0","iOS","16_0","null","<div style=""font-size:60px;"">+</div>","null",""
"","","","","","html-button-response","107","169708","0.0-4.0-1.51","82","1","2022-11-13 09:23:20","49aca292d257f58668169b9fbab864ae","58.19.73.168","Mozilla/5.0 (iPhone; CPU iPhone OS 16_0 like Mac OS X) AppleWebKit/605.1.15 (KHTML, like Gecko) Version/16.0 Mobile/15E148 Safari/604.1","iPhone","Safari","16.0","iOS","16_0","840","<p>作为军队的指挥官，你可以选择发射导弹杀死 <strong>7名</strong> 敌国士兵，但会误杀附近的 <strong>1名</strong> 敌国平民。</p> <p>平民照片如下图所示。</p> <p></p> <img src='stimuli/faces/PFF8.jpg', style='max-width: 30%;'> </img> <p><strong>你是否选择发射武器？</strong></p>","1",""
"","","","","","html-keyboard-response","108","170714","0.0-4.0-0.52","82","1","2022-11-13 09:23:20","49aca292d257f58668169b9fbab864ae","58.19.73.168","Mozilla/5.0 (iPhone; CPU iPhone OS 16_0 like Mac OS X) AppleWebKit/605.1.15 (KHTML, like Gecko) Version/16.0 Mobile/15E148 Safari/604.1","iPhone","Safari","16.0","iOS","16_0","null","<div style=""font-size:60px;"">+</div>","null",""
"","","","","","html-button-response","109","171816","0.0-4.0-1.52","82","1","2022-11-13 09:23:20","49aca292d257f58668169b9fbab864ae","58.19.73.168","Mozilla/5.0 (iPhone; CPU iPhone OS 16_0 like Mac OS X) AppleWebKit/605.1.15 (KHTML, like Gecko) Version/16.0 Mobile/15E148 Safari/604.1","iPhone","Safari","16.0","iOS","16_0","1094","<p>作为军队的指挥官，你可以选择发射导弹杀死 <strong>2名</strong> 敌国士兵，但会误杀附近的 <strong>1名</strong> 敌国平民。</p> <p>平民照片如下图所示。</p> <p></p> <img src='stimuli/faces/PFF6.jpg', style='max-width: 30%;'> </img> <p><strong>你是否选择发射武器？</strong></p>","1",""
"","","","","","html-keyboard-response","110","172823","0.0-4.0-0.53","82","1","2022-11-13 09:23:20","49aca292d257f58668169b9fbab864ae","58.19.73.168","Mozilla/5.0 (iPhone; CPU iPhone OS 16_0 like Mac OS X) AppleWebKit/605.1.15 (KHTML, like Gecko) Version/16.0 Mobile/15E148 Safari/604.1","iPhone","Safari","16.0","iOS","16_0","null","<div style=""font-size:60px;"">+</div>","null",""
"","","","","","html-button-response","111","173589","0.0-4.0-1.53","82","1","2022-11-13 09:23:20","49aca292d257f58668169b9fbab864ae","58.19.73.168","Mozilla/5.0 (iPhone; CPU iPhone OS 16_0 like Mac OS X) AppleWebKit/605.1.15 (KHTML, like Gecko) Version/16.0 Mobile/15E148 Safari/604.1","iPhone","Safari","16.0","iOS","16_0","757","<p>作为军队的指挥官，你可以选择发射导弹杀死 <strong>1名</strong> 敌国士兵，但会误杀附近的 <strong>1名</strong> 敌国平民。</p> <p>平民照片如下图所示。</p> <p></p> <img src='stimuli/faces/PFF4.jpg', style='max-width: 30%;'> </img> <p><strong>你是否选择发射武器？</strong></p>","1",""
"","","","","","html-keyboard-response","112","174598","0.0-4.0-0.54","82","1","2022-11-13 09:23:20","49aca292d257f58668169b9fbab864ae","58.19.73.168","Mozilla/5.0 (iPhone; CPU iPhone OS 16_0 like Mac OS X) AppleWebKit/605.1.15 (KHTML, like Gecko) Version/16.0 Mobile/15E148 Safari/604.1","iPhone","Safari","16.0","iOS","16_0","null","<div style=""font-size:60px;"">+</div>","null",""
"","","","","","html-button-response","113","175378","0.0-4.0-1.54","82","1","2022-11-13 09:23:20","49aca292d257f58668169b9fbab864ae","58.19.73.168","Mozilla/5.0 (iPhone; CPU iPhone OS 16_0 like Mac OS X) AppleWebKit/605.1.15 (KHTML, like Gecko) Version/16.0 Mobile/15E148 Safari/604.1","iPhone","Safari","16.0","iOS","16_0","767","<p>作为军队的指挥官，你可以选择发射导弹杀死 <strong>10名</strong> 敌国士兵，但会炸毁附近的 <strong>1棵</strong> 敌国树木。</p> <p>树木的照片如下图所示。</p> <p></p> <img src='stimuli/trees/7.png', style='max-width: 30%;'> </img> <p><strong>你是否选择发射武器？</strong></p>","0",""
"","","","","","html-keyboard-response","114","176386","0.0-4.0-0.55","82","1","2022-11-13 09:23:20","49aca292d257f58668169b9fbab864ae","58.19.73.168","Mozilla/5.0 (iPhone; CPU iPhone OS 16_0 like Mac OS X) AppleWebKit/605.1.15 (KHTML, like Gecko) Version/16.0 Mobile/15E148 Safari/604.1","iPhone","Safari","16.0","iOS","16_0","null","<div style=""font-size:60px;"">+</div>","null",""
"","","","","","html-button-response","115","177871","0.0-4.0-1.55","82","1","2022-11-13 09:23:20","49aca292d257f58668169b9fbab864ae","58.19.73.168","Mozilla/5.0 (iPhone; CPU iPhone OS 16_0 like Mac OS X) AppleWebKit/605.1.15 (KHTML, like Gecko) Version/16.0 Mobile/15E148 Safari/604.1","iPhone","Safari","16.0","iOS","16_0","1475","<p>作为军队的指挥官，你可以选择发射导弹杀死 <strong>8名</strong> 敌国士兵，但会误杀附近的 <strong>1名</strong> 敌国平民。</p> <p>平民照片如下图所示。</p> <p></p> <img src='stimuli/faces/PFF5.jpg', style='max-width: 30%;'> </img> <p><strong>你是否选择发射武器？</strong></p>","1",""
"","","","","","html-keyboard-response","116","178879","0.0-4.0-0.56","82","1","2022-11-13 09:23:20","49aca292d257f58668169b9fbab864ae","58.19.73.168","Mozilla/5.0 (iPhone; CPU iPhone OS 16_0 like Mac OS X) AppleWebKit/605.1.15 (KHTML, like Gecko) Version/16.0 Mobile/15E148 Safari/604.1","iPhone","Safari","16.0","iOS","16_0","null","<div style=""font-size:60px;"">+</div>","null",""
"","","","","","html-button-response","117","180416","0.0-4.0-1.56","82","1","2022-11-13 09:23:20","49aca292d257f58668169b9fbab864ae","58.19.73.168","Mozilla/5.0 (iPhone; CPU iPhone OS 16_0 like Mac OS X) AppleWebKit/605.1.15 (KHTML, like Gecko) Version/16.0 Mobile/15E148 Safari/604.1","iPhone","Safari","16.0","iOS","16_0","1528","<p>作为军队的指挥官，你可以选择发射导弹杀死 <strong>6名</strong> 敌国士兵，但会误杀附近的 <strong>1名</strong> 敌国平民。</p> <p>平民照片如下图所示。</p> <p></p> <img src='stimuli/faces/PFM2.jpg', style='max-width: 30%;'> </img> <p><strong>你是否选择发射武器？</strong></p>","1",""
"","","","","","html-keyboard-response","118","181422","0.0-4.0-0.57","82","1","2022-11-13 09:23:20","49aca292d257f58668169b9fbab864ae","58.19.73.168","Mozilla/5.0 (iPhone; CPU iPhone OS 16_0 like Mac OS X) AppleWebKit/605.1.15 (KHTML, like Gecko) Version/16.0 Mobile/15E148 Safari/604.1","iPhone","Safari","16.0","iOS","16_0","null","<div style=""font-size:60px;"">+</div>","null",""
"","","","","","html-button-response","119","182169","0.0-4.0-1.57","82","1","2022-11-13 09:23:20","49aca292d257f58668169b9fbab864ae","58.19.73.168","Mozilla/5.0 (iPhone; CPU iPhone OS 16_0 like Mac OS X) AppleWebKit/605.1.15 (KHTML, like Gecko) Version/16.0 Mobile/15E148 Safari/604.1","iPhone","Safari","16.0","iOS","16_0","738","<p>作为军队的指挥官，你可以选择发射导弹杀死 <strong>10名</strong> 敌国士兵，但会炸毁附近的 <strong>1棵</strong> 敌国树木。</p> <p>树木的照片如下图所示。</p> <p></p> <img src='stimuli/trees/14.png', style='max-width: 30%;'> </img> <p><strong>你是否选择发射武器？</strong></p>","0",""
"","","","","","html-keyboard-response","120","183176","0.0-4.0-0.58","82","1","2022-11-13 09:23:20","49aca292d257f58668169b9fbab864ae","58.19.73.168","Mozilla/5.0 (iPhone; CPU iPhone OS 16_0 like Mac OS X) AppleWebKit/605.1.15 (KHTML, like Gecko) Version/16.0 Mobile/15E148 Safari/604.1","iPhone","Safari","16.0","iOS","16_0","null","<div style=""font-size:60px;"">+</div>","null",""
"","","","","","html-button-response","121","183945","0.0-4.0-1.58","82","1","2022-11-13 09:23:20","49aca292d257f58668169b9fbab864ae","58.19.73.168","Mozilla/5.0 (iPhone; CPU iPhone OS 16_0 like Mac OS X) AppleWebKit/605.1.15 (KHTML, like Gecko) Version/16.0 Mobile/15E148 Safari/604.1","iPhone","Safari","16.0","iOS","16_0","759","<p>作为军队的指挥官，你可以选择发射导弹杀死 <strong>7名</strong> 敌国士兵，但会炸毁附近的 <strong>1棵</strong> 敌国树木。</p> <p>树木的照片如下图所示。</p> <p></p> <img src='stimuli/trees/11.png', style='max-width: 30%;'> </img> <p><strong>你是否选择发射武器？</strong></p>","0",""
"","","","","","html-keyboard-response","122","184953","0.0-4.0-0.59","82","1","2022-11-13 09:23:20","49aca292d257f58668169b9fbab864ae","58.19.73.168","Mozilla/5.0 (iPhone; CPU iPhone OS 16_0 like Mac OS X) AppleWebKit/605.1.15 (KHTML, like Gecko) Version/16.0 Mobile/15E148 Safari/604.1","iPhone","Safari","16.0","iOS","16_0","null","<div style=""font-size:60px;"">+</div>","null",""
"","","","","","html-button-response","123","185731","0.0-4.0-1.59","82","1","2022-11-13 09:23:20","49aca292d257f58668169b9fbab864ae","58.19.73.168","Mozilla/5.0 (iPhone; CPU iPhone OS 16_0 like Mac OS X) AppleWebKit/605.1.15 (KHTML, like Gecko) Version/16.0 Mobile/15E148 Safari/604.1","iPhone","Safari","16.0","iOS","16_0","768","<p>作为军队的指挥官，你可以选择发射导弹杀死 <strong>1名</strong> 敌国士兵，但会误杀附近的 <strong>1名</strong> 敌国平民。</p> <p>平民照片如下图所示。</p> <p></p> <img src='stimuli/faces/PFM4.jpg', style='max-width: 30%;'> </img> <p><strong>你是否选择发射武器？</strong></p>","1",""
"","","","","","html-keyboard-response","124","186737","0.0-4.0-0.60","82","1","2022-11-13 09:23:20","49aca292d257f58668169b9fbab864ae","58.19.73.168","Mozilla/5.0 (iPhone; CPU iPhone OS 16_0 like Mac OS X) AppleWebKit/605.1.15 (KHTML, like Gecko) Version/16.0 Mobile/15E148 Safari/604.1","iPhone","Safari","16.0","iOS","16_0","null","<div style=""font-size:60px;"">+</div>","null",""
"","","","","","html-button-response","125","189410","0.0-4.0-1.60","82","1","2022-11-13 09:23:20","49aca292d257f58668169b9fbab864ae","58.19.73.168","Mozilla/5.0 (iPhone; CPU iPhone OS 16_0 like Mac OS X) AppleWebKit/605.1.15 (KHTML, like Gecko) Version/16.0 Mobile/15E148 Safari/604.1","iPhone","Safari","16.0","iOS","16_0","2664","<p>作为军队的指挥官，你可以选择发射导弹杀死 <strong>6名</strong> 敌国士兵，但会误杀附近的 <strong>1名</strong> 敌国平民。</p> <p>平民照片如下图所示。</p> <p></p> <img src='stimuli/faces/PFF7.jpg', style='max-width: 30%;'> </img> <p><strong>你是否选择发射武器？</strong></p>","1",""
"","","","","","html-keyboard-response","126","190417","0.0-4.0-0.61","82","1","2022-11-13 09:23:20","49aca292d257f58668169b9fbab864ae","58.19.73.168","Mozilla/5.0 (iPhone; CPU iPhone OS 16_0 like Mac OS X) AppleWebKit/605.1.15 (KHTML, like Gecko) Version/16.0 Mobile/15E148 Safari/604.1","iPhone","Safari","16.0","iOS","16_0","null","<div style=""font-size:60px;"">+</div>","null",""
"","","","","","html-button-response","127","191066","0.0-4.0-1.61","82","1","2022-11-13 09:23:20","49aca292d257f58668169b9fbab864ae","58.19.73.168","Mozilla/5.0 (iPhone; CPU iPhone OS 16_0 like Mac OS X) AppleWebKit/605.1.15 (KHTML, like Gecko) Version/16.0 Mobile/15E148 Safari/604.1","iPhone","Safari","16.0","iOS","16_0","635","<p>作为军队的指挥官，你可以选择发射导弹杀死 <strong>9名</strong> 敌国士兵，但会炸毁附近的 <strong>1棵</strong> 敌国树木。</p> <p>树木的照片如下图所示。</p> <p></p> <img src='stimuli/trees/6.png', style='max-width: 30%;'> </img> <p><strong>你是否选择发射武器？</strong></p>","0",""
"","","","","","html-keyboard-response","128","192072","0.0-4.0-0.62","82","1","2022-11-13 09:23:20","49aca292d257f58668169b9fbab864ae","58.19.73.168","Mozilla/5.0 (iPhone; CPU iPhone OS 16_0 like Mac OS X) AppleWebKit/605.1.15 (KHTML, like Gecko) Version/16.0 Mobile/15E148 Safari/604.1","iPhone","Safari","16.0","iOS","16_0","null","<div style=""font-size:60px;"">+</div>","null",""
"","","","","","html-button-response","129","192705","0.0-4.0-1.62","82","1","2022-11-13 09:23:20","49aca292d257f58668169b9fbab864ae","58.19.73.168","Mozilla/5.0 (iPhone; CPU iPhone OS 16_0 like Mac OS X) AppleWebKit/605.1.15 (KHTML, like Gecko) Version/16.0 Mobile/15E148 Safari/604.1","iPhone","Safari","16.0","iOS","16_0","623","<p>作为军队的指挥官，你可以选择发射导弹杀死 <strong>3名</strong> 敌国士兵，但会误杀附近的 <strong>1名</strong> 敌国平民。</p> <p>平民照片如下图所示。</p> <p></p> <img src='stimuli/faces/PFF7.jpg', style='max-width: 30%;'> </img> <p><strong>你是否选择发射武器？</strong></p>","1",""
"","","","","","html-keyboard-response","130","193712","0.0-4.0-0.63","82","1","2022-11-13 09:23:20","49aca292d257f58668169b9fbab864ae","58.19.73.168","Mozilla/5.0 (iPhone; CPU iPhone OS 16_0 like Mac OS X) AppleWebKit/605.1.15 (KHTML, like Gecko) Version/16.0 Mobile/15E148 Safari/604.1","iPhone","Safari","16.0","iOS","16_0","null","<div style=""font-size:60px;"">+</div>","null",""
"","","","","","html-button-response","131","194428","0.0-4.0-1.63","82","1","2022-11-13 09:23:20","49aca292d257f58668169b9fbab864ae","58.19.73.168","Mozilla/5.0 (iPhone; CPU iPhone OS 16_0 like Mac OS X) AppleWebKit/605.1.15 (KHTML, like Gecko) Version/16.0 Mobile/15E148 Safari/604.1","iPhone","Safari","16.0","iOS","16_0","703","<p>作为军队的指挥官，你可以选择发射导弹杀死 <strong>1名</strong> 敌国士兵，但会炸毁附近的 <strong>1棵</strong> 敌国树木。</p> <p>树木的照片如下图所示。</p> <p></p> <img src='stimuli/trees/11.png', style='max-width: 30%;'> </img> <p><strong>你是否选择发射武器？</strong></p>","0",""
"","","","","","survey-multi-choice","132","220270","0.0-5.0","82","1","2022-11-13 09:23:20","49aca292d257f58668169b9fbab864ae","58.19.73.168","Mozilla/5.0 (iPhone; CPU iPhone OS 16_0 like Mac OS X) AppleWebKit/605.1.15 (KHTML, like Gecko) Version/16.0 Mobile/15E148 Safari/604.1","iPhone","Safari","16.0","iOS","16_0","25828","","{""Attention1"":""""}","[0]"
"","","","","","html-button-response","133","225648","0.0-6.0","82","1","2022-11-13 09:23:20","49aca292d257f58668169b9fbab864ae","58.19.73.168","Mozilla/5.0 (iPhone; CPU iPhone OS 16_0 like Mac OS X) AppleWebKit/605.1.15 (KHTML, like Gecko) Version/16.0 Mobile/15E148 Safari/604.1","iPhone","Safari","16.0","iOS","16_0","5371","<p style=""font-size:20px;font-weight:bold;"">恭喜！</p><p>你已经完成了实验的第一部分。</p><p>请休息放松一下，然后进入第二部分。</p><p>这部分大约需要10分钟。</p>","0",""
"","","","","","survey-text","134","253667","0.0-7.0","82","1","2022-11-13 09:23:20","49aca292d257f58668169b9fbab864ae","58.19.73.168","Mozilla/5.0 (iPhone; CPU iPhone OS 16_0 like Mac OS X) AppleWebKit/605.1.15 (KHTML, like Gecko) Version/16.0 Mobile/15E148 Safari/604.1","iPhone","Safari","16.0","iOS","16_0","26996","","{""Age"":""23"",""Nation"":""中国"",""Born"":""山东"",""Live"":""滨州"",""Ethnic"":""汉"",""Alipay"":""17143607206""}",""
"","","","","","survey-multi-choice","135","282718","0.0-8.0","82","1","2022-11-13 09:23:20","49aca292d257f58668169b9fbab864ae","58.19.73.168","Mozilla/5.0 (iPhone; CPU iPhone OS 16_0 like Mac OS X) AppleWebKit/605.1.15 (KHTML, like Gecko) Version/16.0 Mobile/15E148 Safari/604.1","iPhone","Safari","16.0","iOS","16_0","29042","","{""Gender"":""男"",""Education"":""高中毕业"",""Income"":""￥70,000-￥139,999"",""Children"":""0"",""Race"":""亚洲人""}","[0,1,2,3,4]"
"","","","","","survey-multi-select","136","291629","0.0-9.0","82","1","2022-11-13 09:23:20","49aca292d257f58668169b9fbab864ae","58.19.73.168","Mozilla/5.0 (iPhone; CPU iPhone OS 16_0 like Mac OS X) AppleWebKit/605.1.15 (KHTML, like Gecko) Version/16.0 Mobile/15E148 Safari/604.1","iPhone","Safari","16.0","iOS","16_0","8897","","{""Marriage"":[""未婚""],""Religion"":[""无宗教信仰""]}","[0,1]"
"","","","","","survey-multi-choice","137","301103","0.0-10.0","82","1","2022-11-13 09:23:20","49aca292d257f58668169b9fbab864ae","58.19.73.168","Mozilla/5.0 (iPhone; CPU iPhone OS 16_0 like Mac OS X) AppleWebKit/605.1.15 (KHTML, like Gecko) Version/16.0 Mobile/15E148 Safari/604.1","iPhone","Safari","16.0","iOS","16_0","9467","","{""SES"":""8""}","[0]"
"","","","","","html-button-response","138","310697","0.0-11.0","82","1","2022-11-13 09:23:20","49aca292d257f58668169b9fbab864ae","58.19.73.168","Mozilla/5.0 (iPhone; CPU iPhone OS 16_0 like Mac OS X) AppleWebKit/605.1.15 (KHTML, like Gecko) Version/16.0 Mobile/15E148 Safari/604.1","iPhone","Safari","16.0","iOS","16_0","9584","<p><strong>请判断下列陈述在多大程度上可以形容你？</p><p> (1 = ""和我一点都不像"" to 5 = ""非常像我"".)</strong></p>","0",""
"","","","","","survey-likert","139","366544","0.0-12.0","82","1","2022-11-13 09:23:20","49aca292d257f58668169b9fbab864ae","58.19.73.168","Mozilla/5.0 (iPhone; CPU iPhone OS 16_0 like Mac OS X) AppleWebKit/605.1.15 (KHTML, like Gecko) Version/16.0 Mobile/15E148 Safari/604.1","iPhone","Safari","16.0","iOS","16_0","55833","","{""Aggression1"":0,""Aggression2"":1,""Aggression3"":3,""Aggression4"":0,""Aggression5"":1,""Aggression6"":1,""Aggression7"":3,""Aggression8"":0,""Aggression9"":0}","[0,1,2,3,4,5,6,7,8]"
"","","","","","html-button-response","140","370746","0.0-13.0","82","1","2022-11-13 09:23:20","49aca292d257f58668169b9fbab864ae","58.19.73.168","Mozilla/5.0 (iPhone; CPU iPhone OS 16_0 like Mac OS X) AppleWebKit/605.1.15 (KHTML, like Gecko) Version/16.0 Mobile/15E148 Safari/604.1","iPhone","Safari","16.0","iOS","16_0","4193","<p><strong>请判断你在多大程度上同意下列陈述。</strong></p>","0",""
"","","","","","survey-likert","141","546990","0.0-14.0","82","1","2022-11-13 09:23:20","49aca292d257f58668169b9fbab864ae","58.19.73.168","Mozilla/5.0 (iPhone; CPU iPhone OS 16_0 like Mac OS X) AppleWebKit/605.1.15 (KHTML, like Gecko) Version/16.0 Mobile/15E148 Safari/604.1","iPhone","Safari","16.0","iOS","16_0","176228","","{""scale3"":1,""scale23"":2,""scale4"":1,""scale16"":2,""scale8"":3,""scale21"":3,""scale7"":2,""scale2"":3,""scale9"":3,""scale24"":0,""scale6"":3,""scale11"":3,""scale15"":1,""scale13"":1,""scale10"":2,""scale12"":3,""scale27"":1,""scale14"":1,""scale28"":3,""scale5"":2,""scale22"":2,""scale1"":0,""scale18"":1,""scale26"":1,""scale20"":3,""scale19"":3,""scale17"":3,""scale25"":3}","[2,22,3,15,7,20,6,1,8,23,5,10,14,12,9,11,26,13,27,4,21,0,17,25,19,18,16,24]"
"","","","","","html-button-response","142","548542","0.0-15.0","82","1","2022-11-13 09:23:20","49aca292d257f58668169b9fbab864ae","58.19.73.168","Mozilla/5.0 (iPhone; CPU iPhone OS 16_0 like Mac OS X) AppleWebKit/605.1.15 (KHTML, like Gecko) Version/16.0 Mobile/15E148 Safari/604.1","iPhone","Safari","16.0","iOS","16_0","1546","<p><strong>请判断你在多大程度上同意下列陈述。</strong></p>","0",""
"","","","","","survey-likert","143","679542","0.0-16.0","82","1","2022-11-13 09:23:20","49aca292d257f58668169b9fbab864ae","58.19.73.168","Mozilla/5.0 (iPhone; CPU iPhone OS 16_0 like Mac OS X) AppleWebKit/605.1.15 (KHTML, like Gecko) Version/16.0 Mobile/15E148 Safari/604.1","iPhone","Safari","16.0","iOS","16_0","130988","","{""sdo4"":4,""sdo9"":5,""sdo8"":4,""sdo3"":4,""sdo12"":5,""sdo5"":4,""sdo15"":5,""sdo2"":0,""sdo13"":6,""sdo1"":2,""sdo11"":6,""sdo6"":1,""sdo7"":2,""sdo16"":6,""sdo14"":4,""sdo10"":5}","[3,8,7,2,11,4,14,1,12,0,10,5,6,15,13,9]"
"","","","","","html-button-response","144","681180","0.0-17.0","82","1","2022-11-13 09:23:20","49aca292d257f58668169b9fbab864ae","58.19.73.168","Mozilla/5.0 (iPhone; CPU iPhone OS 16_0 like Mac OS X) AppleWebKit/605.1.15 (KHTML, like Gecko) Version/16.0 Mobile/15E148 Safari/604.1","iPhone","Safari","16.0","iOS","16_0","1631","<p><strong>请判断你在多大程度上同意下列陈述。</strong></p>","0",""
"","","","","","survey-likert","145","746552","0.0-18.0","82","1","2022-11-13 09:23:20","49aca292d257f58668169b9fbab864ae","58.19.73.168","Mozilla/5.0 (iPhone; CPU iPhone OS 16_0 like Mac OS X) AppleWebKit/605.1.15 (KHTML, like Gecko) Version/16.0 Mobile/15E148 Safari/604.1","iPhone","Safari","16.0","iOS","16_0","65363","","{""caring1"":1,""liking1"":1,""caring2"":3,""protection1"":3,""liking2"":2,""caring3"":3,""protection2"":2,""liking3"":1,""protection3"":3,""caring4"":3,""liking4"":2,""protection4"":3,""caring5"":2,""liking5"":1,""protection5"":2}","[0,1,2,3,4,5,6,7,8,9,10,11,12,13,14]"
"","","","","","html-button-response","146","748535","0.0-19.0","82","1","2022-11-13 09:23:20","49aca292d257f58668169b9fbab864ae","58.19.73.168","Mozilla/5.0 (iPhone; CPU iPhone OS 16_0 like Mac OS X) AppleWebKit/605.1.15 (KHTML, like Gecko) Version/16.0 Mobile/15E148 Safari/604.1","iPhone","Safari","16.0","iOS","16_0","1971","<p><strong>请判断下列场景中你的内心感受有多柔软。</strong></p>","0",""
"","","","","","survey-likert","147","803024","0.0-20.0","82","1","2022-11-13 09:23:20","49aca292d257f58668169b9fbab864ae","58.19.73.168","Mozilla/5.0 (iPhone; CPU iPhone OS 16_0 like Mac OS X) AppleWebKit/605.1.15 (KHTML, like Gecko) Version/16.0 Mobile/15E148 Safari/604.1","iPhone","Safari","16.0","iOS","16_0","54476","","{""tenderness-positive1"":3,""tenderness-negative1"":1,""tenderness-negative2"":1,""tenderness-positive2"":1,""tenderness-positive3"":3,""tenderness-negative3"":3,""tenderness-positive4"":3,""tenderness-negative4"":1,""tenderness-negative5"":1,""tenderness-positive5"":3}","[0,1,2,3,4,5,6,7,8,9]"
"","","","","","survey-multi-choice","148","813014","0.0-21.0","82","1","2022-11-13 09:23:20","49aca292d257f58668169b9fbab864ae","58.19.73.168","Mozilla/5.0 (iPhone; CPU iPhone OS 16_0 like Mac OS X) AppleWebKit/605.1.15 (KHTML, like Gecko) Version/16.0 Mobile/15E148 Safari/604.1","iPhone","Safari","16.0","iOS","16_0","9981","","{""Attention2"":""其他""}","[0]"
"","","","","","html-button-response","149","814780","0.0-22.0","82","1","2022-11-13 09:23:20","49aca292d257f58668169b9fbab864ae","58.19.73.168","Mozilla/5.0 (iPhone; CPU iPhone OS 16_0 like Mac OS X) AppleWebKit/605.1.15 (KHTML, like Gecko) Version/16.0 Mobile/15E148 Safari/604.1","iPhone","Safari","16.0","iOS","16_0","1757","<p><strong>请判断你在多大程度上同意下列陈述。</strong></p>","0",""
"","","","","","survey-likert","150","946432","0.0-23.0","82","1","2022-11-13 09:23:20","49aca292d257f58668169b9fbab864ae","58.19.73.168","Mozilla/5.0 (iPhone; CPU iPhone OS 16_0 like Mac OS X) AppleWebKit/605.1.15 (KHTML, like Gecko) Version/16.0 Mobile/15E148 Safari/604.1","iPhone","Safari","16.0","iOS","16_0","131641","","{""Nation6"":4,""Patri3"":4,""Patri5"":4,""Patri1"":4,""Patri11"":0,""Patri10"":0,""Patri9"":0,""Nation4"":3,""Patri7"":4,""Nation2"":4,""Patri12"":0,""Patri4"":2,""Patri6"":0,""Patri8"":4,""Patri2"":4,""Nation1"":4,""Nation3"":1,""Nation7"":4,""Nation8"":0,""Nation5"":4}","[17,2,4,0,10,9,8,15,6,13,11,3,5,7,1,12,14,18,19,16]"
"","","","","","html-button-response","151","949707","0.0-24.0","82","1","2022-11-13 09:23:20","49aca292d257f58668169b9fbab864ae","58.19.73.168","Mozilla/5.0 (iPhone; CPU iPhone OS 16_0 like Mac OS X) AppleWebKit/605.1.15 (KHTML, like Gecko) Version/16.0 Mobile/15E148 Safari/604.1","iPhone","Safari","16.0","iOS","16_0","3269","<p><strong>请判断你在多大程度上同意下列陈述。</strong></p>","0",""
"","","","","","survey-likert","152","1017290","0.0-25.0","82","1","2022-11-13 09:23:20","49aca292d257f58668169b9fbab864ae","58.19.73.168","Mozilla/5.0 (iPhone; CPU iPhone OS 16_0 like Mac OS X) AppleWebKit/605.1.15 (KHTML, like Gecko) Version/16.0 Mobile/15E148 Safari/604.1","iPhone","Safari","16.0","iOS","16_0","67569","","{""vi3"":6,""vc1"":8,""vc2"":8,""hi1"":2,""vi1"":6,""hc3"":6,""hc4"":6,""hc2"":8,""vc3"":8,""hi4"":2,""hi2"":3,""hi3"":2,""vc4"":8,""vi4"":2,""Robot"":6,""hc1"":8,""vi2"":5}","[6,13,14,0,4,11,12,10,15,3,1,2,16,8,7,9,5]"
"","","","","","survey-text","153","1050204","0.0-26.0","82","1","2022-11-13 09:23:20","49aca292d257f58668169b9fbab864ae","58.19.73.168","Mozilla/5.0 (iPhone; CPU iPhone OS 16_0 like Mac OS X) AppleWebKit/605.1.15 (KHTML, like Gecko) Version/16.0 Mobile/15E148 Safari/604.1","iPhone","Safari","16.0","iOS","16_0","32905","","{""Comments"":""好、让我重新认识反思了自己""}",""
"","","","","","html-button-response","154","1051310","0.0-27.0","82","1","2022-11-13 09:23:20","49aca292d257f58668169b9fbab864ae","58.19.73.168","Mozilla/5.0 (iPhone; CPU iPhone OS 16_0 like Mac OS X) AppleWebKit/605.1.15 (KHTML, like Gecko) Version/16.0 Mobile/15E148 Safari/604.1","iPhone","Safari","16.0","iOS","16_0","1100","<strong><p>恭喜你完成了实验！</p><p>感谢您的参与。</p></strong>","0",""
