"success","timeout","failed_images","failed_audio","failed_video","trial_type","trial_index","time_elapsed","internal_node_id","run_id","condition","recorded_at","source_code_version","ip","user_agent","device","browser","browser_version","platform","platform_version","rt","stimulus","response","question_order"
"true","false","[]","[]","[]","preload","0","2699","0.0-0.0","85","1","2022-11-13 09:30:21","49aca292d257f58668169b9fbab864ae","222.20.193.181","Mozilla/5.0 (Macintosh; Intel Mac OS X 10_15_7) AppleWebKit/605.1.15 (KHTML, like Gecko) Version/16.1 Safari/605.1.15","Macintosh","Safari","16.1","OS X","10_15_7","","","",""
"true","","","","","fullscreen","1","6587","0.0-1.0","85","1","2022-11-13 09:30:21","49aca292d257f58668169b9fbab864ae","222.20.193.181","Mozilla/5.0 (Macintosh; Intel Mac OS X 10_15_7) AppleWebKit/605.1.15 (KHTML, like Gecko) Version/16.1 Safari/605.1.15","Macintosh","Safari","16.1","OS X","10_15_7","","","",""
"","","","","","html-button-response","2","73790","0.0-2.0","85","1","2022-11-13 09:30:21","49aca292d257f58668169b9fbab864ae","222.20.193.181","Mozilla/5.0 (Macintosh; Intel Mac OS X 10_15_7) AppleWebKit/605.1.15 (KHTML, like Gecko) Version/16.1 Safari/605.1.15","Macintosh","Safari","16.1","OS X","10_15_7","67199","<p style=""font-size:20px;font-weight:bold;"">实验知情同意书</p><p style=""text-align:left;""><strong>实验名称：</strong>社会冲突研究</p><p style=""text-align:left;""><strong>主要研究者：</strong>韩晓春副教授（北京师范大学心理学部）</p><p style=""text-align:left;""><strong>联系方式：</strong>发送邮件至xiaochun.han@bnu.edu.cn</p><p style=""text-align:left;""><strong>研究目的：</strong>研究旨在了解人类面对群体冲突时的决策方式，以及相关的心理学特质。实验调查大约需要20分钟。</p><p style=""text-align:left;""><strong>实验流程：</strong>实验包含两部分。第一部分呈现一系列群体冲突场景，请你决定如何对这些冲突进行反应，大约需要10分钟完成。第二部分包含一系列人口统计学信息收集和心理学问卷，大约需要10分钟完成。</p><p style=""text-align:left;""><strong>参加及退出规则：</strong>参加本实验完全取决于您的个人意愿。在参与过程中，您可以随时退出，并且不用承担任何后果。</p><p style=""text-align:left;""><strong>隐私：</strong>本实验完全匿名进行，不会收集您的姓名或其他能够识别您身份的信息。实验中收集的作答仅用作科学研究使用，可能会在学术期刊/书籍上发表，或者用于教学，您的数据未来可能会和其他研究者或实验室分享，但您的个人身份不会被识别。</p><p style=""text-align:left;""><strong>实验报酬：</strong>实验完成后，您将获得15元人民币报酬，以感谢您的时间和努力。调查问卷中包含几道题目用以测验您作答时的认真度。只有完成全部实验，并且正确回答认真度测验的被试才能获得实验报酬。实验报酬将通过支付宝转账发放。</p><p style=""text-align:left;font-size:20px;""><strong>如果您同意以上实验知情同意书的内容，请点击'同意并且开始实验'按钮；否则请关闭浏览器界面，退出实验。</strong></p>","0",""
"","","","","","html-button-response","3","81796","0.0-3.0","85","1","2022-11-13 09:30:21","49aca292d257f58668169b9fbab864ae","222.20.193.181","Mozilla/5.0 (Macintosh; Intel Mac OS X 10_15_7) AppleWebKit/605.1.15 (KHTML, like Gecko) Version/16.1 Safari/605.1.15","Macintosh","Safari","16.1","OS X","10_15_7","7995","<p ><strong>实验任务一：</strong></p><p>请想象你的国家与另一个国家发生了军事冲突。</p><p>你是国家军队的指挥官，你将如何在冲突中进行决策。</p><p>具体来说，作为军队指挥官，请你决定是否发射导弹进行打击。</p><p>接下来，你会面对一系列场景，请仔细阅读每个场景，然后进行决策。</p><p>这部分实验任务大约需要10分钟。</p><p><strong>实验过程中，请集中注意力。</strong></p>","0",""
"","","","","","html-keyboard-response","4","82799","0.0-4.0-0.0","85","1","2022-11-13 09:30:21","49aca292d257f58668169b9fbab864ae","222.20.193.181","Mozilla/5.0 (Macintosh; Intel Mac OS X 10_15_7) AppleWebKit/605.1.15 (KHTML, like Gecko) Version/16.1 Safari/605.1.15","Macintosh","Safari","16.1","OS X","10_15_7","null","<div style=""font-size:60px;"">+</div>","null",""
"","","","","","html-button-response","5","86828","0.0-4.0-1.0","85","1","2022-11-13 09:30:21","49aca292d257f58668169b9fbab864ae","222.20.193.181","Mozilla/5.0 (Macintosh; Intel Mac OS X 10_15_7) AppleWebKit/605.1.15 (KHTML, like Gecko) Version/16.1 Safari/605.1.15","Macintosh","Safari","16.1","OS X","10_15_7","4027","<p>作为军队的指挥官，你可以选择发射导弹杀死 <strong>8名</strong> 敌国士兵，但会误杀附近的 <strong>1名</strong> 敌国平民。</p> <p>平民照片如下图所示。</p> <p></p> <img src='stimuli/faces/PFM8.jpg', style='max-width: 30%;'> </img> <p><strong>你是否选择发射武器？</strong></p>","0",""
"","","","","","html-keyboard-response","6","87831","0.0-4.0-0.1","85","1","2022-11-13 09:30:21","49aca292d257f58668169b9fbab864ae","222.20.193.181","Mozilla/5.0 (Macintosh; Intel Mac OS X 10_15_7) AppleWebKit/605.1.15 (KHTML, like Gecko) Version/16.1 Safari/605.1.15","Macintosh","Safari","16.1","OS X","10_15_7","null","<div style=""font-size:60px;"">+</div>","null",""
"","","","","","html-button-response","7","92605","0.0-4.0-1.1","85","1","2022-11-13 09:30:21","49aca292d257f58668169b9fbab864ae","222.20.193.181","Mozilla/5.0 (Macintosh; Intel Mac OS X 10_15_7) AppleWebKit/605.1.15 (KHTML, like Gecko) Version/16.1 Safari/605.1.15","Macintosh","Safari","16.1","OS X","10_15_7","4772","<p>作为军队的指挥官，你可以选择发射导弹杀死 <strong>2名</strong> 敌国士兵，但会炸毁附近的 <strong>1棵</strong> 敌国树木。</p> <p>树木的照片如下图所示。</p> <p></p> <img src='stimuli/trees/16.png', style='max-width: 30%;'> </img> <p><strong>你是否选择发射武器？</strong></p>","0",""
"","","","","","html-keyboard-response","8","93608","0.0-4.0-0.2","85","1","2022-11-13 09:30:21","49aca292d257f58668169b9fbab864ae","222.20.193.181","Mozilla/5.0 (Macintosh; Intel Mac OS X 10_15_7) AppleWebKit/605.1.15 (KHTML, like Gecko) Version/16.1 Safari/605.1.15","Macintosh","Safari","16.1","OS X","10_15_7","null","<div style=""font-size:60px;"">+</div>","null",""
"","","","","","html-button-response","9","96356","0.0-4.0-1.2","85","1","2022-11-13 09:30:21","49aca292d257f58668169b9fbab864ae","222.20.193.181","Mozilla/5.0 (Macintosh; Intel Mac OS X 10_15_7) AppleWebKit/605.1.15 (KHTML, like Gecko) Version/16.1 Safari/605.1.15","Macintosh","Safari","16.1","OS X","10_15_7","2746","<p>作为军队的指挥官，你可以选择发射导弹杀死 <strong>7名</strong> 敌国士兵，但会炸毁附近的 <strong>1棵</strong> 敌国树木。</p> <p>树木的照片如下图所示。</p> <p></p> <img src='stimuli/trees/2.png', style='max-width: 30%;'> </img> <p><strong>你是否选择发射武器？</strong></p>","0",""
"","","","","","html-keyboard-response","10","97360","0.0-4.0-0.3","85","1","2022-11-13 09:30:21","49aca292d257f58668169b9fbab864ae","222.20.193.181","Mozilla/5.0 (Macintosh; Intel Mac OS X 10_15_7) AppleWebKit/605.1.15 (KHTML, like Gecko) Version/16.1 Safari/605.1.15","Macintosh","Safari","16.1","OS X","10_15_7","null","<div style=""font-size:60px;"">+</div>","null",""
"","","","","","html-button-response","11","100828","0.0-4.0-1.3","85","1","2022-11-13 09:30:21","49aca292d257f58668169b9fbab864ae","222.20.193.181","Mozilla/5.0 (Macintosh; Intel Mac OS X 10_15_7) AppleWebKit/605.1.15 (KHTML, like Gecko) Version/16.1 Safari/605.1.15","Macintosh","Safari","16.1","OS X","10_15_7","3466","<p>作为军队的指挥官，你可以选择发射导弹杀死 <strong>8名</strong> 敌国士兵，但会误杀附近的 <strong>1名</strong> 敌国平民。</p> <p>平民照片如下图所示。</p> <p></p> <img src='stimuli/faces/PFM1.jpg', style='max-width: 30%;'> </img> <p><strong>你是否选择发射武器？</strong></p>","0",""
"","","","","","html-keyboard-response","12","101831","0.0-4.0-0.4","85","1","2022-11-13 09:30:21","49aca292d257f58668169b9fbab864ae","222.20.193.181","Mozilla/5.0 (Macintosh; Intel Mac OS X 10_15_7) AppleWebKit/605.1.15 (KHTML, like Gecko) Version/16.1 Safari/605.1.15","Macintosh","Safari","16.1","OS X","10_15_7","null","<div style=""font-size:60px;"">+</div>","null",""
"","","","","","html-button-response","13","104021","0.0-4.0-1.4","85","1","2022-11-13 09:30:21","49aca292d257f58668169b9fbab864ae","222.20.193.181","Mozilla/5.0 (Macintosh; Intel Mac OS X 10_15_7) AppleWebKit/605.1.15 (KHTML, like Gecko) Version/16.1 Safari/605.1.15","Macintosh","Safari","16.1","OS X","10_15_7","2187","<p>作为军队的指挥官，你可以选择发射导弹杀死 <strong>2名</strong> 敌国士兵，但会炸毁附近的 <strong>1棵</strong> 敌国树木。</p> <p>树木的照片如下图所示。</p> <p></p> <img src='stimuli/trees/6.png', style='max-width: 30%;'> </img> <p><strong>你是否选择发射武器？</strong></p>","0",""
"","","","","","html-keyboard-response","14","105025","0.0-4.0-0.5","85","1","2022-11-13 09:30:21","49aca292d257f58668169b9fbab864ae","222.20.193.181","Mozilla/5.0 (Macintosh; Intel Mac OS X 10_15_7) AppleWebKit/605.1.15 (KHTML, like Gecko) Version/16.1 Safari/605.1.15","Macintosh","Safari","16.1","OS X","10_15_7","null","<div style=""font-size:60px;"">+</div>","null",""
"","","","","","html-button-response","15","108280","0.0-4.0-1.5","85","1","2022-11-13 09:30:21","49aca292d257f58668169b9fbab864ae","222.20.193.181","Mozilla/5.0 (Macintosh; Intel Mac OS X 10_15_7) AppleWebKit/605.1.15 (KHTML, like Gecko) Version/16.1 Safari/605.1.15","Macintosh","Safari","16.1","OS X","10_15_7","3251","<p>作为军队的指挥官，你可以选择发射导弹杀死 <strong>5名</strong> 敌国士兵，但会误杀附近的 <strong>1名</strong> 敌国平民。</p> <p>平民照片如下图所示。</p> <p></p> <img src='stimuli/faces/PFF4.jpg', style='max-width: 30%;'> </img> <p><strong>你是否选择发射武器？</strong></p>","0",""
"","","","","","html-keyboard-response","16","109283","0.0-4.0-0.6","85","1","2022-11-13 09:30:21","49aca292d257f58668169b9fbab864ae","222.20.193.181","Mozilla/5.0 (Macintosh; Intel Mac OS X 10_15_7) AppleWebKit/605.1.15 (KHTML, like Gecko) Version/16.1 Safari/605.1.15","Macintosh","Safari","16.1","OS X","10_15_7","null","<div style=""font-size:60px;"">+</div>","null",""
"","","","","","html-button-response","17","113362","0.0-4.0-1.6","85","1","2022-11-13 09:30:21","49aca292d257f58668169b9fbab864ae","222.20.193.181","Mozilla/5.0 (Macintosh; Intel Mac OS X 10_15_7) AppleWebKit/605.1.15 (KHTML, like Gecko) Version/16.1 Safari/605.1.15","Macintosh","Safari","16.1","OS X","10_15_7","4073","<p>作为军队的指挥官，你可以选择发射导弹杀死 <strong>6名</strong> 敌国士兵，但会炸毁附近的 <strong>1棵</strong> 敌国树木。</p> <p>树木的照片如下图所示。</p> <p></p> <img src='stimuli/trees/11.png', style='max-width: 30%;'> </img> <p><strong>你是否选择发射武器？</strong></p>","0",""
"","","","","","html-keyboard-response","18","114365","0.0-4.0-0.7","85","1","2022-11-13 09:30:21","49aca292d257f58668169b9fbab864ae","222.20.193.181","Mozilla/5.0 (Macintosh; Intel Mac OS X 10_15_7) AppleWebKit/605.1.15 (KHTML, like Gecko) Version/16.1 Safari/605.1.15","Macintosh","Safari","16.1","OS X","10_15_7","null","<div style=""font-size:60px;"">+</div>","null",""
"","","","","","html-button-response","19","115829","0.0-4.0-1.7","85","1","2022-11-13 09:30:21","49aca292d257f58668169b9fbab864ae","222.20.193.181","Mozilla/5.0 (Macintosh; Intel Mac OS X 10_15_7) AppleWebKit/605.1.15 (KHTML, like Gecko) Version/16.1 Safari/605.1.15","Macintosh","Safari","16.1","OS X","10_15_7","1461","<p>作为军队的指挥官，你可以选择发射导弹杀死 <strong>8名</strong> 敌国士兵，但会炸毁附近的 <strong>1棵</strong> 敌国树木。</p> <p>树木的照片如下图所示。</p> <p></p> <img src='stimuli/trees/14.png', style='max-width: 30%;'> </img> <p><strong>你是否选择发射武器？</strong></p>","0",""
"","","","","","html-keyboard-response","20","116832","0.0-4.0-0.8","85","1","2022-11-13 09:30:21","49aca292d257f58668169b9fbab864ae","222.20.193.181","Mozilla/5.0 (Macintosh; Intel Mac OS X 10_15_7) AppleWebKit/605.1.15 (KHTML, like Gecko) Version/16.1 Safari/605.1.15","Macintosh","Safari","16.1","OS X","10_15_7","null","<div style=""font-size:60px;"">+</div>","null",""
"","","","","","html-button-response","21","117986","0.0-4.0-1.8","85","1","2022-11-13 09:30:21","49aca292d257f58668169b9fbab864ae","222.20.193.181","Mozilla/5.0 (Macintosh; Intel Mac OS X 10_15_7) AppleWebKit/605.1.15 (KHTML, like Gecko) Version/16.1 Safari/605.1.15","Macintosh","Safari","16.1","OS X","10_15_7","1147","<p>作为军队的指挥官，你可以选择发射导弹杀死 <strong>6名</strong> 敌国士兵，但会误杀附近的 <strong>1名</strong> 敌国平民。</p> <p>平民照片如下图所示。</p> <p></p> <img src='stimuli/faces/PFF6.jpg', style='max-width: 30%;'> </img> <p><strong>你是否选择发射武器？</strong></p>","0",""
"","","","","","html-keyboard-response","22","118988","0.0-4.0-0.9","85","1","2022-11-13 09:30:21","49aca292d257f58668169b9fbab864ae","222.20.193.181","Mozilla/5.0 (Macintosh; Intel Mac OS X 10_15_7) AppleWebKit/605.1.15 (KHTML, like Gecko) Version/16.1 Safari/605.1.15","Macintosh","Safari","16.1","OS X","10_15_7","null","<div style=""font-size:60px;"">+</div>","null",""
"","","","","","html-button-response","23","120701","0.0-4.0-1.9","85","1","2022-11-13 09:30:21","49aca292d257f58668169b9fbab864ae","222.20.193.181","Mozilla/5.0 (Macintosh; Intel Mac OS X 10_15_7) AppleWebKit/605.1.15 (KHTML, like Gecko) Version/16.1 Safari/605.1.15","Macintosh","Safari","16.1","OS X","10_15_7","1711","<p>作为军队的指挥官，你可以选择发射导弹杀死 <strong>1名</strong> 敌国士兵，但会炸毁附近的 <strong>1棵</strong> 敌国树木。</p> <p>树木的照片如下图所示。</p> <p></p> <img src='stimuli/trees/2.png', style='max-width: 30%;'> </img> <p><strong>你是否选择发射武器？</strong></p>","0",""
"","","","","","html-keyboard-response","24","121704","0.0-4.0-0.10","85","1","2022-11-13 09:30:21","49aca292d257f58668169b9fbab864ae","222.20.193.181","Mozilla/5.0 (Macintosh; Intel Mac OS X 10_15_7) AppleWebKit/605.1.15 (KHTML, like Gecko) Version/16.1 Safari/605.1.15","Macintosh","Safari","16.1","OS X","10_15_7","null","<div style=""font-size:60px;"">+</div>","null",""
"","","","","","html-button-response","25","134876","0.0-4.0-1.10","85","1","2022-11-13 09:30:21","49aca292d257f58668169b9fbab864ae","222.20.193.181","Mozilla/5.0 (Macintosh; Intel Mac OS X 10_15_7) AppleWebKit/605.1.15 (KHTML, like Gecko) Version/16.1 Safari/605.1.15","Macintosh","Safari","16.1","OS X","10_15_7","13169","<p>作为军队的指挥官，你可以选择发射导弹杀死 <strong>3名</strong> 敌国士兵，但会误杀附近的 <strong>1名</strong> 敌国平民。</p> <p>平民照片如下图所示。</p> <p></p> <img src='stimuli/faces/PFF3.jpg', style='max-width: 30%;'> </img> <p><strong>你是否选择发射武器？</strong></p>","0",""
"","","","","","html-keyboard-response","26","135879","0.0-4.0-0.11","85","1","2022-11-13 09:30:21","49aca292d257f58668169b9fbab864ae","222.20.193.181","Mozilla/5.0 (Macintosh; Intel Mac OS X 10_15_7) AppleWebKit/605.1.15 (KHTML, like Gecko) Version/16.1 Safari/605.1.15","Macintosh","Safari","16.1","OS X","10_15_7","null","<div style=""font-size:60px;"">+</div>","null",""
"","","","","","html-button-response","27","140379","0.0-4.0-1.11","85","1","2022-11-13 09:30:21","49aca292d257f58668169b9fbab864ae","222.20.193.181","Mozilla/5.0 (Macintosh; Intel Mac OS X 10_15_7) AppleWebKit/605.1.15 (KHTML, like Gecko) Version/16.1 Safari/605.1.15","Macintosh","Safari","16.1","OS X","10_15_7","4496","<p>作为军队的指挥官，你可以选择发射导弹杀死 <strong>1名</strong> 敌国士兵，但会误杀附近的 <strong>1名</strong> 敌国平民。</p> <p>平民照片如下图所示。</p> <p></p> <img src='stimuli/faces/PFF2.jpg', style='max-width: 30%;'> </img> <p><strong>你是否选择发射武器？</strong></p>","1",""
"","","","","","html-keyboard-response","28","141383","0.0-4.0-0.12","85","1","2022-11-13 09:30:21","49aca292d257f58668169b9fbab864ae","222.20.193.181","Mozilla/5.0 (Macintosh; Intel Mac OS X 10_15_7) AppleWebKit/605.1.15 (KHTML, like Gecko) Version/16.1 Safari/605.1.15","Macintosh","Safari","16.1","OS X","10_15_7","null","<div style=""font-size:60px;"">+</div>","null",""
"","","","","","html-button-response","29","144182","0.0-4.0-1.12","85","1","2022-11-13 09:30:21","49aca292d257f58668169b9fbab864ae","222.20.193.181","Mozilla/5.0 (Macintosh; Intel Mac OS X 10_15_7) AppleWebKit/605.1.15 (KHTML, like Gecko) Version/16.1 Safari/605.1.15","Macintosh","Safari","16.1","OS X","10_15_7","2796","<p>作为军队的指挥官，你可以选择发射导弹杀死 <strong>2名</strong> 敌国士兵，但会误杀附近的 <strong>1名</strong> 敌国平民。</p> <p>平民照片如下图所示。</p> <p></p> <img src='stimuli/faces/PFF6.jpg', style='max-width: 30%;'> </img> <p><strong>你是否选择发射武器？</strong></p>","0",""
"","","","","","html-keyboard-response","30","145184","0.0-4.0-0.13","85","1","2022-11-13 09:30:21","49aca292d257f58668169b9fbab864ae","222.20.193.181","Mozilla/5.0 (Macintosh; Intel Mac OS X 10_15_7) AppleWebKit/605.1.15 (KHTML, like Gecko) Version/16.1 Safari/605.1.15","Macintosh","Safari","16.1","OS X","10_15_7","null","<div style=""font-size:60px;"">+</div>","null",""
"","","","","","html-button-response","31","148427","0.0-4.0-1.13","85","1","2022-11-13 09:30:21","49aca292d257f58668169b9fbab864ae","222.20.193.181","Mozilla/5.0 (Macintosh; Intel Mac OS X 10_15_7) AppleWebKit/605.1.15 (KHTML, like Gecko) Version/16.1 Safari/605.1.15","Macintosh","Safari","16.1","OS X","10_15_7","3241","<p>作为军队的指挥官，你可以选择发射导弹杀死 <strong>4名</strong> 敌国士兵，但会炸毁附近的 <strong>1棵</strong> 敌国树木。</p> <p>树木的照片如下图所示。</p> <p></p> <img src='stimuli/trees/3.png', style='max-width: 30%;'> </img> <p><strong>你是否选择发射武器？</strong></p>","0",""
"","","","","","html-keyboard-response","32","149430","0.0-4.0-0.14","85","1","2022-11-13 09:30:21","49aca292d257f58668169b9fbab864ae","222.20.193.181","Mozilla/5.0 (Macintosh; Intel Mac OS X 10_15_7) AppleWebKit/605.1.15 (KHTML, like Gecko) Version/16.1 Safari/605.1.15","Macintosh","Safari","16.1","OS X","10_15_7","null","<div style=""font-size:60px;"">+</div>","null",""
"","","","","","html-button-response","33","153587","0.0-4.0-1.14","85","1","2022-11-13 09:30:21","49aca292d257f58668169b9fbab864ae","222.20.193.181","Mozilla/5.0 (Macintosh; Intel Mac OS X 10_15_7) AppleWebKit/605.1.15 (KHTML, like Gecko) Version/16.1 Safari/605.1.15","Macintosh","Safari","16.1","OS X","10_15_7","4154","<p>作为军队的指挥官，你可以选择发射导弹杀死 <strong>8名</strong> 敌国士兵，但会误杀附近的 <strong>1名</strong> 敌国平民。</p> <p>平民照片如下图所示。</p> <p></p> <img src='stimuli/faces/PFM6.jpg', style='max-width: 30%;'> </img> <p><strong>你是否选择发射武器？</strong></p>","0",""
"","","","","","html-keyboard-response","34","154592","0.0-4.0-0.15","85","1","2022-11-13 09:30:21","49aca292d257f58668169b9fbab864ae","222.20.193.181","Mozilla/5.0 (Macintosh; Intel Mac OS X 10_15_7) AppleWebKit/605.1.15 (KHTML, like Gecko) Version/16.1 Safari/605.1.15","Macintosh","Safari","16.1","OS X","10_15_7","null","<div style=""font-size:60px;"">+</div>","null",""
"","","","","","html-button-response","35","162772","0.0-4.0-1.15","85","1","2022-11-13 09:30:21","49aca292d257f58668169b9fbab864ae","222.20.193.181","Mozilla/5.0 (Macintosh; Intel Mac OS X 10_15_7) AppleWebKit/605.1.15 (KHTML, like Gecko) Version/16.1 Safari/605.1.15","Macintosh","Safari","16.1","OS X","10_15_7","8174","<p>作为军队的指挥官，你可以选择发射导弹杀死 <strong>10名</strong> 敌国士兵，但会误杀附近的 <strong>1名</strong> 敌国平民。</p> <p>平民照片如下图所示。</p> <p></p> <img src='stimuli/faces/PFF5.jpg', style='max-width: 30%;'> </img> <p><strong>你是否选择发射武器？</strong></p>","0",""
"","","","","","html-keyboard-response","36","163776","0.0-4.0-0.16","85","1","2022-11-13 09:30:21","49aca292d257f58668169b9fbab864ae","222.20.193.181","Mozilla/5.0 (Macintosh; Intel Mac OS X 10_15_7) AppleWebKit/605.1.15 (KHTML, like Gecko) Version/16.1 Safari/605.1.15","Macintosh","Safari","16.1","OS X","10_15_7","null","<div style=""font-size:60px;"">+</div>","null",""
"","","","","","html-button-response","37","165618","0.0-4.0-1.16","85","1","2022-11-13 09:30:21","49aca292d257f58668169b9fbab864ae","222.20.193.181","Mozilla/5.0 (Macintosh; Intel Mac OS X 10_15_7) AppleWebKit/605.1.15 (KHTML, like Gecko) Version/16.1 Safari/605.1.15","Macintosh","Safari","16.1","OS X","10_15_7","1840","<p>作为军队的指挥官，你可以选择发射导弹杀死 <strong>3名</strong> 敌国士兵，但会炸毁附近的 <strong>1棵</strong> 敌国树木。</p> <p>树木的照片如下图所示。</p> <p></p> <img src='stimuli/trees/9.png', style='max-width: 30%;'> </img> <p><strong>你是否选择发射武器？</strong></p>","0",""
"","","","","","html-keyboard-response","38","166622","0.0-4.0-0.17","85","1","2022-11-13 09:30:21","49aca292d257f58668169b9fbab864ae","222.20.193.181","Mozilla/5.0 (Macintosh; Intel Mac OS X 10_15_7) AppleWebKit/605.1.15 (KHTML, like Gecko) Version/16.1 Safari/605.1.15","Macintosh","Safari","16.1","OS X","10_15_7","null","<div style=""font-size:60px;"">+</div>","null",""
"","","","","","html-button-response","39","168461","0.0-4.0-1.17","85","1","2022-11-13 09:30:21","49aca292d257f58668169b9fbab864ae","222.20.193.181","Mozilla/5.0 (Macintosh; Intel Mac OS X 10_15_7) AppleWebKit/605.1.15 (KHTML, like Gecko) Version/16.1 Safari/605.1.15","Macintosh","Safari","16.1","OS X","10_15_7","1835","<p>作为军队的指挥官，你可以选择发射导弹杀死 <strong>4名</strong> 敌国士兵，但会炸毁附近的 <strong>1棵</strong> 敌国树木。</p> <p>树木的照片如下图所示。</p> <p></p> <img src='stimuli/trees/11.png', style='max-width: 30%;'> </img> <p><strong>你是否选择发射武器？</strong></p>","0",""
"","","","","","html-keyboard-response","40","169465","0.0-4.0-0.18","85","1","2022-11-13 09:30:21","49aca292d257f58668169b9fbab864ae","222.20.193.181","Mozilla/5.0 (Macintosh; Intel Mac OS X 10_15_7) AppleWebKit/605.1.15 (KHTML, like Gecko) Version/16.1 Safari/605.1.15","Macintosh","Safari","16.1","OS X","10_15_7","null","<div style=""font-size:60px;"">+</div>","null",""
"","","","","","html-button-response","41","171033","0.0-4.0-1.18","85","1","2022-11-13 09:30:21","49aca292d257f58668169b9fbab864ae","222.20.193.181","Mozilla/5.0 (Macintosh; Intel Mac OS X 10_15_7) AppleWebKit/605.1.15 (KHTML, like Gecko) Version/16.1 Safari/605.1.15","Macintosh","Safari","16.1","OS X","10_15_7","1564","<p>作为军队的指挥官，你可以选择发射导弹杀死 <strong>6名</strong> 敌国士兵，但会误杀附近的 <strong>1名</strong> 敌国平民。</p> <p>平民照片如下图所示。</p> <p></p> <img src='stimuli/faces/PFF3.jpg', style='max-width: 30%;'> </img> <p><strong>你是否选择发射武器？</strong></p>","0",""
"","","","","","html-keyboard-response","42","172036","0.0-4.0-0.19","85","1","2022-11-13 09:30:21","49aca292d257f58668169b9fbab864ae","222.20.193.181","Mozilla/5.0 (Macintosh; Intel Mac OS X 10_15_7) AppleWebKit/605.1.15 (KHTML, like Gecko) Version/16.1 Safari/605.1.15","Macintosh","Safari","16.1","OS X","10_15_7","null","<div style=""font-size:60px;"">+</div>","null",""
"","","","","","html-button-response","43","173679","0.0-4.0-1.19","85","1","2022-11-13 09:30:21","49aca292d257f58668169b9fbab864ae","222.20.193.181","Mozilla/5.0 (Macintosh; Intel Mac OS X 10_15_7) AppleWebKit/605.1.15 (KHTML, like Gecko) Version/16.1 Safari/605.1.15","Macintosh","Safari","16.1","OS X","10_15_7","1639","<p>作为军队的指挥官，你可以选择发射导弹杀死 <strong>2名</strong> 敌国士兵，但会误杀附近的 <strong>1名</strong> 敌国平民。</p> <p>平民照片如下图所示。</p> <p></p> <img src='stimuli/faces/PFM8.jpg', style='max-width: 30%;'> </img> <p><strong>你是否选择发射武器？</strong></p>","0",""
"","","","","","html-keyboard-response","44","174682","0.0-4.0-0.20","85","1","2022-11-13 09:30:21","49aca292d257f58668169b9fbab864ae","222.20.193.181","Mozilla/5.0 (Macintosh; Intel Mac OS X 10_15_7) AppleWebKit/605.1.15 (KHTML, like Gecko) Version/16.1 Safari/605.1.15","Macintosh","Safari","16.1","OS X","10_15_7","null","<div style=""font-size:60px;"">+</div>","null",""
"","","","","","html-button-response","45","176856","0.0-4.0-1.20","85","1","2022-11-13 09:30:21","49aca292d257f58668169b9fbab864ae","222.20.193.181","Mozilla/5.0 (Macintosh; Intel Mac OS X 10_15_7) AppleWebKit/605.1.15 (KHTML, like Gecko) Version/16.1 Safari/605.1.15","Macintosh","Safari","16.1","OS X","10_15_7","2171","<p>作为军队的指挥官，你可以选择发射导弹杀死 <strong>4名</strong> 敌国士兵，但会炸毁附近的 <strong>1棵</strong> 敌国树木。</p> <p>树木的照片如下图所示。</p> <p></p> <img src='stimuli/trees/8.png', style='max-width: 30%;'> </img> <p><strong>你是否选择发射武器？</strong></p>","0",""
"","","","","","html-keyboard-response","46","177860","0.0-4.0-0.21","85","1","2022-11-13 09:30:21","49aca292d257f58668169b9fbab864ae","222.20.193.181","Mozilla/5.0 (Macintosh; Intel Mac OS X 10_15_7) AppleWebKit/605.1.15 (KHTML, like Gecko) Version/16.1 Safari/605.1.15","Macintosh","Safari","16.1","OS X","10_15_7","null","<div style=""font-size:60px;"">+</div>","null",""
"","","","","","html-button-response","47","181234","0.0-4.0-1.21","85","1","2022-11-13 09:30:21","49aca292d257f58668169b9fbab864ae","222.20.193.181","Mozilla/5.0 (Macintosh; Intel Mac OS X 10_15_7) AppleWebKit/605.1.15 (KHTML, like Gecko) Version/16.1 Safari/605.1.15","Macintosh","Safari","16.1","OS X","10_15_7","3370","<p>作为军队的指挥官，你可以选择发射导弹杀死 <strong>1名</strong> 敌国士兵，但会炸毁附近的 <strong>1棵</strong> 敌国树木。</p> <p>树木的照片如下图所示。</p> <p></p> <img src='stimuli/trees/15.png', style='max-width: 30%;'> </img> <p><strong>你是否选择发射武器？</strong></p>","1",""
"","","","","","html-keyboard-response","48","182236","0.0-4.0-0.22","85","1","2022-11-13 09:30:21","49aca292d257f58668169b9fbab864ae","222.20.193.181","Mozilla/5.0 (Macintosh; Intel Mac OS X 10_15_7) AppleWebKit/605.1.15 (KHTML, like Gecko) Version/16.1 Safari/605.1.15","Macintosh","Safari","16.1","OS X","10_15_7","null","<div style=""font-size:60px;"">+</div>","null",""
"","","","","","html-button-response","49","183749","0.0-4.0-1.22","85","1","2022-11-13 09:30:21","49aca292d257f58668169b9fbab864ae","222.20.193.181","Mozilla/5.0 (Macintosh; Intel Mac OS X 10_15_7) AppleWebKit/605.1.15 (KHTML, like Gecko) Version/16.1 Safari/605.1.15","Macintosh","Safari","16.1","OS X","10_15_7","1511","<p>作为军队的指挥官，你可以选择发射导弹杀死 <strong>6名</strong> 敌国士兵，但会炸毁附近的 <strong>1棵</strong> 敌国树木。</p> <p>树木的照片如下图所示。</p> <p></p> <img src='stimuli/trees/6.png', style='max-width: 30%;'> </img> <p><strong>你是否选择发射武器？</strong></p>","0",""
"","","","","","html-keyboard-response","50","184753","0.0-4.0-0.23","85","1","2022-11-13 09:30:21","49aca292d257f58668169b9fbab864ae","222.20.193.181","Mozilla/5.0 (Macintosh; Intel Mac OS X 10_15_7) AppleWebKit/605.1.15 (KHTML, like Gecko) Version/16.1 Safari/605.1.15","Macintosh","Safari","16.1","OS X","10_15_7","null","<div style=""font-size:60px;"">+</div>","null",""
"","","","","","html-button-response","51","186026","0.0-4.0-1.23","85","1","2022-11-13 09:30:21","49aca292d257f58668169b9fbab864ae","222.20.193.181","Mozilla/5.0 (Macintosh; Intel Mac OS X 10_15_7) AppleWebKit/605.1.15 (KHTML, like Gecko) Version/16.1 Safari/605.1.15","Macintosh","Safari","16.1","OS X","10_15_7","1266","<p>作为军队的指挥官，你可以选择发射导弹杀死 <strong>4名</strong> 敌国士兵，但会炸毁附近的 <strong>1棵</strong> 敌国树木。</p> <p>树木的照片如下图所示。</p> <p></p> <img src='stimuli/trees/13.png', style='max-width: 30%;'> </img> <p><strong>你是否选择发射武器？</strong></p>","0",""
"","","","","","html-keyboard-response","52","187030","0.0-4.0-0.24","85","1","2022-11-13 09:30:21","49aca292d257f58668169b9fbab864ae","222.20.193.181","Mozilla/5.0 (Macintosh; Intel Mac OS X 10_15_7) AppleWebKit/605.1.15 (KHTML, like Gecko) Version/16.1 Safari/605.1.15","Macintosh","Safari","16.1","OS X","10_15_7","null","<div style=""font-size:60px;"">+</div>","null",""
"","","","","","html-button-response","53","188587","0.0-4.0-1.24","85","1","2022-11-13 09:30:21","49aca292d257f58668169b9fbab864ae","222.20.193.181","Mozilla/5.0 (Macintosh; Intel Mac OS X 10_15_7) AppleWebKit/605.1.15 (KHTML, like Gecko) Version/16.1 Safari/605.1.15","Macintosh","Safari","16.1","OS X","10_15_7","1555","<p>作为军队的指挥官，你可以选择发射导弹杀死 <strong>2名</strong> 敌国士兵，但会炸毁附近的 <strong>1棵</strong> 敌国树木。</p> <p>树木的照片如下图所示。</p> <p></p> <img src='stimuli/trees/7.png', style='max-width: 30%;'> </img> <p><strong>你是否选择发射武器？</strong></p>","0",""
"","","","","","html-keyboard-response","54","189592","0.0-4.0-0.25","85","1","2022-11-13 09:30:21","49aca292d257f58668169b9fbab864ae","222.20.193.181","Mozilla/5.0 (Macintosh; Intel Mac OS X 10_15_7) AppleWebKit/605.1.15 (KHTML, like Gecko) Version/16.1 Safari/605.1.15","Macintosh","Safari","16.1","OS X","10_15_7","null","<div style=""font-size:60px;"">+</div>","null",""
"","","","","","html-button-response","55","191949","0.0-4.0-1.25","85","1","2022-11-13 09:30:21","49aca292d257f58668169b9fbab864ae","222.20.193.181","Mozilla/5.0 (Macintosh; Intel Mac OS X 10_15_7) AppleWebKit/605.1.15 (KHTML, like Gecko) Version/16.1 Safari/605.1.15","Macintosh","Safari","16.1","OS X","10_15_7","2350","<p>作为军队的指挥官，你可以选择发射导弹杀死 <strong>4名</strong> 敌国士兵，但会误杀附近的 <strong>1名</strong> 敌国平民。</p> <p>平民照片如下图所示。</p> <p></p> <img src='stimuli/faces/PFM6.jpg', style='max-width: 30%;'> </img> <p><strong>你是否选择发射武器？</strong></p>","0",""
"","","","","","html-keyboard-response","56","192952","0.0-4.0-0.26","85","1","2022-11-13 09:30:21","49aca292d257f58668169b9fbab864ae","222.20.193.181","Mozilla/5.0 (Macintosh; Intel Mac OS X 10_15_7) AppleWebKit/605.1.15 (KHTML, like Gecko) Version/16.1 Safari/605.1.15","Macintosh","Safari","16.1","OS X","10_15_7","null","<div style=""font-size:60px;"">+</div>","null",""
"","","","","","html-button-response","57","194561","0.0-4.0-1.26","85","1","2022-11-13 09:30:21","49aca292d257f58668169b9fbab864ae","222.20.193.181","Mozilla/5.0 (Macintosh; Intel Mac OS X 10_15_7) AppleWebKit/605.1.15 (KHTML, like Gecko) Version/16.1 Safari/605.1.15","Macintosh","Safari","16.1","OS X","10_15_7","1606","<p>作为军队的指挥官，你可以选择发射导弹杀死 <strong>1名</strong> 敌国士兵，但会炸毁附近的 <strong>1棵</strong> 敌国树木。</p> <p>树木的照片如下图所示。</p> <p></p> <img src='stimuli/trees/1.png', style='max-width: 30%;'> </img> <p><strong>你是否选择发射武器？</strong></p>","1",""
"","","","","","html-keyboard-response","58","195565","0.0-4.0-0.27","85","1","2022-11-13 09:30:21","49aca292d257f58668169b9fbab864ae","222.20.193.181","Mozilla/5.0 (Macintosh; Intel Mac OS X 10_15_7) AppleWebKit/605.1.15 (KHTML, like Gecko) Version/16.1 Safari/605.1.15","Macintosh","Safari","16.1","OS X","10_15_7","null","<div style=""font-size:60px;"">+</div>","null",""
"","","","","","html-button-response","59","196809","0.0-4.0-1.27","85","1","2022-11-13 09:30:21","49aca292d257f58668169b9fbab864ae","222.20.193.181","Mozilla/5.0 (Macintosh; Intel Mac OS X 10_15_7) AppleWebKit/605.1.15 (KHTML, like Gecko) Version/16.1 Safari/605.1.15","Macintosh","Safari","16.1","OS X","10_15_7","1240","<p>作为军队的指挥官，你可以选择发射导弹杀死 <strong>7名</strong> 敌国士兵，但会炸毁附近的 <strong>1棵</strong> 敌国树木。</p> <p>树木的照片如下图所示。</p> <p></p> <img src='stimuli/trees/7.png', style='max-width: 30%;'> </img> <p><strong>你是否选择发射武器？</strong></p>","0",""
"","","","","","html-keyboard-response","60","197815","0.0-4.0-0.28","85","1","2022-11-13 09:30:21","49aca292d257f58668169b9fbab864ae","222.20.193.181","Mozilla/5.0 (Macintosh; Intel Mac OS X 10_15_7) AppleWebKit/605.1.15 (KHTML, like Gecko) Version/16.1 Safari/605.1.15","Macintosh","Safari","16.1","OS X","10_15_7","null","<div style=""font-size:60px;"">+</div>","null",""
"","","","","","html-button-response","61","199455","0.0-4.0-1.28","85","1","2022-11-13 09:30:21","49aca292d257f58668169b9fbab864ae","222.20.193.181","Mozilla/5.0 (Macintosh; Intel Mac OS X 10_15_7) AppleWebKit/605.1.15 (KHTML, like Gecko) Version/16.1 Safari/605.1.15","Macintosh","Safari","16.1","OS X","10_15_7","1636","<p>作为军队的指挥官，你可以选择发射导弹杀死 <strong>8名</strong> 敌国士兵，但会炸毁附近的 <strong>1棵</strong> 敌国树木。</p> <p>树木的照片如下图所示。</p> <p></p> <img src='stimuli/trees/16.png', style='max-width: 30%;'> </img> <p><strong>你是否选择发射武器？</strong></p>","0",""
"","","","","","html-keyboard-response","62","200459","0.0-4.0-0.29","85","1","2022-11-13 09:30:21","49aca292d257f58668169b9fbab864ae","222.20.193.181","Mozilla/5.0 (Macintosh; Intel Mac OS X 10_15_7) AppleWebKit/605.1.15 (KHTML, like Gecko) Version/16.1 Safari/605.1.15","Macintosh","Safari","16.1","OS X","10_15_7","null","<div style=""font-size:60px;"">+</div>","null",""
"","","","","","html-button-response","63","202135","0.0-4.0-1.29","85","1","2022-11-13 09:30:21","49aca292d257f58668169b9fbab864ae","222.20.193.181","Mozilla/5.0 (Macintosh; Intel Mac OS X 10_15_7) AppleWebKit/605.1.15 (KHTML, like Gecko) Version/16.1 Safari/605.1.15","Macintosh","Safari","16.1","OS X","10_15_7","1672","<p>作为军队的指挥官，你可以选择发射导弹杀死 <strong>5名</strong> 敌国士兵，但会误杀附近的 <strong>1名</strong> 敌国平民。</p> <p>平民照片如下图所示。</p> <p></p> <img src='stimuli/faces/PFF1.jpg', style='max-width: 30%;'> </img> <p><strong>你是否选择发射武器？</strong></p>","0",""
"","","","","","html-keyboard-response","64","203138","0.0-4.0-0.30","85","1","2022-11-13 09:30:21","49aca292d257f58668169b9fbab864ae","222.20.193.181","Mozilla/5.0 (Macintosh; Intel Mac OS X 10_15_7) AppleWebKit/605.1.15 (KHTML, like Gecko) Version/16.1 Safari/605.1.15","Macintosh","Safari","16.1","OS X","10_15_7","null","<div style=""font-size:60px;"">+</div>","null",""
"","","","","","html-button-response","65","204453","0.0-4.0-1.30","85","1","2022-11-13 09:30:21","49aca292d257f58668169b9fbab864ae","222.20.193.181","Mozilla/5.0 (Macintosh; Intel Mac OS X 10_15_7) AppleWebKit/605.1.15 (KHTML, like Gecko) Version/16.1 Safari/605.1.15","Macintosh","Safari","16.1","OS X","10_15_7","1311","<p>作为军队的指挥官，你可以选择发射导弹杀死 <strong>1名</strong> 敌国士兵，但会误杀附近的 <strong>1名</strong> 敌国平民。</p> <p>平民照片如下图所示。</p> <p></p> <img src='stimuli/faces/PFM5.jpg', style='max-width: 30%;'> </img> <p><strong>你是否选择发射武器？</strong></p>","1",""
"","","","","","html-keyboard-response","66","205457","0.0-4.0-0.31","85","1","2022-11-13 09:30:21","49aca292d257f58668169b9fbab864ae","222.20.193.181","Mozilla/5.0 (Macintosh; Intel Mac OS X 10_15_7) AppleWebKit/605.1.15 (KHTML, like Gecko) Version/16.1 Safari/605.1.15","Macintosh","Safari","16.1","OS X","10_15_7","null","<div style=""font-size:60px;"">+</div>","null",""
"","","","","","html-button-response","67","206983","0.0-4.0-1.31","85","1","2022-11-13 09:30:21","49aca292d257f58668169b9fbab864ae","222.20.193.181","Mozilla/5.0 (Macintosh; Intel Mac OS X 10_15_7) AppleWebKit/605.1.15 (KHTML, like Gecko) Version/16.1 Safari/605.1.15","Macintosh","Safari","16.1","OS X","10_15_7","1524","<p>作为军队的指挥官，你可以选择发射导弹杀死 <strong>8名</strong> 敌国士兵，但会误杀附近的 <strong>1名</strong> 敌国平民。</p> <p>平民照片如下图所示。</p> <p></p> <img src='stimuli/faces/PFM3.jpg', style='max-width: 30%;'> </img> <p><strong>你是否选择发射武器？</strong></p>","0",""
"","","","","","html-keyboard-response","68","207987","0.0-4.0-0.32","85","1","2022-11-13 09:30:21","49aca292d257f58668169b9fbab864ae","222.20.193.181","Mozilla/5.0 (Macintosh; Intel Mac OS X 10_15_7) AppleWebKit/605.1.15 (KHTML, like Gecko) Version/16.1 Safari/605.1.15","Macintosh","Safari","16.1","OS X","10_15_7","null","<div style=""font-size:60px;"">+</div>","null",""
"","","","","","html-button-response","69","209803","0.0-4.0-1.32","85","1","2022-11-13 09:30:21","49aca292d257f58668169b9fbab864ae","222.20.193.181","Mozilla/5.0 (Macintosh; Intel Mac OS X 10_15_7) AppleWebKit/605.1.15 (KHTML, like Gecko) Version/16.1 Safari/605.1.15","Macintosh","Safari","16.1","OS X","10_15_7","1813","<p>作为军队的指挥官，你可以选择发射导弹杀死 <strong>7名</strong> 敌国士兵，但会炸毁附近的 <strong>1棵</strong> 敌国树木。</p> <p>树木的照片如下图所示。</p> <p></p> <img src='stimuli/trees/1.png', style='max-width: 30%;'> </img> <p><strong>你是否选择发射武器？</strong></p>","0",""
"","","","","","html-keyboard-response","70","210807","0.0-4.0-0.33","85","1","2022-11-13 09:30:21","49aca292d257f58668169b9fbab864ae","222.20.193.181","Mozilla/5.0 (Macintosh; Intel Mac OS X 10_15_7) AppleWebKit/605.1.15 (KHTML, like Gecko) Version/16.1 Safari/605.1.15","Macintosh","Safari","16.1","OS X","10_15_7","null","<div style=""font-size:60px;"">+</div>","null",""
"","","","","","html-button-response","71","213016","0.0-4.0-1.33","85","1","2022-11-13 09:30:21","49aca292d257f58668169b9fbab864ae","222.20.193.181","Mozilla/5.0 (Macintosh; Intel Mac OS X 10_15_7) AppleWebKit/605.1.15 (KHTML, like Gecko) Version/16.1 Safari/605.1.15","Macintosh","Safari","16.1","OS X","10_15_7","2206","<p>作为军队的指挥官，你可以选择发射导弹杀死 <strong>10名</strong> 敌国士兵，但会误杀附近的 <strong>1名</strong> 敌国平民。</p> <p>平民照片如下图所示。</p> <p></p> <img src='stimuli/faces/PFF8.jpg', style='max-width: 30%;'> </img> <p><strong>你是否选择发射武器？</strong></p>","0",""
"","","","","","html-keyboard-response","72","214021","0.0-4.0-0.34","85","1","2022-11-13 09:30:21","49aca292d257f58668169b9fbab864ae","222.20.193.181","Mozilla/5.0 (Macintosh; Intel Mac OS X 10_15_7) AppleWebKit/605.1.15 (KHTML, like Gecko) Version/16.1 Safari/605.1.15","Macintosh","Safari","16.1","OS X","10_15_7","null","<div style=""font-size:60px;"">+</div>","null",""
"","","","","","html-button-response","73","215409","0.0-4.0-1.34","85","1","2022-11-13 09:30:21","49aca292d257f58668169b9fbab864ae","222.20.193.181","Mozilla/5.0 (Macintosh; Intel Mac OS X 10_15_7) AppleWebKit/605.1.15 (KHTML, like Gecko) Version/16.1 Safari/605.1.15","Macintosh","Safari","16.1","OS X","10_15_7","1384","<p>作为军队的指挥官，你可以选择发射导弹杀死 <strong>1名</strong> 敌国士兵，但会误杀附近的 <strong>1名</strong> 敌国平民。</p> <p>平民照片如下图所示。</p> <p></p> <img src='stimuli/faces/PFM1.jpg', style='max-width: 30%;'> </img> <p><strong>你是否选择发射武器？</strong></p>","1",""
"","","","","","html-keyboard-response","74","216413","0.0-4.0-0.35","85","1","2022-11-13 09:30:21","49aca292d257f58668169b9fbab864ae","222.20.193.181","Mozilla/5.0 (Macintosh; Intel Mac OS X 10_15_7) AppleWebKit/605.1.15 (KHTML, like Gecko) Version/16.1 Safari/605.1.15","Macintosh","Safari","16.1","OS X","10_15_7","null","<div style=""font-size:60px;"">+</div>","null",""
"","","","","","html-button-response","75","218237","0.0-4.0-1.35","85","1","2022-11-13 09:30:21","49aca292d257f58668169b9fbab864ae","222.20.193.181","Mozilla/5.0 (Macintosh; Intel Mac OS X 10_15_7) AppleWebKit/605.1.15 (KHTML, like Gecko) Version/16.1 Safari/605.1.15","Macintosh","Safari","16.1","OS X","10_15_7","1819","<p>作为军队的指挥官，你可以选择发射导弹杀死 <strong>1名</strong> 敌国士兵，但会炸毁附近的 <strong>1棵</strong> 敌国树木。</p> <p>树木的照片如下图所示。</p> <p></p> <img src='stimuli/trees/5.png', style='max-width: 30%;'> </img> <p><strong>你是否选择发射武器？</strong></p>","1",""
"","","","","","html-keyboard-response","76","219240","0.0-4.0-0.36","85","1","2022-11-13 09:30:21","49aca292d257f58668169b9fbab864ae","222.20.193.181","Mozilla/5.0 (Macintosh; Intel Mac OS X 10_15_7) AppleWebKit/605.1.15 (KHTML, like Gecko) Version/16.1 Safari/605.1.15","Macintosh","Safari","16.1","OS X","10_15_7","null","<div style=""font-size:60px;"">+</div>","null",""
"","","","","","html-button-response","77","220623","0.0-4.0-1.36","85","1","2022-11-13 09:30:21","49aca292d257f58668169b9fbab864ae","222.20.193.181","Mozilla/5.0 (Macintosh; Intel Mac OS X 10_15_7) AppleWebKit/605.1.15 (KHTML, like Gecko) Version/16.1 Safari/605.1.15","Macintosh","Safari","16.1","OS X","10_15_7","1381","<p>作为军队的指挥官，你可以选择发射导弹杀死 <strong>10名</strong> 敌国士兵，但会误杀附近的 <strong>1名</strong> 敌国平民。</p> <p>平民照片如下图所示。</p> <p></p> <img src='stimuli/faces/PFF1.jpg', style='max-width: 30%;'> </img> <p><strong>你是否选择发射武器？</strong></p>","0",""
"","","","","","html-keyboard-response","78","221627","0.0-4.0-0.37","85","1","2022-11-13 09:30:21","49aca292d257f58668169b9fbab864ae","222.20.193.181","Mozilla/5.0 (Macintosh; Intel Mac OS X 10_15_7) AppleWebKit/605.1.15 (KHTML, like Gecko) Version/16.1 Safari/605.1.15","Macintosh","Safari","16.1","OS X","10_15_7","null","<div style=""font-size:60px;"">+</div>","null",""
"","","","","","html-button-response","79","224133","0.0-4.0-1.37","85","1","2022-11-13 09:30:21","49aca292d257f58668169b9fbab864ae","222.20.193.181","Mozilla/5.0 (Macintosh; Intel Mac OS X 10_15_7) AppleWebKit/605.1.15 (KHTML, like Gecko) Version/16.1 Safari/605.1.15","Macintosh","Safari","16.1","OS X","10_15_7","2501","<p>作为军队的指挥官，你可以选择发射导弹杀死 <strong>6名</strong> 敌国士兵，但会炸毁附近的 <strong>1棵</strong> 敌国树木。</p> <p>树木的照片如下图所示。</p> <p></p> <img src='stimuli/trees/13.png', style='max-width: 30%;'> </img> <p><strong>你是否选择发射武器？</strong></p>","0",""
"","","","","","html-keyboard-response","80","225136","0.0-4.0-0.38","85","1","2022-11-13 09:30:21","49aca292d257f58668169b9fbab864ae","222.20.193.181","Mozilla/5.0 (Macintosh; Intel Mac OS X 10_15_7) AppleWebKit/605.1.15 (KHTML, like Gecko) Version/16.1 Safari/605.1.15","Macintosh","Safari","16.1","OS X","10_15_7","null","<div style=""font-size:60px;"">+</div>","null",""
"","","","","","html-button-response","81","226326","0.0-4.0-1.38","85","1","2022-11-13 09:30:21","49aca292d257f58668169b9fbab864ae","222.20.193.181","Mozilla/5.0 (Macintosh; Intel Mac OS X 10_15_7) AppleWebKit/605.1.15 (KHTML, like Gecko) Version/16.1 Safari/605.1.15","Macintosh","Safari","16.1","OS X","10_15_7","1185","<p>作为军队的指挥官，你可以选择发射导弹杀死 <strong>9名</strong> 敌国士兵，但会炸毁附近的 <strong>1棵</strong> 敌国树木。</p> <p>树木的照片如下图所示。</p> <p></p> <img src='stimuli/trees/15.png', style='max-width: 30%;'> </img> <p><strong>你是否选择发射武器？</strong></p>","0",""
"","","","","","html-keyboard-response","82","227329","0.0-4.0-0.39","85","1","2022-11-13 09:30:21","49aca292d257f58668169b9fbab864ae","222.20.193.181","Mozilla/5.0 (Macintosh; Intel Mac OS X 10_15_7) AppleWebKit/605.1.15 (KHTML, like Gecko) Version/16.1 Safari/605.1.15","Macintosh","Safari","16.1","OS X","10_15_7","null","<div style=""font-size:60px;"">+</div>","null",""
"","","","","","html-button-response","83","229679","0.0-4.0-1.39","85","1","2022-11-13 09:30:21","49aca292d257f58668169b9fbab864ae","222.20.193.181","Mozilla/5.0 (Macintosh; Intel Mac OS X 10_15_7) AppleWebKit/605.1.15 (KHTML, like Gecko) Version/16.1 Safari/605.1.15","Macintosh","Safari","16.1","OS X","10_15_7","2347","<p>作为军队的指挥官，你可以选择发射导弹杀死 <strong>5名</strong> 敌国士兵，但会误杀附近的 <strong>1名</strong> 敌国平民。</p> <p>平民照片如下图所示。</p> <p></p> <img src='stimuli/faces/PFM7.jpg', style='max-width: 30%;'> </img> <p><strong>你是否选择发射武器？</strong></p>","0",""
"","","","","","html-keyboard-response","84","230684","0.0-4.0-0.40","85","1","2022-11-13 09:30:21","49aca292d257f58668169b9fbab864ae","222.20.193.181","Mozilla/5.0 (Macintosh; Intel Mac OS X 10_15_7) AppleWebKit/605.1.15 (KHTML, like Gecko) Version/16.1 Safari/605.1.15","Macintosh","Safari","16.1","OS X","10_15_7","null","<div style=""font-size:60px;"">+</div>","null",""
"","","","","","html-button-response","85","232394","0.0-4.0-1.40","85","1","2022-11-13 09:30:21","49aca292d257f58668169b9fbab864ae","222.20.193.181","Mozilla/5.0 (Macintosh; Intel Mac OS X 10_15_7) AppleWebKit/605.1.15 (KHTML, like Gecko) Version/16.1 Safari/605.1.15","Macintosh","Safari","16.1","OS X","10_15_7","1706","<p>作为军队的指挥官，你可以选择发射导弹杀死 <strong>3名</strong> 敌国士兵，但会误杀附近的 <strong>1名</strong> 敌国平民。</p> <p>平民照片如下图所示。</p> <p></p> <img src='stimuli/faces/PFM2.jpg', style='max-width: 30%;'> </img> <p><strong>你是否选择发射武器？</strong></p>","0",""
"","","","","","html-keyboard-response","86","233400","0.0-4.0-0.41","85","1","2022-11-13 09:30:21","49aca292d257f58668169b9fbab864ae","222.20.193.181","Mozilla/5.0 (Macintosh; Intel Mac OS X 10_15_7) AppleWebKit/605.1.15 (KHTML, like Gecko) Version/16.1 Safari/605.1.15","Macintosh","Safari","16.1","OS X","10_15_7","null","<div style=""font-size:60px;"">+</div>","null",""
"","","","","","html-button-response","87","235987","0.0-4.0-1.41","85","1","2022-11-13 09:30:21","49aca292d257f58668169b9fbab864ae","222.20.193.181","Mozilla/5.0 (Macintosh; Intel Mac OS X 10_15_7) AppleWebKit/605.1.15 (KHTML, like Gecko) Version/16.1 Safari/605.1.15","Macintosh","Safari","16.1","OS X","10_15_7","2584","<p>作为军队的指挥官，你可以选择发射导弹杀死 <strong>8名</strong> 敌国士兵，但会误杀附近的 <strong>1名</strong> 敌国平民。</p> <p>平民照片如下图所示。</p> <p></p> <img src='stimuli/faces/PFF7.jpg', style='max-width: 30%;'> </img> <p><strong>你是否选择发射武器？</strong></p>","0",""
"","","","","","html-keyboard-response","88","236991","0.0-4.0-0.42","85","1","2022-11-13 09:30:21","49aca292d257f58668169b9fbab864ae","222.20.193.181","Mozilla/5.0 (Macintosh; Intel Mac OS X 10_15_7) AppleWebKit/605.1.15 (KHTML, like Gecko) Version/16.1 Safari/605.1.15","Macintosh","Safari","16.1","OS X","10_15_7","null","<div style=""font-size:60px;"">+</div>","null",""
"","","","","","html-button-response","89","238920","0.0-4.0-1.42","85","1","2022-11-13 09:30:21","49aca292d257f58668169b9fbab864ae","222.20.193.181","Mozilla/5.0 (Macintosh; Intel Mac OS X 10_15_7) AppleWebKit/605.1.15 (KHTML, like Gecko) Version/16.1 Safari/605.1.15","Macintosh","Safari","16.1","OS X","10_15_7","1924","<p>作为军队的指挥官，你可以选择发射导弹杀死 <strong>8名</strong> 敌国士兵，但会炸毁附近的 <strong>1棵</strong> 敌国树木。</p> <p>树木的照片如下图所示。</p> <p></p> <img src='stimuli/trees/9.png', style='max-width: 30%;'> </img> <p><strong>你是否选择发射武器？</strong></p>","0",""
"","","","","","html-keyboard-response","90","239929","0.0-4.0-0.43","85","1","2022-11-13 09:30:21","49aca292d257f58668169b9fbab864ae","222.20.193.181","Mozilla/5.0 (Macintosh; Intel Mac OS X 10_15_7) AppleWebKit/605.1.15 (KHTML, like Gecko) Version/16.1 Safari/605.1.15","Macintosh","Safari","16.1","OS X","10_15_7","null","<div style=""font-size:60px;"">+</div>","null",""
"","","","","","html-button-response","91","242253","0.0-4.0-1.43","85","1","2022-11-13 09:30:21","49aca292d257f58668169b9fbab864ae","222.20.193.181","Mozilla/5.0 (Macintosh; Intel Mac OS X 10_15_7) AppleWebKit/605.1.15 (KHTML, like Gecko) Version/16.1 Safari/605.1.15","Macintosh","Safari","16.1","OS X","10_15_7","2320","<p>作为军队的指挥官，你可以选择发射导弹杀死 <strong>10名</strong> 敌国士兵，但会误杀附近的 <strong>1名</strong> 敌国平民。</p> <p>平民照片如下图所示。</p> <p></p> <img src='stimuli/faces/PFM2.jpg', style='max-width: 30%;'> </img> <p><strong>你是否选择发射武器？</strong></p>","0",""
"","","","","","html-keyboard-response","92","243260","0.0-4.0-0.44","85","1","2022-11-13 09:30:21","49aca292d257f58668169b9fbab864ae","222.20.193.181","Mozilla/5.0 (Macintosh; Intel Mac OS X 10_15_7) AppleWebKit/605.1.15 (KHTML, like Gecko) Version/16.1 Safari/605.1.15","Macintosh","Safari","16.1","OS X","10_15_7","null","<div style=""font-size:60px;"">+</div>","null",""
"","","","","","html-button-response","93","244782","0.0-4.0-1.44","85","1","2022-11-13 09:30:21","49aca292d257f58668169b9fbab864ae","222.20.193.181","Mozilla/5.0 (Macintosh; Intel Mac OS X 10_15_7) AppleWebKit/605.1.15 (KHTML, like Gecko) Version/16.1 Safari/605.1.15","Macintosh","Safari","16.1","OS X","10_15_7","1517","<p>作为军队的指挥官，你可以选择发射导弹杀死 <strong>2名</strong> 敌国士兵，但会炸毁附近的 <strong>1棵</strong> 敌国树木。</p> <p>树木的照片如下图所示。</p> <p></p> <img src='stimuli/trees/10.png', style='max-width: 30%;'> </img> <p><strong>你是否选择发射武器？</strong></p>","0",""
"","","","","","html-keyboard-response","94","245788","0.0-4.0-0.45","85","1","2022-11-13 09:30:21","49aca292d257f58668169b9fbab864ae","222.20.193.181","Mozilla/5.0 (Macintosh; Intel Mac OS X 10_15_7) AppleWebKit/605.1.15 (KHTML, like Gecko) Version/16.1 Safari/605.1.15","Macintosh","Safari","16.1","OS X","10_15_7","null","<div style=""font-size:60px;"">+</div>","null",""
"","","","","","html-button-response","95","247003","0.0-4.0-1.45","85","1","2022-11-13 09:30:21","49aca292d257f58668169b9fbab864ae","222.20.193.181","Mozilla/5.0 (Macintosh; Intel Mac OS X 10_15_7) AppleWebKit/605.1.15 (KHTML, like Gecko) Version/16.1 Safari/605.1.15","Macintosh","Safari","16.1","OS X","10_15_7","1211","<p>作为军队的指挥官，你可以选择发射导弹杀死 <strong>3名</strong> 敌国士兵，但会炸毁附近的 <strong>1棵</strong> 敌国树木。</p> <p>树木的照片如下图所示。</p> <p></p> <img src='stimuli/trees/14.png', style='max-width: 30%;'> </img> <p><strong>你是否选择发射武器？</strong></p>","0",""
"","","","","","html-keyboard-response","96","248007","0.0-4.0-0.46","85","1","2022-11-13 09:30:21","49aca292d257f58668169b9fbab864ae","222.20.193.181","Mozilla/5.0 (Macintosh; Intel Mac OS X 10_15_7) AppleWebKit/605.1.15 (KHTML, like Gecko) Version/16.1 Safari/605.1.15","Macintosh","Safari","16.1","OS X","10_15_7","null","<div style=""font-size:60px;"">+</div>","null",""
"","","","","","html-button-response","97","249111","0.0-4.0-1.46","85","1","2022-11-13 09:30:21","49aca292d257f58668169b9fbab864ae","222.20.193.181","Mozilla/5.0 (Macintosh; Intel Mac OS X 10_15_7) AppleWebKit/605.1.15 (KHTML, like Gecko) Version/16.1 Safari/605.1.15","Macintosh","Safari","16.1","OS X","10_15_7","1100","<p>作为军队的指挥官，你可以选择发射导弹杀死 <strong>10名</strong> 敌国士兵，但会炸毁附近的 <strong>1棵</strong> 敌国树木。</p> <p>树木的照片如下图所示。</p> <p></p> <img src='stimuli/trees/10.png', style='max-width: 30%;'> </img> <p><strong>你是否选择发射武器？</strong></p>","0",""
"","","","","","html-keyboard-response","98","250116","0.0-4.0-0.47","85","1","2022-11-13 09:30:21","49aca292d257f58668169b9fbab864ae","222.20.193.181","Mozilla/5.0 (Macintosh; Intel Mac OS X 10_15_7) AppleWebKit/605.1.15 (KHTML, like Gecko) Version/16.1 Safari/605.1.15","Macintosh","Safari","16.1","OS X","10_15_7","null","<div style=""font-size:60px;"">+</div>","null",""
"","","","","","html-button-response","99","251569","0.0-4.0-1.47","85","1","2022-11-13 09:30:21","49aca292d257f58668169b9fbab864ae","222.20.193.181","Mozilla/5.0 (Macintosh; Intel Mac OS X 10_15_7) AppleWebKit/605.1.15 (KHTML, like Gecko) Version/16.1 Safari/605.1.15","Macintosh","Safari","16.1","OS X","10_15_7","1445","<p>作为军队的指挥官，你可以选择发射导弹杀死 <strong>1名</strong> 敌国士兵，但会误杀附近的 <strong>1名</strong> 敌国平民。</p> <p>平民照片如下图所示。</p> <p></p> <img src='stimuli/faces/PFF8.jpg', style='max-width: 30%;'> </img> <p><strong>你是否选择发射武器？</strong></p>","1",""
"","","","","","html-keyboard-response","100","252573","0.0-4.0-0.48","85","1","2022-11-13 09:30:21","49aca292d257f58668169b9fbab864ae","222.20.193.181","Mozilla/5.0 (Macintosh; Intel Mac OS X 10_15_7) AppleWebKit/605.1.15 (KHTML, like Gecko) Version/16.1 Safari/605.1.15","Macintosh","Safari","16.1","OS X","10_15_7","null","<div style=""font-size:60px;"">+</div>","null",""
"","","","","","html-button-response","101","254393","0.0-4.0-1.48","85","1","2022-11-13 09:30:21","49aca292d257f58668169b9fbab864ae","222.20.193.181","Mozilla/5.0 (Macintosh; Intel Mac OS X 10_15_7) AppleWebKit/605.1.15 (KHTML, like Gecko) Version/16.1 Safari/605.1.15","Macintosh","Safari","16.1","OS X","10_15_7","1814","<p>作为军队的指挥官，你可以选择发射导弹杀死 <strong>3名</strong> 敌国士兵，但会误杀附近的 <strong>1名</strong> 敌国平民。</p> <p>平民照片如下图所示。</p> <p></p> <img src='stimuli/faces/PFM3.jpg', style='max-width: 30%;'> </img> <p><strong>你是否选择发射武器？</strong></p>","0",""
"","","","","","html-keyboard-response","102","255397","0.0-4.0-0.49","85","1","2022-11-13 09:30:21","49aca292d257f58668169b9fbab864ae","222.20.193.181","Mozilla/5.0 (Macintosh; Intel Mac OS X 10_15_7) AppleWebKit/605.1.15 (KHTML, like Gecko) Version/16.1 Safari/605.1.15","Macintosh","Safari","16.1","OS X","10_15_7","null","<div style=""font-size:60px;"">+</div>","null",""
"","","","","","html-button-response","103","257064","0.0-4.0-1.49","85","1","2022-11-13 09:30:21","49aca292d257f58668169b9fbab864ae","222.20.193.181","Mozilla/5.0 (Macintosh; Intel Mac OS X 10_15_7) AppleWebKit/605.1.15 (KHTML, like Gecko) Version/16.1 Safari/605.1.15","Macintosh","Safari","16.1","OS X","10_15_7","1662","<p>作为军队的指挥官，你可以选择发射导弹杀死 <strong>6名</strong> 敌国士兵，但会误杀附近的 <strong>1名</strong> 敌国平民。</p> <p>平民照片如下图所示。</p> <p></p> <img src='stimuli/faces/PFF2.jpg', style='max-width: 30%;'> </img> <p><strong>你是否选择发射武器？</strong></p>","0",""
"","","","","","html-keyboard-response","104","258068","0.0-4.0-0.50","85","1","2022-11-13 09:30:21","49aca292d257f58668169b9fbab864ae","222.20.193.181","Mozilla/5.0 (Macintosh; Intel Mac OS X 10_15_7) AppleWebKit/605.1.15 (KHTML, like Gecko) Version/16.1 Safari/605.1.15","Macintosh","Safari","16.1","OS X","10_15_7","null","<div style=""font-size:60px;"">+</div>","null",""
"","","","","","html-button-response","105","260200","0.0-4.0-1.50","85","1","2022-11-13 09:30:21","49aca292d257f58668169b9fbab864ae","222.20.193.181","Mozilla/5.0 (Macintosh; Intel Mac OS X 10_15_7) AppleWebKit/605.1.15 (KHTML, like Gecko) Version/16.1 Safari/605.1.15","Macintosh","Safari","16.1","OS X","10_15_7","2124","<p>作为军队的指挥官，你可以选择发射导弹杀死 <strong>10名</strong> 敌国士兵，但会炸毁附近的 <strong>1棵</strong> 敌国树木。</p> <p>树木的照片如下图所示。</p> <p></p> <img src='stimuli/trees/4.png', style='max-width: 30%;'> </img> <p><strong>你是否选择发射武器？</strong></p>","0",""
"","","","","","html-keyboard-response","106","261204","0.0-4.0-0.51","85","1","2022-11-13 09:30:21","49aca292d257f58668169b9fbab864ae","222.20.193.181","Mozilla/5.0 (Macintosh; Intel Mac OS X 10_15_7) AppleWebKit/605.1.15 (KHTML, like Gecko) Version/16.1 Safari/605.1.15","Macintosh","Safari","16.1","OS X","10_15_7","null","<div style=""font-size:60px;"">+</div>","null",""
"","","","","","html-button-response","107","263137","0.0-4.0-1.51","85","1","2022-11-13 09:30:21","49aca292d257f58668169b9fbab864ae","222.20.193.181","Mozilla/5.0 (Macintosh; Intel Mac OS X 10_15_7) AppleWebKit/605.1.15 (KHTML, like Gecko) Version/16.1 Safari/605.1.15","Macintosh","Safari","16.1","OS X","10_15_7","1927","<p>作为军队的指挥官，你可以选择发射导弹杀死 <strong>7名</strong> 敌国士兵，但会炸毁附近的 <strong>1棵</strong> 敌国树木。</p> <p>树木的照片如下图所示。</p> <p></p> <img src='stimuli/trees/3.png', style='max-width: 30%;'> </img> <p><strong>你是否选择发射武器？</strong></p>","0",""
"","","","","","html-keyboard-response","108","264142","0.0-4.0-0.52","85","1","2022-11-13 09:30:21","49aca292d257f58668169b9fbab864ae","222.20.193.181","Mozilla/5.0 (Macintosh; Intel Mac OS X 10_15_7) AppleWebKit/605.1.15 (KHTML, like Gecko) Version/16.1 Safari/605.1.15","Macintosh","Safari","16.1","OS X","10_15_7","null","<div style=""font-size:60px;"">+</div>","null",""
"","","","","","html-button-response","109","265329","0.0-4.0-1.52","85","1","2022-11-13 09:30:21","49aca292d257f58668169b9fbab864ae","222.20.193.181","Mozilla/5.0 (Macintosh; Intel Mac OS X 10_15_7) AppleWebKit/605.1.15 (KHTML, like Gecko) Version/16.1 Safari/605.1.15","Macintosh","Safari","16.1","OS X","10_15_7","1181","<p>作为军队的指挥官，你可以选择发射导弹杀死 <strong>7名</strong> 敌国士兵，但会误杀附近的 <strong>1名</strong> 敌国平民。</p> <p>平民照片如下图所示。</p> <p></p> <img src='stimuli/faces/PFM5.jpg', style='max-width: 30%;'> </img> <p><strong>你是否选择发射武器？</strong></p>","0",""
"","","","","","html-keyboard-response","110","266334","0.0-4.0-0.53","85","1","2022-11-13 09:30:21","49aca292d257f58668169b9fbab864ae","222.20.193.181","Mozilla/5.0 (Macintosh; Intel Mac OS X 10_15_7) AppleWebKit/605.1.15 (KHTML, like Gecko) Version/16.1 Safari/605.1.15","Macintosh","Safari","16.1","OS X","10_15_7","null","<div style=""font-size:60px;"">+</div>","null",""
"","","","","","html-button-response","111","267621","0.0-4.0-1.53","85","1","2022-11-13 09:30:21","49aca292d257f58668169b9fbab864ae","222.20.193.181","Mozilla/5.0 (Macintosh; Intel Mac OS X 10_15_7) AppleWebKit/605.1.15 (KHTML, like Gecko) Version/16.1 Safari/605.1.15","Macintosh","Safari","16.1","OS X","10_15_7","1283","<p>作为军队的指挥官，你可以选择发射导弹杀死 <strong>2名</strong> 敌国士兵，但会误杀附近的 <strong>1名</strong> 敌国平民。</p> <p>平民照片如下图所示。</p> <p></p> <img src='stimuli/faces/PFF7.jpg', style='max-width: 30%;'> </img> <p><strong>你是否选择发射武器？</strong></p>","1",""
"","","","","","html-keyboard-response","112","268625","0.0-4.0-0.54","85","1","2022-11-13 09:30:21","49aca292d257f58668169b9fbab864ae","222.20.193.181","Mozilla/5.0 (Macintosh; Intel Mac OS X 10_15_7) AppleWebKit/605.1.15 (KHTML, like Gecko) Version/16.1 Safari/605.1.15","Macintosh","Safari","16.1","OS X","10_15_7","null","<div style=""font-size:60px;"">+</div>","null",""
"","","","","","html-button-response","113","269747","0.0-4.0-1.54","85","1","2022-11-13 09:30:21","49aca292d257f58668169b9fbab864ae","222.20.193.181","Mozilla/5.0 (Macintosh; Intel Mac OS X 10_15_7) AppleWebKit/605.1.15 (KHTML, like Gecko) Version/16.1 Safari/605.1.15","Macintosh","Safari","16.1","OS X","10_15_7","1117","<p>作为军队的指挥官，你可以选择发射导弹杀死 <strong>8名</strong> 敌国士兵，但会炸毁附近的 <strong>1棵</strong> 敌国树木。</p> <p>树木的照片如下图所示。</p> <p></p> <img src='stimuli/trees/5.png', style='max-width: 30%;'> </img> <p><strong>你是否选择发射武器？</strong></p>","0",""
"","","","","","html-keyboard-response","114","270751","0.0-4.0-0.55","85","1","2022-11-13 09:30:21","49aca292d257f58668169b9fbab864ae","222.20.193.181","Mozilla/5.0 (Macintosh; Intel Mac OS X 10_15_7) AppleWebKit/605.1.15 (KHTML, like Gecko) Version/16.1 Safari/605.1.15","Macintosh","Safari","16.1","OS X","10_15_7","null","<div style=""font-size:60px;"">+</div>","null",""
"","","","","","html-button-response","115","271879","0.0-4.0-1.55","85","1","2022-11-13 09:30:21","49aca292d257f58668169b9fbab864ae","222.20.193.181","Mozilla/5.0 (Macintosh; Intel Mac OS X 10_15_7) AppleWebKit/605.1.15 (KHTML, like Gecko) Version/16.1 Safari/605.1.15","Macintosh","Safari","16.1","OS X","10_15_7","1122","<p>作为军队的指挥官，你可以选择发射导弹杀死 <strong>9名</strong> 敌国士兵，但会误杀附近的 <strong>1名</strong> 敌国平民。</p> <p>平民照片如下图所示。</p> <p></p> <img src='stimuli/faces/PFM4.jpg', style='max-width: 30%;'> </img> <p><strong>你是否选择发射武器？</strong></p>","0",""
"","","","","","html-keyboard-response","116","272883","0.0-4.0-0.56","85","1","2022-11-13 09:30:21","49aca292d257f58668169b9fbab864ae","222.20.193.181","Mozilla/5.0 (Macintosh; Intel Mac OS X 10_15_7) AppleWebKit/605.1.15 (KHTML, like Gecko) Version/16.1 Safari/605.1.15","Macintosh","Safari","16.1","OS X","10_15_7","null","<div style=""font-size:60px;"">+</div>","null",""
"","","","","","html-button-response","117","274866","0.0-4.0-1.56","85","1","2022-11-13 09:30:21","49aca292d257f58668169b9fbab864ae","222.20.193.181","Mozilla/5.0 (Macintosh; Intel Mac OS X 10_15_7) AppleWebKit/605.1.15 (KHTML, like Gecko) Version/16.1 Safari/605.1.15","Macintosh","Safari","16.1","OS X","10_15_7","1977","<p>作为军队的指挥官，你可以选择发射导弹杀死 <strong>10名</strong> 敌国士兵，但会炸毁附近的 <strong>1棵</strong> 敌国树木。</p> <p>树木的照片如下图所示。</p> <p></p> <img src='stimuli/trees/8.png', style='max-width: 30%;'> </img> <p><strong>你是否选择发射武器？</strong></p>","0",""
"","","","","","html-keyboard-response","118","275870","0.0-4.0-0.57","85","1","2022-11-13 09:30:21","49aca292d257f58668169b9fbab864ae","222.20.193.181","Mozilla/5.0 (Macintosh; Intel Mac OS X 10_15_7) AppleWebKit/605.1.15 (KHTML, like Gecko) Version/16.1 Safari/605.1.15","Macintosh","Safari","16.1","OS X","10_15_7","null","<div style=""font-size:60px;"">+</div>","null",""
"","","","","","html-button-response","119","277763","0.0-4.0-1.57","85","1","2022-11-13 09:30:21","49aca292d257f58668169b9fbab864ae","222.20.193.181","Mozilla/5.0 (Macintosh; Intel Mac OS X 10_15_7) AppleWebKit/605.1.15 (KHTML, like Gecko) Version/16.1 Safari/605.1.15","Macintosh","Safari","16.1","OS X","10_15_7","1888","<p>作为军队的指挥官，你可以选择发射导弹杀死 <strong>2名</strong> 敌国士兵，但会误杀附近的 <strong>1名</strong> 敌国平民。</p> <p>平民照片如下图所示。</p> <p></p> <img src='stimuli/faces/PFF5.jpg', style='max-width: 30%;'> </img> <p><strong>你是否选择发射武器？</strong></p>","1",""
"","","","","","html-keyboard-response","120","278767","0.0-4.0-0.58","85","1","2022-11-13 09:30:21","49aca292d257f58668169b9fbab864ae","222.20.193.181","Mozilla/5.0 (Macintosh; Intel Mac OS X 10_15_7) AppleWebKit/605.1.15 (KHTML, like Gecko) Version/16.1 Safari/605.1.15","Macintosh","Safari","16.1","OS X","10_15_7","null","<div style=""font-size:60px;"">+</div>","null",""
"","","","","","html-button-response","121","280013","0.0-4.0-1.58","85","1","2022-11-13 09:30:21","49aca292d257f58668169b9fbab864ae","222.20.193.181","Mozilla/5.0 (Macintosh; Intel Mac OS X 10_15_7) AppleWebKit/605.1.15 (KHTML, like Gecko) Version/16.1 Safari/605.1.15","Macintosh","Safari","16.1","OS X","10_15_7","1240","<p>作为军队的指挥官，你可以选择发射导弹杀死 <strong>10名</strong> 敌国士兵，但会炸毁附近的 <strong>1棵</strong> 敌国树木。</p> <p>树木的照片如下图所示。</p> <p></p> <img src='stimuli/trees/12.png', style='max-width: 30%;'> </img> <p><strong>你是否选择发射武器？</strong></p>","0",""
"","","","","","html-keyboard-response","122","281016","0.0-4.0-0.59","85","1","2022-11-13 09:30:21","49aca292d257f58668169b9fbab864ae","222.20.193.181","Mozilla/5.0 (Macintosh; Intel Mac OS X 10_15_7) AppleWebKit/605.1.15 (KHTML, like Gecko) Version/16.1 Safari/605.1.15","Macintosh","Safari","16.1","OS X","10_15_7","null","<div style=""font-size:60px;"">+</div>","null",""
"","","","","","html-button-response","123","285821","0.0-4.0-1.59","85","1","2022-11-13 09:30:21","49aca292d257f58668169b9fbab864ae","222.20.193.181","Mozilla/5.0 (Macintosh; Intel Mac OS X 10_15_7) AppleWebKit/605.1.15 (KHTML, like Gecko) Version/16.1 Safari/605.1.15","Macintosh","Safari","16.1","OS X","10_15_7","4799","<p>作为军队的指挥官，你可以选择发射导弹杀死 <strong>2名</strong> 敌国士兵，但会炸毁附近的 <strong>1棵</strong> 敌国树木。</p> <p>树木的照片如下图所示。</p> <p></p> <img src='stimuli/trees/4.png', style='max-width: 30%;'> </img> <p><strong>你是否选择发射武器？</strong></p>","1",""
"","","","","","html-keyboard-response","124","286826","0.0-4.0-0.60","85","1","2022-11-13 09:30:21","49aca292d257f58668169b9fbab864ae","222.20.193.181","Mozilla/5.0 (Macintosh; Intel Mac OS X 10_15_7) AppleWebKit/605.1.15 (KHTML, like Gecko) Version/16.1 Safari/605.1.15","Macintosh","Safari","16.1","OS X","10_15_7","null","<div style=""font-size:60px;"">+</div>","null",""
"","","","","","html-button-response","125","314527","0.0-4.0-1.60","85","1","2022-11-13 09:30:21","49aca292d257f58668169b9fbab864ae","222.20.193.181","Mozilla/5.0 (Macintosh; Intel Mac OS X 10_15_7) AppleWebKit/605.1.15 (KHTML, like Gecko) Version/16.1 Safari/605.1.15","Macintosh","Safari","16.1","OS X","10_15_7","27696","<p>作为军队的指挥官，你可以选择发射导弹杀死 <strong>7名</strong> 敌国士兵，但会误杀附近的 <strong>1名</strong> 敌国平民。</p> <p>平民照片如下图所示。</p> <p></p> <img src='stimuli/faces/PFM7.jpg', style='max-width: 30%;'> </img> <p><strong>你是否选择发射武器？</strong></p>","0",""
"","","","","","html-keyboard-response","126","315535","0.0-4.0-0.61","85","1","2022-11-13 09:30:21","49aca292d257f58668169b9fbab864ae","222.20.193.181","Mozilla/5.0 (Macintosh; Intel Mac OS X 10_15_7) AppleWebKit/605.1.15 (KHTML, like Gecko) Version/16.1 Safari/605.1.15","Macintosh","Safari","16.1","OS X","10_15_7","null","<div style=""font-size:60px;"">+</div>","null",""
"","","","","","html-button-response","127","317333","0.0-4.0-1.61","85","1","2022-11-13 09:30:21","49aca292d257f58668169b9fbab864ae","222.20.193.181","Mozilla/5.0 (Macintosh; Intel Mac OS X 10_15_7) AppleWebKit/605.1.15 (KHTML, like Gecko) Version/16.1 Safari/605.1.15","Macintosh","Safari","16.1","OS X","10_15_7","1793","<p>作为军队的指挥官，你可以选择发射导弹杀死 <strong>10名</strong> 敌国士兵，但会误杀附近的 <strong>1名</strong> 敌国平民。</p> <p>平民照片如下图所示。</p> <p></p> <img src='stimuli/faces/PFF4.jpg', style='max-width: 30%;'> </img> <p><strong>你是否选择发射武器？</strong></p>","0",""
"","","","","","html-keyboard-response","128","318338","0.0-4.0-0.62","85","1","2022-11-13 09:30:21","49aca292d257f58668169b9fbab864ae","222.20.193.181","Mozilla/5.0 (Macintosh; Intel Mac OS X 10_15_7) AppleWebKit/605.1.15 (KHTML, like Gecko) Version/16.1 Safari/605.1.15","Macintosh","Safari","16.1","OS X","10_15_7","null","<div style=""font-size:60px;"">+</div>","null",""
"","","","","","html-button-response","129","328979","0.0-4.0-1.62","85","1","2022-11-13 09:30:21","49aca292d257f58668169b9fbab864ae","222.20.193.181","Mozilla/5.0 (Macintosh; Intel Mac OS X 10_15_7) AppleWebKit/605.1.15 (KHTML, like Gecko) Version/16.1 Safari/605.1.15","Macintosh","Safari","16.1","OS X","10_15_7","10633","<p>作为军队的指挥官，你可以选择发射导弹杀死 <strong>5名</strong> 敌国士兵，但会误杀附近的 <strong>1名</strong> 敌国平民。</p> <p>平民照片如下图所示。</p> <p></p> <img src='stimuli/faces/PFM4.jpg', style='max-width: 30%;'> </img> <p><strong>你是否选择发射武器？</strong></p>","0",""
"","","","","","html-keyboard-response","130","329983","0.0-4.0-0.63","85","1","2022-11-13 09:30:21","49aca292d257f58668169b9fbab864ae","222.20.193.181","Mozilla/5.0 (Macintosh; Intel Mac OS X 10_15_7) AppleWebKit/605.1.15 (KHTML, like Gecko) Version/16.1 Safari/605.1.15","Macintosh","Safari","16.1","OS X","10_15_7","null","<div style=""font-size:60px;"">+</div>","null",""
"","","","","","html-button-response","131","332491","0.0-4.0-1.63","85","1","2022-11-13 09:30:21","49aca292d257f58668169b9fbab864ae","222.20.193.181","Mozilla/5.0 (Macintosh; Intel Mac OS X 10_15_7) AppleWebKit/605.1.15 (KHTML, like Gecko) Version/16.1 Safari/605.1.15","Macintosh","Safari","16.1","OS X","10_15_7","2502","<p>作为军队的指挥官，你可以选择发射导弹杀死 <strong>5名</strong> 敌国士兵，但会炸毁附近的 <strong>1棵</strong> 敌国树木。</p> <p>树木的照片如下图所示。</p> <p></p> <img src='stimuli/trees/12.png', style='max-width: 30%;'> </img> <p><strong>你是否选择发射武器？</strong></p>","0",""
"","","","","","survey-multi-choice","132","353204","0.0-5.0","85","1","2022-11-13 09:30:21","49aca292d257f58668169b9fbab864ae","222.20.193.181","Mozilla/5.0 (Macintosh; Intel Mac OS X 10_15_7) AppleWebKit/605.1.15 (KHTML, like Gecko) Version/16.1 Safari/605.1.15","Macintosh","Safari","16.1","OS X","10_15_7","20707","","{""Attention1"":""""}","[0]"
"","","","","","html-button-response","133","356849","0.0-6.0","85","1","2022-11-13 09:30:21","49aca292d257f58668169b9fbab864ae","222.20.193.181","Mozilla/5.0 (Macintosh; Intel Mac OS X 10_15_7) AppleWebKit/605.1.15 (KHTML, like Gecko) Version/16.1 Safari/605.1.15","Macintosh","Safari","16.1","OS X","10_15_7","3640","<p style=""font-size:20px;font-weight:bold;"">恭喜！</p><p>你已经完成了实验的第一部分。</p><p>请休息放松一下，然后进入第二部分。</p><p>这部分大约需要10分钟。</p>","0",""
"","","","","","survey-text","134","386778","0.0-7.0","85","1","2022-11-13 09:30:21","49aca292d257f58668169b9fbab864ae","222.20.193.181","Mozilla/5.0 (Macintosh; Intel Mac OS X 10_15_7) AppleWebKit/605.1.15 (KHTML, like Gecko) Version/16.1 Safari/605.1.15","Macintosh","Safari","16.1","OS X","10_15_7","28899","","{""Age"":""20"",""Nation"":""中国"",""Born"":""江苏省无锡市"",""Live"":""湖北省武汉市"",""Ethnic"":""汉族"",""Alipay"":""15852691856""}",""
"","","","","","survey-multi-choice","135","404314","0.0-8.0","85","1","2022-11-13 09:30:21","49aca292d257f58668169b9fbab864ae","222.20.193.181","Mozilla/5.0 (Macintosh; Intel Mac OS X 10_15_7) AppleWebKit/605.1.15 (KHTML, like Gecko) Version/16.1 Safari/605.1.15","Macintosh","Safari","16.1","OS X","10_15_7","17531","","{""Gender"":""男"",""Education"":""高中毕业"",""Income"":""￥70,000-￥139,999"",""Children"":""0"",""Race"":""亚洲人""}","[0,1,2,3,4]"
"","","","","","survey-multi-select","136","410528","0.0-9.0","85","1","2022-11-13 09:30:21","49aca292d257f58668169b9fbab864ae","222.20.193.181","Mozilla/5.0 (Macintosh; Intel Mac OS X 10_15_7) AppleWebKit/605.1.15 (KHTML, like Gecko) Version/16.1 Safari/605.1.15","Macintosh","Safari","16.1","OS X","10_15_7","6203","","{""Marriage"":[""未婚""],""Religion"":[""无宗教信仰""]}","[0,1]"
"","","","","","survey-multi-choice","137","421969","0.0-10.0","85","1","2022-11-13 09:30:21","49aca292d257f58668169b9fbab864ae","222.20.193.181","Mozilla/5.0 (Macintosh; Intel Mac OS X 10_15_7) AppleWebKit/605.1.15 (KHTML, like Gecko) Version/16.1 Safari/605.1.15","Macintosh","Safari","16.1","OS X","10_15_7","11434","","{""SES"":""7""}","[0]"
"","","","","","html-button-response","138","428984","0.0-11.0","85","1","2022-11-13 09:30:21","49aca292d257f58668169b9fbab864ae","222.20.193.181","Mozilla/5.0 (Macintosh; Intel Mac OS X 10_15_7) AppleWebKit/605.1.15 (KHTML, like Gecko) Version/16.1 Safari/605.1.15","Macintosh","Safari","16.1","OS X","10_15_7","7009","<p><strong>请判断下列陈述在多大程度上可以形容你？</p><p> (1 = ""和我一点都不像"" to 5 = ""非常像我"".)</strong></p>","0",""
"","","","","","survey-likert","139","451568","0.0-12.0","85","1","2022-11-13 09:30:21","49aca292d257f58668169b9fbab864ae","222.20.193.181","Mozilla/5.0 (Macintosh; Intel Mac OS X 10_15_7) AppleWebKit/605.1.15 (KHTML, like Gecko) Version/16.1 Safari/605.1.15","Macintosh","Safari","16.1","OS X","10_15_7","22578","","{""Aggression1"":4,""Aggression2"":3,""Aggression3"":4,""Aggression4"":4,""Aggression5"":4,""Aggression6"":4,""Aggression7"":0,""Aggression8"":4,""Aggression9"":4}","[0,1,2,3,4,5,6,7,8]"
"","","","","","html-button-response","140","453309","0.0-13.0","85","1","2022-11-13 09:30:21","49aca292d257f58668169b9fbab864ae","222.20.193.181","Mozilla/5.0 (Macintosh; Intel Mac OS X 10_15_7) AppleWebKit/605.1.15 (KHTML, like Gecko) Version/16.1 Safari/605.1.15","Macintosh","Safari","16.1","OS X","10_15_7","1734","<p><strong>请判断你在多大程度上同意下列陈述。</strong></p>","0",""
"","","","","","survey-likert","141","575412","0.0-14.0","85","1","2022-11-13 09:30:21","49aca292d257f58668169b9fbab864ae","222.20.193.181","Mozilla/5.0 (Macintosh; Intel Mac OS X 10_15_7) AppleWebKit/605.1.15 (KHTML, like Gecko) Version/16.1 Safari/605.1.15","Macintosh","Safari","16.1","OS X","10_15_7","122096","","{""scale11"":3,""scale14"":4,""scale13"":3,""scale21"":2,""scale12"":3,""scale10"":3,""scale19"":3,""scale27"":1,""scale25"":2,""scale4"":3,""scale20"":2,""scale7"":1,""scale5"":2,""scale17"":1,""scale22"":0,""scale2"":0,""scale23"":3,""scale1"":3,""scale3"":3,""scale28"":2,""scale6"":2,""scale15"":3,""scale9"":2,""scale26"":2,""scale18"":2,""scale16"":1,""scale8"":3,""scale24"":2}","[10,13,12,20,11,9,18,26,24,3,19,6,4,16,21,1,22,0,2,27,5,14,8,25,17,15,7,23]"
"","","","","","html-button-response","142","576517","0.0-15.0","85","1","2022-11-13 09:30:21","49aca292d257f58668169b9fbab864ae","222.20.193.181","Mozilla/5.0 (Macintosh; Intel Mac OS X 10_15_7) AppleWebKit/605.1.15 (KHTML, like Gecko) Version/16.1 Safari/605.1.15","Macintosh","Safari","16.1","OS X","10_15_7","1098","<p><strong>请判断你在多大程度上同意下列陈述。</strong></p>","0",""
"","","","","","survey-likert","143","635618","0.0-16.0","85","1","2022-11-13 09:30:21","49aca292d257f58668169b9fbab864ae","222.20.193.181","Mozilla/5.0 (Macintosh; Intel Mac OS X 10_15_7) AppleWebKit/605.1.15 (KHTML, like Gecko) Version/16.1 Safari/605.1.15","Macintosh","Safari","16.1","OS X","10_15_7","59093","","{""sdo14"":5,""sdo5"":5,""sdo13"":5,""sdo3"":1,""sdo8"":4,""sdo16"":6,""sdo1"":6,""sdo2"":4,""sdo7"":2,""sdo11"":5,""sdo12"":5,""sdo6"":3,""sdo4"":3,""sdo15"":4,""sdo9"":5,""sdo10"":3}","[13,4,12,2,7,15,0,1,6,10,11,5,3,14,8,9]"
"","","","","","html-button-response","144","636636","0.0-17.0","85","1","2022-11-13 09:30:21","49aca292d257f58668169b9fbab864ae","222.20.193.181","Mozilla/5.0 (Macintosh; Intel Mac OS X 10_15_7) AppleWebKit/605.1.15 (KHTML, like Gecko) Version/16.1 Safari/605.1.15","Macintosh","Safari","16.1","OS X","10_15_7","1012","<p><strong>请判断你在多大程度上同意下列陈述。</strong></p>","0",""
"","","","","","survey-likert","145","674237","0.0-18.0","85","1","2022-11-13 09:30:21","49aca292d257f58668169b9fbab864ae","222.20.193.181","Mozilla/5.0 (Macintosh; Intel Mac OS X 10_15_7) AppleWebKit/605.1.15 (KHTML, like Gecko) Version/16.1 Safari/605.1.15","Macintosh","Safari","16.1","OS X","10_15_7","37593","","{""caring1"":3,""liking1"":1,""caring2"":2,""protection1"":2,""liking2"":2,""caring3"":3,""protection2"":1,""liking3"":3,""protection3"":2,""caring4"":3,""liking4"":1,""protection4"":2,""caring5"":2,""liking5"":3,""protection5"":3}","[0,1,2,3,4,5,6,7,8,9,10,11,12,13,14]"
"","","","","","html-button-response","146","675701","0.0-19.0","85","1","2022-11-13 09:30:21","49aca292d257f58668169b9fbab864ae","222.20.193.181","Mozilla/5.0 (Macintosh; Intel Mac OS X 10_15_7) AppleWebKit/605.1.15 (KHTML, like Gecko) Version/16.1 Safari/605.1.15","Macintosh","Safari","16.1","OS X","10_15_7","1457","<p><strong>请判断下列场景中你的内心感受有多柔软。</strong></p>","0",""
"","","","","","survey-likert","147","695593","0.0-20.0","85","1","2022-11-13 09:30:21","49aca292d257f58668169b9fbab864ae","222.20.193.181","Mozilla/5.0 (Macintosh; Intel Mac OS X 10_15_7) AppleWebKit/605.1.15 (KHTML, like Gecko) Version/16.1 Safari/605.1.15","Macintosh","Safari","16.1","OS X","10_15_7","19870","","{""tenderness-positive1"":4,""tenderness-negative1"":3,""tenderness-negative2"":1,""tenderness-positive2"":4,""tenderness-positive3"":3,""tenderness-negative3"":2,""tenderness-positive4"":3,""tenderness-negative4"":3,""tenderness-negative5"":2,""tenderness-positive5"":3}","[0,1,2,3,4,5,6,7,8,9]"
"","","","","","survey-multi-choice","148","704918","0.0-21.0","85","1","2022-11-13 09:30:21","49aca292d257f58668169b9fbab864ae","222.20.193.181","Mozilla/5.0 (Macintosh; Intel Mac OS X 10_15_7) AppleWebKit/605.1.15 (KHTML, like Gecko) Version/16.1 Safari/605.1.15","Macintosh","Safari","16.1","OS X","10_15_7","9314","","{""Attention2"":""其他""}","[0]"
"","","","","","html-button-response","149","706244","0.0-22.0","85","1","2022-11-13 09:30:21","49aca292d257f58668169b9fbab864ae","222.20.193.181","Mozilla/5.0 (Macintosh; Intel Mac OS X 10_15_7) AppleWebKit/605.1.15 (KHTML, like Gecko) Version/16.1 Safari/605.1.15","Macintosh","Safari","16.1","OS X","10_15_7","1319","<p><strong>请判断你在多大程度上同意下列陈述。</strong></p>","0",""
"","","","","","survey-likert","150","796991","0.0-23.0","85","1","2022-11-13 09:30:21","49aca292d257f58668169b9fbab864ae","222.20.193.181","Mozilla/5.0 (Macintosh; Intel Mac OS X 10_15_7) AppleWebKit/605.1.15 (KHTML, like Gecko) Version/16.1 Safari/605.1.15","Macintosh","Safari","16.1","OS X","10_15_7","90734","","{""Patri4"":4,""Nation7"":4,""Nation8"":0,""Nation6"":3,""Patri11"":1,""Patri3"":4,""Nation2"":4,""Patri10"":0,""Nation4"":2,""Patri6"":1,""Nation3"":2,""Nation5"":2,""Patri8"":4,""Patri12"":1,""Patri7"":3,""Patri5"":4,""Patri9"":1,""Patri2"":4,""Patri1"":4,""Nation1"":1}","[3,18,19,17,10,2,13,9,15,5,14,16,7,11,6,4,8,1,0,12]"
"","","","","","html-button-response","151","798268","0.0-24.0","85","1","2022-11-13 09:30:21","49aca292d257f58668169b9fbab864ae","222.20.193.181","Mozilla/5.0 (Macintosh; Intel Mac OS X 10_15_7) AppleWebKit/605.1.15 (KHTML, like Gecko) Version/16.1 Safari/605.1.15","Macintosh","Safari","16.1","OS X","10_15_7","1269","<p><strong>请判断你在多大程度上同意下列陈述。</strong></p>","0",""
"","","","","","survey-likert","152","849334","0.0-25.0","85","1","2022-11-13 09:30:21","49aca292d257f58668169b9fbab864ae","222.20.193.181","Mozilla/5.0 (Macintosh; Intel Mac OS X 10_15_7) AppleWebKit/605.1.15 (KHTML, like Gecko) Version/16.1 Safari/605.1.15","Macintosh","Safari","16.1","OS X","10_15_7","51055","","{""hc2"":6,""hi3"":7,""hi1"":8,""vc4"":5,""vi1"":8,""Robot"":6,""vi4"":7,""vc1"":4,""vi2"":6,""hc3"":6,""hc4"":7,""hc1"":2,""hi4"":6,""vc3"":3,""vi3"":6,""hi2"":7,""vc2"":6}","[10,2,0,16,4,7,8,13,5,11,12,9,3,15,6,1,14]"
"","","","","","survey-text","153","868523","0.0-26.0","85","1","2022-11-13 09:30:21","49aca292d257f58668169b9fbab864ae","222.20.193.181","Mozilla/5.0 (Macintosh; Intel Mac OS X 10_15_7) AppleWebKit/605.1.15 (KHTML, like Gecko) Version/16.1 Safari/605.1.15","Macintosh","Safari","16.1","OS X","10_15_7","19183","","{""Comments"":""可以考虑一下导弹的成本吗""}",""
"","","","","","html-button-response","154","869485","0.0-27.0","85","1","2022-11-13 09:30:21","49aca292d257f58668169b9fbab864ae","222.20.193.181","Mozilla/5.0 (Macintosh; Intel Mac OS X 10_15_7) AppleWebKit/605.1.15 (KHTML, like Gecko) Version/16.1 Safari/605.1.15","Macintosh","Safari","16.1","OS X","10_15_7","957","<strong><p>恭喜你完成了实验！</p><p>感谢您的参与。</p></strong>","0",""
