"success","timeout","failed_images","failed_audio","failed_video","trial_type","trial_index","time_elapsed","internal_node_id","run_id","condition","recorded_at","source_code_version","ip","user_agent","device","browser","browser_version","platform","platform_version","rt","stimulus","response","question_order"
"true","false","[]","[]","[]","preload","0","3013","0.0-0.0","87","1","2022-11-13 09:33:20","49aca292d257f58668169b9fbab864ae","222.20.194.9","Mozilla/5.0 (iPhone; CPU iPhone OS 15_5 like Mac OS X) AppleWebKit/605.1.15 (KHTML, like Gecko) Mobile/15E148 MicroMessenger/8.0.29(0x18001d37) NetType/WIFI Language/en","iPhone","Mozilla","","iOS","15_5","","","",""
"true","","","","","fullscreen","1","5867","0.0-1.0","87","1","2022-11-13 09:33:20","49aca292d257f58668169b9fbab864ae","222.20.194.9","Mozilla/5.0 (iPhone; CPU iPhone OS 15_5 like Mac OS X) AppleWebKit/605.1.15 (KHTML, like Gecko) Mobile/15E148 MicroMessenger/8.0.29(0x18001d37) NetType/WIFI Language/en","iPhone","Mozilla","","iOS","15_5","","","",""
"","","","","","html-button-response","2","15991","0.0-2.0","87","1","2022-11-13 09:33:20","49aca292d257f58668169b9fbab864ae","222.20.194.9","Mozilla/5.0 (iPhone; CPU iPhone OS 15_5 like Mac OS X) AppleWebKit/605.1.15 (KHTML, like Gecko) Mobile/15E148 MicroMessenger/8.0.29(0x18001d37) NetType/WIFI Language/en","iPhone","Mozilla","","iOS","15_5","10121","<p style=""font-size:20px;font-weight:bold;"">实验知情同意书</p><p style=""text-align:left;""><strong>实验名称：</strong>社会冲突研究</p><p style=""text-align:left;""><strong>主要研究者：</strong>韩晓春副教授（北京师范大学心理学部）</p><p style=""text-align:left;""><strong>联系方式：</strong>发送邮件至xiaochun.han@bnu.edu.cn</p><p style=""text-align:left;""><strong>研究目的：</strong>研究旨在了解人类面对群体冲突时的决策方式，以及相关的心理学特质。实验调查大约需要20分钟。</p><p style=""text-align:left;""><strong>实验流程：</strong>实验包含两部分。第一部分呈现一系列群体冲突场景，请你决定如何对这些冲突进行反应，大约需要10分钟完成。第二部分包含一系列人口统计学信息收集和心理学问卷，大约需要10分钟完成。</p><p style=""text-align:left;""><strong>参加及退出规则：</strong>参加本实验完全取决于您的个人意愿。在参与过程中，您可以随时退出，并且不用承担任何后果。</p><p style=""text-align:left;""><strong>隐私：</strong>本实验完全匿名进行，不会收集您的姓名或其他能够识别您身份的信息。实验中收集的作答仅用作科学研究使用，可能会在学术期刊/书籍上发表，或者用于教学，您的数据未来可能会和其他研究者或实验室分享，但您的个人身份不会被识别。</p><p style=""text-align:left;""><strong>实验报酬：</strong>实验完成后，您将获得15元人民币报酬，以感谢您的时间和努力。调查问卷中包含几道题目用以测验您作答时的认真度。只有完成全部实验，并且正确回答认真度测验的被试才能获得实验报酬。实验报酬将通过支付宝转账发放。</p><p style=""text-align:left;font-size:20px;""><strong>如果您同意以上实验知情同意书的内容，请点击'同意并且开始实验'按钮；否则请关闭浏览器界面，退出实验。</strong></p>","0",""
"","","","","","html-button-response","3","22746","0.0-3.0","87","1","2022-11-13 09:33:20","49aca292d257f58668169b9fbab864ae","222.20.194.9","Mozilla/5.0 (iPhone; CPU iPhone OS 15_5 like Mac OS X) AppleWebKit/605.1.15 (KHTML, like Gecko) Mobile/15E148 MicroMessenger/8.0.29(0x18001d37) NetType/WIFI Language/en","iPhone","Mozilla","","iOS","15_5","6751","<p ><strong>实验任务一：</strong></p><p>请想象你的国家与另一个国家发生了军事冲突。</p><p>你是国家军队的指挥官，你将如何在冲突中进行决策。</p><p>具体来说，作为军队指挥官，请你决定是否发射导弹进行打击。</p><p>接下来，你会面对一系列场景，请仔细阅读每个场景，然后进行决策。</p><p>这部分实验任务大约需要10分钟。</p><p><strong>实验过程中，请集中注意力。</strong></p>","0",""
"","","","","","html-keyboard-response","4","23749","0.0-4.0-0.0","87","1","2022-11-13 09:33:20","49aca292d257f58668169b9fbab864ae","222.20.194.9","Mozilla/5.0 (iPhone; CPU iPhone OS 15_5 like Mac OS X) AppleWebKit/605.1.15 (KHTML, like Gecko) Mobile/15E148 MicroMessenger/8.0.29(0x18001d37) NetType/WIFI Language/en","iPhone","Mozilla","","iOS","15_5","null","<div style=""font-size:60px;"">+</div>","null",""
"","","","","","html-button-response","5","39669","0.0-4.0-1.0","87","1","2022-11-13 09:33:20","49aca292d257f58668169b9fbab864ae","222.20.194.9","Mozilla/5.0 (iPhone; CPU iPhone OS 15_5 like Mac OS X) AppleWebKit/605.1.15 (KHTML, like Gecko) Mobile/15E148 MicroMessenger/8.0.29(0x18001d37) NetType/WIFI Language/en","iPhone","Mozilla","","iOS","15_5","15913","<p>作为军队的指挥官，你可以选择发射导弹杀死 <strong>4名</strong> 敌国士兵，但会误杀附近的 <strong>1名</strong> 敌国平民。</p> <p>平民照片如下图所示。</p> <p></p> <img src='stimuli/faces/PFM8.jpg', style='max-width: 30%;'> </img> <p><strong>你是否选择发射武器？</strong></p>","0",""
"","","","","","html-keyboard-response","6","40673","0.0-4.0-0.1","87","1","2022-11-13 09:33:20","49aca292d257f58668169b9fbab864ae","222.20.194.9","Mozilla/5.0 (iPhone; CPU iPhone OS 15_5 like Mac OS X) AppleWebKit/605.1.15 (KHTML, like Gecko) Mobile/15E148 MicroMessenger/8.0.29(0x18001d37) NetType/WIFI Language/en","iPhone","Mozilla","","iOS","15_5","null","<div style=""font-size:60px;"">+</div>","null",""
"","","","","","html-button-response","7","45774","0.0-4.0-1.1","87","1","2022-11-13 09:33:20","49aca292d257f58668169b9fbab864ae","222.20.194.9","Mozilla/5.0 (iPhone; CPU iPhone OS 15_5 like Mac OS X) AppleWebKit/605.1.15 (KHTML, like Gecko) Mobile/15E148 MicroMessenger/8.0.29(0x18001d37) NetType/WIFI Language/en","iPhone","Mozilla","","iOS","15_5","5094","<p>作为军队的指挥官，你可以选择发射导弹杀死 <strong>7名</strong> 敌国士兵，但会炸毁附近的 <strong>1棵</strong> 敌国树木。</p> <p>树木的照片如下图所示。</p> <p></p> <img src='stimuli/trees/14.png', style='max-width: 30%;'> </img> <p><strong>你是否选择发射武器？</strong></p>","0",""
"","","","","","html-keyboard-response","8","46777","0.0-4.0-0.2","87","1","2022-11-13 09:33:20","49aca292d257f58668169b9fbab864ae","222.20.194.9","Mozilla/5.0 (iPhone; CPU iPhone OS 15_5 like Mac OS X) AppleWebKit/605.1.15 (KHTML, like Gecko) Mobile/15E148 MicroMessenger/8.0.29(0x18001d37) NetType/WIFI Language/en","iPhone","Mozilla","","iOS","15_5","null","<div style=""font-size:60px;"">+</div>","null",""
"","","","","","html-button-response","9","56184","0.0-4.0-1.2","87","1","2022-11-13 09:33:20","49aca292d257f58668169b9fbab864ae","222.20.194.9","Mozilla/5.0 (iPhone; CPU iPhone OS 15_5 like Mac OS X) AppleWebKit/605.1.15 (KHTML, like Gecko) Mobile/15E148 MicroMessenger/8.0.29(0x18001d37) NetType/WIFI Language/en","iPhone","Mozilla","","iOS","15_5","9402","<p>作为军队的指挥官，你可以选择发射导弹杀死 <strong>7名</strong> 敌国士兵，但会误杀附近的 <strong>1名</strong> 敌国平民。</p> <p>平民照片如下图所示。</p> <p></p> <img src='stimuli/faces/PFM3.jpg', style='max-width: 30%;'> </img> <p><strong>你是否选择发射武器？</strong></p>","0",""
"","","","","","html-keyboard-response","10","57188","0.0-4.0-0.3","87","1","2022-11-13 09:33:20","49aca292d257f58668169b9fbab864ae","222.20.194.9","Mozilla/5.0 (iPhone; CPU iPhone OS 15_5 like Mac OS X) AppleWebKit/605.1.15 (KHTML, like Gecko) Mobile/15E148 MicroMessenger/8.0.29(0x18001d37) NetType/WIFI Language/en","iPhone","Mozilla","","iOS","15_5","null","<div style=""font-size:60px;"">+</div>","null",""
"","","","","","html-button-response","11","59037","0.0-4.0-1.3","87","1","2022-11-13 09:33:20","49aca292d257f58668169b9fbab864ae","222.20.194.9","Mozilla/5.0 (iPhone; CPU iPhone OS 15_5 like Mac OS X) AppleWebKit/605.1.15 (KHTML, like Gecko) Mobile/15E148 MicroMessenger/8.0.29(0x18001d37) NetType/WIFI Language/en","iPhone","Mozilla","","iOS","15_5","1843","<p>作为军队的指挥官，你可以选择发射导弹杀死 <strong>10名</strong> 敌国士兵，但会炸毁附近的 <strong>1棵</strong> 敌国树木。</p> <p>树木的照片如下图所示。</p> <p></p> <img src='stimuli/trees/4.png', style='max-width: 30%;'> </img> <p><strong>你是否选择发射武器？</strong></p>","0",""
"","","","","","html-keyboard-response","12","60041","0.0-4.0-0.4","87","1","2022-11-13 09:33:20","49aca292d257f58668169b9fbab864ae","222.20.194.9","Mozilla/5.0 (iPhone; CPU iPhone OS 15_5 like Mac OS X) AppleWebKit/605.1.15 (KHTML, like Gecko) Mobile/15E148 MicroMessenger/8.0.29(0x18001d37) NetType/WIFI Language/en","iPhone","Mozilla","","iOS","15_5","null","<div style=""font-size:60px;"">+</div>","null",""
"","","","","","html-button-response","13","61596","0.0-4.0-1.4","87","1","2022-11-13 09:33:20","49aca292d257f58668169b9fbab864ae","222.20.194.9","Mozilla/5.0 (iPhone; CPU iPhone OS 15_5 like Mac OS X) AppleWebKit/605.1.15 (KHTML, like Gecko) Mobile/15E148 MicroMessenger/8.0.29(0x18001d37) NetType/WIFI Language/en","iPhone","Mozilla","","iOS","15_5","1550","<p>作为军队的指挥官，你可以选择发射导弹杀死 <strong>3名</strong> 敌国士兵，但会炸毁附近的 <strong>1棵</strong> 敌国树木。</p> <p>树木的照片如下图所示。</p> <p></p> <img src='stimuli/trees/8.png', style='max-width: 30%;'> </img> <p><strong>你是否选择发射武器？</strong></p>","0",""
"","","","","","html-keyboard-response","14","62599","0.0-4.0-0.5","87","1","2022-11-13 09:33:20","49aca292d257f58668169b9fbab864ae","222.20.194.9","Mozilla/5.0 (iPhone; CPU iPhone OS 15_5 like Mac OS X) AppleWebKit/605.1.15 (KHTML, like Gecko) Mobile/15E148 MicroMessenger/8.0.29(0x18001d37) NetType/WIFI Language/en","iPhone","Mozilla","","iOS","15_5","null","<div style=""font-size:60px;"">+</div>","null",""
"","","","","","html-button-response","15","64219","0.0-4.0-1.5","87","1","2022-11-13 09:33:20","49aca292d257f58668169b9fbab864ae","222.20.194.9","Mozilla/5.0 (iPhone; CPU iPhone OS 15_5 like Mac OS X) AppleWebKit/605.1.15 (KHTML, like Gecko) Mobile/15E148 MicroMessenger/8.0.29(0x18001d37) NetType/WIFI Language/en","iPhone","Mozilla","","iOS","15_5","1614","<p>作为军队的指挥官，你可以选择发射导弹杀死 <strong>5名</strong> 敌国士兵，但会炸毁附近的 <strong>1棵</strong> 敌国树木。</p> <p>树木的照片如下图所示。</p> <p></p> <img src='stimuli/trees/13.png', style='max-width: 30%;'> </img> <p><strong>你是否选择发射武器？</strong></p>","0",""
"","","","","","html-keyboard-response","16","65222","0.0-4.0-0.6","87","1","2022-11-13 09:33:20","49aca292d257f58668169b9fbab864ae","222.20.194.9","Mozilla/5.0 (iPhone; CPU iPhone OS 15_5 like Mac OS X) AppleWebKit/605.1.15 (KHTML, like Gecko) Mobile/15E148 MicroMessenger/8.0.29(0x18001d37) NetType/WIFI Language/en","iPhone","Mozilla","","iOS","15_5","null","<div style=""font-size:60px;"">+</div>","null",""
"","","","","","html-button-response","17","66677","0.0-4.0-1.6","87","1","2022-11-13 09:33:20","49aca292d257f58668169b9fbab864ae","222.20.194.9","Mozilla/5.0 (iPhone; CPU iPhone OS 15_5 like Mac OS X) AppleWebKit/605.1.15 (KHTML, like Gecko) Mobile/15E148 MicroMessenger/8.0.29(0x18001d37) NetType/WIFI Language/en","iPhone","Mozilla","","iOS","15_5","1449","<p>作为军队的指挥官，你可以选择发射导弹杀死 <strong>9名</strong> 敌国士兵，但会炸毁附近的 <strong>1棵</strong> 敌国树木。</p> <p>树木的照片如下图所示。</p> <p></p> <img src='stimuli/trees/13.png', style='max-width: 30%;'> </img> <p><strong>你是否选择发射武器？</strong></p>","0",""
"","","","","","html-keyboard-response","18","67680","0.0-4.0-0.7","87","1","2022-11-13 09:33:20","49aca292d257f58668169b9fbab864ae","222.20.194.9","Mozilla/5.0 (iPhone; CPU iPhone OS 15_5 like Mac OS X) AppleWebKit/605.1.15 (KHTML, like Gecko) Mobile/15E148 MicroMessenger/8.0.29(0x18001d37) NetType/WIFI Language/en","iPhone","Mozilla","","iOS","15_5","null","<div style=""font-size:60px;"">+</div>","null",""
"","","","","","html-button-response","19","70829","0.0-4.0-1.7","87","1","2022-11-13 09:33:20","49aca292d257f58668169b9fbab864ae","222.20.194.9","Mozilla/5.0 (iPhone; CPU iPhone OS 15_5 like Mac OS X) AppleWebKit/605.1.15 (KHTML, like Gecko) Mobile/15E148 MicroMessenger/8.0.29(0x18001d37) NetType/WIFI Language/en","iPhone","Mozilla","","iOS","15_5","3143","<p>作为军队的指挥官，你可以选择发射导弹杀死 <strong>9名</strong> 敌国士兵，但会误杀附近的 <strong>1名</strong> 敌国平民。</p> <p>平民照片如下图所示。</p> <p></p> <img src='stimuli/faces/PFF7.jpg', style='max-width: 30%;'> </img> <p><strong>你是否选择发射武器？</strong></p>","0",""
"","","","","","html-keyboard-response","20","71833","0.0-4.0-0.8","87","1","2022-11-13 09:33:20","49aca292d257f58668169b9fbab864ae","222.20.194.9","Mozilla/5.0 (iPhone; CPU iPhone OS 15_5 like Mac OS X) AppleWebKit/605.1.15 (KHTML, like Gecko) Mobile/15E148 MicroMessenger/8.0.29(0x18001d37) NetType/WIFI Language/en","iPhone","Mozilla","","iOS","15_5","null","<div style=""font-size:60px;"">+</div>","null",""
"","","","","","html-button-response","21","76009","0.0-4.0-1.8","87","1","2022-11-13 09:33:20","49aca292d257f58668169b9fbab864ae","222.20.194.9","Mozilla/5.0 (iPhone; CPU iPhone OS 15_5 like Mac OS X) AppleWebKit/605.1.15 (KHTML, like Gecko) Mobile/15E148 MicroMessenger/8.0.29(0x18001d37) NetType/WIFI Language/en","iPhone","Mozilla","","iOS","15_5","4169","<p>作为军队的指挥官，你可以选择发射导弹杀死 <strong>7名</strong> 敌国士兵，但会误杀附近的 <strong>1名</strong> 敌国平民。</p> <p>平民照片如下图所示。</p> <p></p> <img src='stimuli/faces/PFM5.jpg', style='max-width: 30%;'> </img> <p><strong>你是否选择发射武器？</strong></p>","0",""
"","","","","","html-keyboard-response","22","77013","0.0-4.0-0.9","87","1","2022-11-13 09:33:20","49aca292d257f58668169b9fbab864ae","222.20.194.9","Mozilla/5.0 (iPhone; CPU iPhone OS 15_5 like Mac OS X) AppleWebKit/605.1.15 (KHTML, like Gecko) Mobile/15E148 MicroMessenger/8.0.29(0x18001d37) NetType/WIFI Language/en","iPhone","Mozilla","","iOS","15_5","null","<div style=""font-size:60px;"">+</div>","null",""
"","","","","","html-button-response","23","81127","0.0-4.0-1.9","87","1","2022-11-13 09:33:20","49aca292d257f58668169b9fbab864ae","222.20.194.9","Mozilla/5.0 (iPhone; CPU iPhone OS 15_5 like Mac OS X) AppleWebKit/605.1.15 (KHTML, like Gecko) Mobile/15E148 MicroMessenger/8.0.29(0x18001d37) NetType/WIFI Language/en","iPhone","Mozilla","","iOS","15_5","4107","<p>作为军队的指挥官，你可以选择发射导弹杀死 <strong>10名</strong> 敌国士兵，但会误杀附近的 <strong>1名</strong> 敌国平民。</p> <p>平民照片如下图所示。</p> <p></p> <img src='stimuli/faces/PFM6.jpg', style='max-width: 30%;'> </img> <p><strong>你是否选择发射武器？</strong></p>","0",""
"","","","","","html-keyboard-response","24","82132","0.0-4.0-0.10","87","1","2022-11-13 09:33:20","49aca292d257f58668169b9fbab864ae","222.20.194.9","Mozilla/5.0 (iPhone; CPU iPhone OS 15_5 like Mac OS X) AppleWebKit/605.1.15 (KHTML, like Gecko) Mobile/15E148 MicroMessenger/8.0.29(0x18001d37) NetType/WIFI Language/en","iPhone","Mozilla","","iOS","15_5","null","<div style=""font-size:60px;"">+</div>","null",""
"","","","","","html-button-response","25","84724","0.0-4.0-1.10","87","1","2022-11-13 09:33:20","49aca292d257f58668169b9fbab864ae","222.20.194.9","Mozilla/5.0 (iPhone; CPU iPhone OS 15_5 like Mac OS X) AppleWebKit/605.1.15 (KHTML, like Gecko) Mobile/15E148 MicroMessenger/8.0.29(0x18001d37) NetType/WIFI Language/en","iPhone","Mozilla","","iOS","15_5","2586","<p>作为军队的指挥官，你可以选择发射导弹杀死 <strong>10名</strong> 敌国士兵，但会炸毁附近的 <strong>1棵</strong> 敌国树木。</p> <p>树木的照片如下图所示。</p> <p></p> <img src='stimuli/trees/5.png', style='max-width: 30%;'> </img> <p><strong>你是否选择发射武器？</strong></p>","1",""
"","","","","","html-keyboard-response","26","85729","0.0-4.0-0.11","87","1","2022-11-13 09:33:20","49aca292d257f58668169b9fbab864ae","222.20.194.9","Mozilla/5.0 (iPhone; CPU iPhone OS 15_5 like Mac OS X) AppleWebKit/605.1.15 (KHTML, like Gecko) Mobile/15E148 MicroMessenger/8.0.29(0x18001d37) NetType/WIFI Language/en","iPhone","Mozilla","","iOS","15_5","null","<div style=""font-size:60px;"">+</div>","null",""
"","","","","","html-button-response","27","88552","0.0-4.0-1.11","87","1","2022-11-13 09:33:20","49aca292d257f58668169b9fbab864ae","222.20.194.9","Mozilla/5.0 (iPhone; CPU iPhone OS 15_5 like Mac OS X) AppleWebKit/605.1.15 (KHTML, like Gecko) Mobile/15E148 MicroMessenger/8.0.29(0x18001d37) NetType/WIFI Language/en","iPhone","Mozilla","","iOS","15_5","2818","<p>作为军队的指挥官，你可以选择发射导弹杀死 <strong>3名</strong> 敌国士兵，但会炸毁附近的 <strong>1棵</strong> 敌国树木。</p> <p>树木的照片如下图所示。</p> <p></p> <img src='stimuli/trees/7.png', style='max-width: 30%;'> </img> <p><strong>你是否选择发射武器？</strong></p>","1",""
"","","","","","html-keyboard-response","28","89556","0.0-4.0-0.12","87","1","2022-11-13 09:33:20","49aca292d257f58668169b9fbab864ae","222.20.194.9","Mozilla/5.0 (iPhone; CPU iPhone OS 15_5 like Mac OS X) AppleWebKit/605.1.15 (KHTML, like Gecko) Mobile/15E148 MicroMessenger/8.0.29(0x18001d37) NetType/WIFI Language/en","iPhone","Mozilla","","iOS","15_5","null","<div style=""font-size:60px;"">+</div>","null",""
"","","","","","html-button-response","29","91276","0.0-4.0-1.12","87","1","2022-11-13 09:33:20","49aca292d257f58668169b9fbab864ae","222.20.194.9","Mozilla/5.0 (iPhone; CPU iPhone OS 15_5 like Mac OS X) AppleWebKit/605.1.15 (KHTML, like Gecko) Mobile/15E148 MicroMessenger/8.0.29(0x18001d37) NetType/WIFI Language/en","iPhone","Mozilla","","iOS","15_5","1714","<p>作为军队的指挥官，你可以选择发射导弹杀死 <strong>8名</strong> 敌国士兵，但会误杀附近的 <strong>1名</strong> 敌国平民。</p> <p>平民照片如下图所示。</p> <p></p> <img src='stimuli/faces/PFF5.jpg', style='max-width: 30%;'> </img> <p><strong>你是否选择发射武器？</strong></p>","1",""
"","","","","","html-keyboard-response","30","92281","0.0-4.0-0.13","87","1","2022-11-13 09:33:20","49aca292d257f58668169b9fbab864ae","222.20.194.9","Mozilla/5.0 (iPhone; CPU iPhone OS 15_5 like Mac OS X) AppleWebKit/605.1.15 (KHTML, like Gecko) Mobile/15E148 MicroMessenger/8.0.29(0x18001d37) NetType/WIFI Language/en","iPhone","Mozilla","","iOS","15_5","null","<div style=""font-size:60px;"">+</div>","null",""
"","","","","","html-button-response","31","97780","0.0-4.0-1.13","87","1","2022-11-13 09:33:20","49aca292d257f58668169b9fbab864ae","222.20.194.9","Mozilla/5.0 (iPhone; CPU iPhone OS 15_5 like Mac OS X) AppleWebKit/605.1.15 (KHTML, like Gecko) Mobile/15E148 MicroMessenger/8.0.29(0x18001d37) NetType/WIFI Language/en","iPhone","Mozilla","","iOS","15_5","5491","<p>作为军队的指挥官，你可以选择发射导弹杀死 <strong>5名</strong> 敌国士兵，但会炸毁附近的 <strong>1棵</strong> 敌国树木。</p> <p>树木的照片如下图所示。</p> <p></p> <img src='stimuli/trees/4.png', style='max-width: 30%;'> </img> <p><strong>你是否选择发射武器？</strong></p>","0",""
"","","","","","html-keyboard-response","32","98784","0.0-4.0-0.14","87","1","2022-11-13 09:33:20","49aca292d257f58668169b9fbab864ae","222.20.194.9","Mozilla/5.0 (iPhone; CPU iPhone OS 15_5 like Mac OS X) AppleWebKit/605.1.15 (KHTML, like Gecko) Mobile/15E148 MicroMessenger/8.0.29(0x18001d37) NetType/WIFI Language/en","iPhone","Mozilla","","iOS","15_5","null","<div style=""font-size:60px;"">+</div>","null",""
"","","","","","html-button-response","33","101213","0.0-4.0-1.14","87","1","2022-11-13 09:33:20","49aca292d257f58668169b9fbab864ae","222.20.194.9","Mozilla/5.0 (iPhone; CPU iPhone OS 15_5 like Mac OS X) AppleWebKit/605.1.15 (KHTML, like Gecko) Mobile/15E148 MicroMessenger/8.0.29(0x18001d37) NetType/WIFI Language/en","iPhone","Mozilla","","iOS","15_5","2422","<p>作为军队的指挥官，你可以选择发射导弹杀死 <strong>3名</strong> 敌国士兵，但会炸毁附近的 <strong>1棵</strong> 敌国树木。</p> <p>树木的照片如下图所示。</p> <p></p> <img src='stimuli/trees/5.png', style='max-width: 30%;'> </img> <p><strong>你是否选择发射武器？</strong></p>","1",""
"","","","","","html-keyboard-response","34","102217","0.0-4.0-0.15","87","1","2022-11-13 09:33:20","49aca292d257f58668169b9fbab864ae","222.20.194.9","Mozilla/5.0 (iPhone; CPU iPhone OS 15_5 like Mac OS X) AppleWebKit/605.1.15 (KHTML, like Gecko) Mobile/15E148 MicroMessenger/8.0.29(0x18001d37) NetType/WIFI Language/en","iPhone","Mozilla","","iOS","15_5","null","<div style=""font-size:60px;"">+</div>","null",""
"","","","","","html-button-response","35","106146","0.0-4.0-1.15","87","1","2022-11-13 09:33:20","49aca292d257f58668169b9fbab864ae","222.20.194.9","Mozilla/5.0 (iPhone; CPU iPhone OS 15_5 like Mac OS X) AppleWebKit/605.1.15 (KHTML, like Gecko) Mobile/15E148 MicroMessenger/8.0.29(0x18001d37) NetType/WIFI Language/en","iPhone","Mozilla","","iOS","15_5","3923","<p>作为军队的指挥官，你可以选择发射导弹杀死 <strong>4名</strong> 敌国士兵，但会误杀附近的 <strong>1名</strong> 敌国平民。</p> <p>平民照片如下图所示。</p> <p></p> <img src='stimuli/faces/PFM1.jpg', style='max-width: 30%;'> </img> <p><strong>你是否选择发射武器？</strong></p>","0",""
"","","","","","html-keyboard-response","36","107156","0.0-4.0-0.16","87","1","2022-11-13 09:33:20","49aca292d257f58668169b9fbab864ae","222.20.194.9","Mozilla/5.0 (iPhone; CPU iPhone OS 15_5 like Mac OS X) AppleWebKit/605.1.15 (KHTML, like Gecko) Mobile/15E148 MicroMessenger/8.0.29(0x18001d37) NetType/WIFI Language/en","iPhone","Mozilla","","iOS","15_5","null","<div style=""font-size:60px;"">+</div>","null",""
"","","","","","html-button-response","37","111392","0.0-4.0-1.16","87","1","2022-11-13 09:33:20","49aca292d257f58668169b9fbab864ae","222.20.194.9","Mozilla/5.0 (iPhone; CPU iPhone OS 15_5 like Mac OS X) AppleWebKit/605.1.15 (KHTML, like Gecko) Mobile/15E148 MicroMessenger/8.0.29(0x18001d37) NetType/WIFI Language/en","iPhone","Mozilla","","iOS","15_5","4230","<p>作为军队的指挥官，你可以选择发射导弹杀死 <strong>3名</strong> 敌国士兵，但会误杀附近的 <strong>1名</strong> 敌国平民。</p> <p>平民照片如下图所示。</p> <p></p> <img src='stimuli/faces/PFF6.jpg', style='max-width: 30%;'> </img> <p><strong>你是否选择发射武器？</strong></p>","1",""
"","","","","","html-keyboard-response","38","112396","0.0-4.0-0.17","87","1","2022-11-13 09:33:20","49aca292d257f58668169b9fbab864ae","222.20.194.9","Mozilla/5.0 (iPhone; CPU iPhone OS 15_5 like Mac OS X) AppleWebKit/605.1.15 (KHTML, like Gecko) Mobile/15E148 MicroMessenger/8.0.29(0x18001d37) NetType/WIFI Language/en","iPhone","Mozilla","","iOS","15_5","null","<div style=""font-size:60px;"">+</div>","null",""
"","","","","","html-button-response","39","115989","0.0-4.0-1.17","87","1","2022-11-13 09:33:20","49aca292d257f58668169b9fbab864ae","222.20.194.9","Mozilla/5.0 (iPhone; CPU iPhone OS 15_5 like Mac OS X) AppleWebKit/605.1.15 (KHTML, like Gecko) Mobile/15E148 MicroMessenger/8.0.29(0x18001d37) NetType/WIFI Language/en","iPhone","Mozilla","","iOS","15_5","3587","<p>作为军队的指挥官，你可以选择发射导弹杀死 <strong>6名</strong> 敌国士兵，但会炸毁附近的 <strong>1棵</strong> 敌国树木。</p> <p>树木的照片如下图所示。</p> <p></p> <img src='stimuli/trees/6.png', style='max-width: 30%;'> </img> <p><strong>你是否选择发射武器？</strong></p>","0",""
"","","","","","html-keyboard-response","40","116993","0.0-4.0-0.18","87","1","2022-11-13 09:33:20","49aca292d257f58668169b9fbab864ae","222.20.194.9","Mozilla/5.0 (iPhone; CPU iPhone OS 15_5 like Mac OS X) AppleWebKit/605.1.15 (KHTML, like Gecko) Mobile/15E148 MicroMessenger/8.0.29(0x18001d37) NetType/WIFI Language/en","iPhone","Mozilla","","iOS","15_5","null","<div style=""font-size:60px;"">+</div>","null",""
"","","","","","html-button-response","41","120924","0.0-4.0-1.18","87","1","2022-11-13 09:33:20","49aca292d257f58668169b9fbab864ae","222.20.194.9","Mozilla/5.0 (iPhone; CPU iPhone OS 15_5 like Mac OS X) AppleWebKit/605.1.15 (KHTML, like Gecko) Mobile/15E148 MicroMessenger/8.0.29(0x18001d37) NetType/WIFI Language/en","iPhone","Mozilla","","iOS","15_5","3924","<p>作为军队的指挥官，你可以选择发射导弹杀死 <strong>6名</strong> 敌国士兵，但会误杀附近的 <strong>1名</strong> 敌国平民。</p> <p>平民照片如下图所示。</p> <p></p> <img src='stimuli/faces/PFF8.jpg', style='max-width: 30%;'> </img> <p><strong>你是否选择发射武器？</strong></p>","0",""
"","","","","","html-keyboard-response","42","121928","0.0-4.0-0.19","87","1","2022-11-13 09:33:20","49aca292d257f58668169b9fbab864ae","222.20.194.9","Mozilla/5.0 (iPhone; CPU iPhone OS 15_5 like Mac OS X) AppleWebKit/605.1.15 (KHTML, like Gecko) Mobile/15E148 MicroMessenger/8.0.29(0x18001d37) NetType/WIFI Language/en","iPhone","Mozilla","","iOS","15_5","null","<div style=""font-size:60px;"">+</div>","null",""
"","","","","","html-button-response","43","123686","0.0-4.0-1.19","87","1","2022-11-13 09:33:20","49aca292d257f58668169b9fbab864ae","222.20.194.9","Mozilla/5.0 (iPhone; CPU iPhone OS 15_5 like Mac OS X) AppleWebKit/605.1.15 (KHTML, like Gecko) Mobile/15E148 MicroMessenger/8.0.29(0x18001d37) NetType/WIFI Language/en","iPhone","Mozilla","","iOS","15_5","1751","<p>作为军队的指挥官，你可以选择发射导弹杀死 <strong>2名</strong> 敌国士兵，但会炸毁附近的 <strong>1棵</strong> 敌国树木。</p> <p>树木的照片如下图所示。</p> <p></p> <img src='stimuli/trees/6.png', style='max-width: 30%;'> </img> <p><strong>你是否选择发射武器？</strong></p>","1",""
"","","","","","html-keyboard-response","44","124691","0.0-4.0-0.20","87","1","2022-11-13 09:33:20","49aca292d257f58668169b9fbab864ae","222.20.194.9","Mozilla/5.0 (iPhone; CPU iPhone OS 15_5 like Mac OS X) AppleWebKit/605.1.15 (KHTML, like Gecko) Mobile/15E148 MicroMessenger/8.0.29(0x18001d37) NetType/WIFI Language/en","iPhone","Mozilla","","iOS","15_5","null","<div style=""font-size:60px;"">+</div>","null",""
"","","","","","html-button-response","45","128550","0.0-4.0-1.20","87","1","2022-11-13 09:33:20","49aca292d257f58668169b9fbab864ae","222.20.194.9","Mozilla/5.0 (iPhone; CPU iPhone OS 15_5 like Mac OS X) AppleWebKit/605.1.15 (KHTML, like Gecko) Mobile/15E148 MicroMessenger/8.0.29(0x18001d37) NetType/WIFI Language/en","iPhone","Mozilla","","iOS","15_5","3853","<p>作为军队的指挥官，你可以选择发射导弹杀死 <strong>8名</strong> 敌国士兵，但会误杀附近的 <strong>1名</strong> 敌国平民。</p> <p>平民照片如下图所示。</p> <p></p> <img src='stimuli/faces/PFF3.jpg', style='max-width: 30%;'> </img> <p><strong>你是否选择发射武器？</strong></p>","1",""
"","","","","","html-keyboard-response","46","129554","0.0-4.0-0.21","87","1","2022-11-13 09:33:20","49aca292d257f58668169b9fbab864ae","222.20.194.9","Mozilla/5.0 (iPhone; CPU iPhone OS 15_5 like Mac OS X) AppleWebKit/605.1.15 (KHTML, like Gecko) Mobile/15E148 MicroMessenger/8.0.29(0x18001d37) NetType/WIFI Language/en","iPhone","Mozilla","","iOS","15_5","null","<div style=""font-size:60px;"">+</div>","null",""
"","","","","","html-button-response","47","131312","0.0-4.0-1.21","87","1","2022-11-13 09:33:20","49aca292d257f58668169b9fbab864ae","222.20.194.9","Mozilla/5.0 (iPhone; CPU iPhone OS 15_5 like Mac OS X) AppleWebKit/605.1.15 (KHTML, like Gecko) Mobile/15E148 MicroMessenger/8.0.29(0x18001d37) NetType/WIFI Language/en","iPhone","Mozilla","","iOS","15_5","1752","<p>作为军队的指挥官，你可以选择发射导弹杀死 <strong>6名</strong> 敌国士兵，但会炸毁附近的 <strong>1棵</strong> 敌国树木。</p> <p>树木的照片如下图所示。</p> <p></p> <img src='stimuli/trees/12.png', style='max-width: 30%;'> </img> <p><strong>你是否选择发射武器？</strong></p>","1",""
"","","","","","html-keyboard-response","48","132317","0.0-4.0-0.22","87","1","2022-11-13 09:33:20","49aca292d257f58668169b9fbab864ae","222.20.194.9","Mozilla/5.0 (iPhone; CPU iPhone OS 15_5 like Mac OS X) AppleWebKit/605.1.15 (KHTML, like Gecko) Mobile/15E148 MicroMessenger/8.0.29(0x18001d37) NetType/WIFI Language/en","iPhone","Mozilla","","iOS","15_5","null","<div style=""font-size:60px;"">+</div>","null",""
"","","","","","html-button-response","49","134790","0.0-4.0-1.22","87","1","2022-11-13 09:33:20","49aca292d257f58668169b9fbab864ae","222.20.194.9","Mozilla/5.0 (iPhone; CPU iPhone OS 15_5 like Mac OS X) AppleWebKit/605.1.15 (KHTML, like Gecko) Mobile/15E148 MicroMessenger/8.0.29(0x18001d37) NetType/WIFI Language/en","iPhone","Mozilla","","iOS","15_5","2467","<p>作为军队的指挥官，你可以选择发射导弹杀死 <strong>6名</strong> 敌国士兵，但会炸毁附近的 <strong>1棵</strong> 敌国树木。</p> <p>树木的照片如下图所示。</p> <p></p> <img src='stimuli/trees/1.png', style='max-width: 30%;'> </img> <p><strong>你是否选择发射武器？</strong></p>","1",""
"","","","","","html-keyboard-response","50","135795","0.0-4.0-0.23","87","1","2022-11-13 09:33:20","49aca292d257f58668169b9fbab864ae","222.20.194.9","Mozilla/5.0 (iPhone; CPU iPhone OS 15_5 like Mac OS X) AppleWebKit/605.1.15 (KHTML, like Gecko) Mobile/15E148 MicroMessenger/8.0.29(0x18001d37) NetType/WIFI Language/en","iPhone","Mozilla","","iOS","15_5","null","<div style=""font-size:60px;"">+</div>","null",""
"","","","","","html-button-response","51","138181","0.0-4.0-1.23","87","1","2022-11-13 09:33:20","49aca292d257f58668169b9fbab864ae","222.20.194.9","Mozilla/5.0 (iPhone; CPU iPhone OS 15_5 like Mac OS X) AppleWebKit/605.1.15 (KHTML, like Gecko) Mobile/15E148 MicroMessenger/8.0.29(0x18001d37) NetType/WIFI Language/en","iPhone","Mozilla","","iOS","15_5","2380","<p>作为军队的指挥官，你可以选择发射导弹杀死 <strong>8名</strong> 敌国士兵，但会炸毁附近的 <strong>1棵</strong> 敌国树木。</p> <p>树木的照片如下图所示。</p> <p></p> <img src='stimuli/trees/3.png', style='max-width: 30%;'> </img> <p><strong>你是否选择发射武器？</strong></p>","0",""
"","","","","","html-keyboard-response","52","139185","0.0-4.0-0.24","87","1","2022-11-13 09:33:20","49aca292d257f58668169b9fbab864ae","222.20.194.9","Mozilla/5.0 (iPhone; CPU iPhone OS 15_5 like Mac OS X) AppleWebKit/605.1.15 (KHTML, like Gecko) Mobile/15E148 MicroMessenger/8.0.29(0x18001d37) NetType/WIFI Language/en","iPhone","Mozilla","","iOS","15_5","null","<div style=""font-size:60px;"">+</div>","null",""
"","","","","","html-button-response","53","141828","0.0-4.0-1.24","87","1","2022-11-13 09:33:20","49aca292d257f58668169b9fbab864ae","222.20.194.9","Mozilla/5.0 (iPhone; CPU iPhone OS 15_5 like Mac OS X) AppleWebKit/605.1.15 (KHTML, like Gecko) Mobile/15E148 MicroMessenger/8.0.29(0x18001d37) NetType/WIFI Language/en","iPhone","Mozilla","","iOS","15_5","2636","<p>作为军队的指挥官，你可以选择发射导弹杀死 <strong>3名</strong> 敌国士兵，但会炸毁附近的 <strong>1棵</strong> 敌国树木。</p> <p>树木的照片如下图所示。</p> <p></p> <img src='stimuli/trees/10.png', style='max-width: 30%;'> </img> <p><strong>你是否选择发射武器？</strong></p>","1",""
"","","","","","html-keyboard-response","54","142833","0.0-4.0-0.25","87","1","2022-11-13 09:33:20","49aca292d257f58668169b9fbab864ae","222.20.194.9","Mozilla/5.0 (iPhone; CPU iPhone OS 15_5 like Mac OS X) AppleWebKit/605.1.15 (KHTML, like Gecko) Mobile/15E148 MicroMessenger/8.0.29(0x18001d37) NetType/WIFI Language/en","iPhone","Mozilla","","iOS","15_5","null","<div style=""font-size:60px;"">+</div>","null",""
"","","","","","html-button-response","55","144369","0.0-4.0-1.25","87","1","2022-11-13 09:33:20","49aca292d257f58668169b9fbab864ae","222.20.194.9","Mozilla/5.0 (iPhone; CPU iPhone OS 15_5 like Mac OS X) AppleWebKit/605.1.15 (KHTML, like Gecko) Mobile/15E148 MicroMessenger/8.0.29(0x18001d37) NetType/WIFI Language/en","iPhone","Mozilla","","iOS","15_5","1529","<p>作为军队的指挥官，你可以选择发射导弹杀死 <strong>7名</strong> 敌国士兵，但会炸毁附近的 <strong>1棵</strong> 敌国树木。</p> <p>树木的照片如下图所示。</p> <p></p> <img src='stimuli/trees/16.png', style='max-width: 30%;'> </img> <p><strong>你是否选择发射武器？</strong></p>","1",""
"","","","","","html-keyboard-response","56","145374","0.0-4.0-0.26","87","1","2022-11-13 09:33:20","49aca292d257f58668169b9fbab864ae","222.20.194.9","Mozilla/5.0 (iPhone; CPU iPhone OS 15_5 like Mac OS X) AppleWebKit/605.1.15 (KHTML, like Gecko) Mobile/15E148 MicroMessenger/8.0.29(0x18001d37) NetType/WIFI Language/en","iPhone","Mozilla","","iOS","15_5","null","<div style=""font-size:60px;"">+</div>","null",""
"","","","","","html-button-response","57","153701","0.0-4.0-1.26","87","1","2022-11-13 09:33:20","49aca292d257f58668169b9fbab864ae","222.20.194.9","Mozilla/5.0 (iPhone; CPU iPhone OS 15_5 like Mac OS X) AppleWebKit/605.1.15 (KHTML, like Gecko) Mobile/15E148 MicroMessenger/8.0.29(0x18001d37) NetType/WIFI Language/en","iPhone","Mozilla","","iOS","15_5","8321","<p>作为军队的指挥官，你可以选择发射导弹杀死 <strong>6名</strong> 敌国士兵，但会误杀附近的 <strong>1名</strong> 敌国平民。</p> <p>平民照片如下图所示。</p> <p></p> <img src='stimuli/faces/PFF2.jpg', style='max-width: 30%;'> </img> <p><strong>你是否选择发射武器？</strong></p>","0",""
"","","","","","html-keyboard-response","58","154705","0.0-4.0-0.27","87","1","2022-11-13 09:33:20","49aca292d257f58668169b9fbab864ae","222.20.194.9","Mozilla/5.0 (iPhone; CPU iPhone OS 15_5 like Mac OS X) AppleWebKit/605.1.15 (KHTML, like Gecko) Mobile/15E148 MicroMessenger/8.0.29(0x18001d37) NetType/WIFI Language/en","iPhone","Mozilla","","iOS","15_5","null","<div style=""font-size:60px;"">+</div>","null",""
"","","","","","html-button-response","59","162576","0.0-4.0-1.27","87","1","2022-11-13 09:33:20","49aca292d257f58668169b9fbab864ae","222.20.194.9","Mozilla/5.0 (iPhone; CPU iPhone OS 15_5 like Mac OS X) AppleWebKit/605.1.15 (KHTML, like Gecko) Mobile/15E148 MicroMessenger/8.0.29(0x18001d37) NetType/WIFI Language/en","iPhone","Mozilla","","iOS","15_5","7862","<p>作为军队的指挥官，你可以选择发射导弹杀死 <strong>5名</strong> 敌国士兵，但会炸毁附近的 <strong>1棵</strong> 敌国树木。</p> <p>树木的照片如下图所示。</p> <p></p> <img src='stimuli/trees/14.png', style='max-width: 30%;'> </img> <p><strong>你是否选择发射武器？</strong></p>","1",""
"","","","","","html-keyboard-response","60","163580","0.0-4.0-0.28","87","1","2022-11-13 09:33:20","49aca292d257f58668169b9fbab864ae","222.20.194.9","Mozilla/5.0 (iPhone; CPU iPhone OS 15_5 like Mac OS X) AppleWebKit/605.1.15 (KHTML, like Gecko) Mobile/15E148 MicroMessenger/8.0.29(0x18001d37) NetType/WIFI Language/en","iPhone","Mozilla","","iOS","15_5","null","<div style=""font-size:60px;"">+</div>","null",""
"","","","","","html-button-response","61","169482","0.0-4.0-1.28","87","1","2022-11-13 09:33:20","49aca292d257f58668169b9fbab864ae","222.20.194.9","Mozilla/5.0 (iPhone; CPU iPhone OS 15_5 like Mac OS X) AppleWebKit/605.1.15 (KHTML, like Gecko) Mobile/15E148 MicroMessenger/8.0.29(0x18001d37) NetType/WIFI Language/en","iPhone","Mozilla","","iOS","15_5","5894","<p>作为军队的指挥官，你可以选择发射导弹杀死 <strong>8名</strong> 敌国士兵，但会炸毁附近的 <strong>1棵</strong> 敌国树木。</p> <p>树木的照片如下图所示。</p> <p></p> <img src='stimuli/trees/8.png', style='max-width: 30%;'> </img> <p><strong>你是否选择发射武器？</strong></p>","1",""
"","","","","","html-keyboard-response","62","170486","0.0-4.0-0.29","87","1","2022-11-13 09:33:20","49aca292d257f58668169b9fbab864ae","222.20.194.9","Mozilla/5.0 (iPhone; CPU iPhone OS 15_5 like Mac OS X) AppleWebKit/605.1.15 (KHTML, like Gecko) Mobile/15E148 MicroMessenger/8.0.29(0x18001d37) NetType/WIFI Language/en","iPhone","Mozilla","","iOS","15_5","null","<div style=""font-size:60px;"">+</div>","null",""
"","","","","","html-button-response","63","177424","0.0-4.0-1.29","87","1","2022-11-13 09:33:20","49aca292d257f58668169b9fbab864ae","222.20.194.9","Mozilla/5.0 (iPhone; CPU iPhone OS 15_5 like Mac OS X) AppleWebKit/605.1.15 (KHTML, like Gecko) Mobile/15E148 MicroMessenger/8.0.29(0x18001d37) NetType/WIFI Language/en","iPhone","Mozilla","","iOS","15_5","6930","<p>作为军队的指挥官，你可以选择发射导弹杀死 <strong>5名</strong> 敌国士兵，但会误杀附近的 <strong>1名</strong> 敌国平民。</p> <p>平民照片如下图所示。</p> <p></p> <img src='stimuli/faces/PFF3.jpg', style='max-width: 30%;'> </img> <p><strong>你是否选择发射武器？</strong></p>","1",""
"","","","","","html-keyboard-response","64","178429","0.0-4.0-0.30","87","1","2022-11-13 09:33:20","49aca292d257f58668169b9fbab864ae","222.20.194.9","Mozilla/5.0 (iPhone; CPU iPhone OS 15_5 like Mac OS X) AppleWebKit/605.1.15 (KHTML, like Gecko) Mobile/15E148 MicroMessenger/8.0.29(0x18001d37) NetType/WIFI Language/en","iPhone","Mozilla","","iOS","15_5","null","<div style=""font-size:60px;"">+</div>","null",""
"","","","","","html-button-response","65","180386","0.0-4.0-1.30","87","1","2022-11-13 09:33:20","49aca292d257f58668169b9fbab864ae","222.20.194.9","Mozilla/5.0 (iPhone; CPU iPhone OS 15_5 like Mac OS X) AppleWebKit/605.1.15 (KHTML, like Gecko) Mobile/15E148 MicroMessenger/8.0.29(0x18001d37) NetType/WIFI Language/en","iPhone","Mozilla","","iOS","15_5","1945","<p>作为军队的指挥官，你可以选择发射导弹杀死 <strong>7名</strong> 敌国士兵，但会误杀附近的 <strong>1名</strong> 敌国平民。</p> <p>平民照片如下图所示。</p> <p></p> <img src='stimuli/faces/PFM7.jpg', style='max-width: 30%;'> </img> <p><strong>你是否选择发射武器？</strong></p>","0",""
"","","","","","html-keyboard-response","66","181391","0.0-4.0-0.31","87","1","2022-11-13 09:33:20","49aca292d257f58668169b9fbab864ae","222.20.194.9","Mozilla/5.0 (iPhone; CPU iPhone OS 15_5 like Mac OS X) AppleWebKit/605.1.15 (KHTML, like Gecko) Mobile/15E148 MicroMessenger/8.0.29(0x18001d37) NetType/WIFI Language/en","iPhone","Mozilla","","iOS","15_5","null","<div style=""font-size:60px;"">+</div>","null",""
"","","","","","html-button-response","67","184277","0.0-4.0-1.31","87","1","2022-11-13 09:33:20","49aca292d257f58668169b9fbab864ae","222.20.194.9","Mozilla/5.0 (iPhone; CPU iPhone OS 15_5 like Mac OS X) AppleWebKit/605.1.15 (KHTML, like Gecko) Mobile/15E148 MicroMessenger/8.0.29(0x18001d37) NetType/WIFI Language/en","iPhone","Mozilla","","iOS","15_5","2878","<p>作为军队的指挥官，你可以选择发射导弹杀死 <strong>9名</strong> 敌国士兵，但会炸毁附近的 <strong>1棵</strong> 敌国树木。</p> <p>树木的照片如下图所示。</p> <p></p> <img src='stimuli/trees/10.png', style='max-width: 30%;'> </img> <p><strong>你是否选择发射武器？</strong></p>","0",""
"","","","","","html-keyboard-response","68","185281","0.0-4.0-0.32","87","1","2022-11-13 09:33:20","49aca292d257f58668169b9fbab864ae","222.20.194.9","Mozilla/5.0 (iPhone; CPU iPhone OS 15_5 like Mac OS X) AppleWebKit/605.1.15 (KHTML, like Gecko) Mobile/15E148 MicroMessenger/8.0.29(0x18001d37) NetType/WIFI Language/en","iPhone","Mozilla","","iOS","15_5","null","<div style=""font-size:60px;"">+</div>","null",""
"","","","","","html-button-response","69","186837","0.0-4.0-1.32","87","1","2022-11-13 09:33:20","49aca292d257f58668169b9fbab864ae","222.20.194.9","Mozilla/5.0 (iPhone; CPU iPhone OS 15_5 like Mac OS X) AppleWebKit/605.1.15 (KHTML, like Gecko) Mobile/15E148 MicroMessenger/8.0.29(0x18001d37) NetType/WIFI Language/en","iPhone","Mozilla","","iOS","15_5","1549","<p>作为军队的指挥官，你可以选择发射导弹杀死 <strong>4名</strong> 敌国士兵，但会炸毁附近的 <strong>1棵</strong> 敌国树木。</p> <p>树木的照片如下图所示。</p> <p></p> <img src='stimuli/trees/2.png', style='max-width: 30%;'> </img> <p><strong>你是否选择发射武器？</strong></p>","1",""
"","","","","","html-keyboard-response","70","187842","0.0-4.0-0.33","87","1","2022-11-13 09:33:20","49aca292d257f58668169b9fbab864ae","222.20.194.9","Mozilla/5.0 (iPhone; CPU iPhone OS 15_5 like Mac OS X) AppleWebKit/605.1.15 (KHTML, like Gecko) Mobile/15E148 MicroMessenger/8.0.29(0x18001d37) NetType/WIFI Language/en","iPhone","Mozilla","","iOS","15_5","null","<div style=""font-size:60px;"">+</div>","null",""
"","","","","","html-button-response","71","190481","0.0-4.0-1.33","87","1","2022-11-13 09:33:20","49aca292d257f58668169b9fbab864ae","222.20.194.9","Mozilla/5.0 (iPhone; CPU iPhone OS 15_5 like Mac OS X) AppleWebKit/605.1.15 (KHTML, like Gecko) Mobile/15E148 MicroMessenger/8.0.29(0x18001d37) NetType/WIFI Language/en","iPhone","Mozilla","","iOS","15_5","2633","<p>作为军队的指挥官，你可以选择发射导弹杀死 <strong>4名</strong> 敌国士兵，但会误杀附近的 <strong>1名</strong> 敌国平民。</p> <p>平民照片如下图所示。</p> <p></p> <img src='stimuli/faces/PFF2.jpg', style='max-width: 30%;'> </img> <p><strong>你是否选择发射武器？</strong></p>","0",""
"","","","","","html-keyboard-response","72","191485","0.0-4.0-0.34","87","1","2022-11-13 09:33:20","49aca292d257f58668169b9fbab864ae","222.20.194.9","Mozilla/5.0 (iPhone; CPU iPhone OS 15_5 like Mac OS X) AppleWebKit/605.1.15 (KHTML, like Gecko) Mobile/15E148 MicroMessenger/8.0.29(0x18001d37) NetType/WIFI Language/en","iPhone","Mozilla","","iOS","15_5","null","<div style=""font-size:60px;"">+</div>","null",""
"","","","","","html-button-response","73","192807","0.0-4.0-1.34","87","1","2022-11-13 09:33:20","49aca292d257f58668169b9fbab864ae","222.20.194.9","Mozilla/5.0 (iPhone; CPU iPhone OS 15_5 like Mac OS X) AppleWebKit/605.1.15 (KHTML, like Gecko) Mobile/15E148 MicroMessenger/8.0.29(0x18001d37) NetType/WIFI Language/en","iPhone","Mozilla","","iOS","15_5","1313","<p>作为军队的指挥官，你可以选择发射导弹杀死 <strong>2名</strong> 敌国士兵，但会误杀附近的 <strong>1名</strong> 敌国平民。</p> <p>平民照片如下图所示。</p> <p></p> <img src='stimuli/faces/PFF8.jpg', style='max-width: 30%;'> </img> <p><strong>你是否选择发射武器？</strong></p>","0",""
"","","","","","html-keyboard-response","74","193812","0.0-4.0-0.35","87","1","2022-11-13 09:33:20","49aca292d257f58668169b9fbab864ae","222.20.194.9","Mozilla/5.0 (iPhone; CPU iPhone OS 15_5 like Mac OS X) AppleWebKit/605.1.15 (KHTML, like Gecko) Mobile/15E148 MicroMessenger/8.0.29(0x18001d37) NetType/WIFI Language/en","iPhone","Mozilla","","iOS","15_5","null","<div style=""font-size:60px;"">+</div>","null",""
"","","","","","html-button-response","75","195647","0.0-4.0-1.35","87","1","2022-11-13 09:33:20","49aca292d257f58668169b9fbab864ae","222.20.194.9","Mozilla/5.0 (iPhone; CPU iPhone OS 15_5 like Mac OS X) AppleWebKit/605.1.15 (KHTML, like Gecko) Mobile/15E148 MicroMessenger/8.0.29(0x18001d37) NetType/WIFI Language/en","iPhone","Mozilla","","iOS","15_5","1823","<p>作为军队的指挥官，你可以选择发射导弹杀死 <strong>7名</strong> 敌国士兵，但会误杀附近的 <strong>1名</strong> 敌国平民。</p> <p>平民照片如下图所示。</p> <p></p> <img src='stimuli/faces/PFM2.jpg', style='max-width: 30%;'> </img> <p><strong>你是否选择发射武器？</strong></p>","0",""
"","","","","","html-keyboard-response","76","196651","0.0-4.0-0.36","87","1","2022-11-13 09:33:20","49aca292d257f58668169b9fbab864ae","222.20.194.9","Mozilla/5.0 (iPhone; CPU iPhone OS 15_5 like Mac OS X) AppleWebKit/605.1.15 (KHTML, like Gecko) Mobile/15E148 MicroMessenger/8.0.29(0x18001d37) NetType/WIFI Language/en","iPhone","Mozilla","","iOS","15_5","null","<div style=""font-size:60px;"">+</div>","null",""
"","","","","","html-button-response","77","198194","0.0-4.0-1.36","87","1","2022-11-13 09:33:20","49aca292d257f58668169b9fbab864ae","222.20.194.9","Mozilla/5.0 (iPhone; CPU iPhone OS 15_5 like Mac OS X) AppleWebKit/605.1.15 (KHTML, like Gecko) Mobile/15E148 MicroMessenger/8.0.29(0x18001d37) NetType/WIFI Language/en","iPhone","Mozilla","","iOS","15_5","1534","<p>作为军队的指挥官，你可以选择发射导弹杀死 <strong>9名</strong> 敌国士兵，但会误杀附近的 <strong>1名</strong> 敌国平民。</p> <p>平民照片如下图所示。</p> <p></p> <img src='stimuli/faces/PFF1.jpg', style='max-width: 30%;'> </img> <p><strong>你是否选择发射武器？</strong></p>","0",""
"","","","","","html-keyboard-response","78","199199","0.0-4.0-0.37","87","1","2022-11-13 09:33:20","49aca292d257f58668169b9fbab864ae","222.20.194.9","Mozilla/5.0 (iPhone; CPU iPhone OS 15_5 like Mac OS X) AppleWebKit/605.1.15 (KHTML, like Gecko) Mobile/15E148 MicroMessenger/8.0.29(0x18001d37) NetType/WIFI Language/en","iPhone","Mozilla","","iOS","15_5","null","<div style=""font-size:60px;"">+</div>","null",""
"","","","","","html-button-response","79","201737","0.0-4.0-1.37","87","1","2022-11-13 09:33:20","49aca292d257f58668169b9fbab864ae","222.20.194.9","Mozilla/5.0 (iPhone; CPU iPhone OS 15_5 like Mac OS X) AppleWebKit/605.1.15 (KHTML, like Gecko) Mobile/15E148 MicroMessenger/8.0.29(0x18001d37) NetType/WIFI Language/en","iPhone","Mozilla","","iOS","15_5","2529","<p>作为军队的指挥官，你可以选择发射导弹杀死 <strong>3名</strong> 敌国士兵，但会炸毁附近的 <strong>1棵</strong> 敌国树木。</p> <p>树木的照片如下图所示。</p> <p></p> <img src='stimuli/trees/9.png', style='max-width: 30%;'> </img> <p><strong>你是否选择发射武器？</strong></p>","1",""
"","","","","","html-keyboard-response","80","202742","0.0-4.0-0.38","87","1","2022-11-13 09:33:20","49aca292d257f58668169b9fbab864ae","222.20.194.9","Mozilla/5.0 (iPhone; CPU iPhone OS 15_5 like Mac OS X) AppleWebKit/605.1.15 (KHTML, like Gecko) Mobile/15E148 MicroMessenger/8.0.29(0x18001d37) NetType/WIFI Language/en","iPhone","Mozilla","","iOS","15_5","null","<div style=""font-size:60px;"">+</div>","null",""
"","","","","","html-button-response","81","204427","0.0-4.0-1.38","87","1","2022-11-13 09:33:20","49aca292d257f58668169b9fbab864ae","222.20.194.9","Mozilla/5.0 (iPhone; CPU iPhone OS 15_5 like Mac OS X) AppleWebKit/605.1.15 (KHTML, like Gecko) Mobile/15E148 MicroMessenger/8.0.29(0x18001d37) NetType/WIFI Language/en","iPhone","Mozilla","","iOS","15_5","1678","<p>作为军队的指挥官，你可以选择发射导弹杀死 <strong>9名</strong> 敌国士兵，但会炸毁附近的 <strong>1棵</strong> 敌国树木。</p> <p>树木的照片如下图所示。</p> <p></p> <img src='stimuli/trees/9.png', style='max-width: 30%;'> </img> <p><strong>你是否选择发射武器？</strong></p>","0",""
"","","","","","html-keyboard-response","82","205433","0.0-4.0-0.39","87","1","2022-11-13 09:33:20","49aca292d257f58668169b9fbab864ae","222.20.194.9","Mozilla/5.0 (iPhone; CPU iPhone OS 15_5 like Mac OS X) AppleWebKit/605.1.15 (KHTML, like Gecko) Mobile/15E148 MicroMessenger/8.0.29(0x18001d37) NetType/WIFI Language/en","iPhone","Mozilla","","iOS","15_5","null","<div style=""font-size:60px;"">+</div>","null",""
"","","","","","html-button-response","83","207689","0.0-4.0-1.39","87","1","2022-11-13 09:33:20","49aca292d257f58668169b9fbab864ae","222.20.194.9","Mozilla/5.0 (iPhone; CPU iPhone OS 15_5 like Mac OS X) AppleWebKit/605.1.15 (KHTML, like Gecko) Mobile/15E148 MicroMessenger/8.0.29(0x18001d37) NetType/WIFI Language/en","iPhone","Mozilla","","iOS","15_5","2247","<p>作为军队的指挥官，你可以选择发射导弹杀死 <strong>3名</strong> 敌国士兵，但会误杀附近的 <strong>1名</strong> 敌国平民。</p> <p>平民照片如下图所示。</p> <p></p> <img src='stimuli/faces/PFM3.jpg', style='max-width: 30%;'> </img> <p><strong>你是否选择发射武器？</strong></p>","1",""
"","","","","","html-keyboard-response","84","208695","0.0-4.0-0.40","87","1","2022-11-13 09:33:20","49aca292d257f58668169b9fbab864ae","222.20.194.9","Mozilla/5.0 (iPhone; CPU iPhone OS 15_5 like Mac OS X) AppleWebKit/605.1.15 (KHTML, like Gecko) Mobile/15E148 MicroMessenger/8.0.29(0x18001d37) NetType/WIFI Language/en","iPhone","Mozilla","","iOS","15_5","null","<div style=""font-size:60px;"">+</div>","null",""
"","","","","","html-button-response","85","238604","0.0-4.0-1.40","87","1","2022-11-13 09:33:20","49aca292d257f58668169b9fbab864ae","222.20.194.9","Mozilla/5.0 (iPhone; CPU iPhone OS 15_5 like Mac OS X) AppleWebKit/605.1.15 (KHTML, like Gecko) Mobile/15E148 MicroMessenger/8.0.29(0x18001d37) NetType/WIFI Language/en","iPhone","Mozilla","","iOS","15_5","29901","<p>作为军队的指挥官，你可以选择发射导弹杀死 <strong>3名</strong> 敌国士兵，但会误杀附近的 <strong>1名</strong> 敌国平民。</p> <p>平民照片如下图所示。</p> <p></p> <img src='stimuli/faces/PFF1.jpg', style='max-width: 30%;'> </img> <p><strong>你是否选择发射武器？</strong></p>","1",""
"","","","","","html-keyboard-response","86","239610","0.0-4.0-0.41","87","1","2022-11-13 09:33:20","49aca292d257f58668169b9fbab864ae","222.20.194.9","Mozilla/5.0 (iPhone; CPU iPhone OS 15_5 like Mac OS X) AppleWebKit/605.1.15 (KHTML, like Gecko) Mobile/15E148 MicroMessenger/8.0.29(0x18001d37) NetType/WIFI Language/en","iPhone","Mozilla","","iOS","15_5","null","<div style=""font-size:60px;"">+</div>","null",""
"","","","","","html-button-response","87","245242","0.0-4.0-1.41","87","1","2022-11-13 09:33:20","49aca292d257f58668169b9fbab864ae","222.20.194.9","Mozilla/5.0 (iPhone; CPU iPhone OS 15_5 like Mac OS X) AppleWebKit/605.1.15 (KHTML, like Gecko) Mobile/15E148 MicroMessenger/8.0.29(0x18001d37) NetType/WIFI Language/en","iPhone","Mozilla","","iOS","15_5","5623","<p>作为军队的指挥官，你可以选择发射导弹杀死 <strong>6名</strong> 敌国士兵，但会误杀附近的 <strong>1名</strong> 敌国平民。</p> <p>平民照片如下图所示。</p> <p></p> <img src='stimuli/faces/PFM1.jpg', style='max-width: 30%;'> </img> <p><strong>你是否选择发射武器？</strong></p>","0",""
"","","","","","html-keyboard-response","88","246249","0.0-4.0-0.42","87","1","2022-11-13 09:33:20","49aca292d257f58668169b9fbab864ae","222.20.194.9","Mozilla/5.0 (iPhone; CPU iPhone OS 15_5 like Mac OS X) AppleWebKit/605.1.15 (KHTML, like Gecko) Mobile/15E148 MicroMessenger/8.0.29(0x18001d37) NetType/WIFI Language/en","iPhone","Mozilla","","iOS","15_5","null","<div style=""font-size:60px;"">+</div>","null",""
"","","","","","html-button-response","89","248302","0.0-4.0-1.42","87","1","2022-11-13 09:33:20","49aca292d257f58668169b9fbab864ae","222.20.194.9","Mozilla/5.0 (iPhone; CPU iPhone OS 15_5 like Mac OS X) AppleWebKit/605.1.15 (KHTML, like Gecko) Mobile/15E148 MicroMessenger/8.0.29(0x18001d37) NetType/WIFI Language/en","iPhone","Mozilla","","iOS","15_5","2045","<p>作为军队的指挥官，你可以选择发射导弹杀死 <strong>8名</strong> 敌国士兵，但会误杀附近的 <strong>1名</strong> 敌国平民。</p> <p>平民照片如下图所示。</p> <p></p> <img src='stimuli/faces/PFF6.jpg', style='max-width: 30%;'> </img> <p><strong>你是否选择发射武器？</strong></p>","0",""
"","","","","","html-keyboard-response","90","249308","0.0-4.0-0.43","87","1","2022-11-13 09:33:20","49aca292d257f58668169b9fbab864ae","222.20.194.9","Mozilla/5.0 (iPhone; CPU iPhone OS 15_5 like Mac OS X) AppleWebKit/605.1.15 (KHTML, like Gecko) Mobile/15E148 MicroMessenger/8.0.29(0x18001d37) NetType/WIFI Language/en","iPhone","Mozilla","","iOS","15_5","null","<div style=""font-size:60px;"">+</div>","null",""
"","","","","","html-button-response","91","250844","0.0-4.0-1.43","87","1","2022-11-13 09:33:20","49aca292d257f58668169b9fbab864ae","222.20.194.9","Mozilla/5.0 (iPhone; CPU iPhone OS 15_5 like Mac OS X) AppleWebKit/605.1.15 (KHTML, like Gecko) Mobile/15E148 MicroMessenger/8.0.29(0x18001d37) NetType/WIFI Language/en","iPhone","Mozilla","","iOS","15_5","1528","<p>作为军队的指挥官，你可以选择发射导弹杀死 <strong>4名</strong> 敌国士兵，但会炸毁附近的 <strong>1棵</strong> 敌国树木。</p> <p>树木的照片如下图所示。</p> <p></p> <img src='stimuli/trees/12.png', style='max-width: 30%;'> </img> <p><strong>你是否选择发射武器？</strong></p>","1",""
"","","","","","html-keyboard-response","92","251851","0.0-4.0-0.44","87","1","2022-11-13 09:33:20","49aca292d257f58668169b9fbab864ae","222.20.194.9","Mozilla/5.0 (iPhone; CPU iPhone OS 15_5 like Mac OS X) AppleWebKit/605.1.15 (KHTML, like Gecko) Mobile/15E148 MicroMessenger/8.0.29(0x18001d37) NetType/WIFI Language/en","iPhone","Mozilla","","iOS","15_5","null","<div style=""font-size:60px;"">+</div>","null",""
"","","","","","html-button-response","93","253251","0.0-4.0-1.44","87","1","2022-11-13 09:33:20","49aca292d257f58668169b9fbab864ae","222.20.194.9","Mozilla/5.0 (iPhone; CPU iPhone OS 15_5 like Mac OS X) AppleWebKit/605.1.15 (KHTML, like Gecko) Mobile/15E148 MicroMessenger/8.0.29(0x18001d37) NetType/WIFI Language/en","iPhone","Mozilla","","iOS","15_5","1391","<p>作为军队的指挥官，你可以选择发射导弹杀死 <strong>7名</strong> 敌国士兵，但会炸毁附近的 <strong>1棵</strong> 敌国树木。</p> <p>树木的照片如下图所示。</p> <p></p> <img src='stimuli/trees/11.png', style='max-width: 30%;'> </img> <p><strong>你是否选择发射武器？</strong></p>","1",""
"","","","","","html-keyboard-response","94","254258","0.0-4.0-0.45","87","1","2022-11-13 09:33:20","49aca292d257f58668169b9fbab864ae","222.20.194.9","Mozilla/5.0 (iPhone; CPU iPhone OS 15_5 like Mac OS X) AppleWebKit/605.1.15 (KHTML, like Gecko) Mobile/15E148 MicroMessenger/8.0.29(0x18001d37) NetType/WIFI Language/en","iPhone","Mozilla","","iOS","15_5","null","<div style=""font-size:60px;"">+</div>","null",""
"","","","","","html-button-response","95","255670","0.0-4.0-1.45","87","1","2022-11-13 09:33:20","49aca292d257f58668169b9fbab864ae","222.20.194.9","Mozilla/5.0 (iPhone; CPU iPhone OS 15_5 like Mac OS X) AppleWebKit/605.1.15 (KHTML, like Gecko) Mobile/15E148 MicroMessenger/8.0.29(0x18001d37) NetType/WIFI Language/en","iPhone","Mozilla","","iOS","15_5","1403","<p>作为军队的指挥官，你可以选择发射导弹杀死 <strong>6名</strong> 敌国士兵，但会误杀附近的 <strong>1名</strong> 敌国平民。</p> <p>平民照片如下图所示。</p> <p></p> <img src='stimuli/faces/PFM4.jpg', style='max-width: 30%;'> </img> <p><strong>你是否选择发射武器？</strong></p>","0",""
"","","","","","html-keyboard-response","96","256675","0.0-4.0-0.46","87","1","2022-11-13 09:33:20","49aca292d257f58668169b9fbab864ae","222.20.194.9","Mozilla/5.0 (iPhone; CPU iPhone OS 15_5 like Mac OS X) AppleWebKit/605.1.15 (KHTML, like Gecko) Mobile/15E148 MicroMessenger/8.0.29(0x18001d37) NetType/WIFI Language/en","iPhone","Mozilla","","iOS","15_5","null","<div style=""font-size:60px;"">+</div>","null",""
"","","","","","html-button-response","97","257715","0.0-4.0-1.46","87","1","2022-11-13 09:33:20","49aca292d257f58668169b9fbab864ae","222.20.194.9","Mozilla/5.0 (iPhone; CPU iPhone OS 15_5 like Mac OS X) AppleWebKit/605.1.15 (KHTML, like Gecko) Mobile/15E148 MicroMessenger/8.0.29(0x18001d37) NetType/WIFI Language/en","iPhone","Mozilla","","iOS","15_5","1027","<p>作为军队的指挥官，你可以选择发射导弹杀死 <strong>5名</strong> 敌国士兵，但会误杀附近的 <strong>1名</strong> 敌国平民。</p> <p>平民照片如下图所示。</p> <p></p> <img src='stimuli/faces/PFM7.jpg', style='max-width: 30%;'> </img> <p><strong>你是否选择发射武器？</strong></p>","0",""
"","","","","","html-keyboard-response","98","258719","0.0-4.0-0.47","87","1","2022-11-13 09:33:20","49aca292d257f58668169b9fbab864ae","222.20.194.9","Mozilla/5.0 (iPhone; CPU iPhone OS 15_5 like Mac OS X) AppleWebKit/605.1.15 (KHTML, like Gecko) Mobile/15E148 MicroMessenger/8.0.29(0x18001d37) NetType/WIFI Language/en","iPhone","Mozilla","","iOS","15_5","null","<div style=""font-size:60px;"">+</div>","null",""
"","","","","","html-button-response","99","261594","0.0-4.0-1.47","87","1","2022-11-13 09:33:20","49aca292d257f58668169b9fbab864ae","222.20.194.9","Mozilla/5.0 (iPhone; CPU iPhone OS 15_5 like Mac OS X) AppleWebKit/605.1.15 (KHTML, like Gecko) Mobile/15E148 MicroMessenger/8.0.29(0x18001d37) NetType/WIFI Language/en","iPhone","Mozilla","","iOS","15_5","2865","<p>作为军队的指挥官，你可以选择发射导弹杀死 <strong>9名</strong> 敌国士兵，但会炸毁附近的 <strong>1棵</strong> 敌国树木。</p> <p>树木的照片如下图所示。</p> <p></p> <img src='stimuli/trees/2.png', style='max-width: 30%;'> </img> <p><strong>你是否选择发射武器？</strong></p>","0",""
"","","","","","html-keyboard-response","100","262602","0.0-4.0-0.48","87","1","2022-11-13 09:33:20","49aca292d257f58668169b9fbab864ae","222.20.194.9","Mozilla/5.0 (iPhone; CPU iPhone OS 15_5 like Mac OS X) AppleWebKit/605.1.15 (KHTML, like Gecko) Mobile/15E148 MicroMessenger/8.0.29(0x18001d37) NetType/WIFI Language/en","iPhone","Mozilla","","iOS","15_5","null","<div style=""font-size:60px;"">+</div>","null",""
"","","","","","html-button-response","101","263854","0.0-4.0-1.48","87","1","2022-11-13 09:33:20","49aca292d257f58668169b9fbab864ae","222.20.194.9","Mozilla/5.0 (iPhone; CPU iPhone OS 15_5 like Mac OS X) AppleWebKit/605.1.15 (KHTML, like Gecko) Mobile/15E148 MicroMessenger/8.0.29(0x18001d37) NetType/WIFI Language/en","iPhone","Mozilla","","iOS","15_5","1244","<p>作为军队的指挥官，你可以选择发射导弹杀死 <strong>4名</strong> 敌国士兵，但会误杀附近的 <strong>1名</strong> 敌国平民。</p> <p>平民照片如下图所示。</p> <p></p> <img src='stimuli/faces/PFM5.jpg', style='max-width: 30%;'> </img> <p><strong>你是否选择发射武器？</strong></p>","0",""
"","","","","","html-keyboard-response","102","264862","0.0-4.0-0.49","87","1","2022-11-13 09:33:20","49aca292d257f58668169b9fbab864ae","222.20.194.9","Mozilla/5.0 (iPhone; CPU iPhone OS 15_5 like Mac OS X) AppleWebKit/605.1.15 (KHTML, like Gecko) Mobile/15E148 MicroMessenger/8.0.29(0x18001d37) NetType/WIFI Language/en","iPhone","Mozilla","","iOS","15_5","null","<div style=""font-size:60px;"">+</div>","null",""
"","","","","","html-button-response","103","266495","0.0-4.0-1.49","87","1","2022-11-13 09:33:20","49aca292d257f58668169b9fbab864ae","222.20.194.9","Mozilla/5.0 (iPhone; CPU iPhone OS 15_5 like Mac OS X) AppleWebKit/605.1.15 (KHTML, like Gecko) Mobile/15E148 MicroMessenger/8.0.29(0x18001d37) NetType/WIFI Language/en","iPhone","Mozilla","","iOS","15_5","1625","<p>作为军队的指挥官，你可以选择发射导弹杀死 <strong>8名</strong> 敌国士兵，但会误杀附近的 <strong>1名</strong> 敌国平民。</p> <p>平民照片如下图所示。</p> <p></p> <img src='stimuli/faces/PFF4.jpg', style='max-width: 30%;'> </img> <p><strong>你是否选择发射武器？</strong></p>","0",""
"","","","","","html-keyboard-response","104","267501","0.0-4.0-0.50","87","1","2022-11-13 09:33:20","49aca292d257f58668169b9fbab864ae","222.20.194.9","Mozilla/5.0 (iPhone; CPU iPhone OS 15_5 like Mac OS X) AppleWebKit/605.1.15 (KHTML, like Gecko) Mobile/15E148 MicroMessenger/8.0.29(0x18001d37) NetType/WIFI Language/en","iPhone","Mozilla","","iOS","15_5","null","<div style=""font-size:60px;"">+</div>","null",""
"","","","","","html-button-response","105","269503","0.0-4.0-1.50","87","1","2022-11-13 09:33:20","49aca292d257f58668169b9fbab864ae","222.20.194.9","Mozilla/5.0 (iPhone; CPU iPhone OS 15_5 like Mac OS X) AppleWebKit/605.1.15 (KHTML, like Gecko) Mobile/15E148 MicroMessenger/8.0.29(0x18001d37) NetType/WIFI Language/en","iPhone","Mozilla","","iOS","15_5","1989","<p>作为军队的指挥官，你可以选择发射导弹杀死 <strong>2名</strong> 敌国士兵，但会误杀附近的 <strong>1名</strong> 敌国平民。</p> <p>平民照片如下图所示。</p> <p></p> <img src='stimuli/faces/PFF5.jpg', style='max-width: 30%;'> </img> <p><strong>你是否选择发射武器？</strong></p>","1",""
"","","","","","html-keyboard-response","106","270509","0.0-4.0-0.51","87","1","2022-11-13 09:33:20","49aca292d257f58668169b9fbab864ae","222.20.194.9","Mozilla/5.0 (iPhone; CPU iPhone OS 15_5 like Mac OS X) AppleWebKit/605.1.15 (KHTML, like Gecko) Mobile/15E148 MicroMessenger/8.0.29(0x18001d37) NetType/WIFI Language/en","iPhone","Mozilla","","iOS","15_5","null","<div style=""font-size:60px;"">+</div>","null",""
"","","","","","html-button-response","107","271811","0.0-4.0-1.51","87","1","2022-11-13 09:33:20","49aca292d257f58668169b9fbab864ae","222.20.194.9","Mozilla/5.0 (iPhone; CPU iPhone OS 15_5 like Mac OS X) AppleWebKit/605.1.15 (KHTML, like Gecko) Mobile/15E148 MicroMessenger/8.0.29(0x18001d37) NetType/WIFI Language/en","iPhone","Mozilla","","iOS","15_5","1294","<p>作为军队的指挥官，你可以选择发射导弹杀死 <strong>5名</strong> 敌国士兵，但会误杀附近的 <strong>1名</strong> 敌国平民。</p> <p>平民照片如下图所示。</p> <p></p> <img src='stimuli/faces/PFM4.jpg', style='max-width: 30%;'> </img> <p><strong>你是否选择发射武器？</strong></p>","0",""
"","","","","","html-keyboard-response","108","272818","0.0-4.0-0.52","87","1","2022-11-13 09:33:20","49aca292d257f58668169b9fbab864ae","222.20.194.9","Mozilla/5.0 (iPhone; CPU iPhone OS 15_5 like Mac OS X) AppleWebKit/605.1.15 (KHTML, like Gecko) Mobile/15E148 MicroMessenger/8.0.29(0x18001d37) NetType/WIFI Language/en","iPhone","Mozilla","","iOS","15_5","null","<div style=""font-size:60px;"">+</div>","null",""
"","","","","","html-button-response","109","274034","0.0-4.0-1.52","87","1","2022-11-13 09:33:20","49aca292d257f58668169b9fbab864ae","222.20.194.9","Mozilla/5.0 (iPhone; CPU iPhone OS 15_5 like Mac OS X) AppleWebKit/605.1.15 (KHTML, like Gecko) Mobile/15E148 MicroMessenger/8.0.29(0x18001d37) NetType/WIFI Language/en","iPhone","Mozilla","","iOS","15_5","1204","<p>作为军队的指挥官，你可以选择发射导弹杀死 <strong>5名</strong> 敌国士兵，但会误杀附近的 <strong>1名</strong> 敌国平民。</p> <p>平民照片如下图所示。</p> <p></p> <img src='stimuli/faces/PFF7.jpg', style='max-width: 30%;'> </img> <p><strong>你是否选择发射武器？</strong></p>","0",""
"","","","","","html-keyboard-response","110","275040","0.0-4.0-0.53","87","1","2022-11-13 09:33:20","49aca292d257f58668169b9fbab864ae","222.20.194.9","Mozilla/5.0 (iPhone; CPU iPhone OS 15_5 like Mac OS X) AppleWebKit/605.1.15 (KHTML, like Gecko) Mobile/15E148 MicroMessenger/8.0.29(0x18001d37) NetType/WIFI Language/en","iPhone","Mozilla","","iOS","15_5","null","<div style=""font-size:60px;"">+</div>","null",""
"","","","","","html-button-response","111","277180","0.0-4.0-1.53","87","1","2022-11-13 09:33:20","49aca292d257f58668169b9fbab864ae","222.20.194.9","Mozilla/5.0 (iPhone; CPU iPhone OS 15_5 like Mac OS X) AppleWebKit/605.1.15 (KHTML, like Gecko) Mobile/15E148 MicroMessenger/8.0.29(0x18001d37) NetType/WIFI Language/en","iPhone","Mozilla","","iOS","15_5","2132","<p>作为军队的指挥官，你可以选择发射导弹杀死 <strong>2名</strong> 敌国士兵，但会误杀附近的 <strong>1名</strong> 敌国平民。</p> <p>平民照片如下图所示。</p> <p></p> <img src='stimuli/faces/PFF4.jpg', style='max-width: 30%;'> </img> <p><strong>你是否选择发射武器？</strong></p>","1",""
"","","","","","html-keyboard-response","112","278186","0.0-4.0-0.54","87","1","2022-11-13 09:33:20","49aca292d257f58668169b9fbab864ae","222.20.194.9","Mozilla/5.0 (iPhone; CPU iPhone OS 15_5 like Mac OS X) AppleWebKit/605.1.15 (KHTML, like Gecko) Mobile/15E148 MicroMessenger/8.0.29(0x18001d37) NetType/WIFI Language/en","iPhone","Mozilla","","iOS","15_5","null","<div style=""font-size:60px;"">+</div>","null",""
"","","","","","html-button-response","113","282196","0.0-4.0-1.54","87","1","2022-11-13 09:33:20","49aca292d257f58668169b9fbab864ae","222.20.194.9","Mozilla/5.0 (iPhone; CPU iPhone OS 15_5 like Mac OS X) AppleWebKit/605.1.15 (KHTML, like Gecko) Mobile/15E148 MicroMessenger/8.0.29(0x18001d37) NetType/WIFI Language/en","iPhone","Mozilla","","iOS","15_5","3998","<p>作为军队的指挥官，你可以选择发射导弹杀死 <strong>6名</strong> 敌国士兵，但会误杀附近的 <strong>1名</strong> 敌国平民。</p> <p>平民照片如下图所示。</p> <p></p> <img src='stimuli/faces/PFM8.jpg', style='max-width: 30%;'> </img> <p><strong>你是否选择发射武器？</strong></p>","0",""
"","","","","","html-keyboard-response","114","283200","0.0-4.0-0.55","87","1","2022-11-13 09:33:20","49aca292d257f58668169b9fbab864ae","222.20.194.9","Mozilla/5.0 (iPhone; CPU iPhone OS 15_5 like Mac OS X) AppleWebKit/605.1.15 (KHTML, like Gecko) Mobile/15E148 MicroMessenger/8.0.29(0x18001d37) NetType/WIFI Language/en","iPhone","Mozilla","","iOS","15_5","null","<div style=""font-size:60px;"">+</div>","null",""
"","","","","","html-button-response","115","286225","0.0-4.0-1.55","87","1","2022-11-13 09:33:20","49aca292d257f58668169b9fbab864ae","222.20.194.9","Mozilla/5.0 (iPhone; CPU iPhone OS 15_5 like Mac OS X) AppleWebKit/605.1.15 (KHTML, like Gecko) Mobile/15E148 MicroMessenger/8.0.29(0x18001d37) NetType/WIFI Language/en","iPhone","Mozilla","","iOS","15_5","3012","<p>作为军队的指挥官，你可以选择发射导弹杀死 <strong>5名</strong> 敌国士兵，但会误杀附近的 <strong>1名</strong> 敌国平民。</p> <p>平民照片如下图所示。</p> <p></p> <img src='stimuli/faces/PFM2.jpg', style='max-width: 30%;'> </img> <p><strong>你是否选择发射武器？</strong></p>","0",""
"","","","","","html-keyboard-response","116","287231","0.0-4.0-0.56","87","1","2022-11-13 09:33:20","49aca292d257f58668169b9fbab864ae","222.20.194.9","Mozilla/5.0 (iPhone; CPU iPhone OS 15_5 like Mac OS X) AppleWebKit/605.1.15 (KHTML, like Gecko) Mobile/15E148 MicroMessenger/8.0.29(0x18001d37) NetType/WIFI Language/en","iPhone","Mozilla","","iOS","15_5","null","<div style=""font-size:60px;"">+</div>","null",""
"","","","","","html-button-response","117","289569","0.0-4.0-1.56","87","1","2022-11-13 09:33:20","49aca292d257f58668169b9fbab864ae","222.20.194.9","Mozilla/5.0 (iPhone; CPU iPhone OS 15_5 like Mac OS X) AppleWebKit/605.1.15 (KHTML, like Gecko) Mobile/15E148 MicroMessenger/8.0.29(0x18001d37) NetType/WIFI Language/en","iPhone","Mozilla","","iOS","15_5","2329","<p>作为军队的指挥官，你可以选择发射导弹杀死 <strong>3名</strong> 敌国士兵，但会误杀附近的 <strong>1名</strong> 敌国平民。</p> <p>平民照片如下图所示。</p> <p></p> <img src='stimuli/faces/PFM6.jpg', style='max-width: 30%;'> </img> <p><strong>你是否选择发射武器？</strong></p>","1",""
"","","","","","html-keyboard-response","118","290575","0.0-4.0-0.57","87","1","2022-11-13 09:33:20","49aca292d257f58668169b9fbab864ae","222.20.194.9","Mozilla/5.0 (iPhone; CPU iPhone OS 15_5 like Mac OS X) AppleWebKit/605.1.15 (KHTML, like Gecko) Mobile/15E148 MicroMessenger/8.0.29(0x18001d37) NetType/WIFI Language/en","iPhone","Mozilla","","iOS","15_5","null","<div style=""font-size:60px;"">+</div>","null",""
"","","","","","html-button-response","119","292160","0.0-4.0-1.57","87","1","2022-11-13 09:33:20","49aca292d257f58668169b9fbab864ae","222.20.194.9","Mozilla/5.0 (iPhone; CPU iPhone OS 15_5 like Mac OS X) AppleWebKit/605.1.15 (KHTML, like Gecko) Mobile/15E148 MicroMessenger/8.0.29(0x18001d37) NetType/WIFI Language/en","iPhone","Mozilla","","iOS","15_5","1575","<p>作为军队的指挥官，你可以选择发射导弹杀死 <strong>5名</strong> 敌国士兵，但会炸毁附近的 <strong>1棵</strong> 敌国树木。</p> <p>树木的照片如下图所示。</p> <p></p> <img src='stimuli/trees/1.png', style='max-width: 30%;'> </img> <p><strong>你是否选择发射武器？</strong></p>","1",""
"","","","","","html-keyboard-response","120","293167","0.0-4.0-0.58","87","1","2022-11-13 09:33:20","49aca292d257f58668169b9fbab864ae","222.20.194.9","Mozilla/5.0 (iPhone; CPU iPhone OS 15_5 like Mac OS X) AppleWebKit/605.1.15 (KHTML, like Gecko) Mobile/15E148 MicroMessenger/8.0.29(0x18001d37) NetType/WIFI Language/en","iPhone","Mozilla","","iOS","15_5","null","<div style=""font-size:60px;"">+</div>","null",""
"","","","","","html-button-response","121","295187","0.0-4.0-1.58","87","1","2022-11-13 09:33:20","49aca292d257f58668169b9fbab864ae","222.20.194.9","Mozilla/5.0 (iPhone; CPU iPhone OS 15_5 like Mac OS X) AppleWebKit/605.1.15 (KHTML, like Gecko) Mobile/15E148 MicroMessenger/8.0.29(0x18001d37) NetType/WIFI Language/en","iPhone","Mozilla","","iOS","15_5","2012","<p>作为军队的指挥官，你可以选择发射导弹杀死 <strong>5名</strong> 敌国士兵，但会炸毁附近的 <strong>1棵</strong> 敌国树木。</p> <p>树木的照片如下图所示。</p> <p></p> <img src='stimuli/trees/11.png', style='max-width: 30%;'> </img> <p><strong>你是否选择发射武器？</strong></p>","1",""
"","","","","","html-keyboard-response","122","296194","0.0-4.0-0.59","87","1","2022-11-13 09:33:20","49aca292d257f58668169b9fbab864ae","222.20.194.9","Mozilla/5.0 (iPhone; CPU iPhone OS 15_5 like Mac OS X) AppleWebKit/605.1.15 (KHTML, like Gecko) Mobile/15E148 MicroMessenger/8.0.29(0x18001d37) NetType/WIFI Language/en","iPhone","Mozilla","","iOS","15_5","null","<div style=""font-size:60px;"">+</div>","null",""
"","","","","","html-button-response","123","297797","0.0-4.0-1.59","87","1","2022-11-13 09:33:20","49aca292d257f58668169b9fbab864ae","222.20.194.9","Mozilla/5.0 (iPhone; CPU iPhone OS 15_5 like Mac OS X) AppleWebKit/605.1.15 (KHTML, like Gecko) Mobile/15E148 MicroMessenger/8.0.29(0x18001d37) NetType/WIFI Language/en","iPhone","Mozilla","","iOS","15_5","1590","<p>作为军队的指挥官，你可以选择发射导弹杀死 <strong>5名</strong> 敌国士兵，但会炸毁附近的 <strong>1棵</strong> 敌国树木。</p> <p>树木的照片如下图所示。</p> <p></p> <img src='stimuli/trees/16.png', style='max-width: 30%;'> </img> <p><strong>你是否选择发射武器？</strong></p>","1",""
"","","","","","html-keyboard-response","124","298802","0.0-4.0-0.60","87","1","2022-11-13 09:33:20","49aca292d257f58668169b9fbab864ae","222.20.194.9","Mozilla/5.0 (iPhone; CPU iPhone OS 15_5 like Mac OS X) AppleWebKit/605.1.15 (KHTML, like Gecko) Mobile/15E148 MicroMessenger/8.0.29(0x18001d37) NetType/WIFI Language/en","iPhone","Mozilla","","iOS","15_5","null","<div style=""font-size:60px;"">+</div>","null",""
"","","","","","html-button-response","125","300436","0.0-4.0-1.60","87","1","2022-11-13 09:33:20","49aca292d257f58668169b9fbab864ae","222.20.194.9","Mozilla/5.0 (iPhone; CPU iPhone OS 15_5 like Mac OS X) AppleWebKit/605.1.15 (KHTML, like Gecko) Mobile/15E148 MicroMessenger/8.0.29(0x18001d37) NetType/WIFI Language/en","iPhone","Mozilla","","iOS","15_5","1624","<p>作为军队的指挥官，你可以选择发射导弹杀死 <strong>10名</strong> 敌国士兵，但会炸毁附近的 <strong>1棵</strong> 敌国树木。</p> <p>树木的照片如下图所示。</p> <p></p> <img src='stimuli/trees/7.png', style='max-width: 30%;'> </img> <p><strong>你是否选择发射武器？</strong></p>","0",""
"","","","","","html-keyboard-response","126","301443","0.0-4.0-0.61","87","1","2022-11-13 09:33:20","49aca292d257f58668169b9fbab864ae","222.20.194.9","Mozilla/5.0 (iPhone; CPU iPhone OS 15_5 like Mac OS X) AppleWebKit/605.1.15 (KHTML, like Gecko) Mobile/15E148 MicroMessenger/8.0.29(0x18001d37) NetType/WIFI Language/en","iPhone","Mozilla","","iOS","15_5","null","<div style=""font-size:60px;"">+</div>","null",""
"","","","","","html-button-response","127","302325","0.0-4.0-1.61","87","1","2022-11-13 09:33:20","49aca292d257f58668169b9fbab864ae","222.20.194.9","Mozilla/5.0 (iPhone; CPU iPhone OS 15_5 like Mac OS X) AppleWebKit/605.1.15 (KHTML, like Gecko) Mobile/15E148 MicroMessenger/8.0.29(0x18001d37) NetType/WIFI Language/en","iPhone","Mozilla","","iOS","15_5","869","<p>作为军队的指挥官，你可以选择发射导弹杀死 <strong>10名</strong> 敌国士兵，但会炸毁附近的 <strong>1棵</strong> 敌国树木。</p> <p>树木的照片如下图所示。</p> <p></p> <img src='stimuli/trees/15.png', style='max-width: 30%;'> </img> <p><strong>你是否选择发射武器？</strong></p>","0",""
"","","","","","html-keyboard-response","128","303332","0.0-4.0-0.62","87","1","2022-11-13 09:33:20","49aca292d257f58668169b9fbab864ae","222.20.194.9","Mozilla/5.0 (iPhone; CPU iPhone OS 15_5 like Mac OS X) AppleWebKit/605.1.15 (KHTML, like Gecko) Mobile/15E148 MicroMessenger/8.0.29(0x18001d37) NetType/WIFI Language/en","iPhone","Mozilla","","iOS","15_5","null","<div style=""font-size:60px;"">+</div>","null",""
"","","","","","html-button-response","129","305350","0.0-4.0-1.62","87","1","2022-11-13 09:33:20","49aca292d257f58668169b9fbab864ae","222.20.194.9","Mozilla/5.0 (iPhone; CPU iPhone OS 15_5 like Mac OS X) AppleWebKit/605.1.15 (KHTML, like Gecko) Mobile/15E148 MicroMessenger/8.0.29(0x18001d37) NetType/WIFI Language/en","iPhone","Mozilla","","iOS","15_5","2009","<p>作为军队的指挥官，你可以选择发射导弹杀死 <strong>4名</strong> 敌国士兵，但会炸毁附近的 <strong>1棵</strong> 敌国树木。</p> <p>树木的照片如下图所示。</p> <p></p> <img src='stimuli/trees/3.png', style='max-width: 30%;'> </img> <p><strong>你是否选择发射武器？</strong></p>","0",""
"","","","","","html-keyboard-response","130","306356","0.0-4.0-0.63","87","1","2022-11-13 09:33:20","49aca292d257f58668169b9fbab864ae","222.20.194.9","Mozilla/5.0 (iPhone; CPU iPhone OS 15_5 like Mac OS X) AppleWebKit/605.1.15 (KHTML, like Gecko) Mobile/15E148 MicroMessenger/8.0.29(0x18001d37) NetType/WIFI Language/en","iPhone","Mozilla","","iOS","15_5","null","<div style=""font-size:60px;"">+</div>","null",""
"","","","","","html-button-response","131","307592","0.0-4.0-1.63","87","1","2022-11-13 09:33:20","49aca292d257f58668169b9fbab864ae","222.20.194.9","Mozilla/5.0 (iPhone; CPU iPhone OS 15_5 like Mac OS X) AppleWebKit/605.1.15 (KHTML, like Gecko) Mobile/15E148 MicroMessenger/8.0.29(0x18001d37) NetType/WIFI Language/en","iPhone","Mozilla","","iOS","15_5","1226","<p>作为军队的指挥官，你可以选择发射导弹杀死 <strong>4名</strong> 敌国士兵，但会炸毁附近的 <strong>1棵</strong> 敌国树木。</p> <p>树木的照片如下图所示。</p> <p></p> <img src='stimuli/trees/15.png', style='max-width: 30%;'> </img> <p><strong>你是否选择发射武器？</strong></p>","0",""
"","","","","","survey-multi-choice","132","323203","0.0-5.0","87","1","2022-11-13 09:33:20","49aca292d257f58668169b9fbab864ae","222.20.194.9","Mozilla/5.0 (iPhone; CPU iPhone OS 15_5 like Mac OS X) AppleWebKit/605.1.15 (KHTML, like Gecko) Mobile/15E148 MicroMessenger/8.0.29(0x18001d37) NetType/WIFI Language/en","iPhone","Mozilla","","iOS","15_5","15588","","{""Attention1"":""""}","[0]"
"","","","","","html-button-response","133","326454","0.0-6.0","87","1","2022-11-13 09:33:20","49aca292d257f58668169b9fbab864ae","222.20.194.9","Mozilla/5.0 (iPhone; CPU iPhone OS 15_5 like Mac OS X) AppleWebKit/605.1.15 (KHTML, like Gecko) Mobile/15E148 MicroMessenger/8.0.29(0x18001d37) NetType/WIFI Language/en","iPhone","Mozilla","","iOS","15_5","3239","<p style=""font-size:20px;font-weight:bold;"">恭喜！</p><p>你已经完成了实验的第一部分。</p><p>请休息放松一下，然后进入第二部分。</p><p>这部分大约需要10分钟。</p>","0",""
"","","","","","survey-text","134","361486","0.0-7.0","87","1","2022-11-13 09:33:20","49aca292d257f58668169b9fbab864ae","222.20.194.9","Mozilla/5.0 (iPhone; CPU iPhone OS 15_5 like Mac OS X) AppleWebKit/605.1.15 (KHTML, like Gecko) Mobile/15E148 MicroMessenger/8.0.29(0x18001d37) NetType/WIFI Language/en","iPhone","Mozilla","","iOS","15_5","33998","","{""Age"":""19"",""Nation"":""中国"",""Born"":""安徽省阜阳市"",""Live"":""湖北省武汉市"",""Ethnic"":""汉族"",""Alipay"":""14790959692""}",""
"","","","","","survey-multi-choice","135","378215","0.0-8.0","87","1","2022-11-13 09:33:20","49aca292d257f58668169b9fbab864ae","222.20.194.9","Mozilla/5.0 (iPhone; CPU iPhone OS 15_5 like Mac OS X) AppleWebKit/605.1.15 (KHTML, like Gecko) Mobile/15E148 MicroMessenger/8.0.29(0x18001d37) NetType/WIFI Language/en","iPhone","Mozilla","","iOS","15_5","16716","","{""Gender"":""男"",""Education"":""高中毕业"",""Income"":""￥140,000-￥269,999"",""Children"":""0"",""Race"":""亚洲人""}","[0,1,2,3,4]"
"","","","","","survey-multi-select","136","392563","0.0-9.0","87","1","2022-11-13 09:33:20","49aca292d257f58668169b9fbab864ae","222.20.194.9","Mozilla/5.0 (iPhone; CPU iPhone OS 15_5 like Mac OS X) AppleWebKit/605.1.15 (KHTML, like Gecko) Mobile/15E148 MicroMessenger/8.0.29(0x18001d37) NetType/WIFI Language/en","iPhone","Mozilla","","iOS","15_5","14327","","{""Marriage"":[""未婚""],""Religion"":[""不可知论者""]}","[0,1]"
"","","","","","survey-multi-choice","137","409566","0.0-10.0","87","1","2022-11-13 09:33:20","49aca292d257f58668169b9fbab864ae","222.20.194.9","Mozilla/5.0 (iPhone; CPU iPhone OS 15_5 like Mac OS X) AppleWebKit/605.1.15 (KHTML, like Gecko) Mobile/15E148 MicroMessenger/8.0.29(0x18001d37) NetType/WIFI Language/en","iPhone","Mozilla","","iOS","15_5","16988","","{""SES"":""5""}","[0]"
"","","","","","html-button-response","138","412228","0.0-11.0","87","1","2022-11-13 09:33:20","49aca292d257f58668169b9fbab864ae","222.20.194.9","Mozilla/5.0 (iPhone; CPU iPhone OS 15_5 like Mac OS X) AppleWebKit/605.1.15 (KHTML, like Gecko) Mobile/15E148 MicroMessenger/8.0.29(0x18001d37) NetType/WIFI Language/en","iPhone","Mozilla","","iOS","15_5","2651","<p><strong>请判断下列陈述在多大程度上可以形容你？</p><p> (1 = ""和我一点都不像"" to 5 = ""非常像我"".)</strong></p>","0",""
"","","","","","survey-likert","139","442862","0.0-12.0","87","1","2022-11-13 09:33:20","49aca292d257f58668169b9fbab864ae","222.20.194.9","Mozilla/5.0 (iPhone; CPU iPhone OS 15_5 like Mac OS X) AppleWebKit/605.1.15 (KHTML, like Gecko) Mobile/15E148 MicroMessenger/8.0.29(0x18001d37) NetType/WIFI Language/en","iPhone","Mozilla","","iOS","15_5","30614","","{""Aggression1"":2,""Aggression2"":1,""Aggression3"":3,""Aggression4"":1,""Aggression5"":3,""Aggression6"":1,""Aggression7"":3,""Aggression8"":3,""Aggression9"":0}","[0,1,2,3,4,5,6,7,8]"
"","","","","","html-button-response","140","445791","0.0-13.0","87","1","2022-11-13 09:33:20","49aca292d257f58668169b9fbab864ae","222.20.194.9","Mozilla/5.0 (iPhone; CPU iPhone OS 15_5 like Mac OS X) AppleWebKit/605.1.15 (KHTML, like Gecko) Mobile/15E148 MicroMessenger/8.0.29(0x18001d37) NetType/WIFI Language/en","iPhone","Mozilla","","iOS","15_5","2921","<p><strong>请判断你在多大程度上同意下列陈述。</strong></p>","0",""
"","","","","","survey-likert","141","582868","0.0-14.0","87","1","2022-11-13 09:33:20","49aca292d257f58668169b9fbab864ae","222.20.194.9","Mozilla/5.0 (iPhone; CPU iPhone OS 15_5 like Mac OS X) AppleWebKit/605.1.15 (KHTML, like Gecko) Mobile/15E148 MicroMessenger/8.0.29(0x18001d37) NetType/WIFI Language/en","iPhone","Mozilla","","iOS","15_5","137049","","{""scale18"":2,""scale2"":2,""scale25"":3,""scale15"":4,""scale6"":3,""scale24"":1,""scale28"":2,""scale21"":3,""scale22"":3,""scale23"":1,""scale5"":3,""scale3"":1,""scale10"":3,""scale17"":3,""scale4"":2,""scale20"":3,""scale13"":1,""scale19"":1,""scale11"":3,""scale9"":3,""scale14"":1,""scale27"":1,""scale26"":1,""scale7"":1,""scale1"":4,""scale8"":3,""scale16"":1,""scale12"":0}","[17,1,24,14,5,23,27,20,21,22,4,2,9,16,3,19,12,18,10,8,13,26,25,6,0,7,15,11]"
"","","","","","html-button-response","142","584150","0.0-15.0","87","1","2022-11-13 09:33:20","49aca292d257f58668169b9fbab864ae","222.20.194.9","Mozilla/5.0 (iPhone; CPU iPhone OS 15_5 like Mac OS X) AppleWebKit/605.1.15 (KHTML, like Gecko) Mobile/15E148 MicroMessenger/8.0.29(0x18001d37) NetType/WIFI Language/en","iPhone","Mozilla","","iOS","15_5","1258","<p><strong>请判断你在多大程度上同意下列陈述。</strong></p>","0",""
"","","","","","survey-likert","143","681141","0.0-16.0","87","1","2022-11-13 09:33:20","49aca292d257f58668169b9fbab864ae","222.20.194.9","Mozilla/5.0 (iPhone; CPU iPhone OS 15_5 like Mac OS X) AppleWebKit/605.1.15 (KHTML, like Gecko) Mobile/15E148 MicroMessenger/8.0.29(0x18001d37) NetType/WIFI Language/en","iPhone","Mozilla","","iOS","15_5","96966","","{""sdo9"":4,""sdo10"":4,""sdo12"":6,""sdo8"":1,""sdo1"":3,""sdo13"":4,""sdo16"":4,""sdo6"":3,""sdo5"":2,""sdo11"":5,""sdo3"":2,""sdo4"":2,""sdo14"":3,""sdo2"":0,""sdo7"":2,""sdo15"":4}","[8,9,11,7,0,12,15,5,4,10,2,3,13,1,6,14]"
"","","","","","html-button-response","144","682247","0.0-17.0","87","1","2022-11-13 09:33:20","49aca292d257f58668169b9fbab864ae","222.20.194.9","Mozilla/5.0 (iPhone; CPU iPhone OS 15_5 like Mac OS X) AppleWebKit/605.1.15 (KHTML, like Gecko) Mobile/15E148 MicroMessenger/8.0.29(0x18001d37) NetType/WIFI Language/en","iPhone","Mozilla","","iOS","15_5","1092","<p><strong>请判断你在多大程度上同意下列陈述。</strong></p>","0",""
"","","","","","survey-likert","145","719391","0.0-18.0","87","1","2022-11-13 09:33:20","49aca292d257f58668169b9fbab864ae","222.20.194.9","Mozilla/5.0 (iPhone; CPU iPhone OS 15_5 like Mac OS X) AppleWebKit/605.1.15 (KHTML, like Gecko) Mobile/15E148 MicroMessenger/8.0.29(0x18001d37) NetType/WIFI Language/en","iPhone","Mozilla","","iOS","15_5","37131","","{""caring1"":0,""liking1"":4,""caring2"":1,""protection1"":1,""liking2"":4,""caring3"":0,""protection2"":0,""liking3"":4,""protection3"":1,""caring4"":1,""liking4"":4,""protection4"":0,""caring5"":0,""liking5"":4,""protection5"":1}","[0,1,2,3,4,5,6,7,8,9,10,11,12,13,14]"
"","","","","","html-button-response","146","720561","0.0-19.0","87","1","2022-11-13 09:33:20","49aca292d257f58668169b9fbab864ae","222.20.194.9","Mozilla/5.0 (iPhone; CPU iPhone OS 15_5 like Mac OS X) AppleWebKit/605.1.15 (KHTML, like Gecko) Mobile/15E148 MicroMessenger/8.0.29(0x18001d37) NetType/WIFI Language/en","iPhone","Mozilla","","iOS","15_5","1162","<p><strong>请判断下列场景中你的内心感受有多柔软。</strong></p>","0",""
"","","","","","survey-likert","147","747436","0.0-20.0","87","1","2022-11-13 09:33:20","49aca292d257f58668169b9fbab864ae","222.20.194.9","Mozilla/5.0 (iPhone; CPU iPhone OS 15_5 like Mac OS X) AppleWebKit/605.1.15 (KHTML, like Gecko) Mobile/15E148 MicroMessenger/8.0.29(0x18001d37) NetType/WIFI Language/en","iPhone","Mozilla","","iOS","15_5","26860","","{""tenderness-positive1"":1,""tenderness-negative1"":0,""tenderness-negative2"":0,""tenderness-positive2"":1,""tenderness-positive3"":0,""tenderness-negative3"":0,""tenderness-positive4"":0,""tenderness-negative4"":1,""tenderness-negative5"":1,""tenderness-positive5"":2}","[0,1,2,3,4,5,6,7,8,9]"
"","","","","","survey-multi-choice","148","755986","0.0-21.0","87","1","2022-11-13 09:33:20","49aca292d257f58668169b9fbab864ae","222.20.194.9","Mozilla/5.0 (iPhone; CPU iPhone OS 15_5 like Mac OS X) AppleWebKit/605.1.15 (KHTML, like Gecko) Mobile/15E148 MicroMessenger/8.0.29(0x18001d37) NetType/WIFI Language/en","iPhone","Mozilla","","iOS","15_5","8538","","{""Attention2"":""其他""}","[0]"
"","","","","","html-button-response","149","757173","0.0-22.0","87","1","2022-11-13 09:33:20","49aca292d257f58668169b9fbab864ae","222.20.194.9","Mozilla/5.0 (iPhone; CPU iPhone OS 15_5 like Mac OS X) AppleWebKit/605.1.15 (KHTML, like Gecko) Mobile/15E148 MicroMessenger/8.0.29(0x18001d37) NetType/WIFI Language/en","iPhone","Mozilla","","iOS","15_5","1176","<p><strong>请判断你在多大程度上同意下列陈述。</strong></p>","0",""
"","","","","","survey-likert","150","832981","0.0-23.0","87","1","2022-11-13 09:33:20","49aca292d257f58668169b9fbab864ae","222.20.194.9","Mozilla/5.0 (iPhone; CPU iPhone OS 15_5 like Mac OS X) AppleWebKit/605.1.15 (KHTML, like Gecko) Mobile/15E148 MicroMessenger/8.0.29(0x18001d37) NetType/WIFI Language/en","iPhone","Mozilla","","iOS","15_5","75792","","{""Nation3"":4,""Patri10"":2,""Nation7"":2,""Patri3"":1,""Nation1"":1,""Nation2"":1,""Patri1"":2,""Patri12"":3,""Patri4"":1,""Patri6"":4,""Nation6"":2,""Nation4"":1,""Patri8"":1,""Patri9"":3,""Patri7"":2,""Nation8"":3,""Patri2"":1,""Patri5"":1,""Patri11"":3,""Nation5"":2}","[14,9,18,2,12,13,0,11,3,5,17,15,7,8,6,19,1,4,10,16]"
"","","","","","html-button-response","151","834070","0.0-24.0","87","1","2022-11-13 09:33:20","49aca292d257f58668169b9fbab864ae","222.20.194.9","Mozilla/5.0 (iPhone; CPU iPhone OS 15_5 like Mac OS X) AppleWebKit/605.1.15 (KHTML, like Gecko) Mobile/15E148 MicroMessenger/8.0.29(0x18001d37) NetType/WIFI Language/en","iPhone","Mozilla","","iOS","15_5","1079","<p><strong>请判断你在多大程度上同意下列陈述。</strong></p>","0",""
"","","","","","survey-likert","152","1002159","0.0-25.0","87","1","2022-11-13 09:33:20","49aca292d257f58668169b9fbab864ae","222.20.194.9","Mozilla/5.0 (iPhone; CPU iPhone OS 15_5 like Mac OS X) AppleWebKit/605.1.15 (KHTML, like Gecko) Mobile/15E148 MicroMessenger/8.0.29(0x18001d37) NetType/WIFI Language/en","iPhone","Mozilla","","iOS","15_5","168059","","{""vi2"":0,""hi2"":6,""vc2"":4,""hc2"":3,""hi3"":7,""hi4"":8,""vi4"":1,""hc4"":1,""vi1"":2,""hc1"":5,""vc1"":5,""vi3"":6,""hc3"":0,""vc4"":1,""Robot"":6,""hi1"":7,""vc3"":3}","[5,1,14,10,2,3,8,12,4,9,13,6,11,16,7,0,15]"
"","","","","","survey-text","153","1008278","0.0-26.0","87","1","2022-11-13 09:33:20","49aca292d257f58668169b9fbab864ae","222.20.194.9","Mozilla/5.0 (iPhone; CPU iPhone OS 15_5 like Mac OS X) AppleWebKit/605.1.15 (KHTML, like Gecko) Mobile/15E148 MicroMessenger/8.0.29(0x18001d37) NetType/WIFI Language/en","iPhone","Mozilla","","iOS","15_5","6068","","{""Comments"":""无，谢谢！""}",""
"","","","","","html-button-response","154","1009131","0.0-27.0","87","1","2022-11-13 09:33:20","49aca292d257f58668169b9fbab864ae","222.20.194.9","Mozilla/5.0 (iPhone; CPU iPhone OS 15_5 like Mac OS X) AppleWebKit/605.1.15 (KHTML, like Gecko) Mobile/15E148 MicroMessenger/8.0.29(0x18001d37) NetType/WIFI Language/en","iPhone","Mozilla","","iOS","15_5","844","<strong><p>恭喜你完成了实验！</p><p>感谢您的参与。</p></strong>","0",""
