"success","timeout","failed_images","failed_audio","failed_video","trial_type","trial_index","time_elapsed","internal_node_id","run_id","condition","recorded_at","source_code_version","ip","user_agent","device","browser","browser_version","platform","platform_version","rt","stimulus","response","question_order"
"true","false","[]","[]","[]","preload","0","2360","0.0-0.0","93","1","2022-11-13 09:55:51","49aca292d257f58668169b9fbab864ae","222.20.193.190","Mozilla/5.0 (Windows NT 10.0; Win64; x64) AppleWebKit/537.36 (KHTML, like Gecko) Chrome/107.0.0.0 Safari/537.36 Edg/107.0.1418.35","WebKit","Edge","107.0.1418.35","Windows","10.0","","","",""
"true","","","","","fullscreen","1","5484","0.0-1.0","93","1","2022-11-13 09:55:51","49aca292d257f58668169b9fbab864ae","222.20.193.190","Mozilla/5.0 (Windows NT 10.0; Win64; x64) AppleWebKit/537.36 (KHTML, like Gecko) Chrome/107.0.0.0 Safari/537.36 Edg/107.0.1418.35","WebKit","Edge","107.0.1418.35","Windows","10.0","","","",""
"","","","","","html-button-response","2","11126","0.0-2.0","93","1","2022-11-13 09:55:51","49aca292d257f58668169b9fbab864ae","222.20.193.190","Mozilla/5.0 (Windows NT 10.0; Win64; x64) AppleWebKit/537.36 (KHTML, like Gecko) Chrome/107.0.0.0 Safari/537.36 Edg/107.0.1418.35","WebKit","Edge","107.0.1418.35","Windows","10.0","5639","<p style=""font-size:20px;font-weight:bold;"">实验知情同意书</p><p style=""text-align:left;""><strong>实验名称：</strong>社会冲突研究</p><p style=""text-align:left;""><strong>主要研究者：</strong>韩晓春副教授（北京师范大学心理学部）</p><p style=""text-align:left;""><strong>联系方式：</strong>发送邮件至xiaochun.han@bnu.edu.cn</p><p style=""text-align:left;""><strong>研究目的：</strong>研究旨在了解人类面对群体冲突时的决策方式，以及相关的心理学特质。实验调查大约需要20分钟。</p><p style=""text-align:left;""><strong>实验流程：</strong>实验包含两部分。第一部分呈现一系列群体冲突场景，请你决定如何对这些冲突进行反应，大约需要10分钟完成。第二部分包含一系列人口统计学信息收集和心理学问卷，大约需要10分钟完成。</p><p style=""text-align:left;""><strong>参加及退出规则：</strong>参加本实验完全取决于您的个人意愿。在参与过程中，您可以随时退出，并且不用承担任何后果。</p><p style=""text-align:left;""><strong>隐私：</strong>本实验完全匿名进行，不会收集您的姓名或其他能够识别您身份的信息。实验中收集的作答仅用作科学研究使用，可能会在学术期刊/书籍上发表，或者用于教学，您的数据未来可能会和其他研究者或实验室分享，但您的个人身份不会被识别。</p><p style=""text-align:left;""><strong>实验报酬：</strong>实验完成后，您将获得15元人民币报酬，以感谢您的时间和努力。调查问卷中包含几道题目用以测验您作答时的认真度。只有完成全部实验，并且正确回答认真度测验的被试才能获得实验报酬。实验报酬将通过支付宝转账发放。</p><p style=""text-align:left;font-size:20px;""><strong>如果您同意以上实验知情同意书的内容，请点击'同意并且开始实验'按钮；否则请关闭浏览器界面，退出实验。</strong></p>","0",""
"","","","","","html-button-response","3","35781","0.0-3.0","93","1","2022-11-13 09:55:51","49aca292d257f58668169b9fbab864ae","222.20.193.190","Mozilla/5.0 (Windows NT 10.0; Win64; x64) AppleWebKit/537.36 (KHTML, like Gecko) Chrome/107.0.0.0 Safari/537.36 Edg/107.0.1418.35","WebKit","Edge","107.0.1418.35","Windows","10.0","24653","<p ><strong>实验任务一：</strong></p><p>请想象你的国家与另一个国家发生了军事冲突。</p><p>你是国家军队的指挥官，你将如何在冲突中进行决策。</p><p>具体来说，作为军队指挥官，请你决定是否发射导弹进行打击。</p><p>接下来，你会面对一系列场景，请仔细阅读每个场景，然后进行决策。</p><p>这部分实验任务大约需要10分钟。</p><p><strong>实验过程中，请集中注意力。</strong></p>","0",""
"","","","","","html-keyboard-response","4","36788","0.0-4.0-0.0","93","1","2022-11-13 09:55:51","49aca292d257f58668169b9fbab864ae","222.20.193.190","Mozilla/5.0 (Windows NT 10.0; Win64; x64) AppleWebKit/537.36 (KHTML, like Gecko) Chrome/107.0.0.0 Safari/537.36 Edg/107.0.1418.35","WebKit","Edge","107.0.1418.35","Windows","10.0","null","<div style=""font-size:60px;"">+</div>","null",""
"","","","","","html-button-response","5","47092","0.0-4.0-1.0","93","1","2022-11-13 09:55:51","49aca292d257f58668169b9fbab864ae","222.20.193.190","Mozilla/5.0 (Windows NT 10.0; Win64; x64) AppleWebKit/537.36 (KHTML, like Gecko) Chrome/107.0.0.0 Safari/537.36 Edg/107.0.1418.35","WebKit","Edge","107.0.1418.35","Windows","10.0","10299","<p>作为军队的指挥官，你可以选择发射导弹杀死 <strong>6名</strong> 敌国士兵，但会炸毁附近的 <strong>1棵</strong> 敌国树木。</p> <p>树木的照片如下图所示。</p> <p></p> <img src='stimuli/trees/15.png', style='max-width: 30%;'> </img> <p><strong>你是否选择发射武器？</strong></p>","0",""
"","","","","","html-keyboard-response","6","48101","0.0-4.0-0.1","93","1","2022-11-13 09:55:51","49aca292d257f58668169b9fbab864ae","222.20.193.190","Mozilla/5.0 (Windows NT 10.0; Win64; x64) AppleWebKit/537.36 (KHTML, like Gecko) Chrome/107.0.0.0 Safari/537.36 Edg/107.0.1418.35","WebKit","Edge","107.0.1418.35","Windows","10.0","null","<div style=""font-size:60px;"">+</div>","null",""
"","","","","","html-button-response","7","53154","0.0-4.0-1.1","93","1","2022-11-13 09:55:51","49aca292d257f58668169b9fbab864ae","222.20.193.190","Mozilla/5.0 (Windows NT 10.0; Win64; x64) AppleWebKit/537.36 (KHTML, like Gecko) Chrome/107.0.0.0 Safari/537.36 Edg/107.0.1418.35","WebKit","Edge","107.0.1418.35","Windows","10.0","5050","<p>作为军队的指挥官，你可以选择发射导弹杀死 <strong>9名</strong> 敌国士兵，但会误杀附近的 <strong>1名</strong> 敌国平民。</p> <p>平民照片如下图所示。</p> <p></p> <img src='stimuli/faces/PFF3.jpg', style='max-width: 30%;'> </img> <p><strong>你是否选择发射武器？</strong></p>","1",""
"","","","","","html-keyboard-response","8","54158","0.0-4.0-0.2","93","1","2022-11-13 09:55:51","49aca292d257f58668169b9fbab864ae","222.20.193.190","Mozilla/5.0 (Windows NT 10.0; Win64; x64) AppleWebKit/537.36 (KHTML, like Gecko) Chrome/107.0.0.0 Safari/537.36 Edg/107.0.1418.35","WebKit","Edge","107.0.1418.35","Windows","10.0","null","<div style=""font-size:60px;"">+</div>","null",""
"","","","","","html-button-response","9","61742","0.0-4.0-1.2","93","1","2022-11-13 09:55:51","49aca292d257f58668169b9fbab864ae","222.20.193.190","Mozilla/5.0 (Windows NT 10.0; Win64; x64) AppleWebKit/537.36 (KHTML, like Gecko) Chrome/107.0.0.0 Safari/537.36 Edg/107.0.1418.35","WebKit","Edge","107.0.1418.35","Windows","10.0","7581","<p>作为军队的指挥官，你可以选择发射导弹杀死 <strong>5名</strong> 敌国士兵，但会炸毁附近的 <strong>1棵</strong> 敌国树木。</p> <p>树木的照片如下图所示。</p> <p></p> <img src='stimuli/trees/12.png', style='max-width: 30%;'> </img> <p><strong>你是否选择发射武器？</strong></p>","0",""
"","","","","","html-keyboard-response","10","62748","0.0-4.0-0.3","93","1","2022-11-13 09:55:51","49aca292d257f58668169b9fbab864ae","222.20.193.190","Mozilla/5.0 (Windows NT 10.0; Win64; x64) AppleWebKit/537.36 (KHTML, like Gecko) Chrome/107.0.0.0 Safari/537.36 Edg/107.0.1418.35","WebKit","Edge","107.0.1418.35","Windows","10.0","null","<div style=""font-size:60px;"">+</div>","null",""
"","","","","","html-button-response","11","66068","0.0-4.0-1.3","93","1","2022-11-13 09:55:51","49aca292d257f58668169b9fbab864ae","222.20.193.190","Mozilla/5.0 (Windows NT 10.0; Win64; x64) AppleWebKit/537.36 (KHTML, like Gecko) Chrome/107.0.0.0 Safari/537.36 Edg/107.0.1418.35","WebKit","Edge","107.0.1418.35","Windows","10.0","3317","<p>作为军队的指挥官，你可以选择发射导弹杀死 <strong>8名</strong> 敌国士兵，但会误杀附近的 <strong>1名</strong> 敌国平民。</p> <p>平民照片如下图所示。</p> <p></p> <img src='stimuli/faces/PFM4.jpg', style='max-width: 30%;'> </img> <p><strong>你是否选择发射武器？</strong></p>","1",""
"","","","","","html-keyboard-response","12","67081","0.0-4.0-0.4","93","1","2022-11-13 09:55:51","49aca292d257f58668169b9fbab864ae","222.20.193.190","Mozilla/5.0 (Windows NT 10.0; Win64; x64) AppleWebKit/537.36 (KHTML, like Gecko) Chrome/107.0.0.0 Safari/537.36 Edg/107.0.1418.35","WebKit","Edge","107.0.1418.35","Windows","10.0","null","<div style=""font-size:60px;"">+</div>","null",""
"","","","","","html-button-response","13","74412","0.0-4.0-1.4","93","1","2022-11-13 09:55:51","49aca292d257f58668169b9fbab864ae","222.20.193.190","Mozilla/5.0 (Windows NT 10.0; Win64; x64) AppleWebKit/537.36 (KHTML, like Gecko) Chrome/107.0.0.0 Safari/537.36 Edg/107.0.1418.35","WebKit","Edge","107.0.1418.35","Windows","10.0","7328","<p>作为军队的指挥官，你可以选择发射导弹杀死 <strong>4名</strong> 敌国士兵，但会误杀附近的 <strong>1名</strong> 敌国平民。</p> <p>平民照片如下图所示。</p> <p></p> <img src='stimuli/faces/PFF1.jpg', style='max-width: 30%;'> </img> <p><strong>你是否选择发射武器？</strong></p>","1",""
"","","","","","html-keyboard-response","14","75427","0.0-4.0-0.5","93","1","2022-11-13 09:55:51","49aca292d257f58668169b9fbab864ae","222.20.193.190","Mozilla/5.0 (Windows NT 10.0; Win64; x64) AppleWebKit/537.36 (KHTML, like Gecko) Chrome/107.0.0.0 Safari/537.36 Edg/107.0.1418.35","WebKit","Edge","107.0.1418.35","Windows","10.0","null","<div style=""font-size:60px;"">+</div>","null",""
"","","","","","html-button-response","15","77262","0.0-4.0-1.5","93","1","2022-11-13 09:55:51","49aca292d257f58668169b9fbab864ae","222.20.193.190","Mozilla/5.0 (Windows NT 10.0; Win64; x64) AppleWebKit/537.36 (KHTML, like Gecko) Chrome/107.0.0.0 Safari/537.36 Edg/107.0.1418.35","WebKit","Edge","107.0.1418.35","Windows","10.0","1833","<p>作为军队的指挥官，你可以选择发射导弹杀死 <strong>8名</strong> 敌国士兵，但会炸毁附近的 <strong>1棵</strong> 敌国树木。</p> <p>树木的照片如下图所示。</p> <p></p> <img src='stimuli/trees/3.png', style='max-width: 30%;'> </img> <p><strong>你是否选择发射武器？</strong></p>","0",""
"","","","","","html-keyboard-response","16","78274","0.0-4.0-0.6","93","1","2022-11-13 09:55:51","49aca292d257f58668169b9fbab864ae","222.20.193.190","Mozilla/5.0 (Windows NT 10.0; Win64; x64) AppleWebKit/537.36 (KHTML, like Gecko) Chrome/107.0.0.0 Safari/537.36 Edg/107.0.1418.35","WebKit","Edge","107.0.1418.35","Windows","10.0","null","<div style=""font-size:60px;"">+</div>","null",""
"","","","","","html-button-response","17","80554","0.0-4.0-1.6","93","1","2022-11-13 09:55:51","49aca292d257f58668169b9fbab864ae","222.20.193.190","Mozilla/5.0 (Windows NT 10.0; Win64; x64) AppleWebKit/537.36 (KHTML, like Gecko) Chrome/107.0.0.0 Safari/537.36 Edg/107.0.1418.35","WebKit","Edge","107.0.1418.35","Windows","10.0","2278","<p>作为军队的指挥官，你可以选择发射导弹杀死 <strong>1名</strong> 敌国士兵，但会炸毁附近的 <strong>1棵</strong> 敌国树木。</p> <p>树木的照片如下图所示。</p> <p></p> <img src='stimuli/trees/10.png', style='max-width: 30%;'> </img> <p><strong>你是否选择发射武器？</strong></p>","0",""
"","","","","","html-keyboard-response","18","81568","0.0-4.0-0.7","93","1","2022-11-13 09:55:51","49aca292d257f58668169b9fbab864ae","222.20.193.190","Mozilla/5.0 (Windows NT 10.0; Win64; x64) AppleWebKit/537.36 (KHTML, like Gecko) Chrome/107.0.0.0 Safari/537.36 Edg/107.0.1418.35","WebKit","Edge","107.0.1418.35","Windows","10.0","null","<div style=""font-size:60px;"">+</div>","null",""
"","","","","","html-button-response","19","88242","0.0-4.0-1.7","93","1","2022-11-13 09:55:51","49aca292d257f58668169b9fbab864ae","222.20.193.190","Mozilla/5.0 (Windows NT 10.0; Win64; x64) AppleWebKit/537.36 (KHTML, like Gecko) Chrome/107.0.0.0 Safari/537.36 Edg/107.0.1418.35","WebKit","Edge","107.0.1418.35","Windows","10.0","6672","<p>作为军队的指挥官，你可以选择发射导弹杀死 <strong>2名</strong> 敌国士兵，但会炸毁附近的 <strong>1棵</strong> 敌国树木。</p> <p>树木的照片如下图所示。</p> <p></p> <img src='stimuli/trees/4.png', style='max-width: 30%;'> </img> <p><strong>你是否选择发射武器？</strong></p>","0",""
"","","","","","html-keyboard-response","20","89255","0.0-4.0-0.8","93","1","2022-11-13 09:55:51","49aca292d257f58668169b9fbab864ae","222.20.193.190","Mozilla/5.0 (Windows NT 10.0; Win64; x64) AppleWebKit/537.36 (KHTML, like Gecko) Chrome/107.0.0.0 Safari/537.36 Edg/107.0.1418.35","WebKit","Edge","107.0.1418.35","Windows","10.0","null","<div style=""font-size:60px;"">+</div>","null",""
"","","","","","html-button-response","21","91188","0.0-4.0-1.8","93","1","2022-11-13 09:55:51","49aca292d257f58668169b9fbab864ae","222.20.193.190","Mozilla/5.0 (Windows NT 10.0; Win64; x64) AppleWebKit/537.36 (KHTML, like Gecko) Chrome/107.0.0.0 Safari/537.36 Edg/107.0.1418.35","WebKit","Edge","107.0.1418.35","Windows","10.0","1930","<p>作为军队的指挥官，你可以选择发射导弹杀死 <strong>6名</strong> 敌国士兵，但会误杀附近的 <strong>1名</strong> 敌国平民。</p> <p>平民照片如下图所示。</p> <p></p> <img src='stimuli/faces/PFF2.jpg', style='max-width: 30%;'> </img> <p><strong>你是否选择发射武器？</strong></p>","1",""
"","","","","","html-keyboard-response","22","92202","0.0-4.0-0.9","93","1","2022-11-13 09:55:51","49aca292d257f58668169b9fbab864ae","222.20.193.190","Mozilla/5.0 (Windows NT 10.0; Win64; x64) AppleWebKit/537.36 (KHTML, like Gecko) Chrome/107.0.0.0 Safari/537.36 Edg/107.0.1418.35","WebKit","Edge","107.0.1418.35","Windows","10.0","null","<div style=""font-size:60px;"">+</div>","null",""
"","","","","","html-button-response","23","93620","0.0-4.0-1.9","93","1","2022-11-13 09:55:51","49aca292d257f58668169b9fbab864ae","222.20.193.190","Mozilla/5.0 (Windows NT 10.0; Win64; x64) AppleWebKit/537.36 (KHTML, like Gecko) Chrome/107.0.0.0 Safari/537.36 Edg/107.0.1418.35","WebKit","Edge","107.0.1418.35","Windows","10.0","1415","<p>作为军队的指挥官，你可以选择发射导弹杀死 <strong>2名</strong> 敌国士兵，但会误杀附近的 <strong>1名</strong> 敌国平民。</p> <p>平民照片如下图所示。</p> <p></p> <img src='stimuli/faces/PFF4.jpg', style='max-width: 30%;'> </img> <p><strong>你是否选择发射武器？</strong></p>","1",""
"","","","","","html-keyboard-response","24","94631","0.0-4.0-0.10","93","1","2022-11-13 09:55:51","49aca292d257f58668169b9fbab864ae","222.20.193.190","Mozilla/5.0 (Windows NT 10.0; Win64; x64) AppleWebKit/537.36 (KHTML, like Gecko) Chrome/107.0.0.0 Safari/537.36 Edg/107.0.1418.35","WebKit","Edge","107.0.1418.35","Windows","10.0","null","<div style=""font-size:60px;"">+</div>","null",""
"","","","","","html-button-response","25","99158","0.0-4.0-1.10","93","1","2022-11-13 09:55:51","49aca292d257f58668169b9fbab864ae","222.20.193.190","Mozilla/5.0 (Windows NT 10.0; Win64; x64) AppleWebKit/537.36 (KHTML, like Gecko) Chrome/107.0.0.0 Safari/537.36 Edg/107.0.1418.35","WebKit","Edge","107.0.1418.35","Windows","10.0","4525","<p>作为军队的指挥官，你可以选择发射导弹杀死 <strong>8名</strong> 敌国士兵，但会炸毁附近的 <strong>1棵</strong> 敌国树木。</p> <p>树木的照片如下图所示。</p> <p></p> <img src='stimuli/trees/7.png', style='max-width: 30%;'> </img> <p><strong>你是否选择发射武器？</strong></p>","0",""
"","","","","","html-keyboard-response","26","100170","0.0-4.0-0.11","93","1","2022-11-13 09:55:51","49aca292d257f58668169b9fbab864ae","222.20.193.190","Mozilla/5.0 (Windows NT 10.0; Win64; x64) AppleWebKit/537.36 (KHTML, like Gecko) Chrome/107.0.0.0 Safari/537.36 Edg/107.0.1418.35","WebKit","Edge","107.0.1418.35","Windows","10.0","null","<div style=""font-size:60px;"">+</div>","null",""
"","","","","","html-button-response","27","101810","0.0-4.0-1.11","93","1","2022-11-13 09:55:51","49aca292d257f58668169b9fbab864ae","222.20.193.190","Mozilla/5.0 (Windows NT 10.0; Win64; x64) AppleWebKit/537.36 (KHTML, like Gecko) Chrome/107.0.0.0 Safari/537.36 Edg/107.0.1418.35","WebKit","Edge","107.0.1418.35","Windows","10.0","1635","<p>作为军队的指挥官，你可以选择发射导弹杀死 <strong>6名</strong> 敌国士兵，但会炸毁附近的 <strong>1棵</strong> 敌国树木。</p> <p>树木的照片如下图所示。</p> <p></p> <img src='stimuli/trees/6.png', style='max-width: 30%;'> </img> <p><strong>你是否选择发射武器？</strong></p>","0",""
"","","","","","html-keyboard-response","28","102829","0.0-4.0-0.12","93","1","2022-11-13 09:55:51","49aca292d257f58668169b9fbab864ae","222.20.193.190","Mozilla/5.0 (Windows NT 10.0; Win64; x64) AppleWebKit/537.36 (KHTML, like Gecko) Chrome/107.0.0.0 Safari/537.36 Edg/107.0.1418.35","WebKit","Edge","107.0.1418.35","Windows","10.0","null","<div style=""font-size:60px;"">+</div>","null",""
"","","","","","html-button-response","29","104372","0.0-4.0-1.12","93","1","2022-11-13 09:55:51","49aca292d257f58668169b9fbab864ae","222.20.193.190","Mozilla/5.0 (Windows NT 10.0; Win64; x64) AppleWebKit/537.36 (KHTML, like Gecko) Chrome/107.0.0.0 Safari/537.36 Edg/107.0.1418.35","WebKit","Edge","107.0.1418.35","Windows","10.0","1542","<p>作为军队的指挥官，你可以选择发射导弹杀死 <strong>8名</strong> 敌国士兵，但会炸毁附近的 <strong>1棵</strong> 敌国树木。</p> <p>树木的照片如下图所示。</p> <p></p> <img src='stimuli/trees/12.png', style='max-width: 30%;'> </img> <p><strong>你是否选择发射武器？</strong></p>","0",""
"","","","","","html-keyboard-response","30","105382","0.0-4.0-0.13","93","1","2022-11-13 09:55:51","49aca292d257f58668169b9fbab864ae","222.20.193.190","Mozilla/5.0 (Windows NT 10.0; Win64; x64) AppleWebKit/537.36 (KHTML, like Gecko) Chrome/107.0.0.0 Safari/537.36 Edg/107.0.1418.35","WebKit","Edge","107.0.1418.35","Windows","10.0","null","<div style=""font-size:60px;"">+</div>","null",""
"","","","","","html-button-response","31","106758","0.0-4.0-1.13","93","1","2022-11-13 09:55:51","49aca292d257f58668169b9fbab864ae","222.20.193.190","Mozilla/5.0 (Windows NT 10.0; Win64; x64) AppleWebKit/537.36 (KHTML, like Gecko) Chrome/107.0.0.0 Safari/537.36 Edg/107.0.1418.35","WebKit","Edge","107.0.1418.35","Windows","10.0","1373","<p>作为军队的指挥官，你可以选择发射导弹杀死 <strong>5名</strong> 敌国士兵，但会炸毁附近的 <strong>1棵</strong> 敌国树木。</p> <p>树木的照片如下图所示。</p> <p></p> <img src='stimuli/trees/13.png', style='max-width: 30%;'> </img> <p><strong>你是否选择发射武器？</strong></p>","0",""
"","","","","","html-keyboard-response","32","107765","0.0-4.0-0.14","93","1","2022-11-13 09:55:51","49aca292d257f58668169b9fbab864ae","222.20.193.190","Mozilla/5.0 (Windows NT 10.0; Win64; x64) AppleWebKit/537.36 (KHTML, like Gecko) Chrome/107.0.0.0 Safari/537.36 Edg/107.0.1418.35","WebKit","Edge","107.0.1418.35","Windows","10.0","null","<div style=""font-size:60px;"">+</div>","null",""
"","","","","","html-button-response","33","111794","0.0-4.0-1.14","93","1","2022-11-13 09:55:51","49aca292d257f58668169b9fbab864ae","222.20.193.190","Mozilla/5.0 (Windows NT 10.0; Win64; x64) AppleWebKit/537.36 (KHTML, like Gecko) Chrome/107.0.0.0 Safari/537.36 Edg/107.0.1418.35","WebKit","Edge","107.0.1418.35","Windows","10.0","4027","<p>作为军队的指挥官，你可以选择发射导弹杀死 <strong>9名</strong> 敌国士兵，但会误杀附近的 <strong>1名</strong> 敌国平民。</p> <p>平民照片如下图所示。</p> <p></p> <img src='stimuli/faces/PFM6.jpg', style='max-width: 30%;'> </img> <p><strong>你是否选择发射武器？</strong></p>","1",""
"","","","","","html-keyboard-response","34","112796","0.0-4.0-0.15","93","1","2022-11-13 09:55:51","49aca292d257f58668169b9fbab864ae","222.20.193.190","Mozilla/5.0 (Windows NT 10.0; Win64; x64) AppleWebKit/537.36 (KHTML, like Gecko) Chrome/107.0.0.0 Safari/537.36 Edg/107.0.1418.35","WebKit","Edge","107.0.1418.35","Windows","10.0","null","<div style=""font-size:60px;"">+</div>","null",""
"","","","","","html-button-response","35","115714","0.0-4.0-1.15","93","1","2022-11-13 09:55:51","49aca292d257f58668169b9fbab864ae","222.20.193.190","Mozilla/5.0 (Windows NT 10.0; Win64; x64) AppleWebKit/537.36 (KHTML, like Gecko) Chrome/107.0.0.0 Safari/537.36 Edg/107.0.1418.35","WebKit","Edge","107.0.1418.35","Windows","10.0","2914","<p>作为军队的指挥官，你可以选择发射导弹杀死 <strong>7名</strong> 敌国士兵，但会炸毁附近的 <strong>1棵</strong> 敌国树木。</p> <p>树木的照片如下图所示。</p> <p></p> <img src='stimuli/trees/8.png', style='max-width: 30%;'> </img> <p><strong>你是否选择发射武器？</strong></p>","0",""
"","","","","","html-keyboard-response","36","116719","0.0-4.0-0.16","93","1","2022-11-13 09:55:51","49aca292d257f58668169b9fbab864ae","222.20.193.190","Mozilla/5.0 (Windows NT 10.0; Win64; x64) AppleWebKit/537.36 (KHTML, like Gecko) Chrome/107.0.0.0 Safari/537.36 Edg/107.0.1418.35","WebKit","Edge","107.0.1418.35","Windows","10.0","null","<div style=""font-size:60px;"">+</div>","null",""
"","","","","","html-button-response","37","118018","0.0-4.0-1.16","93","1","2022-11-13 09:55:51","49aca292d257f58668169b9fbab864ae","222.20.193.190","Mozilla/5.0 (Windows NT 10.0; Win64; x64) AppleWebKit/537.36 (KHTML, like Gecko) Chrome/107.0.0.0 Safari/537.36 Edg/107.0.1418.35","WebKit","Edge","107.0.1418.35","Windows","10.0","1293","<p>作为军队的指挥官，你可以选择发射导弹杀死 <strong>6名</strong> 敌国士兵，但会炸毁附近的 <strong>1棵</strong> 敌国树木。</p> <p>树木的照片如下图所示。</p> <p></p> <img src='stimuli/trees/14.png', style='max-width: 30%;'> </img> <p><strong>你是否选择发射武器？</strong></p>","0",""
"","","","","","html-keyboard-response","38","119024","0.0-4.0-0.17","93","1","2022-11-13 09:55:51","49aca292d257f58668169b9fbab864ae","222.20.193.190","Mozilla/5.0 (Windows NT 10.0; Win64; x64) AppleWebKit/537.36 (KHTML, like Gecko) Chrome/107.0.0.0 Safari/537.36 Edg/107.0.1418.35","WebKit","Edge","107.0.1418.35","Windows","10.0","null","<div style=""font-size:60px;"">+</div>","null",""
"","","","","","html-button-response","39","122002","0.0-4.0-1.17","93","1","2022-11-13 09:55:51","49aca292d257f58668169b9fbab864ae","222.20.193.190","Mozilla/5.0 (Windows NT 10.0; Win64; x64) AppleWebKit/537.36 (KHTML, like Gecko) Chrome/107.0.0.0 Safari/537.36 Edg/107.0.1418.35","WebKit","Edge","107.0.1418.35","Windows","10.0","2974","<p>作为军队的指挥官，你可以选择发射导弹杀死 <strong>1名</strong> 敌国士兵，但会误杀附近的 <strong>1名</strong> 敌国平民。</p> <p>平民照片如下图所示。</p> <p></p> <img src='stimuli/faces/PFM3.jpg', style='max-width: 30%;'> </img> <p><strong>你是否选择发射武器？</strong></p>","1",""
"","","","","","html-keyboard-response","40","123006","0.0-4.0-0.18","93","1","2022-11-13 09:55:51","49aca292d257f58668169b9fbab864ae","222.20.193.190","Mozilla/5.0 (Windows NT 10.0; Win64; x64) AppleWebKit/537.36 (KHTML, like Gecko) Chrome/107.0.0.0 Safari/537.36 Edg/107.0.1418.35","WebKit","Edge","107.0.1418.35","Windows","10.0","null","<div style=""font-size:60px;"">+</div>","null",""
"","","","","","html-button-response","41","125044","0.0-4.0-1.18","93","1","2022-11-13 09:55:51","49aca292d257f58668169b9fbab864ae","222.20.193.190","Mozilla/5.0 (Windows NT 10.0; Win64; x64) AppleWebKit/537.36 (KHTML, like Gecko) Chrome/107.0.0.0 Safari/537.36 Edg/107.0.1418.35","WebKit","Edge","107.0.1418.35","Windows","10.0","2033","<p>作为军队的指挥官，你可以选择发射导弹杀死 <strong>2名</strong> 敌国士兵，但会炸毁附近的 <strong>1棵</strong> 敌国树木。</p> <p>树木的照片如下图所示。</p> <p></p> <img src='stimuli/trees/6.png', style='max-width: 30%;'> </img> <p><strong>你是否选择发射武器？</strong></p>","0",""
"","","","","","html-keyboard-response","42","126059","0.0-4.0-0.19","93","1","2022-11-13 09:55:51","49aca292d257f58668169b9fbab864ae","222.20.193.190","Mozilla/5.0 (Windows NT 10.0; Win64; x64) AppleWebKit/537.36 (KHTML, like Gecko) Chrome/107.0.0.0 Safari/537.36 Edg/107.0.1418.35","WebKit","Edge","107.0.1418.35","Windows","10.0","null","<div style=""font-size:60px;"">+</div>","null",""
"","","","","","html-button-response","43","127906","0.0-4.0-1.19","93","1","2022-11-13 09:55:51","49aca292d257f58668169b9fbab864ae","222.20.193.190","Mozilla/5.0 (Windows NT 10.0; Win64; x64) AppleWebKit/537.36 (KHTML, like Gecko) Chrome/107.0.0.0 Safari/537.36 Edg/107.0.1418.35","WebKit","Edge","107.0.1418.35","Windows","10.0","1843","<p>作为军队的指挥官，你可以选择发射导弹杀死 <strong>10名</strong> 敌国士兵，但会误杀附近的 <strong>1名</strong> 敌国平民。</p> <p>平民照片如下图所示。</p> <p></p> <img src='stimuli/faces/PFM8.jpg', style='max-width: 30%;'> </img> <p><strong>你是否选择发射武器？</strong></p>","1",""
"","","","","","html-keyboard-response","44","128932","0.0-4.0-0.20","93","1","2022-11-13 09:55:51","49aca292d257f58668169b9fbab864ae","222.20.193.190","Mozilla/5.0 (Windows NT 10.0; Win64; x64) AppleWebKit/537.36 (KHTML, like Gecko) Chrome/107.0.0.0 Safari/537.36 Edg/107.0.1418.35","WebKit","Edge","107.0.1418.35","Windows","10.0","null","<div style=""font-size:60px;"">+</div>","null",""
"","","","","","html-button-response","45","130231","0.0-4.0-1.20","93","1","2022-11-13 09:55:51","49aca292d257f58668169b9fbab864ae","222.20.193.190","Mozilla/5.0 (Windows NT 10.0; Win64; x64) AppleWebKit/537.36 (KHTML, like Gecko) Chrome/107.0.0.0 Safari/537.36 Edg/107.0.1418.35","WebKit","Edge","107.0.1418.35","Windows","10.0","1295","<p>作为军队的指挥官，你可以选择发射导弹杀死 <strong>10名</strong> 敌国士兵，但会误杀附近的 <strong>1名</strong> 敌国平民。</p> <p>平民照片如下图所示。</p> <p></p> <img src='stimuli/faces/PFM3.jpg', style='max-width: 30%;'> </img> <p><strong>你是否选择发射武器？</strong></p>","1",""
"","","","","","html-keyboard-response","46","131252","0.0-4.0-0.21","93","1","2022-11-13 09:55:51","49aca292d257f58668169b9fbab864ae","222.20.193.190","Mozilla/5.0 (Windows NT 10.0; Win64; x64) AppleWebKit/537.36 (KHTML, like Gecko) Chrome/107.0.0.0 Safari/537.36 Edg/107.0.1418.35","WebKit","Edge","107.0.1418.35","Windows","10.0","null","<div style=""font-size:60px;"">+</div>","null",""
"","","","","","html-button-response","47","132294","0.0-4.0-1.21","93","1","2022-11-13 09:55:51","49aca292d257f58668169b9fbab864ae","222.20.193.190","Mozilla/5.0 (Windows NT 10.0; Win64; x64) AppleWebKit/537.36 (KHTML, like Gecko) Chrome/107.0.0.0 Safari/537.36 Edg/107.0.1418.35","WebKit","Edge","107.0.1418.35","Windows","10.0","1039","<p>作为军队的指挥官，你可以选择发射导弹杀死 <strong>8名</strong> 敌国士兵，但会误杀附近的 <strong>1名</strong> 敌国平民。</p> <p>平民照片如下图所示。</p> <p></p> <img src='stimuli/faces/PFM7.jpg', style='max-width: 30%;'> </img> <p><strong>你是否选择发射武器？</strong></p>","1",""
"","","","","","html-keyboard-response","48","133310","0.0-4.0-0.22","93","1","2022-11-13 09:55:51","49aca292d257f58668169b9fbab864ae","222.20.193.190","Mozilla/5.0 (Windows NT 10.0; Win64; x64) AppleWebKit/537.36 (KHTML, like Gecko) Chrome/107.0.0.0 Safari/537.36 Edg/107.0.1418.35","WebKit","Edge","107.0.1418.35","Windows","10.0","null","<div style=""font-size:60px;"">+</div>","null",""
"","","","","","html-button-response","49","135280","0.0-4.0-1.22","93","1","2022-11-13 09:55:51","49aca292d257f58668169b9fbab864ae","222.20.193.190","Mozilla/5.0 (Windows NT 10.0; Win64; x64) AppleWebKit/537.36 (KHTML, like Gecko) Chrome/107.0.0.0 Safari/537.36 Edg/107.0.1418.35","WebKit","Edge","107.0.1418.35","Windows","10.0","1966","<p>作为军队的指挥官，你可以选择发射导弹杀死 <strong>3名</strong> 敌国士兵，但会炸毁附近的 <strong>1棵</strong> 敌国树木。</p> <p>树木的照片如下图所示。</p> <p></p> <img src='stimuli/trees/15.png', style='max-width: 30%;'> </img> <p><strong>你是否选择发射武器？</strong></p>","0",""
"","","","","","html-keyboard-response","50","136288","0.0-4.0-0.23","93","1","2022-11-13 09:55:51","49aca292d257f58668169b9fbab864ae","222.20.193.190","Mozilla/5.0 (Windows NT 10.0; Win64; x64) AppleWebKit/537.36 (KHTML, like Gecko) Chrome/107.0.0.0 Safari/537.36 Edg/107.0.1418.35","WebKit","Edge","107.0.1418.35","Windows","10.0","null","<div style=""font-size:60px;"">+</div>","null",""
"","","","","","html-button-response","51","138182","0.0-4.0-1.23","93","1","2022-11-13 09:55:51","49aca292d257f58668169b9fbab864ae","222.20.193.190","Mozilla/5.0 (Windows NT 10.0; Win64; x64) AppleWebKit/537.36 (KHTML, like Gecko) Chrome/107.0.0.0 Safari/537.36 Edg/107.0.1418.35","WebKit","Edge","107.0.1418.35","Windows","10.0","1890","<p>作为军队的指挥官，你可以选择发射导弹杀死 <strong>5名</strong> 敌国士兵，但会炸毁附近的 <strong>1棵</strong> 敌国树木。</p> <p>树木的照片如下图所示。</p> <p></p> <img src='stimuli/trees/1.png', style='max-width: 30%;'> </img> <p><strong>你是否选择发射武器？</strong></p>","0",""
"","","","","","html-keyboard-response","52","139195","0.0-4.0-0.24","93","1","2022-11-13 09:55:51","49aca292d257f58668169b9fbab864ae","222.20.193.190","Mozilla/5.0 (Windows NT 10.0; Win64; x64) AppleWebKit/537.36 (KHTML, like Gecko) Chrome/107.0.0.0 Safari/537.36 Edg/107.0.1418.35","WebKit","Edge","107.0.1418.35","Windows","10.0","null","<div style=""font-size:60px;"">+</div>","null",""
"","","","","","html-button-response","53","142160","0.0-4.0-1.24","93","1","2022-11-13 09:55:51","49aca292d257f58668169b9fbab864ae","222.20.193.190","Mozilla/5.0 (Windows NT 10.0; Win64; x64) AppleWebKit/537.36 (KHTML, like Gecko) Chrome/107.0.0.0 Safari/537.36 Edg/107.0.1418.35","WebKit","Edge","107.0.1418.35","Windows","10.0","2960","<p>作为军队的指挥官，你可以选择发射导弹杀死 <strong>2名</strong> 敌国士兵，但会误杀附近的 <strong>1名</strong> 敌国平民。</p> <p>平民照片如下图所示。</p> <p></p> <img src='stimuli/faces/PFM8.jpg', style='max-width: 30%;'> </img> <p><strong>你是否选择发射武器？</strong></p>","1",""
"","","","","","html-keyboard-response","54","143175","0.0-4.0-0.25","93","1","2022-11-13 09:55:51","49aca292d257f58668169b9fbab864ae","222.20.193.190","Mozilla/5.0 (Windows NT 10.0; Win64; x64) AppleWebKit/537.36 (KHTML, like Gecko) Chrome/107.0.0.0 Safari/537.36 Edg/107.0.1418.35","WebKit","Edge","107.0.1418.35","Windows","10.0","null","<div style=""font-size:60px;"">+</div>","null",""
"","","","","","html-button-response","55","145556","0.0-4.0-1.25","93","1","2022-11-13 09:55:51","49aca292d257f58668169b9fbab864ae","222.20.193.190","Mozilla/5.0 (Windows NT 10.0; Win64; x64) AppleWebKit/537.36 (KHTML, like Gecko) Chrome/107.0.0.0 Safari/537.36 Edg/107.0.1418.35","WebKit","Edge","107.0.1418.35","Windows","10.0","2375","<p>作为军队的指挥官，你可以选择发射导弹杀死 <strong>4名</strong> 敌国士兵，但会误杀附近的 <strong>1名</strong> 敌国平民。</p> <p>平民照片如下图所示。</p> <p></p> <img src='stimuli/faces/PFF2.jpg', style='max-width: 30%;'> </img> <p><strong>你是否选择发射武器？</strong></p>","1",""
"","","","","","html-keyboard-response","56","146573","0.0-4.0-0.26","93","1","2022-11-13 09:55:51","49aca292d257f58668169b9fbab864ae","222.20.193.190","Mozilla/5.0 (Windows NT 10.0; Win64; x64) AppleWebKit/537.36 (KHTML, like Gecko) Chrome/107.0.0.0 Safari/537.36 Edg/107.0.1418.35","WebKit","Edge","107.0.1418.35","Windows","10.0","null","<div style=""font-size:60px;"">+</div>","null",""
"","","","","","html-button-response","57","154514","0.0-4.0-1.26","93","1","2022-11-13 09:55:51","49aca292d257f58668169b9fbab864ae","222.20.193.190","Mozilla/5.0 (Windows NT 10.0; Win64; x64) AppleWebKit/537.36 (KHTML, like Gecko) Chrome/107.0.0.0 Safari/537.36 Edg/107.0.1418.35","WebKit","Edge","107.0.1418.35","Windows","10.0","7936","<p>作为军队的指挥官，你可以选择发射导弹杀死 <strong>1名</strong> 敌国士兵，但会炸毁附近的 <strong>1棵</strong> 敌国树木。</p> <p>树木的照片如下图所示。</p> <p></p> <img src='stimuli/trees/7.png', style='max-width: 30%;'> </img> <p><strong>你是否选择发射武器？</strong></p>","0",""
"","","","","","html-keyboard-response","58","155539","0.0-4.0-0.27","93","1","2022-11-13 09:55:51","49aca292d257f58668169b9fbab864ae","222.20.193.190","Mozilla/5.0 (Windows NT 10.0; Win64; x64) AppleWebKit/537.36 (KHTML, like Gecko) Chrome/107.0.0.0 Safari/537.36 Edg/107.0.1418.35","WebKit","Edge","107.0.1418.35","Windows","10.0","null","<div style=""font-size:60px;"">+</div>","null",""
"","","","","","html-button-response","59","156862","0.0-4.0-1.27","93","1","2022-11-13 09:55:51","49aca292d257f58668169b9fbab864ae","222.20.193.190","Mozilla/5.0 (Windows NT 10.0; Win64; x64) AppleWebKit/537.36 (KHTML, like Gecko) Chrome/107.0.0.0 Safari/537.36 Edg/107.0.1418.35","WebKit","Edge","107.0.1418.35","Windows","10.0","1318","<p>作为军队的指挥官，你可以选择发射导弹杀死 <strong>5名</strong> 敌国士兵，但会炸毁附近的 <strong>1棵</strong> 敌国树木。</p> <p>树木的照片如下图所示。</p> <p></p> <img src='stimuli/trees/5.png', style='max-width: 30%;'> </img> <p><strong>你是否选择发射武器？</strong></p>","0",""
"","","","","","html-keyboard-response","60","157879","0.0-4.0-0.28","93","1","2022-11-13 09:55:51","49aca292d257f58668169b9fbab864ae","222.20.193.190","Mozilla/5.0 (Windows NT 10.0; Win64; x64) AppleWebKit/537.36 (KHTML, like Gecko) Chrome/107.0.0.0 Safari/537.36 Edg/107.0.1418.35","WebKit","Edge","107.0.1418.35","Windows","10.0","null","<div style=""font-size:60px;"">+</div>","null",""
"","","","","","html-button-response","61","161768","0.0-4.0-1.28","93","1","2022-11-13 09:55:51","49aca292d257f58668169b9fbab864ae","222.20.193.190","Mozilla/5.0 (Windows NT 10.0; Win64; x64) AppleWebKit/537.36 (KHTML, like Gecko) Chrome/107.0.0.0 Safari/537.36 Edg/107.0.1418.35","WebKit","Edge","107.0.1418.35","Windows","10.0","3885","<p>作为军队的指挥官，你可以选择发射导弹杀死 <strong>5名</strong> 敌国士兵，但会炸毁附近的 <strong>1棵</strong> 敌国树木。</p> <p>树木的照片如下图所示。</p> <p></p> <img src='stimuli/trees/9.png', style='max-width: 30%;'> </img> <p><strong>你是否选择发射武器？</strong></p>","0",""
"","","","","","html-keyboard-response","62","162786","0.0-4.0-0.29","93","1","2022-11-13 09:55:51","49aca292d257f58668169b9fbab864ae","222.20.193.190","Mozilla/5.0 (Windows NT 10.0; Win64; x64) AppleWebKit/537.36 (KHTML, like Gecko) Chrome/107.0.0.0 Safari/537.36 Edg/107.0.1418.35","WebKit","Edge","107.0.1418.35","Windows","10.0","null","<div style=""font-size:60px;"">+</div>","null",""
"","","","","","html-button-response","63","166304","0.0-4.0-1.29","93","1","2022-11-13 09:55:51","49aca292d257f58668169b9fbab864ae","222.20.193.190","Mozilla/5.0 (Windows NT 10.0; Win64; x64) AppleWebKit/537.36 (KHTML, like Gecko) Chrome/107.0.0.0 Safari/537.36 Edg/107.0.1418.35","WebKit","Edge","107.0.1418.35","Windows","10.0","3513","<p>作为军队的指挥官，你可以选择发射导弹杀死 <strong>3名</strong> 敌国士兵，但会误杀附近的 <strong>1名</strong> 敌国平民。</p> <p>平民照片如下图所示。</p> <p></p> <img src='stimuli/faces/PFF3.jpg', style='max-width: 30%;'> </img> <p><strong>你是否选择发射武器？</strong></p>","1",""
"","","","","","html-keyboard-response","64","167309","0.0-4.0-0.30","93","1","2022-11-13 09:55:51","49aca292d257f58668169b9fbab864ae","222.20.193.190","Mozilla/5.0 (Windows NT 10.0; Win64; x64) AppleWebKit/537.36 (KHTML, like Gecko) Chrome/107.0.0.0 Safari/537.36 Edg/107.0.1418.35","WebKit","Edge","107.0.1418.35","Windows","10.0","null","<div style=""font-size:60px;"">+</div>","null",""
"","","","","","html-button-response","65","169150","0.0-4.0-1.30","93","1","2022-11-13 09:55:51","49aca292d257f58668169b9fbab864ae","222.20.193.190","Mozilla/5.0 (Windows NT 10.0; Win64; x64) AppleWebKit/537.36 (KHTML, like Gecko) Chrome/107.0.0.0 Safari/537.36 Edg/107.0.1418.35","WebKit","Edge","107.0.1418.35","Windows","10.0","1838","<p>作为军队的指挥官，你可以选择发射导弹杀死 <strong>9名</strong> 敌国士兵，但会误杀附近的 <strong>1名</strong> 敌国平民。</p> <p>平民照片如下图所示。</p> <p></p> <img src='stimuli/faces/PFM2.jpg', style='max-width: 30%;'> </img> <p><strong>你是否选择发射武器？</strong></p>","1",""
"","","","","","html-keyboard-response","66","170168","0.0-4.0-0.31","93","1","2022-11-13 09:55:51","49aca292d257f58668169b9fbab864ae","222.20.193.190","Mozilla/5.0 (Windows NT 10.0; Win64; x64) AppleWebKit/537.36 (KHTML, like Gecko) Chrome/107.0.0.0 Safari/537.36 Edg/107.0.1418.35","WebKit","Edge","107.0.1418.35","Windows","10.0","null","<div style=""font-size:60px;"">+</div>","null",""
"","","","","","html-button-response","67","173314","0.0-4.0-1.31","93","1","2022-11-13 09:55:51","49aca292d257f58668169b9fbab864ae","222.20.193.190","Mozilla/5.0 (Windows NT 10.0; Win64; x64) AppleWebKit/537.36 (KHTML, like Gecko) Chrome/107.0.0.0 Safari/537.36 Edg/107.0.1418.35","WebKit","Edge","107.0.1418.35","Windows","10.0","3141","<p>作为军队的指挥官，你可以选择发射导弹杀死 <strong>8名</strong> 敌国士兵，但会炸毁附近的 <strong>1棵</strong> 敌国树木。</p> <p>树木的照片如下图所示。</p> <p></p> <img src='stimuli/trees/10.png', style='max-width: 30%;'> </img> <p><strong>你是否选择发射武器？</strong></p>","0",""
"","","","","","html-keyboard-response","68","174325","0.0-4.0-0.32","93","1","2022-11-13 09:55:51","49aca292d257f58668169b9fbab864ae","222.20.193.190","Mozilla/5.0 (Windows NT 10.0; Win64; x64) AppleWebKit/537.36 (KHTML, like Gecko) Chrome/107.0.0.0 Safari/537.36 Edg/107.0.1418.35","WebKit","Edge","107.0.1418.35","Windows","10.0","null","<div style=""font-size:60px;"">+</div>","null",""
"","","","","","html-button-response","69","175848","0.0-4.0-1.32","93","1","2022-11-13 09:55:51","49aca292d257f58668169b9fbab864ae","222.20.193.190","Mozilla/5.0 (Windows NT 10.0; Win64; x64) AppleWebKit/537.36 (KHTML, like Gecko) Chrome/107.0.0.0 Safari/537.36 Edg/107.0.1418.35","WebKit","Edge","107.0.1418.35","Windows","10.0","1518","<p>作为军队的指挥官，你可以选择发射导弹杀死 <strong>1名</strong> 敌国士兵，但会误杀附近的 <strong>1名</strong> 敌国平民。</p> <p>平民照片如下图所示。</p> <p></p> <img src='stimuli/faces/PFF7.jpg', style='max-width: 30%;'> </img> <p><strong>你是否选择发射武器？</strong></p>","1",""
"","","","","","html-keyboard-response","70","176865","0.0-4.0-0.33","93","1","2022-11-13 09:55:51","49aca292d257f58668169b9fbab864ae","222.20.193.190","Mozilla/5.0 (Windows NT 10.0; Win64; x64) AppleWebKit/537.36 (KHTML, like Gecko) Chrome/107.0.0.0 Safari/537.36 Edg/107.0.1418.35","WebKit","Edge","107.0.1418.35","Windows","10.0","null","<div style=""font-size:60px;"">+</div>","null",""
"","","","","","html-button-response","71","177966","0.0-4.0-1.33","93","1","2022-11-13 09:55:51","49aca292d257f58668169b9fbab864ae","222.20.193.190","Mozilla/5.0 (Windows NT 10.0; Win64; x64) AppleWebKit/537.36 (KHTML, like Gecko) Chrome/107.0.0.0 Safari/537.36 Edg/107.0.1418.35","WebKit","Edge","107.0.1418.35","Windows","10.0","1096","<p>作为军队的指挥官，你可以选择发射导弹杀死 <strong>3名</strong> 敌国士兵，但会误杀附近的 <strong>1名</strong> 敌国平民。</p> <p>平民照片如下图所示。</p> <p></p> <img src='stimuli/faces/PFM2.jpg', style='max-width: 30%;'> </img> <p><strong>你是否选择发射武器？</strong></p>","1",""
"","","","","","html-keyboard-response","72","178981","0.0-4.0-0.34","93","1","2022-11-13 09:55:51","49aca292d257f58668169b9fbab864ae","222.20.193.190","Mozilla/5.0 (Windows NT 10.0; Win64; x64) AppleWebKit/537.36 (KHTML, like Gecko) Chrome/107.0.0.0 Safari/537.36 Edg/107.0.1418.35","WebKit","Edge","107.0.1418.35","Windows","10.0","null","<div style=""font-size:60px;"">+</div>","null",""
"","","","","","html-button-response","73","183332","0.0-4.0-1.34","93","1","2022-11-13 09:55:51","49aca292d257f58668169b9fbab864ae","222.20.193.190","Mozilla/5.0 (Windows NT 10.0; Win64; x64) AppleWebKit/537.36 (KHTML, like Gecko) Chrome/107.0.0.0 Safari/537.36 Edg/107.0.1418.35","WebKit","Edge","107.0.1418.35","Windows","10.0","4345","<p>作为军队的指挥官，你可以选择发射导弹杀死 <strong>5名</strong> 敌国士兵，但会炸毁附近的 <strong>1棵</strong> 敌国树木。</p> <p>树木的照片如下图所示。</p> <p></p> <img src='stimuli/trees/16.png', style='max-width: 30%;'> </img> <p><strong>你是否选择发射武器？</strong></p>","0",""
"","","","","","html-keyboard-response","74","184341","0.0-4.0-0.35","93","1","2022-11-13 09:55:51","49aca292d257f58668169b9fbab864ae","222.20.193.190","Mozilla/5.0 (Windows NT 10.0; Win64; x64) AppleWebKit/537.36 (KHTML, like Gecko) Chrome/107.0.0.0 Safari/537.36 Edg/107.0.1418.35","WebKit","Edge","107.0.1418.35","Windows","10.0","null","<div style=""font-size:60px;"">+</div>","null",""
"","","","","","html-button-response","75","185785","0.0-4.0-1.35","93","1","2022-11-13 09:55:51","49aca292d257f58668169b9fbab864ae","222.20.193.190","Mozilla/5.0 (Windows NT 10.0; Win64; x64) AppleWebKit/537.36 (KHTML, like Gecko) Chrome/107.0.0.0 Safari/537.36 Edg/107.0.1418.35","WebKit","Edge","107.0.1418.35","Windows","10.0","1437","<p>作为军队的指挥官，你可以选择发射导弹杀死 <strong>10名</strong> 敌国士兵，但会炸毁附近的 <strong>1棵</strong> 敌国树木。</p> <p>树木的照片如下图所示。</p> <p></p> <img src='stimuli/trees/16.png', style='max-width: 30%;'> </img> <p><strong>你是否选择发射武器？</strong></p>","0",""
"","","","","","html-keyboard-response","76","186805","0.0-4.0-0.36","93","1","2022-11-13 09:55:51","49aca292d257f58668169b9fbab864ae","222.20.193.190","Mozilla/5.0 (Windows NT 10.0; Win64; x64) AppleWebKit/537.36 (KHTML, like Gecko) Chrome/107.0.0.0 Safari/537.36 Edg/107.0.1418.35","WebKit","Edge","107.0.1418.35","Windows","10.0","null","<div style=""font-size:60px;"">+</div>","null",""
"","","","","","html-button-response","77","193166","0.0-4.0-1.36","93","1","2022-11-13 09:55:51","49aca292d257f58668169b9fbab864ae","222.20.193.190","Mozilla/5.0 (Windows NT 10.0; Win64; x64) AppleWebKit/537.36 (KHTML, like Gecko) Chrome/107.0.0.0 Safari/537.36 Edg/107.0.1418.35","WebKit","Edge","107.0.1418.35","Windows","10.0","6356","<p>作为军队的指挥官，你可以选择发射导弹杀死 <strong>3名</strong> 敌国士兵，但会误杀附近的 <strong>1名</strong> 敌国平民。</p> <p>平民照片如下图所示。</p> <p></p> <img src='stimuli/faces/PFF5.jpg', style='max-width: 30%;'> </img> <p><strong>你是否选择发射武器？</strong></p>","1",""
"","","","","","html-keyboard-response","78","194183","0.0-4.0-0.37","93","1","2022-11-13 09:55:51","49aca292d257f58668169b9fbab864ae","222.20.193.190","Mozilla/5.0 (Windows NT 10.0; Win64; x64) AppleWebKit/537.36 (KHTML, like Gecko) Chrome/107.0.0.0 Safari/537.36 Edg/107.0.1418.35","WebKit","Edge","107.0.1418.35","Windows","10.0","null","<div style=""font-size:60px;"">+</div>","null",""
"","","","","","html-button-response","79","197585","0.0-4.0-1.37","93","1","2022-11-13 09:55:51","49aca292d257f58668169b9fbab864ae","222.20.193.190","Mozilla/5.0 (Windows NT 10.0; Win64; x64) AppleWebKit/537.36 (KHTML, like Gecko) Chrome/107.0.0.0 Safari/537.36 Edg/107.0.1418.35","WebKit","Edge","107.0.1418.35","Windows","10.0","3397","<p>作为军队的指挥官，你可以选择发射导弹杀死 <strong>7名</strong> 敌国士兵，但会误杀附近的 <strong>1名</strong> 敌国平民。</p> <p>平民照片如下图所示。</p> <p></p> <img src='stimuli/faces/PFF7.jpg', style='max-width: 30%;'> </img> <p><strong>你是否选择发射武器？</strong></p>","1",""
"","","","","","html-keyboard-response","80","198602","0.0-4.0-0.38","93","1","2022-11-13 09:55:51","49aca292d257f58668169b9fbab864ae","222.20.193.190","Mozilla/5.0 (Windows NT 10.0; Win64; x64) AppleWebKit/537.36 (KHTML, like Gecko) Chrome/107.0.0.0 Safari/537.36 Edg/107.0.1418.35","WebKit","Edge","107.0.1418.35","Windows","10.0","null","<div style=""font-size:60px;"">+</div>","null",""
"","","","","","html-button-response","81","202641","0.0-4.0-1.38","93","1","2022-11-13 09:55:51","49aca292d257f58668169b9fbab864ae","222.20.193.190","Mozilla/5.0 (Windows NT 10.0; Win64; x64) AppleWebKit/537.36 (KHTML, like Gecko) Chrome/107.0.0.0 Safari/537.36 Edg/107.0.1418.35","WebKit","Edge","107.0.1418.35","Windows","10.0","4033","<p>作为军队的指挥官，你可以选择发射导弹杀死 <strong>3名</strong> 敌国士兵，但会炸毁附近的 <strong>1棵</strong> 敌国树木。</p> <p>树木的照片如下图所示。</p> <p></p> <img src='stimuli/trees/8.png', style='max-width: 30%;'> </img> <p><strong>你是否选择发射武器？</strong></p>","0",""
"","","","","","html-keyboard-response","82","203657","0.0-4.0-0.39","93","1","2022-11-13 09:55:51","49aca292d257f58668169b9fbab864ae","222.20.193.190","Mozilla/5.0 (Windows NT 10.0; Win64; x64) AppleWebKit/537.36 (KHTML, like Gecko) Chrome/107.0.0.0 Safari/537.36 Edg/107.0.1418.35","WebKit","Edge","107.0.1418.35","Windows","10.0","null","<div style=""font-size:60px;"">+</div>","null",""
"","","","","","html-button-response","83","206839","0.0-4.0-1.39","93","1","2022-11-13 09:55:51","49aca292d257f58668169b9fbab864ae","222.20.193.190","Mozilla/5.0 (Windows NT 10.0; Win64; x64) AppleWebKit/537.36 (KHTML, like Gecko) Chrome/107.0.0.0 Safari/537.36 Edg/107.0.1418.35","WebKit","Edge","107.0.1418.35","Windows","10.0","3176","<p>作为军队的指挥官，你可以选择发射导弹杀死 <strong>7名</strong> 敌国士兵，但会炸毁附近的 <strong>1棵</strong> 敌国树木。</p> <p>树木的照片如下图所示。</p> <p></p> <img src='stimuli/trees/11.png', style='max-width: 30%;'> </img> <p><strong>你是否选择发射武器？</strong></p>","0",""
"","","","","","html-keyboard-response","84","207850","0.0-4.0-0.40","93","1","2022-11-13 09:55:51","49aca292d257f58668169b9fbab864ae","222.20.193.190","Mozilla/5.0 (Windows NT 10.0; Win64; x64) AppleWebKit/537.36 (KHTML, like Gecko) Chrome/107.0.0.0 Safari/537.36 Edg/107.0.1418.35","WebKit","Edge","107.0.1418.35","Windows","10.0","null","<div style=""font-size:60px;"">+</div>","null",""
"","","","","","html-button-response","85","209309","0.0-4.0-1.40","93","1","2022-11-13 09:55:51","49aca292d257f58668169b9fbab864ae","222.20.193.190","Mozilla/5.0 (Windows NT 10.0; Win64; x64) AppleWebKit/537.36 (KHTML, like Gecko) Chrome/107.0.0.0 Safari/537.36 Edg/107.0.1418.35","WebKit","Edge","107.0.1418.35","Windows","10.0","1452","<p>作为军队的指挥官，你可以选择发射导弹杀死 <strong>2名</strong> 敌国士兵，但会炸毁附近的 <strong>1棵</strong> 敌国树木。</p> <p>树木的照片如下图所示。</p> <p></p> <img src='stimuli/trees/14.png', style='max-width: 30%;'> </img> <p><strong>你是否选择发射武器？</strong></p>","0",""
"","","","","","html-keyboard-response","86","210329","0.0-4.0-0.41","93","1","2022-11-13 09:55:51","49aca292d257f58668169b9fbab864ae","222.20.193.190","Mozilla/5.0 (Windows NT 10.0; Win64; x64) AppleWebKit/537.36 (KHTML, like Gecko) Chrome/107.0.0.0 Safari/537.36 Edg/107.0.1418.35","WebKit","Edge","107.0.1418.35","Windows","10.0","null","<div style=""font-size:60px;"">+</div>","null",""
"","","","","","html-button-response","87","212125","0.0-4.0-1.41","93","1","2022-11-13 09:55:51","49aca292d257f58668169b9fbab864ae","222.20.193.190","Mozilla/5.0 (Windows NT 10.0; Win64; x64) AppleWebKit/537.36 (KHTML, like Gecko) Chrome/107.0.0.0 Safari/537.36 Edg/107.0.1418.35","WebKit","Edge","107.0.1418.35","Windows","10.0","1791","<p>作为军队的指挥官，你可以选择发射导弹杀死 <strong>10名</strong> 敌国士兵，但会炸毁附近的 <strong>1棵</strong> 敌国树木。</p> <p>树木的照片如下图所示。</p> <p></p> <img src='stimuli/trees/4.png', style='max-width: 30%;'> </img> <p><strong>你是否选择发射武器？</strong></p>","0",""
"","","","","","html-keyboard-response","88","213145","0.0-4.0-0.42","93","1","2022-11-13 09:55:51","49aca292d257f58668169b9fbab864ae","222.20.193.190","Mozilla/5.0 (Windows NT 10.0; Win64; x64) AppleWebKit/537.36 (KHTML, like Gecko) Chrome/107.0.0.0 Safari/537.36 Edg/107.0.1418.35","WebKit","Edge","107.0.1418.35","Windows","10.0","null","<div style=""font-size:60px;"">+</div>","null",""
"","","","","","html-button-response","89","214248","0.0-4.0-1.42","93","1","2022-11-13 09:55:51","49aca292d257f58668169b9fbab864ae","222.20.193.190","Mozilla/5.0 (Windows NT 10.0; Win64; x64) AppleWebKit/537.36 (KHTML, like Gecko) Chrome/107.0.0.0 Safari/537.36 Edg/107.0.1418.35","WebKit","Edge","107.0.1418.35","Windows","10.0","1098","<p>作为军队的指挥官，你可以选择发射导弹杀死 <strong>8名</strong> 敌国士兵，但会误杀附近的 <strong>1名</strong> 敌国平民。</p> <p>平民照片如下图所示。</p> <p></p> <img src='stimuli/faces/PFM1.jpg', style='max-width: 30%;'> </img> <p><strong>你是否选择发射武器？</strong></p>","1",""
"","","","","","html-keyboard-response","90","215252","0.0-4.0-0.43","93","1","2022-11-13 09:55:51","49aca292d257f58668169b9fbab864ae","222.20.193.190","Mozilla/5.0 (Windows NT 10.0; Win64; x64) AppleWebKit/537.36 (KHTML, like Gecko) Chrome/107.0.0.0 Safari/537.36 Edg/107.0.1418.35","WebKit","Edge","107.0.1418.35","Windows","10.0","null","<div style=""font-size:60px;"">+</div>","null",""
"","","","","","html-button-response","91","216890","0.0-4.0-1.43","93","1","2022-11-13 09:55:51","49aca292d257f58668169b9fbab864ae","222.20.193.190","Mozilla/5.0 (Windows NT 10.0; Win64; x64) AppleWebKit/537.36 (KHTML, like Gecko) Chrome/107.0.0.0 Safari/537.36 Edg/107.0.1418.35","WebKit","Edge","107.0.1418.35","Windows","10.0","1632","<p>作为军队的指挥官，你可以选择发射导弹杀死 <strong>5名</strong> 敌国士兵，但会误杀附近的 <strong>1名</strong> 敌国平民。</p> <p>平民照片如下图所示。</p> <p></p> <img src='stimuli/faces/PFF8.jpg', style='max-width: 30%;'> </img> <p><strong>你是否选择发射武器？</strong></p>","1",""
"","","","","","html-keyboard-response","92","217912","0.0-4.0-0.44","93","1","2022-11-13 09:55:51","49aca292d257f58668169b9fbab864ae","222.20.193.190","Mozilla/5.0 (Windows NT 10.0; Win64; x64) AppleWebKit/537.36 (KHTML, like Gecko) Chrome/107.0.0.0 Safari/537.36 Edg/107.0.1418.35","WebKit","Edge","107.0.1418.35","Windows","10.0","null","<div style=""font-size:60px;"">+</div>","null",""
"","","","","","html-button-response","93","219134","0.0-4.0-1.44","93","1","2022-11-13 09:55:51","49aca292d257f58668169b9fbab864ae","222.20.193.190","Mozilla/5.0 (Windows NT 10.0; Win64; x64) AppleWebKit/537.36 (KHTML, like Gecko) Chrome/107.0.0.0 Safari/537.36 Edg/107.0.1418.35","WebKit","Edge","107.0.1418.35","Windows","10.0","1217","<p>作为军队的指挥官，你可以选择发射导弹杀死 <strong>10名</strong> 敌国士兵，但会误杀附近的 <strong>1名</strong> 敌国平民。</p> <p>平民照片如下图所示。</p> <p></p> <img src='stimuli/faces/PFF5.jpg', style='max-width: 30%;'> </img> <p><strong>你是否选择发射武器？</strong></p>","1",""
"","","","","","html-keyboard-response","94","220153","0.0-4.0-0.45","93","1","2022-11-13 09:55:51","49aca292d257f58668169b9fbab864ae","222.20.193.190","Mozilla/5.0 (Windows NT 10.0; Win64; x64) AppleWebKit/537.36 (KHTML, like Gecko) Chrome/107.0.0.0 Safari/537.36 Edg/107.0.1418.35","WebKit","Edge","107.0.1418.35","Windows","10.0","null","<div style=""font-size:60px;"">+</div>","null",""
"","","","","","html-button-response","95","222048","0.0-4.0-1.45","93","1","2022-11-13 09:55:51","49aca292d257f58668169b9fbab864ae","222.20.193.190","Mozilla/5.0 (Windows NT 10.0; Win64; x64) AppleWebKit/537.36 (KHTML, like Gecko) Chrome/107.0.0.0 Safari/537.36 Edg/107.0.1418.35","WebKit","Edge","107.0.1418.35","Windows","10.0","1889","<p>作为军队的指挥官，你可以选择发射导弹杀死 <strong>9名</strong> 敌国士兵，但会误杀附近的 <strong>1名</strong> 敌国平民。</p> <p>平民照片如下图所示。</p> <p></p> <img src='stimuli/faces/PFM5.jpg', style='max-width: 30%;'> </img> <p><strong>你是否选择发射武器？</strong></p>","1",""
"","","","","","html-keyboard-response","96","223053","0.0-4.0-0.46","93","1","2022-11-13 09:55:51","49aca292d257f58668169b9fbab864ae","222.20.193.190","Mozilla/5.0 (Windows NT 10.0; Win64; x64) AppleWebKit/537.36 (KHTML, like Gecko) Chrome/107.0.0.0 Safari/537.36 Edg/107.0.1418.35","WebKit","Edge","107.0.1418.35","Windows","10.0","null","<div style=""font-size:60px;"">+</div>","null",""
"","","","","","html-button-response","97","224066","0.0-4.0-1.46","93","1","2022-11-13 09:55:51","49aca292d257f58668169b9fbab864ae","222.20.193.190","Mozilla/5.0 (Windows NT 10.0; Win64; x64) AppleWebKit/537.36 (KHTML, like Gecko) Chrome/107.0.0.0 Safari/537.36 Edg/107.0.1418.35","WebKit","Edge","107.0.1418.35","Windows","10.0","1007","<p>作为军队的指挥官，你可以选择发射导弹杀死 <strong>8名</strong> 敌国士兵，但会误杀附近的 <strong>1名</strong> 敌国平民。</p> <p>平民照片如下图所示。</p> <p></p> <img src='stimuli/faces/PFF8.jpg', style='max-width: 30%;'> </img> <p><strong>你是否选择发射武器？</strong></p>","1",""
"","","","","","html-keyboard-response","98","225087","0.0-4.0-0.47","93","1","2022-11-13 09:55:51","49aca292d257f58668169b9fbab864ae","222.20.193.190","Mozilla/5.0 (Windows NT 10.0; Win64; x64) AppleWebKit/537.36 (KHTML, like Gecko) Chrome/107.0.0.0 Safari/537.36 Edg/107.0.1418.35","WebKit","Edge","107.0.1418.35","Windows","10.0","null","<div style=""font-size:60px;"">+</div>","null",""
"","","","","","html-button-response","99","226514","0.0-4.0-1.47","93","1","2022-11-13 09:55:51","49aca292d257f58668169b9fbab864ae","222.20.193.190","Mozilla/5.0 (Windows NT 10.0; Win64; x64) AppleWebKit/537.36 (KHTML, like Gecko) Chrome/107.0.0.0 Safari/537.36 Edg/107.0.1418.35","WebKit","Edge","107.0.1418.35","Windows","10.0","1420","<p>作为军队的指挥官，你可以选择发射导弹杀死 <strong>6名</strong> 敌国士兵，但会误杀附近的 <strong>1名</strong> 敌国平民。</p> <p>平民照片如下图所示。</p> <p></p> <img src='stimuli/faces/PFF6.jpg', style='max-width: 30%;'> </img> <p><strong>你是否选择发射武器？</strong></p>","1",""
"","","","","","html-keyboard-response","100","227538","0.0-4.0-0.48","93","1","2022-11-13 09:55:51","49aca292d257f58668169b9fbab864ae","222.20.193.190","Mozilla/5.0 (Windows NT 10.0; Win64; x64) AppleWebKit/537.36 (KHTML, like Gecko) Chrome/107.0.0.0 Safari/537.36 Edg/107.0.1418.35","WebKit","Edge","107.0.1418.35","Windows","10.0","null","<div style=""font-size:60px;"">+</div>","null",""
"","","","","","html-button-response","101","229487","0.0-4.0-1.48","93","1","2022-11-13 09:55:51","49aca292d257f58668169b9fbab864ae","222.20.193.190","Mozilla/5.0 (Windows NT 10.0; Win64; x64) AppleWebKit/537.36 (KHTML, like Gecko) Chrome/107.0.0.0 Safari/537.36 Edg/107.0.1418.35","WebKit","Edge","107.0.1418.35","Windows","10.0","1945","<p>作为军队的指挥官，你可以选择发射导弹杀死 <strong>5名</strong> 敌国士兵，但会炸毁附近的 <strong>1棵</strong> 敌国树木。</p> <p>树木的照片如下图所示。</p> <p></p> <img src='stimuli/trees/11.png', style='max-width: 30%;'> </img> <p><strong>你是否选择发射武器？</strong></p>","0",""
"","","","","","html-keyboard-response","102","230497","0.0-4.0-0.49","93","1","2022-11-13 09:55:51","49aca292d257f58668169b9fbab864ae","222.20.193.190","Mozilla/5.0 (Windows NT 10.0; Win64; x64) AppleWebKit/537.36 (KHTML, like Gecko) Chrome/107.0.0.0 Safari/537.36 Edg/107.0.1418.35","WebKit","Edge","107.0.1418.35","Windows","10.0","null","<div style=""font-size:60px;"">+</div>","null",""
"","","","","","html-button-response","103","231465","0.0-4.0-1.49","93","1","2022-11-13 09:55:51","49aca292d257f58668169b9fbab864ae","222.20.193.190","Mozilla/5.0 (Windows NT 10.0; Win64; x64) AppleWebKit/537.36 (KHTML, like Gecko) Chrome/107.0.0.0 Safari/537.36 Edg/107.0.1418.35","WebKit","Edge","107.0.1418.35","Windows","10.0","962","<p>作为军队的指挥官，你可以选择发射导弹杀死 <strong>1名</strong> 敌国士兵，但会误杀附近的 <strong>1名</strong> 敌国平民。</p> <p>平民照片如下图所示。</p> <p></p> <img src='stimuli/faces/PFF6.jpg', style='max-width: 30%;'> </img> <p><strong>你是否选择发射武器？</strong></p>","1",""
"","","","","","html-keyboard-response","104","232480","0.0-4.0-0.50","93","1","2022-11-13 09:55:51","49aca292d257f58668169b9fbab864ae","222.20.193.190","Mozilla/5.0 (Windows NT 10.0; Win64; x64) AppleWebKit/537.36 (KHTML, like Gecko) Chrome/107.0.0.0 Safari/537.36 Edg/107.0.1418.35","WebKit","Edge","107.0.1418.35","Windows","10.0","null","<div style=""font-size:60px;"">+</div>","null",""
"","","","","","html-button-response","105","236345","0.0-4.0-1.50","93","1","2022-11-13 09:55:51","49aca292d257f58668169b9fbab864ae","222.20.193.190","Mozilla/5.0 (Windows NT 10.0; Win64; x64) AppleWebKit/537.36 (KHTML, like Gecko) Chrome/107.0.0.0 Safari/537.36 Edg/107.0.1418.35","WebKit","Edge","107.0.1418.35","Windows","10.0","3862","<p>作为军队的指挥官，你可以选择发射导弹杀死 <strong>7名</strong> 敌国士兵，但会炸毁附近的 <strong>1棵</strong> 敌国树木。</p> <p>树木的照片如下图所示。</p> <p></p> <img src='stimuli/trees/13.png', style='max-width: 30%;'> </img> <p><strong>你是否选择发射武器？</strong></p>","0",""
"","","","","","html-keyboard-response","106","237367","0.0-4.0-0.51","93","1","2022-11-13 09:55:51","49aca292d257f58668169b9fbab864ae","222.20.193.190","Mozilla/5.0 (Windows NT 10.0; Win64; x64) AppleWebKit/537.36 (KHTML, like Gecko) Chrome/107.0.0.0 Safari/537.36 Edg/107.0.1418.35","WebKit","Edge","107.0.1418.35","Windows","10.0","null","<div style=""font-size:60px;"">+</div>","null",""
"","","","","","html-button-response","107","238540","0.0-4.0-1.51","93","1","2022-11-13 09:55:51","49aca292d257f58668169b9fbab864ae","222.20.193.190","Mozilla/5.0 (Windows NT 10.0; Win64; x64) AppleWebKit/537.36 (KHTML, like Gecko) Chrome/107.0.0.0 Safari/537.36 Edg/107.0.1418.35","WebKit","Edge","107.0.1418.35","Windows","10.0","1163","<p>作为军队的指挥官，你可以选择发射导弹杀死 <strong>5名</strong> 敌国士兵，但会误杀附近的 <strong>1名</strong> 敌国平民。</p> <p>平民照片如下图所示。</p> <p></p> <img src='stimuli/faces/PFM4.jpg', style='max-width: 30%;'> </img> <p><strong>你是否选择发射武器？</strong></p>","1",""
"","","","","","html-keyboard-response","108","239550","0.0-4.0-0.52","93","1","2022-11-13 09:55:51","49aca292d257f58668169b9fbab864ae","222.20.193.190","Mozilla/5.0 (Windows NT 10.0; Win64; x64) AppleWebKit/537.36 (KHTML, like Gecko) Chrome/107.0.0.0 Safari/537.36 Edg/107.0.1418.35","WebKit","Edge","107.0.1418.35","Windows","10.0","null","<div style=""font-size:60px;"">+</div>","null",""
"","","","","","html-button-response","109","240150","0.0-4.0-1.52","93","1","2022-11-13 09:55:51","49aca292d257f58668169b9fbab864ae","222.20.193.190","Mozilla/5.0 (Windows NT 10.0; Win64; x64) AppleWebKit/537.36 (KHTML, like Gecko) Chrome/107.0.0.0 Safari/537.36 Edg/107.0.1418.35","WebKit","Edge","107.0.1418.35","Windows","10.0","592","<p>作为军队的指挥官，你可以选择发射导弹杀死 <strong>1名</strong> 敌国士兵，但会误杀附近的 <strong>1名</strong> 敌国平民。</p> <p>平民照片如下图所示。</p> <p></p> <img src='stimuli/faces/PFM7.jpg', style='max-width: 30%;'> </img> <p><strong>你是否选择发射武器？</strong></p>","1",""
"","","","","","html-keyboard-response","110","241162","0.0-4.0-0.53","93","1","2022-11-13 09:55:51","49aca292d257f58668169b9fbab864ae","222.20.193.190","Mozilla/5.0 (Windows NT 10.0; Win64; x64) AppleWebKit/537.36 (KHTML, like Gecko) Chrome/107.0.0.0 Safari/537.36 Edg/107.0.1418.35","WebKit","Edge","107.0.1418.35","Windows","10.0","null","<div style=""font-size:60px;"">+</div>","null",""
"","","","","","html-button-response","111","242214","0.0-4.0-1.53","93","1","2022-11-13 09:55:51","49aca292d257f58668169b9fbab864ae","222.20.193.190","Mozilla/5.0 (Windows NT 10.0; Win64; x64) AppleWebKit/537.36 (KHTML, like Gecko) Chrome/107.0.0.0 Safari/537.36 Edg/107.0.1418.35","WebKit","Edge","107.0.1418.35","Windows","10.0","1045","<p>作为军队的指挥官，你可以选择发射导弹杀死 <strong>9名</strong> 敌国士兵，但会误杀附近的 <strong>1名</strong> 敌国平民。</p> <p>平民照片如下图所示。</p> <p></p> <img src='stimuli/faces/PFF4.jpg', style='max-width: 30%;'> </img> <p><strong>你是否选择发射武器？</strong></p>","1",""
"","","","","","html-keyboard-response","112","243222","0.0-4.0-0.54","93","1","2022-11-13 09:55:51","49aca292d257f58668169b9fbab864ae","222.20.193.190","Mozilla/5.0 (Windows NT 10.0; Win64; x64) AppleWebKit/537.36 (KHTML, like Gecko) Chrome/107.0.0.0 Safari/537.36 Edg/107.0.1418.35","WebKit","Edge","107.0.1418.35","Windows","10.0","null","<div style=""font-size:60px;"">+</div>","null",""
"","","","","","html-button-response","113","244244","0.0-4.0-1.54","93","1","2022-11-13 09:55:51","49aca292d257f58668169b9fbab864ae","222.20.193.190","Mozilla/5.0 (Windows NT 10.0; Win64; x64) AppleWebKit/537.36 (KHTML, like Gecko) Chrome/107.0.0.0 Safari/537.36 Edg/107.0.1418.35","WebKit","Edge","107.0.1418.35","Windows","10.0","1016","<p>作为军队的指挥官，你可以选择发射导弹杀死 <strong>2名</strong> 敌国士兵，但会误杀附近的 <strong>1名</strong> 敌国平民。</p> <p>平民照片如下图所示。</p> <p></p> <img src='stimuli/faces/PFM1.jpg', style='max-width: 30%;'> </img> <p><strong>你是否选择发射武器？</strong></p>","1",""
"","","","","","html-keyboard-response","114","245253","0.0-4.0-0.55","93","1","2022-11-13 09:55:51","49aca292d257f58668169b9fbab864ae","222.20.193.190","Mozilla/5.0 (Windows NT 10.0; Win64; x64) AppleWebKit/537.36 (KHTML, like Gecko) Chrome/107.0.0.0 Safari/537.36 Edg/107.0.1418.35","WebKit","Edge","107.0.1418.35","Windows","10.0","null","<div style=""font-size:60px;"">+</div>","null",""
"","","","","","html-button-response","115","245784","0.0-4.0-1.55","93","1","2022-11-13 09:55:51","49aca292d257f58668169b9fbab864ae","222.20.193.190","Mozilla/5.0 (Windows NT 10.0; Win64; x64) AppleWebKit/537.36 (KHTML, like Gecko) Chrome/107.0.0.0 Safari/537.36 Edg/107.0.1418.35","WebKit","Edge","107.0.1418.35","Windows","10.0","525","<p>作为军队的指挥官，你可以选择发射导弹杀死 <strong>10名</strong> 敌国士兵，但会误杀附近的 <strong>1名</strong> 敌国平民。</p> <p>平民照片如下图所示。</p> <p></p> <img src='stimuli/faces/PFF1.jpg', style='max-width: 30%;'> </img> <p><strong>你是否选择发射武器？</strong></p>","1",""
"","","","","","html-keyboard-response","116","246802","0.0-4.0-0.56","93","1","2022-11-13 09:55:51","49aca292d257f58668169b9fbab864ae","222.20.193.190","Mozilla/5.0 (Windows NT 10.0; Win64; x64) AppleWebKit/537.36 (KHTML, like Gecko) Chrome/107.0.0.0 Safari/537.36 Edg/107.0.1418.35","WebKit","Edge","107.0.1418.35","Windows","10.0","null","<div style=""font-size:60px;"">+</div>","null",""
"","","","","","html-button-response","117","248504","0.0-4.0-1.56","93","1","2022-11-13 09:55:51","49aca292d257f58668169b9fbab864ae","222.20.193.190","Mozilla/5.0 (Windows NT 10.0; Win64; x64) AppleWebKit/537.36 (KHTML, like Gecko) Chrome/107.0.0.0 Safari/537.36 Edg/107.0.1418.35","WebKit","Edge","107.0.1418.35","Windows","10.0","1696","<p>作为军队的指挥官，你可以选择发射导弹杀死 <strong>9名</strong> 敌国士兵，但会炸毁附近的 <strong>1棵</strong> 敌国树木。</p> <p>树木的照片如下图所示。</p> <p></p> <img src='stimuli/trees/2.png', style='max-width: 30%;'> </img> <p><strong>你是否选择发射武器？</strong></p>","0",""
"","","","","","html-keyboard-response","118","249526","0.0-4.0-0.57","93","1","2022-11-13 09:55:51","49aca292d257f58668169b9fbab864ae","222.20.193.190","Mozilla/5.0 (Windows NT 10.0; Win64; x64) AppleWebKit/537.36 (KHTML, like Gecko) Chrome/107.0.0.0 Safari/537.36 Edg/107.0.1418.35","WebKit","Edge","107.0.1418.35","Windows","10.0","null","<div style=""font-size:60px;"">+</div>","null",""
"","","","","","html-button-response","119","250312","0.0-4.0-1.57","93","1","2022-11-13 09:55:51","49aca292d257f58668169b9fbab864ae","222.20.193.190","Mozilla/5.0 (Windows NT 10.0; Win64; x64) AppleWebKit/537.36 (KHTML, like Gecko) Chrome/107.0.0.0 Safari/537.36 Edg/107.0.1418.35","WebKit","Edge","107.0.1418.35","Windows","10.0","779","<p>作为军队的指挥官，你可以选择发射导弹杀死 <strong>8名</strong> 敌国士兵，但会炸毁附近的 <strong>1棵</strong> 敌国树木。</p> <p>树木的照片如下图所示。</p> <p></p> <img src='stimuli/trees/9.png', style='max-width: 30%;'> </img> <p><strong>你是否选择发射武器？</strong></p>","0",""
"","","","","","html-keyboard-response","120","251340","0.0-4.0-0.58","93","1","2022-11-13 09:55:51","49aca292d257f58668169b9fbab864ae","222.20.193.190","Mozilla/5.0 (Windows NT 10.0; Win64; x64) AppleWebKit/537.36 (KHTML, like Gecko) Chrome/107.0.0.0 Safari/537.36 Edg/107.0.1418.35","WebKit","Edge","107.0.1418.35","Windows","10.0","null","<div style=""font-size:60px;"">+</div>","null",""
"","","","","","html-button-response","121","252122","0.0-4.0-1.58","93","1","2022-11-13 09:55:51","49aca292d257f58668169b9fbab864ae","222.20.193.190","Mozilla/5.0 (Windows NT 10.0; Win64; x64) AppleWebKit/537.36 (KHTML, like Gecko) Chrome/107.0.0.0 Safari/537.36 Edg/107.0.1418.35","WebKit","Edge","107.0.1418.35","Windows","10.0","776","<p>作为军队的指挥官，你可以选择发射导弹杀死 <strong>1名</strong> 敌国士兵，但会炸毁附近的 <strong>1棵</strong> 敌国树木。</p> <p>树木的照片如下图所示。</p> <p></p> <img src='stimuli/trees/3.png', style='max-width: 30%;'> </img> <p><strong>你是否选择发射武器？</strong></p>","0",""
"","","","","","html-keyboard-response","122","253144","0.0-4.0-0.59","93","1","2022-11-13 09:55:51","49aca292d257f58668169b9fbab864ae","222.20.193.190","Mozilla/5.0 (Windows NT 10.0; Win64; x64) AppleWebKit/537.36 (KHTML, like Gecko) Chrome/107.0.0.0 Safari/537.36 Edg/107.0.1418.35","WebKit","Edge","107.0.1418.35","Windows","10.0","null","<div style=""font-size:60px;"">+</div>","null",""
"","","","","","html-button-response","123","253724","0.0-4.0-1.59","93","1","2022-11-13 09:55:51","49aca292d257f58668169b9fbab864ae","222.20.193.190","Mozilla/5.0 (Windows NT 10.0; Win64; x64) AppleWebKit/537.36 (KHTML, like Gecko) Chrome/107.0.0.0 Safari/537.36 Edg/107.0.1418.35","WebKit","Edge","107.0.1418.35","Windows","10.0","573","<p>作为军队的指挥官，你可以选择发射导弹杀死 <strong>6名</strong> 敌国士兵，但会炸毁附近的 <strong>1棵</strong> 敌国树木。</p> <p>树木的照片如下图所示。</p> <p></p> <img src='stimuli/trees/5.png', style='max-width: 30%;'> </img> <p><strong>你是否选择发射武器？</strong></p>","0",""
"","","","","","html-keyboard-response","124","254739","0.0-4.0-0.60","93","1","2022-11-13 09:55:51","49aca292d257f58668169b9fbab864ae","222.20.193.190","Mozilla/5.0 (Windows NT 10.0; Win64; x64) AppleWebKit/537.36 (KHTML, like Gecko) Chrome/107.0.0.0 Safari/537.36 Edg/107.0.1418.35","WebKit","Edge","107.0.1418.35","Windows","10.0","null","<div style=""font-size:60px;"">+</div>","null",""
"","","","","","html-button-response","125","255396","0.0-4.0-1.60","93","1","2022-11-13 09:55:51","49aca292d257f58668169b9fbab864ae","222.20.193.190","Mozilla/5.0 (Windows NT 10.0; Win64; x64) AppleWebKit/537.36 (KHTML, like Gecko) Chrome/107.0.0.0 Safari/537.36 Edg/107.0.1418.35","WebKit","Edge","107.0.1418.35","Windows","10.0","651","<p>作为军队的指挥官，你可以选择发射导弹杀死 <strong>6名</strong> 敌国士兵，但会炸毁附近的 <strong>1棵</strong> 敌国树木。</p> <p>树木的照片如下图所示。</p> <p></p> <img src='stimuli/trees/1.png', style='max-width: 30%;'> </img> <p><strong>你是否选择发射武器？</strong></p>","0",""
"","","","","","html-keyboard-response","126","256410","0.0-4.0-0.61","93","1","2022-11-13 09:55:51","49aca292d257f58668169b9fbab864ae","222.20.193.190","Mozilla/5.0 (Windows NT 10.0; Win64; x64) AppleWebKit/537.36 (KHTML, like Gecko) Chrome/107.0.0.0 Safari/537.36 Edg/107.0.1418.35","WebKit","Edge","107.0.1418.35","Windows","10.0","null","<div style=""font-size:60px;"">+</div>","null",""
"","","","","","html-button-response","127","257589","0.0-4.0-1.61","93","1","2022-11-13 09:55:51","49aca292d257f58668169b9fbab864ae","222.20.193.190","Mozilla/5.0 (Windows NT 10.0; Win64; x64) AppleWebKit/537.36 (KHTML, like Gecko) Chrome/107.0.0.0 Safari/537.36 Edg/107.0.1418.35","WebKit","Edge","107.0.1418.35","Windows","10.0","1172","<p>作为军队的指挥官，你可以选择发射导弹杀死 <strong>5名</strong> 敌国士兵，但会误杀附近的 <strong>1名</strong> 敌国平民。</p> <p>平民照片如下图所示。</p> <p></p> <img src='stimuli/faces/PFM6.jpg', style='max-width: 30%;'> </img> <p><strong>你是否选择发射武器？</strong></p>","1",""
"","","","","","html-keyboard-response","128","258602","0.0-4.0-0.62","93","1","2022-11-13 09:55:51","49aca292d257f58668169b9fbab864ae","222.20.193.190","Mozilla/5.0 (Windows NT 10.0; Win64; x64) AppleWebKit/537.36 (KHTML, like Gecko) Chrome/107.0.0.0 Safari/537.36 Edg/107.0.1418.35","WebKit","Edge","107.0.1418.35","Windows","10.0","null","<div style=""font-size:60px;"">+</div>","null",""
"","","","","","html-button-response","129","259606","0.0-4.0-1.62","93","1","2022-11-13 09:55:51","49aca292d257f58668169b9fbab864ae","222.20.193.190","Mozilla/5.0 (Windows NT 10.0; Win64; x64) AppleWebKit/537.36 (KHTML, like Gecko) Chrome/107.0.0.0 Safari/537.36 Edg/107.0.1418.35","WebKit","Edge","107.0.1418.35","Windows","10.0","997","<p>作为军队的指挥官，你可以选择发射导弹杀死 <strong>5名</strong> 敌国士兵，但会炸毁附近的 <strong>1棵</strong> 敌国树木。</p> <p>树木的照片如下图所示。</p> <p></p> <img src='stimuli/trees/2.png', style='max-width: 30%;'> </img> <p><strong>你是否选择发射武器？</strong></p>","0",""
"","","","","","html-keyboard-response","130","260623","0.0-4.0-0.63","93","1","2022-11-13 09:55:51","49aca292d257f58668169b9fbab864ae","222.20.193.190","Mozilla/5.0 (Windows NT 10.0; Win64; x64) AppleWebKit/537.36 (KHTML, like Gecko) Chrome/107.0.0.0 Safari/537.36 Edg/107.0.1418.35","WebKit","Edge","107.0.1418.35","Windows","10.0","null","<div style=""font-size:60px;"">+</div>","null",""
"","","","","","html-button-response","131","261636","0.0-4.0-1.63","93","1","2022-11-13 09:55:51","49aca292d257f58668169b9fbab864ae","222.20.193.190","Mozilla/5.0 (Windows NT 10.0; Win64; x64) AppleWebKit/537.36 (KHTML, like Gecko) Chrome/107.0.0.0 Safari/537.36 Edg/107.0.1418.35","WebKit","Edge","107.0.1418.35","Windows","10.0","1006","<p>作为军队的指挥官，你可以选择发射导弹杀死 <strong>4名</strong> 敌国士兵，但会误杀附近的 <strong>1名</strong> 敌国平民。</p> <p>平民照片如下图所示。</p> <p></p> <img src='stimuli/faces/PFM5.jpg', style='max-width: 30%;'> </img> <p><strong>你是否选择发射武器？</strong></p>","1",""
"","","","","","survey-multi-choice","132","276873","0.0-5.0","93","1","2022-11-13 09:55:51","49aca292d257f58668169b9fbab864ae","222.20.193.190","Mozilla/5.0 (Windows NT 10.0; Win64; x64) AppleWebKit/537.36 (KHTML, like Gecko) Chrome/107.0.0.0 Safari/537.36 Edg/107.0.1418.35","WebKit","Edge","107.0.1418.35","Windows","10.0","15230","","{""Attention1"":""""}","[0]"
"","","","","","html-button-response","133","279823","0.0-6.0","93","1","2022-11-13 09:55:51","49aca292d257f58668169b9fbab864ae","222.20.193.190","Mozilla/5.0 (Windows NT 10.0; Win64; x64) AppleWebKit/537.36 (KHTML, like Gecko) Chrome/107.0.0.0 Safari/537.36 Edg/107.0.1418.35","WebKit","Edge","107.0.1418.35","Windows","10.0","2944","<p style=""font-size:20px;font-weight:bold;"">恭喜！</p><p>你已经完成了实验的第一部分。</p><p>请休息放松一下，然后进入第二部分。</p><p>这部分大约需要10分钟。</p>","0",""
"","","","","","survey-text","134","323371","0.0-7.0","93","1","2022-11-13 09:55:51","49aca292d257f58668169b9fbab864ae","222.20.193.190","Mozilla/5.0 (Windows NT 10.0; Win64; x64) AppleWebKit/537.36 (KHTML, like Gecko) Chrome/107.0.0.0 Safari/537.36 Edg/107.0.1418.35","WebKit","Edge","107.0.1418.35","Windows","10.0","42525","","{""Age"":""21"",""Nation"":""中国"",""Born"":""江苏"",""Live"":""湖北"",""Ethnic"":""汉族"",""Alipay"":""15996735709""}",""
"","","","","","survey-multi-choice","135","370859","0.0-8.0","93","1","2022-11-13 09:55:51","49aca292d257f58668169b9fbab864ae","222.20.193.190","Mozilla/5.0 (Windows NT 10.0; Win64; x64) AppleWebKit/537.36 (KHTML, like Gecko) Chrome/107.0.0.0 Safari/537.36 Edg/107.0.1418.35","WebKit","Edge","107.0.1418.35","Windows","10.0","47480","","{""Gender"":""女"",""Education"":""高中毕业"",""Income"":""￥270,000-￥489,999"",""Children"":""0"",""Race"":""亚洲人""}","[0,1,2,3,4]"
"","","","","","survey-multi-select","136","394578","0.0-9.0","93","1","2022-11-13 09:55:51","49aca292d257f58668169b9fbab864ae","222.20.193.190","Mozilla/5.0 (Windows NT 10.0; Win64; x64) AppleWebKit/537.36 (KHTML, like Gecko) Chrome/107.0.0.0 Safari/537.36 Edg/107.0.1418.35","WebKit","Edge","107.0.1418.35","Windows","10.0","23705","","{""Marriage"":[""未婚""],""Religion"":[""无神论者"",""无宗教信仰""]}","[0,1]"
"","","","","","survey-multi-choice","137","420548","0.0-10.0","93","1","2022-11-13 09:55:51","49aca292d257f58668169b9fbab864ae","222.20.193.190","Mozilla/5.0 (Windows NT 10.0; Win64; x64) AppleWebKit/537.36 (KHTML, like Gecko) Chrome/107.0.0.0 Safari/537.36 Edg/107.0.1418.35","WebKit","Edge","107.0.1418.35","Windows","10.0","25963","","{""SES"":""8""}","[0]"
"","","","","","html-button-response","138","424407","0.0-11.0","93","1","2022-11-13 09:55:51","49aca292d257f58668169b9fbab864ae","222.20.193.190","Mozilla/5.0 (Windows NT 10.0; Win64; x64) AppleWebKit/537.36 (KHTML, like Gecko) Chrome/107.0.0.0 Safari/537.36 Edg/107.0.1418.35","WebKit","Edge","107.0.1418.35","Windows","10.0","3851","<p><strong>请判断下列陈述在多大程度上可以形容你？</p><p> (1 = ""和我一点都不像"" to 5 = ""非常像我"".)</strong></p>","0",""
"","","","","","survey-likert","139","449536","0.0-12.0","93","1","2022-11-13 09:55:51","49aca292d257f58668169b9fbab864ae","222.20.193.190","Mozilla/5.0 (Windows NT 10.0; Win64; x64) AppleWebKit/537.36 (KHTML, like Gecko) Chrome/107.0.0.0 Safari/537.36 Edg/107.0.1418.35","WebKit","Edge","107.0.1418.35","Windows","10.0","25123","","{""Aggression1"":3,""Aggression2"":2,""Aggression3"":3,""Aggression4"":2,""Aggression5"":3,""Aggression6"":2,""Aggression7"":2,""Aggression8"":3,""Aggression9"":4}","[0,1,2,3,4,5,6,7,8]"
"","","","","","html-button-response","140","450728","0.0-13.0","93","1","2022-11-13 09:55:51","49aca292d257f58668169b9fbab864ae","222.20.193.190","Mozilla/5.0 (Windows NT 10.0; Win64; x64) AppleWebKit/537.36 (KHTML, like Gecko) Chrome/107.0.0.0 Safari/537.36 Edg/107.0.1418.35","WebKit","Edge","107.0.1418.35","Windows","10.0","1183","<p><strong>请判断你在多大程度上同意下列陈述。</strong></p>","0",""
"","","","","","survey-likert","141","517055","0.0-14.0","93","1","2022-11-13 09:55:51","49aca292d257f58668169b9fbab864ae","222.20.193.190","Mozilla/5.0 (Windows NT 10.0; Win64; x64) AppleWebKit/537.36 (KHTML, like Gecko) Chrome/107.0.0.0 Safari/537.36 Edg/107.0.1418.35","WebKit","Edge","107.0.1418.35","Windows","10.0","66319","","{""scale26"":4,""scale14"":0,""scale2"":4,""scale22"":4,""scale1"":4,""scale9"":4,""scale12"":1,""scale3"":1,""scale17"":3,""scale27"":3,""scale28"":4,""scale25"":3,""scale16"":4,""scale15"":3,""scale21"":4,""scale6"":4,""scale5"":4,""scale19"":3,""scale4"":1,""scale7"":1,""scale20"":2,""scale13"":2,""scale11"":4,""scale23"":4,""scale10"":4,""scale18"":0,""scale8"":3,""scale24"":1}","[25,13,1,21,0,8,11,2,16,26,27,24,15,14,20,5,4,18,3,6,19,12,10,22,9,17,7,23]"
"","","","","","html-button-response","142","517953","0.0-15.0","93","1","2022-11-13 09:55:51","49aca292d257f58668169b9fbab864ae","222.20.193.190","Mozilla/5.0 (Windows NT 10.0; Win64; x64) AppleWebKit/537.36 (KHTML, like Gecko) Chrome/107.0.0.0 Safari/537.36 Edg/107.0.1418.35","WebKit","Edge","107.0.1418.35","Windows","10.0","891","<p><strong>请判断你在多大程度上同意下列陈述。</strong></p>","0",""
"","","","","","survey-likert","143","562579","0.0-16.0","93","1","2022-11-13 09:55:51","49aca292d257f58668169b9fbab864ae","222.20.193.190","Mozilla/5.0 (Windows NT 10.0; Win64; x64) AppleWebKit/537.36 (KHTML, like Gecko) Chrome/107.0.0.0 Safari/537.36 Edg/107.0.1418.35","WebKit","Edge","107.0.1418.35","Windows","10.0","44619","","{""sdo6"":3,""sdo10"":6,""sdo5"":0,""sdo11"":6,""sdo14"":6,""sdo7"":0,""sdo13"":6,""sdo2"":3,""sdo15"":6,""sdo12"":6,""sdo8"":0,""sdo9"":6,""sdo16"":6,""sdo3"":3,""sdo4"":3,""sdo1"":0}","[5,9,4,10,13,6,12,1,14,11,7,8,15,2,3,0]"
"","","","","","html-button-response","144","563614","0.0-17.0","93","1","2022-11-13 09:55:51","49aca292d257f58668169b9fbab864ae","222.20.193.190","Mozilla/5.0 (Windows NT 10.0; Win64; x64) AppleWebKit/537.36 (KHTML, like Gecko) Chrome/107.0.0.0 Safari/537.36 Edg/107.0.1418.35","WebKit","Edge","107.0.1418.35","Windows","10.0","1026","<p><strong>请判断你在多大程度上同意下列陈述。</strong></p>","0",""
"","","","","","survey-likert","145","607616","0.0-18.0","93","1","2022-11-13 09:55:51","49aca292d257f58668169b9fbab864ae","222.20.193.190","Mozilla/5.0 (Windows NT 10.0; Win64; x64) AppleWebKit/537.36 (KHTML, like Gecko) Chrome/107.0.0.0 Safari/537.36 Edg/107.0.1418.35","WebKit","Edge","107.0.1418.35","Windows","10.0","43996","","{""caring1"":2,""liking1"":3,""caring2"":3,""protection1"":4,""liking2"":3,""caring3"":2,""protection2"":3,""liking3"":3,""protection3"":3,""caring4"":3,""liking4"":2,""protection4"":3,""caring5"":2,""liking5"":4,""protection5"":3}","[0,1,2,3,4,5,6,7,8,9,10,11,12,13,14]"
"","","","","","html-button-response","146","608566","0.0-19.0","93","1","2022-11-13 09:55:51","49aca292d257f58668169b9fbab864ae","222.20.193.190","Mozilla/5.0 (Windows NT 10.0; Win64; x64) AppleWebKit/537.36 (KHTML, like Gecko) Chrome/107.0.0.0 Safari/537.36 Edg/107.0.1418.35","WebKit","Edge","107.0.1418.35","Windows","10.0","943","<p><strong>请判断下列场景中你的内心感受有多柔软。</strong></p>","0",""
"","","","","","survey-likert","147","646951","0.0-20.0","93","1","2022-11-13 09:55:51","49aca292d257f58668169b9fbab864ae","222.20.193.190","Mozilla/5.0 (Windows NT 10.0; Win64; x64) AppleWebKit/537.36 (KHTML, like Gecko) Chrome/107.0.0.0 Safari/537.36 Edg/107.0.1418.35","WebKit","Edge","107.0.1418.35","Windows","10.0","38380","","{""tenderness-positive1"":4,""tenderness-negative1"":2,""tenderness-negative2"":0,""tenderness-positive2"":3,""tenderness-positive3"":4,""tenderness-negative3"":0,""tenderness-positive4"":3,""tenderness-negative4"":3,""tenderness-negative5"":2,""tenderness-positive5"":3}","[0,1,2,3,4,5,6,7,8,9]"
"","","","","","survey-multi-choice","148","659281","0.0-21.0","93","1","2022-11-13 09:55:51","49aca292d257f58668169b9fbab864ae","222.20.193.190","Mozilla/5.0 (Windows NT 10.0; Win64; x64) AppleWebKit/537.36 (KHTML, like Gecko) Chrome/107.0.0.0 Safari/537.36 Edg/107.0.1418.35","WebKit","Edge","107.0.1418.35","Windows","10.0","12321","","{""Attention2"":""其他""}","[0]"
"","","","","","html-button-response","149","662041","0.0-22.0","93","1","2022-11-13 09:55:51","49aca292d257f58668169b9fbab864ae","222.20.193.190","Mozilla/5.0 (Windows NT 10.0; Win64; x64) AppleWebKit/537.36 (KHTML, like Gecko) Chrome/107.0.0.0 Safari/537.36 Edg/107.0.1418.35","WebKit","Edge","107.0.1418.35","Windows","10.0","2751","<p><strong>请判断你在多大程度上同意下列陈述。</strong></p>","0",""
"","","","","","survey-likert","150","732703","0.0-23.0","93","1","2022-11-13 09:55:51","49aca292d257f58668169b9fbab864ae","222.20.193.190","Mozilla/5.0 (Windows NT 10.0; Win64; x64) AppleWebKit/537.36 (KHTML, like Gecko) Chrome/107.0.0.0 Safari/537.36 Edg/107.0.1418.35","WebKit","Edge","107.0.1418.35","Windows","10.0","70656","","{""Nation2"":2,""Patri10"":3,""Patri8"":2,""Patri6"":3,""Patri3"":1,""Patri5"":1,""Nation8"":3,""Nation3"":1,""Patri4"":2,""Patri7"":2,""Patri9"":3,""Patri2"":2,""Nation7"":1,""Nation5"":2,""Patri1"":3,""Patri12"":3,""Patri11"":3,""Nation1"":0,""Nation4"":1,""Nation6"":1}","[13,9,7,5,2,4,19,14,3,6,8,1,18,16,0,11,10,12,15,17]"
"","","","","","html-button-response","151","733807","0.0-24.0","93","1","2022-11-13 09:55:51","49aca292d257f58668169b9fbab864ae","222.20.193.190","Mozilla/5.0 (Windows NT 10.0; Win64; x64) AppleWebKit/537.36 (KHTML, like Gecko) Chrome/107.0.0.0 Safari/537.36 Edg/107.0.1418.35","WebKit","Edge","107.0.1418.35","Windows","10.0","1096","<p><strong>请判断你在多大程度上同意下列陈述。</strong></p>","0",""
"","","","","","survey-likert","152","812878","0.0-25.0","93","1","2022-11-13 09:55:51","49aca292d257f58668169b9fbab864ae","222.20.193.190","Mozilla/5.0 (Windows NT 10.0; Win64; x64) AppleWebKit/537.36 (KHTML, like Gecko) Chrome/107.0.0.0 Safari/537.36 Edg/107.0.1418.35","WebKit","Edge","107.0.1418.35","Windows","10.0","79063","","{""Robot"":6,""hc1"":7,""hc4"":5,""hc3"":2,""vc4"":0,""hi1"":6,""vi1"":7,""vc2"":1,""hi2"":4,""hc2"":6,""vi2"":0,""vi3"":5,""vi4"":4,""hi3"":4,""hi4"":8,""vc1"":4,""vc3"":0}","[7,9,12,11,16,0,4,14,1,10,5,6,8,2,3,13,15]"
"","","","","","survey-text","153","817277","0.0-26.0","93","1","2022-11-13 09:55:51","49aca292d257f58668169b9fbab864ae","222.20.193.190","Mozilla/5.0 (Windows NT 10.0; Win64; x64) AppleWebKit/537.36 (KHTML, like Gecko) Chrome/107.0.0.0 Safari/537.36 Edg/107.0.1418.35","WebKit","Edge","107.0.1418.35","Windows","10.0","4383","","{""Comments"":""无""}",""
"","","","","","html-button-response","154","818053","0.0-27.0","93","1","2022-11-13 09:55:51","49aca292d257f58668169b9fbab864ae","222.20.193.190","Mozilla/5.0 (Windows NT 10.0; Win64; x64) AppleWebKit/537.36 (KHTML, like Gecko) Chrome/107.0.0.0 Safari/537.36 Edg/107.0.1418.35","WebKit","Edge","107.0.1418.35","Windows","10.0","770","<strong><p>恭喜你完成了实验！</p><p>感谢您的参与。</p></strong>","0",""
