"success","timeout","failed_images","failed_audio","failed_video","trial_type","trial_index","time_elapsed","internal_node_id","run_id","condition","recorded_at","source_code_version","ip","user_agent","device","browser","browser_version","platform","platform_version","rt","stimulus","response","question_order"
"true","false","[]","[]","[]","preload","0","546","0.0-0.0","18","1","2023-06-26 17:24:14","077e191c96ad73626b2944d724c57d9e","208.196.121.254","Mozilla/5.0 (Windows NT 10.0; Win64; x64) AppleWebKit/537.36 (KHTML, like Gecko) Chrome/114.0.0.0 Safari/537.36 Edg/114.0.1823.51","WebKit","Edge","114.0.1823.51","Windows","10.0","","","",""
"true","","","","","fullscreen","1","2938","0.0-1.0","18","1","2023-06-26 17:24:14","077e191c96ad73626b2944d724c57d9e","208.196.121.254","Mozilla/5.0 (Windows NT 10.0; Win64; x64) AppleWebKit/537.36 (KHTML, like Gecko) Chrome/114.0.0.0 Safari/537.36 Edg/114.0.1823.51","WebKit","Edge","114.0.1823.51","Windows","10.0","","","",""
"","","","","","html-button-response","2","4426","0.0-2.0","18","1","2023-06-26 17:24:14","077e191c96ad73626b2944d724c57d9e","208.196.121.254","Mozilla/5.0 (Windows NT 10.0; Win64; x64) AppleWebKit/537.36 (KHTML, like Gecko) Chrome/114.0.0.0 Safari/537.36 Edg/114.0.1823.51","WebKit","Edge","114.0.1823.51","Windows","10.0","1486","<p ><strong>Welcome to the experiment!</strong></p><p ><strong>In the first task, please imagine:</strong></p><p>Your country is involved in a military conflict with another country.</p><p>You are the commander of your army and must make decisions in the conflict.</p><p>Specifically, as the military commander, you must decide whether to launch a missile to strike enemy.</p><p>You will face a series of scenarios. Please read each scenario carefully and make a decision.</p><p>The task will take around 10 minutes to complete.</p><p><strong>Please pay your attention during the experiment.</strong></p>","0",""
"","","","","","html-keyboard-response","3","5429","0.0-3.0-0.0","18","1","2023-06-26 17:24:14","077e191c96ad73626b2944d724c57d9e","208.196.121.254","Mozilla/5.0 (Windows NT 10.0; Win64; x64) AppleWebKit/537.36 (KHTML, like Gecko) Chrome/114.0.0.0 Safari/537.36 Edg/114.0.1823.51","WebKit","Edge","114.0.1823.51","Windows","10.0","null","<div style=""font-size:60px;"">+</div>","null",""
"","","","","","html-button-response","4","9916","0.0-3.0-1.0","18","1","2023-06-26 17:24:14","077e191c96ad73626b2944d724c57d9e","208.196.121.254","Mozilla/5.0 (Windows NT 10.0; Win64; x64) AppleWebKit/537.36 (KHTML, like Gecko) Chrome/114.0.0.0 Safari/537.36 Edg/114.0.1823.51","WebKit","Edge","114.0.1823.51","Windows","10.0","4484","<p>As the military commander, you could choose to launch a missile to kill <strong>8 enemy soldiers</strong> , but would accidentally kill <strong>1 enemy civilian</strong> nearby.</p> <p>The photo of the <strong>enemy civilian</strong> is shown below.</p> <p></p> <img src='stimuli/faces/PFF1.jpg', style='max-width: 30%;'> </img> <p><strong>Would you launch the weapon?</strong></p>","0",""
"","","","","","html-keyboard-response","5","10918","0.0-3.0-0.1","18","1","2023-06-26 17:24:14","077e191c96ad73626b2944d724c57d9e","208.196.121.254","Mozilla/5.0 (Windows NT 10.0; Win64; x64) AppleWebKit/537.36 (KHTML, like Gecko) Chrome/114.0.0.0 Safari/537.36 Edg/114.0.1823.51","WebKit","Edge","114.0.1823.51","Windows","10.0","null","<div style=""font-size:60px;"">+</div>","null",""
"","","","","","html-button-response","6","13276","0.0-3.0-1.1","18","1","2023-06-26 17:24:14","077e191c96ad73626b2944d724c57d9e","208.196.121.254","Mozilla/5.0 (Windows NT 10.0; Win64; x64) AppleWebKit/537.36 (KHTML, like Gecko) Chrome/114.0.0.0 Safari/537.36 Edg/114.0.1823.51","WebKit","Edge","114.0.1823.51","Windows","10.0","2356","<p>As the military commander, you could choose to launch a missile to kill <strong>2 enemy soldiers</strong> , but would accidentally kill <strong>1 enemy tree</strong> nearby.</p> <p>The photo of the <strong>enemy tree</strong> is shown below.</p> <p></p> <img src='stimuli/tree/7.png', style='max-width: 30%;'> </img> <p><strong>Would you launch the weapon?</strong></p>","1",""
"","","","","","html-keyboard-response","7","14279","0.0-3.0-0.2","18","1","2023-06-26 17:24:14","077e191c96ad73626b2944d724c57d9e","208.196.121.254","Mozilla/5.0 (Windows NT 10.0; Win64; x64) AppleWebKit/537.36 (KHTML, like Gecko) Chrome/114.0.0.0 Safari/537.36 Edg/114.0.1823.51","WebKit","Edge","114.0.1823.51","Windows","10.0","null","<div style=""font-size:60px;"">+</div>","null",""
"","","","","","html-button-response","8","16486","0.0-3.0-1.2","18","1","2023-06-26 17:24:14","077e191c96ad73626b2944d724c57d9e","208.196.121.254","Mozilla/5.0 (Windows NT 10.0; Win64; x64) AppleWebKit/537.36 (KHTML, like Gecko) Chrome/114.0.0.0 Safari/537.36 Edg/114.0.1823.51","WebKit","Edge","114.0.1823.51","Windows","10.0","2204","<p>As the military commander, you could choose to launch a missile to kill <strong>5 enemy soldiers</strong> , but would accidentally kill <strong>1 enemy tree</strong> nearby.</p> <p>The photo of the <strong>enemy tree</strong> is shown below.</p> <p></p> <img src='stimuli/tree/6.png', style='max-width: 30%;'> </img> <p><strong>Would you launch the weapon?</strong></p>","1",""
"","","","","","html-keyboard-response","9","17489","0.0-3.0-0.3","18","1","2023-06-26 17:24:14","077e191c96ad73626b2944d724c57d9e","208.196.121.254","Mozilla/5.0 (Windows NT 10.0; Win64; x64) AppleWebKit/537.36 (KHTML, like Gecko) Chrome/114.0.0.0 Safari/537.36 Edg/114.0.1823.51","WebKit","Edge","114.0.1823.51","Windows","10.0","null","<div style=""font-size:60px;"">+</div>","null",""
"","","","","","html-button-response","10","19307","0.0-3.0-1.3","18","1","2023-06-26 17:24:14","077e191c96ad73626b2944d724c57d9e","208.196.121.254","Mozilla/5.0 (Windows NT 10.0; Win64; x64) AppleWebKit/537.36 (KHTML, like Gecko) Chrome/114.0.0.0 Safari/537.36 Edg/114.0.1823.51","WebKit","Edge","114.0.1823.51","Windows","10.0","1815","<p>As the military commander, you could choose to launch a missile to kill <strong>5 enemy soldiers</strong> , but would accidentally kill <strong>1 enemy civilian</strong> nearby.</p> <p>The photo of the <strong>enemy civilian</strong> is shown below.</p> <p></p> <img src='stimuli/faces/PFF3.jpg', style='max-width: 30%;'> </img> <p><strong>Would you launch the weapon?</strong></p>","0",""
"","","","","","html-keyboard-response","11","20309","0.0-3.0-0.4","18","1","2023-06-26 17:24:14","077e191c96ad73626b2944d724c57d9e","208.196.121.254","Mozilla/5.0 (Windows NT 10.0; Win64; x64) AppleWebKit/537.36 (KHTML, like Gecko) Chrome/114.0.0.0 Safari/537.36 Edg/114.0.1823.51","WebKit","Edge","114.0.1823.51","Windows","10.0","null","<div style=""font-size:60px;"">+</div>","null",""
"","","","","","html-button-response","12","21781","0.0-3.0-1.4","18","1","2023-06-26 17:24:14","077e191c96ad73626b2944d724c57d9e","208.196.121.254","Mozilla/5.0 (Windows NT 10.0; Win64; x64) AppleWebKit/537.36 (KHTML, like Gecko) Chrome/114.0.0.0 Safari/537.36 Edg/114.0.1823.51","WebKit","Edge","114.0.1823.51","Windows","10.0","1469","<p>As the military commander, you could choose to launch a missile to kill <strong>3 enemy soldiers</strong> , but would accidentally kill <strong>1 enemy tree</strong> nearby.</p> <p>The photo of the <strong>enemy tree</strong> is shown below.</p> <p></p> <img src='stimuli/tree/14.png', style='max-width: 30%;'> </img> <p><strong>Would you launch the weapon?</strong></p>","1",""
"","","","","","html-keyboard-response","13","22784","0.0-3.0-0.5","18","1","2023-06-26 17:24:14","077e191c96ad73626b2944d724c57d9e","208.196.121.254","Mozilla/5.0 (Windows NT 10.0; Win64; x64) AppleWebKit/537.36 (KHTML, like Gecko) Chrome/114.0.0.0 Safari/537.36 Edg/114.0.1823.51","WebKit","Edge","114.0.1823.51","Windows","10.0","null","<div style=""font-size:60px;"">+</div>","null",""
"","","","","","html-button-response","14","24096","0.0-3.0-1.5","18","1","2023-06-26 17:24:14","077e191c96ad73626b2944d724c57d9e","208.196.121.254","Mozilla/5.0 (Windows NT 10.0; Win64; x64) AppleWebKit/537.36 (KHTML, like Gecko) Chrome/114.0.0.0 Safari/537.36 Edg/114.0.1823.51","WebKit","Edge","114.0.1823.51","Windows","10.0","1310","<p>As the military commander, you could choose to launch a missile to kill <strong>3 enemy soldiers</strong> , but would accidentally kill <strong>1 enemy tree</strong> nearby.</p> <p>The photo of the <strong>enemy tree</strong> is shown below.</p> <p></p> <img src='stimuli/tree/1.png', style='max-width: 30%;'> </img> <p><strong>Would you launch the weapon?</strong></p>","1",""
"","","","","","html-keyboard-response","15","25098","0.0-3.0-0.6","18","1","2023-06-26 17:24:14","077e191c96ad73626b2944d724c57d9e","208.196.121.254","Mozilla/5.0 (Windows NT 10.0; Win64; x64) AppleWebKit/537.36 (KHTML, like Gecko) Chrome/114.0.0.0 Safari/537.36 Edg/114.0.1823.51","WebKit","Edge","114.0.1823.51","Windows","10.0","null","<div style=""font-size:60px;"">+</div>","null",""
"","","","","","html-button-response","16","26914","0.0-3.0-1.6","18","1","2023-06-26 17:24:14","077e191c96ad73626b2944d724c57d9e","208.196.121.254","Mozilla/5.0 (Windows NT 10.0; Win64; x64) AppleWebKit/537.36 (KHTML, like Gecko) Chrome/114.0.0.0 Safari/537.36 Edg/114.0.1823.51","WebKit","Edge","114.0.1823.51","Windows","10.0","1814","<p>As the military commander, you could choose to launch a missile to kill <strong>4 enemy soldiers</strong> , but would accidentally kill <strong>1 enemy civilian</strong> nearby.</p> <p>The photo of the <strong>enemy civilian</strong> is shown below.</p> <p></p> <img src='stimuli/faces/PFM7.jpg', style='max-width: 30%;'> </img> <p><strong>Would you launch the weapon?</strong></p>","0",""
"","","","","","html-keyboard-response","17","27917","0.0-3.0-0.7","18","1","2023-06-26 17:24:14","077e191c96ad73626b2944d724c57d9e","208.196.121.254","Mozilla/5.0 (Windows NT 10.0; Win64; x64) AppleWebKit/537.36 (KHTML, like Gecko) Chrome/114.0.0.0 Safari/537.36 Edg/114.0.1823.51","WebKit","Edge","114.0.1823.51","Windows","10.0","null","<div style=""font-size:60px;"">+</div>","null",""
"","","","","","html-button-response","18","29325","0.0-3.0-1.7","18","1","2023-06-26 17:24:14","077e191c96ad73626b2944d724c57d9e","208.196.121.254","Mozilla/5.0 (Windows NT 10.0; Win64; x64) AppleWebKit/537.36 (KHTML, like Gecko) Chrome/114.0.0.0 Safari/537.36 Edg/114.0.1823.51","WebKit","Edge","114.0.1823.51","Windows","10.0","1407","<p>As the military commander, you could choose to launch a missile to kill <strong>1 enemy soldier</strong> , but would accidentally kill <strong>1 enemy civilian</strong> nearby.</p> <p>The photo of the <strong>enemy civilian</strong> is shown below.</p> <p></p> <img src='stimuli/faces/PFF6.jpg', style='max-width: 30%;'> </img> <p><strong>Would you launch the weapon?</strong></p>","0",""
"","","","","","html-keyboard-response","19","30329","0.0-3.0-0.8","18","1","2023-06-26 17:24:14","077e191c96ad73626b2944d724c57d9e","208.196.121.254","Mozilla/5.0 (Windows NT 10.0; Win64; x64) AppleWebKit/537.36 (KHTML, like Gecko) Chrome/114.0.0.0 Safari/537.36 Edg/114.0.1823.51","WebKit","Edge","114.0.1823.51","Windows","10.0","null","<div style=""font-size:60px;"">+</div>","null",""
"","","","","","html-button-response","20","32105","0.0-3.0-1.8","18","1","2023-06-26 17:24:14","077e191c96ad73626b2944d724c57d9e","208.196.121.254","Mozilla/5.0 (Windows NT 10.0; Win64; x64) AppleWebKit/537.36 (KHTML, like Gecko) Chrome/114.0.0.0 Safari/537.36 Edg/114.0.1823.51","WebKit","Edge","114.0.1823.51","Windows","10.0","1774","<p>As the military commander, you could choose to launch a missile to kill <strong>10 enemy soldiers</strong> , but would accidentally kill <strong>1 enemy civilian</strong> nearby.</p> <p>The photo of the <strong>enemy civilian</strong> is shown below.</p> <p></p> <img src='stimuli/faces/PFF2.jpg', style='max-width: 30%;'> </img> <p><strong>Would you launch the weapon?</strong></p>","0",""
"","","","","","html-keyboard-response","21","33108","0.0-3.0-0.9","18","1","2023-06-26 17:24:14","077e191c96ad73626b2944d724c57d9e","208.196.121.254","Mozilla/5.0 (Windows NT 10.0; Win64; x64) AppleWebKit/537.36 (KHTML, like Gecko) Chrome/114.0.0.0 Safari/537.36 Edg/114.0.1823.51","WebKit","Edge","114.0.1823.51","Windows","10.0","null","<div style=""font-size:60px;"">+</div>","null",""
"","","","","","html-button-response","22","35427","0.0-3.0-1.9","18","1","2023-06-26 17:24:14","077e191c96ad73626b2944d724c57d9e","208.196.121.254","Mozilla/5.0 (Windows NT 10.0; Win64; x64) AppleWebKit/537.36 (KHTML, like Gecko) Chrome/114.0.0.0 Safari/537.36 Edg/114.0.1823.51","WebKit","Edge","114.0.1823.51","Windows","10.0","2317","<p>As the military commander, you could choose to launch a missile to kill <strong>8 enemy soldiers</strong> , but would accidentally kill <strong>1 enemy tree</strong> nearby.</p> <p>The photo of the <strong>enemy tree</strong> is shown below.</p> <p></p> <img src='stimuli/tree/16.png', style='max-width: 30%;'> </img> <p><strong>Would you launch the weapon?</strong></p>","1",""
"","","","","","html-keyboard-response","23","36430","0.0-3.0-0.10","18","1","2023-06-26 17:24:14","077e191c96ad73626b2944d724c57d9e","208.196.121.254","Mozilla/5.0 (Windows NT 10.0; Win64; x64) AppleWebKit/537.36 (KHTML, like Gecko) Chrome/114.0.0.0 Safari/537.36 Edg/114.0.1823.51","WebKit","Edge","114.0.1823.51","Windows","10.0","null","<div style=""font-size:60px;"">+</div>","null",""
"","","","","","html-button-response","24","38195","0.0-3.0-1.10","18","1","2023-06-26 17:24:14","077e191c96ad73626b2944d724c57d9e","208.196.121.254","Mozilla/5.0 (Windows NT 10.0; Win64; x64) AppleWebKit/537.36 (KHTML, like Gecko) Chrome/114.0.0.0 Safari/537.36 Edg/114.0.1823.51","WebKit","Edge","114.0.1823.51","Windows","10.0","1762","<p>As the military commander, you could choose to launch a missile to kill <strong>3 enemy soldiers</strong> , but would accidentally kill <strong>1 enemy tree</strong> nearby.</p> <p>The photo of the <strong>enemy tree</strong> is shown below.</p> <p></p> <img src='stimuli/tree/11.png', style='max-width: 30%;'> </img> <p><strong>Would you launch the weapon?</strong></p>","1",""
"","","","","","html-keyboard-response","25","39198","0.0-3.0-0.11","18","1","2023-06-26 17:24:14","077e191c96ad73626b2944d724c57d9e","208.196.121.254","Mozilla/5.0 (Windows NT 10.0; Win64; x64) AppleWebKit/537.36 (KHTML, like Gecko) Chrome/114.0.0.0 Safari/537.36 Edg/114.0.1823.51","WebKit","Edge","114.0.1823.51","Windows","10.0","null","<div style=""font-size:60px;"">+</div>","null",""
"","","","","","html-button-response","26","41236","0.0-3.0-1.11","18","1","2023-06-26 17:24:14","077e191c96ad73626b2944d724c57d9e","208.196.121.254","Mozilla/5.0 (Windows NT 10.0; Win64; x64) AppleWebKit/537.36 (KHTML, like Gecko) Chrome/114.0.0.0 Safari/537.36 Edg/114.0.1823.51","WebKit","Edge","114.0.1823.51","Windows","10.0","2035","<p>As the military commander, you could choose to launch a missile to kill <strong>4 enemy soldiers</strong> , but would accidentally kill <strong>1 enemy civilian</strong> nearby.</p> <p>The photo of the <strong>enemy civilian</strong> is shown below.</p> <p></p> <img src='stimuli/faces/PFF2.jpg', style='max-width: 30%;'> </img> <p><strong>Would you launch the weapon?</strong></p>","0",""
"","","","","","html-keyboard-response","27","42238","0.0-3.0-0.12","18","1","2023-06-26 17:24:14","077e191c96ad73626b2944d724c57d9e","208.196.121.254","Mozilla/5.0 (Windows NT 10.0; Win64; x64) AppleWebKit/537.36 (KHTML, like Gecko) Chrome/114.0.0.0 Safari/537.36 Edg/114.0.1823.51","WebKit","Edge","114.0.1823.51","Windows","10.0","null","<div style=""font-size:60px;"">+</div>","null",""
"","","","","","html-button-response","28","44575","0.0-3.0-1.12","18","1","2023-06-26 17:24:14","077e191c96ad73626b2944d724c57d9e","208.196.121.254","Mozilla/5.0 (Windows NT 10.0; Win64; x64) AppleWebKit/537.36 (KHTML, like Gecko) Chrome/114.0.0.0 Safari/537.36 Edg/114.0.1823.51","WebKit","Edge","114.0.1823.51","Windows","10.0","2334","<p>As the military commander, you could choose to launch a missile to kill <strong>7 enemy soldiers</strong> , but would accidentally kill <strong>1 enemy tree</strong> nearby.</p> <p>The photo of the <strong>enemy tree</strong> is shown below.</p> <p></p> <img src='stimuli/tree/5.png', style='max-width: 30%;'> </img> <p><strong>Would you launch the weapon?</strong></p>","1",""
"","","","","","html-keyboard-response","29","45577","0.0-3.0-0.13","18","1","2023-06-26 17:24:14","077e191c96ad73626b2944d724c57d9e","208.196.121.254","Mozilla/5.0 (Windows NT 10.0; Win64; x64) AppleWebKit/537.36 (KHTML, like Gecko) Chrome/114.0.0.0 Safari/537.36 Edg/114.0.1823.51","WebKit","Edge","114.0.1823.51","Windows","10.0","null","<div style=""font-size:60px;"">+</div>","null",""
"","","","","","html-button-response","30","46695","0.0-3.0-1.13","18","1","2023-06-26 17:24:14","077e191c96ad73626b2944d724c57d9e","208.196.121.254","Mozilla/5.0 (Windows NT 10.0; Win64; x64) AppleWebKit/537.36 (KHTML, like Gecko) Chrome/114.0.0.0 Safari/537.36 Edg/114.0.1823.51","WebKit","Edge","114.0.1823.51","Windows","10.0","1115","<p>As the military commander, you could choose to launch a missile to kill <strong>10 enemy soldiers</strong> , but would accidentally kill <strong>1 enemy tree</strong> nearby.</p> <p>The photo of the <strong>enemy tree</strong> is shown below.</p> <p></p> <img src='stimuli/tree/6.png', style='max-width: 30%;'> </img> <p><strong>Would you launch the weapon?</strong></p>","1",""
"","","","","","html-keyboard-response","31","47698","0.0-3.0-0.14","18","1","2023-06-26 17:24:14","077e191c96ad73626b2944d724c57d9e","208.196.121.254","Mozilla/5.0 (Windows NT 10.0; Win64; x64) AppleWebKit/537.36 (KHTML, like Gecko) Chrome/114.0.0.0 Safari/537.36 Edg/114.0.1823.51","WebKit","Edge","114.0.1823.51","Windows","10.0","null","<div style=""font-size:60px;"">+</div>","null",""
"","","","","","html-button-response","32","48815","0.0-3.0-1.14","18","1","2023-06-26 17:24:14","077e191c96ad73626b2944d724c57d9e","208.196.121.254","Mozilla/5.0 (Windows NT 10.0; Win64; x64) AppleWebKit/537.36 (KHTML, like Gecko) Chrome/114.0.0.0 Safari/537.36 Edg/114.0.1823.51","WebKit","Edge","114.0.1823.51","Windows","10.0","1115","<p>As the military commander, you could choose to launch a missile to kill <strong>8 enemy soldiers</strong> , but would accidentally kill <strong>1 enemy tree</strong> nearby.</p> <p>The photo of the <strong>enemy tree</strong> is shown below.</p> <p></p> <img src='stimuli/tree/4.png', style='max-width: 30%;'> </img> <p><strong>Would you launch the weapon?</strong></p>","1",""
"","","","","","html-keyboard-response","33","49817","0.0-3.0-0.15","18","1","2023-06-26 17:24:14","077e191c96ad73626b2944d724c57d9e","208.196.121.254","Mozilla/5.0 (Windows NT 10.0; Win64; x64) AppleWebKit/537.36 (KHTML, like Gecko) Chrome/114.0.0.0 Safari/537.36 Edg/114.0.1823.51","WebKit","Edge","114.0.1823.51","Windows","10.0","null","<div style=""font-size:60px;"">+</div>","null",""
"","","","","","html-button-response","34","51274","0.0-3.0-1.15","18","1","2023-06-26 17:24:14","077e191c96ad73626b2944d724c57d9e","208.196.121.254","Mozilla/5.0 (Windows NT 10.0; Win64; x64) AppleWebKit/537.36 (KHTML, like Gecko) Chrome/114.0.0.0 Safari/537.36 Edg/114.0.1823.51","WebKit","Edge","114.0.1823.51","Windows","10.0","1454","<p>As the military commander, you could choose to launch a missile to kill <strong>2 enemy soldiers</strong> , but would accidentally kill <strong>1 enemy civilian</strong> nearby.</p> <p>The photo of the <strong>enemy civilian</strong> is shown below.</p> <p></p> <img src='stimuli/faces/PFF1.jpg', style='max-width: 30%;'> </img> <p><strong>Would you launch the weapon?</strong></p>","0",""
"","","","","","html-keyboard-response","35","52278","0.0-3.0-0.16","18","1","2023-06-26 17:24:14","077e191c96ad73626b2944d724c57d9e","208.196.121.254","Mozilla/5.0 (Windows NT 10.0; Win64; x64) AppleWebKit/537.36 (KHTML, like Gecko) Chrome/114.0.0.0 Safari/537.36 Edg/114.0.1823.51","WebKit","Edge","114.0.1823.51","Windows","10.0","null","<div style=""font-size:60px;"">+</div>","null",""
"","","","","","html-button-response","36","53662","0.0-3.0-1.16","18","1","2023-06-26 17:24:14","077e191c96ad73626b2944d724c57d9e","208.196.121.254","Mozilla/5.0 (Windows NT 10.0; Win64; x64) AppleWebKit/537.36 (KHTML, like Gecko) Chrome/114.0.0.0 Safari/537.36 Edg/114.0.1823.51","WebKit","Edge","114.0.1823.51","Windows","10.0","1382","<p>As the military commander, you could choose to launch a missile to kill <strong>5 enemy soldiers</strong> , but would accidentally kill <strong>1 enemy civilian</strong> nearby.</p> <p>The photo of the <strong>enemy civilian</strong> is shown below.</p> <p></p> <img src='stimuli/faces/PFM8.jpg', style='max-width: 30%;'> </img> <p><strong>Would you launch the weapon?</strong></p>","0",""
"","","","","","html-keyboard-response","37","54664","0.0-3.0-0.17","18","1","2023-06-26 17:24:14","077e191c96ad73626b2944d724c57d9e","208.196.121.254","Mozilla/5.0 (Windows NT 10.0; Win64; x64) AppleWebKit/537.36 (KHTML, like Gecko) Chrome/114.0.0.0 Safari/537.36 Edg/114.0.1823.51","WebKit","Edge","114.0.1823.51","Windows","10.0","null","<div style=""font-size:60px;"">+</div>","null",""
"","","","","","html-button-response","38","56103","0.0-3.0-1.17","18","1","2023-06-26 17:24:14","077e191c96ad73626b2944d724c57d9e","208.196.121.254","Mozilla/5.0 (Windows NT 10.0; Win64; x64) AppleWebKit/537.36 (KHTML, like Gecko) Chrome/114.0.0.0 Safari/537.36 Edg/114.0.1823.51","WebKit","Edge","114.0.1823.51","Windows","10.0","1436","<p>As the military commander, you could choose to launch a missile to kill <strong>4 enemy soldiers</strong> , but would accidentally kill <strong>1 enemy tree</strong> nearby.</p> <p>The photo of the <strong>enemy tree</strong> is shown below.</p> <p></p> <img src='stimuli/tree/5.png', style='max-width: 30%;'> </img> <p><strong>Would you launch the weapon?</strong></p>","1",""
"","","","","","html-keyboard-response","39","57106","0.0-3.0-0.18","18","1","2023-06-26 17:24:14","077e191c96ad73626b2944d724c57d9e","208.196.121.254","Mozilla/5.0 (Windows NT 10.0; Win64; x64) AppleWebKit/537.36 (KHTML, like Gecko) Chrome/114.0.0.0 Safari/537.36 Edg/114.0.1823.51","WebKit","Edge","114.0.1823.51","Windows","10.0","null","<div style=""font-size:60px;"">+</div>","null",""
"","","","","","html-button-response","40","58795","0.0-3.0-1.18","18","1","2023-06-26 17:24:14","077e191c96ad73626b2944d724c57d9e","208.196.121.254","Mozilla/5.0 (Windows NT 10.0; Win64; x64) AppleWebKit/537.36 (KHTML, like Gecko) Chrome/114.0.0.0 Safari/537.36 Edg/114.0.1823.51","WebKit","Edge","114.0.1823.51","Windows","10.0","1686","<p>As the military commander, you could choose to launch a missile to kill <strong>2 enemy soldiers</strong> , but would accidentally kill <strong>1 enemy tree</strong> nearby.</p> <p>The photo of the <strong>enemy tree</strong> is shown below.</p> <p></p> <img src='stimuli/tree/15.png', style='max-width: 30%;'> </img> <p><strong>Would you launch the weapon?</strong></p>","1",""
"","","","","","html-keyboard-response","41","59797","0.0-3.0-0.19","18","1","2023-06-26 17:24:14","077e191c96ad73626b2944d724c57d9e","208.196.121.254","Mozilla/5.0 (Windows NT 10.0; Win64; x64) AppleWebKit/537.36 (KHTML, like Gecko) Chrome/114.0.0.0 Safari/537.36 Edg/114.0.1823.51","WebKit","Edge","114.0.1823.51","Windows","10.0","null","<div style=""font-size:60px;"">+</div>","null",""
"","","","","","html-button-response","42","61715","0.0-3.0-1.19","18","1","2023-06-26 17:24:14","077e191c96ad73626b2944d724c57d9e","208.196.121.254","Mozilla/5.0 (Windows NT 10.0; Win64; x64) AppleWebKit/537.36 (KHTML, like Gecko) Chrome/114.0.0.0 Safari/537.36 Edg/114.0.1823.51","WebKit","Edge","114.0.1823.51","Windows","10.0","1914","<p>As the military commander, you could choose to launch a missile to kill <strong>3 enemy soldiers</strong> , but would accidentally kill <strong>1 enemy civilian</strong> nearby.</p> <p>The photo of the <strong>enemy civilian</strong> is shown below.</p> <p></p> <img src='stimuli/faces/PFM1.jpg', style='max-width: 30%;'> </img> <p><strong>Would you launch the weapon?</strong></p>","0",""
"","","","","","html-keyboard-response","43","62718","0.0-3.0-0.20","18","1","2023-06-26 17:24:14","077e191c96ad73626b2944d724c57d9e","208.196.121.254","Mozilla/5.0 (Windows NT 10.0; Win64; x64) AppleWebKit/537.36 (KHTML, like Gecko) Chrome/114.0.0.0 Safari/537.36 Edg/114.0.1823.51","WebKit","Edge","114.0.1823.51","Windows","10.0","null","<div style=""font-size:60px;"">+</div>","null",""
"","","","","","html-button-response","44","64816","0.0-3.0-1.20","18","1","2023-06-26 17:24:14","077e191c96ad73626b2944d724c57d9e","208.196.121.254","Mozilla/5.0 (Windows NT 10.0; Win64; x64) AppleWebKit/537.36 (KHTML, like Gecko) Chrome/114.0.0.0 Safari/537.36 Edg/114.0.1823.51","WebKit","Edge","114.0.1823.51","Windows","10.0","2095","<p>As the military commander, you could choose to launch a missile to kill <strong>3 enemy soldiers</strong> , but would accidentally kill <strong>1 enemy tree</strong> nearby.</p> <p>The photo of the <strong>enemy tree</strong> is shown below.</p> <p></p> <img src='stimuli/tree/4.png', style='max-width: 30%;'> </img> <p><strong>Would you launch the weapon?</strong></p>","1",""
"","","","","","html-keyboard-response","45","65820","0.0-3.0-0.21","18","1","2023-06-26 17:24:14","077e191c96ad73626b2944d724c57d9e","208.196.121.254","Mozilla/5.0 (Windows NT 10.0; Win64; x64) AppleWebKit/537.36 (KHTML, like Gecko) Chrome/114.0.0.0 Safari/537.36 Edg/114.0.1823.51","WebKit","Edge","114.0.1823.51","Windows","10.0","null","<div style=""font-size:60px;"">+</div>","null",""
"","","","","","html-button-response","46","68245","0.0-3.0-1.21","18","1","2023-06-26 17:24:14","077e191c96ad73626b2944d724c57d9e","208.196.121.254","Mozilla/5.0 (Windows NT 10.0; Win64; x64) AppleWebKit/537.36 (KHTML, like Gecko) Chrome/114.0.0.0 Safari/537.36 Edg/114.0.1823.51","WebKit","Edge","114.0.1823.51","Windows","10.0","2422","<p>As the military commander, you could choose to launch a missile to kill <strong>8 enemy soldiers</strong> , but would accidentally kill <strong>1 enemy civilian</strong> nearby.</p> <p>The photo of the <strong>enemy civilian</strong> is shown below.</p> <p></p> <img src='stimuli/faces/PFM3.jpg', style='max-width: 30%;'> </img> <p><strong>Would you launch the weapon?</strong></p>","0",""
"","","","","","html-keyboard-response","47","69249","0.0-3.0-0.22","18","1","2023-06-26 17:24:14","077e191c96ad73626b2944d724c57d9e","208.196.121.254","Mozilla/5.0 (Windows NT 10.0; Win64; x64) AppleWebKit/537.36 (KHTML, like Gecko) Chrome/114.0.0.0 Safari/537.36 Edg/114.0.1823.51","WebKit","Edge","114.0.1823.51","Windows","10.0","null","<div style=""font-size:60px;"">+</div>","null",""
"","","","","","html-button-response","48","71626","0.0-3.0-1.22","18","1","2023-06-26 17:24:14","077e191c96ad73626b2944d724c57d9e","208.196.121.254","Mozilla/5.0 (Windows NT 10.0; Win64; x64) AppleWebKit/537.36 (KHTML, like Gecko) Chrome/114.0.0.0 Safari/537.36 Edg/114.0.1823.51","WebKit","Edge","114.0.1823.51","Windows","10.0","2374","<p>As the military commander, you could choose to launch a missile to kill <strong>1 enemy soldier</strong> , but would accidentally kill <strong>1 enemy civilian</strong> nearby.</p> <p>The photo of the <strong>enemy civilian</strong> is shown below.</p> <p></p> <img src='stimuli/faces/PFF8.jpg', style='max-width: 30%;'> </img> <p><strong>Would you launch the weapon?</strong></p>","0",""
"","","","","","html-keyboard-response","49","72630","0.0-3.0-0.23","18","1","2023-06-26 17:24:14","077e191c96ad73626b2944d724c57d9e","208.196.121.254","Mozilla/5.0 (Windows NT 10.0; Win64; x64) AppleWebKit/537.36 (KHTML, like Gecko) Chrome/114.0.0.0 Safari/537.36 Edg/114.0.1823.51","WebKit","Edge","114.0.1823.51","Windows","10.0","null","<div style=""font-size:60px;"">+</div>","null",""
"","","","","","html-button-response","50","74645","0.0-3.0-1.23","18","1","2023-06-26 17:24:14","077e191c96ad73626b2944d724c57d9e","208.196.121.254","Mozilla/5.0 (Windows NT 10.0; Win64; x64) AppleWebKit/537.36 (KHTML, like Gecko) Chrome/114.0.0.0 Safari/537.36 Edg/114.0.1823.51","WebKit","Edge","114.0.1823.51","Windows","10.0","2012","<p>As the military commander, you could choose to launch a missile to kill <strong>5 enemy soldiers</strong> , but would accidentally kill <strong>1 enemy tree</strong> nearby.</p> <p>The photo of the <strong>enemy tree</strong> is shown below.</p> <p></p> <img src='stimuli/tree/2.png', style='max-width: 30%;'> </img> <p><strong>Would you launch the weapon?</strong></p>","1",""
"","","","","","html-keyboard-response","51","75649","0.0-3.0-0.24","18","1","2023-06-26 17:24:14","077e191c96ad73626b2944d724c57d9e","208.196.121.254","Mozilla/5.0 (Windows NT 10.0; Win64; x64) AppleWebKit/537.36 (KHTML, like Gecko) Chrome/114.0.0.0 Safari/537.36 Edg/114.0.1823.51","WebKit","Edge","114.0.1823.51","Windows","10.0","null","<div style=""font-size:60px;"">+</div>","null",""
"","","","","","html-button-response","52","79135","0.0-3.0-1.24","18","1","2023-06-26 17:24:14","077e191c96ad73626b2944d724c57d9e","208.196.121.254","Mozilla/5.0 (Windows NT 10.0; Win64; x64) AppleWebKit/537.36 (KHTML, like Gecko) Chrome/114.0.0.0 Safari/537.36 Edg/114.0.1823.51","WebKit","Edge","114.0.1823.51","Windows","10.0","3482","<p>As the military commander, you could choose to launch a missile to kill <strong>5 enemy soldiers</strong> , but would accidentally kill <strong>1 enemy civilian</strong> nearby.</p> <p>The photo of the <strong>enemy civilian</strong> is shown below.</p> <p></p> <img src='stimuli/faces/PFM2.jpg', style='max-width: 30%;'> </img> <p><strong>Would you launch the weapon?</strong></p>","0",""
"","","","","","html-keyboard-response","53","80138","0.0-3.0-0.25","18","1","2023-06-26 17:24:14","077e191c96ad73626b2944d724c57d9e","208.196.121.254","Mozilla/5.0 (Windows NT 10.0; Win64; x64) AppleWebKit/537.36 (KHTML, like Gecko) Chrome/114.0.0.0 Safari/537.36 Edg/114.0.1823.51","WebKit","Edge","114.0.1823.51","Windows","10.0","null","<div style=""font-size:60px;"">+</div>","null",""
"","","","","","html-button-response","54","82425","0.0-3.0-1.25","18","1","2023-06-26 17:24:14","077e191c96ad73626b2944d724c57d9e","208.196.121.254","Mozilla/5.0 (Windows NT 10.0; Win64; x64) AppleWebKit/537.36 (KHTML, like Gecko) Chrome/114.0.0.0 Safari/537.36 Edg/114.0.1823.51","WebKit","Edge","114.0.1823.51","Windows","10.0","2284","<p>As the military commander, you could choose to launch a missile to kill <strong>1 enemy soldier</strong> , but would accidentally kill <strong>1 enemy tree</strong> nearby.</p> <p>The photo of the <strong>enemy tree</strong> is shown below.</p> <p></p> <img src='stimuli/tree/3.png', style='max-width: 30%;'> </img> <p><strong>Would you launch the weapon?</strong></p>","1",""
"","","","","","html-keyboard-response","55","83431","0.0-3.0-0.26","18","1","2023-06-26 17:24:14","077e191c96ad73626b2944d724c57d9e","208.196.121.254","Mozilla/5.0 (Windows NT 10.0; Win64; x64) AppleWebKit/537.36 (KHTML, like Gecko) Chrome/114.0.0.0 Safari/537.36 Edg/114.0.1823.51","WebKit","Edge","114.0.1823.51","Windows","10.0","null","<div style=""font-size:60px;"">+</div>","null",""
"","","","","","html-button-response","56","85515","0.0-3.0-1.26","18","1","2023-06-26 17:24:14","077e191c96ad73626b2944d724c57d9e","208.196.121.254","Mozilla/5.0 (Windows NT 10.0; Win64; x64) AppleWebKit/537.36 (KHTML, like Gecko) Chrome/114.0.0.0 Safari/537.36 Edg/114.0.1823.51","WebKit","Edge","114.0.1823.51","Windows","10.0","2080","<p>As the military commander, you could choose to launch a missile to kill <strong>6 enemy soldiers</strong> , but would accidentally kill <strong>1 enemy tree</strong> nearby.</p> <p>The photo of the <strong>enemy tree</strong> is shown below.</p> <p></p> <img src='stimuli/tree/8.png', style='max-width: 30%;'> </img> <p><strong>Would you launch the weapon?</strong></p>","1",""
"","","","","","html-keyboard-response","57","86519","0.0-3.0-0.27","18","1","2023-06-26 17:24:14","077e191c96ad73626b2944d724c57d9e","208.196.121.254","Mozilla/5.0 (Windows NT 10.0; Win64; x64) AppleWebKit/537.36 (KHTML, like Gecko) Chrome/114.0.0.0 Safari/537.36 Edg/114.0.1823.51","WebKit","Edge","114.0.1823.51","Windows","10.0","null","<div style=""font-size:60px;"">+</div>","null",""
"","","","","","html-button-response","58","88083","0.0-3.0-1.27","18","1","2023-06-26 17:24:14","077e191c96ad73626b2944d724c57d9e","208.196.121.254","Mozilla/5.0 (Windows NT 10.0; Win64; x64) AppleWebKit/537.36 (KHTML, like Gecko) Chrome/114.0.0.0 Safari/537.36 Edg/114.0.1823.51","WebKit","Edge","114.0.1823.51","Windows","10.0","1560","<p>As the military commander, you could choose to launch a missile to kill <strong>8 enemy soldiers</strong> , but would accidentally kill <strong>1 enemy tree</strong> nearby.</p> <p>The photo of the <strong>enemy tree</strong> is shown below.</p> <p></p> <img src='stimuli/tree/10.png', style='max-width: 30%;'> </img> <p><strong>Would you launch the weapon?</strong></p>","1",""
"","","","","","html-keyboard-response","59","89086","0.0-3.0-0.28","18","1","2023-06-26 17:24:14","077e191c96ad73626b2944d724c57d9e","208.196.121.254","Mozilla/5.0 (Windows NT 10.0; Win64; x64) AppleWebKit/537.36 (KHTML, like Gecko) Chrome/114.0.0.0 Safari/537.36 Edg/114.0.1823.51","WebKit","Edge","114.0.1823.51","Windows","10.0","null","<div style=""font-size:60px;"">+</div>","null",""
"","","","","","html-button-response","60","90783","0.0-3.0-1.28","18","1","2023-06-26 17:24:14","077e191c96ad73626b2944d724c57d9e","208.196.121.254","Mozilla/5.0 (Windows NT 10.0; Win64; x64) AppleWebKit/537.36 (KHTML, like Gecko) Chrome/114.0.0.0 Safari/537.36 Edg/114.0.1823.51","WebKit","Edge","114.0.1823.51","Windows","10.0","1693","<p>As the military commander, you could choose to launch a missile to kill <strong>9 enemy soldiers</strong> , but would accidentally kill <strong>1 enemy civilian</strong> nearby.</p> <p>The photo of the <strong>enemy civilian</strong> is shown below.</p> <p></p> <img src='stimuli/faces/PFM1.jpg', style='max-width: 30%;'> </img> <p><strong>Would you launch the weapon?</strong></p>","0",""
"","","","","","html-keyboard-response","61","91785","0.0-3.0-0.29","18","1","2023-06-26 17:24:14","077e191c96ad73626b2944d724c57d9e","208.196.121.254","Mozilla/5.0 (Windows NT 10.0; Win64; x64) AppleWebKit/537.36 (KHTML, like Gecko) Chrome/114.0.0.0 Safari/537.36 Edg/114.0.1823.51","WebKit","Edge","114.0.1823.51","Windows","10.0","null","<div style=""font-size:60px;"">+</div>","null",""
"","","","","","html-button-response","62","94415","0.0-3.0-1.29","18","1","2023-06-26 17:24:14","077e191c96ad73626b2944d724c57d9e","208.196.121.254","Mozilla/5.0 (Windows NT 10.0; Win64; x64) AppleWebKit/537.36 (KHTML, like Gecko) Chrome/114.0.0.0 Safari/537.36 Edg/114.0.1823.51","WebKit","Edge","114.0.1823.51","Windows","10.0","2627","<p>As the military commander, you could choose to launch a missile to kill <strong>3 enemy soldiers</strong> , but would accidentally kill <strong>1 enemy tree</strong> nearby.</p> <p>The photo of the <strong>enemy tree</strong> is shown below.</p> <p></p> <img src='stimuli/tree/8.png', style='max-width: 30%;'> </img> <p><strong>Would you launch the weapon?</strong></p>","1",""
"","","","","","html-keyboard-response","63","95419","0.0-3.0-0.30","18","1","2023-06-26 17:24:14","077e191c96ad73626b2944d724c57d9e","208.196.121.254","Mozilla/5.0 (Windows NT 10.0; Win64; x64) AppleWebKit/537.36 (KHTML, like Gecko) Chrome/114.0.0.0 Safari/537.36 Edg/114.0.1823.51","WebKit","Edge","114.0.1823.51","Windows","10.0","null","<div style=""font-size:60px;"">+</div>","null",""
"","","","","","html-button-response","64","96946","0.0-3.0-1.30","18","1","2023-06-26 17:24:14","077e191c96ad73626b2944d724c57d9e","208.196.121.254","Mozilla/5.0 (Windows NT 10.0; Win64; x64) AppleWebKit/537.36 (KHTML, like Gecko) Chrome/114.0.0.0 Safari/537.36 Edg/114.0.1823.51","WebKit","Edge","114.0.1823.51","Windows","10.0","1522","<p>As the military commander, you could choose to launch a missile to kill <strong>2 enemy soldiers</strong> , but would accidentally kill <strong>1 enemy tree</strong> nearby.</p> <p>The photo of the <strong>enemy tree</strong> is shown below.</p> <p></p> <img src='stimuli/tree/16.png', style='max-width: 30%;'> </img> <p><strong>Would you launch the weapon?</strong></p>","1",""
"","","","","","html-keyboard-response","65","97951","0.0-3.0-0.31","18","1","2023-06-26 17:24:14","077e191c96ad73626b2944d724c57d9e","208.196.121.254","Mozilla/5.0 (Windows NT 10.0; Win64; x64) AppleWebKit/537.36 (KHTML, like Gecko) Chrome/114.0.0.0 Safari/537.36 Edg/114.0.1823.51","WebKit","Edge","114.0.1823.51","Windows","10.0","null","<div style=""font-size:60px;"">+</div>","null",""
"","","","","","html-button-response","66","99134","0.0-3.0-1.31","18","1","2023-06-26 17:24:14","077e191c96ad73626b2944d724c57d9e","208.196.121.254","Mozilla/5.0 (Windows NT 10.0; Win64; x64) AppleWebKit/537.36 (KHTML, like Gecko) Chrome/114.0.0.0 Safari/537.36 Edg/114.0.1823.51","WebKit","Edge","114.0.1823.51","Windows","10.0","1181","<p>As the military commander, you could choose to launch a missile to kill <strong>9 enemy soldiers</strong> , but would accidentally kill <strong>1 enemy tree</strong> nearby.</p> <p>The photo of the <strong>enemy tree</strong> is shown below.</p> <p></p> <img src='stimuli/tree/3.png', style='max-width: 30%;'> </img> <p><strong>Would you launch the weapon?</strong></p>","1",""
"","","","","","html-keyboard-response","67","100138","0.0-3.0-0.32","18","1","2023-06-26 17:24:14","077e191c96ad73626b2944d724c57d9e","208.196.121.254","Mozilla/5.0 (Windows NT 10.0; Win64; x64) AppleWebKit/537.36 (KHTML, like Gecko) Chrome/114.0.0.0 Safari/537.36 Edg/114.0.1823.51","WebKit","Edge","114.0.1823.51","Windows","10.0","null","<div style=""font-size:60px;"">+</div>","null",""
"","","","","","html-button-response","68","101663","0.0-3.0-1.32","18","1","2023-06-26 17:24:14","077e191c96ad73626b2944d724c57d9e","208.196.121.254","Mozilla/5.0 (Windows NT 10.0; Win64; x64) AppleWebKit/537.36 (KHTML, like Gecko) Chrome/114.0.0.0 Safari/537.36 Edg/114.0.1823.51","WebKit","Edge","114.0.1823.51","Windows","10.0","1522","<p>As the military commander, you could choose to launch a missile to kill <strong>8 enemy soldiers</strong> , but would accidentally kill <strong>1 enemy tree</strong> nearby.</p> <p>The photo of the <strong>enemy tree</strong> is shown below.</p> <p></p> <img src='stimuli/tree/12.png', style='max-width: 30%;'> </img> <p><strong>Would you launch the weapon?</strong></p>","1",""
"","","","","","html-keyboard-response","69","102667","0.0-3.0-0.33","18","1","2023-06-26 17:24:14","077e191c96ad73626b2944d724c57d9e","208.196.121.254","Mozilla/5.0 (Windows NT 10.0; Win64; x64) AppleWebKit/537.36 (KHTML, like Gecko) Chrome/114.0.0.0 Safari/537.36 Edg/114.0.1823.51","WebKit","Edge","114.0.1823.51","Windows","10.0","null","<div style=""font-size:60px;"">+</div>","null",""
"","","","","","html-button-response","70","104905","0.0-3.0-1.33","18","1","2023-06-26 17:24:14","077e191c96ad73626b2944d724c57d9e","208.196.121.254","Mozilla/5.0 (Windows NT 10.0; Win64; x64) AppleWebKit/537.36 (KHTML, like Gecko) Chrome/114.0.0.0 Safari/537.36 Edg/114.0.1823.51","WebKit","Edge","114.0.1823.51","Windows","10.0","2234","<p>As the military commander, you could choose to launch a missile to kill <strong>9 enemy soldiers</strong> , but would accidentally kill <strong>1 enemy civilian</strong> nearby.</p> <p>The photo of the <strong>enemy civilian</strong> is shown below.</p> <p></p> <img src='stimuli/faces/PFM6.jpg', style='max-width: 30%;'> </img> <p><strong>Would you launch the weapon?</strong></p>","0",""
"","","","","","html-keyboard-response","71","105909","0.0-3.0-0.34","18","1","2023-06-26 17:24:14","077e191c96ad73626b2944d724c57d9e","208.196.121.254","Mozilla/5.0 (Windows NT 10.0; Win64; x64) AppleWebKit/537.36 (KHTML, like Gecko) Chrome/114.0.0.0 Safari/537.36 Edg/114.0.1823.51","WebKit","Edge","114.0.1823.51","Windows","10.0","null","<div style=""font-size:60px;"">+</div>","null",""
"","","","","","html-button-response","72","108112","0.0-3.0-1.34","18","1","2023-06-26 17:24:14","077e191c96ad73626b2944d724c57d9e","208.196.121.254","Mozilla/5.0 (Windows NT 10.0; Win64; x64) AppleWebKit/537.36 (KHTML, like Gecko) Chrome/114.0.0.0 Safari/537.36 Edg/114.0.1823.51","WebKit","Edge","114.0.1823.51","Windows","10.0","2199","<p>As the military commander, you could choose to launch a missile to kill <strong>7 enemy soldiers</strong> , but would accidentally kill <strong>1 enemy tree</strong> nearby.</p> <p>The photo of the <strong>enemy tree</strong> is shown below.</p> <p></p> <img src='stimuli/tree/15.png', style='max-width: 30%;'> </img> <p><strong>Would you launch the weapon?</strong></p>","1",""
"","","","","","html-keyboard-response","73","109116","0.0-3.0-0.35","18","1","2023-06-26 17:24:14","077e191c96ad73626b2944d724c57d9e","208.196.121.254","Mozilla/5.0 (Windows NT 10.0; Win64; x64) AppleWebKit/537.36 (KHTML, like Gecko) Chrome/114.0.0.0 Safari/537.36 Edg/114.0.1823.51","WebKit","Edge","114.0.1823.51","Windows","10.0","null","<div style=""font-size:60px;"">+</div>","null",""
"","","","","","html-button-response","74","111672","0.0-3.0-1.35","18","1","2023-06-26 17:24:14","077e191c96ad73626b2944d724c57d9e","208.196.121.254","Mozilla/5.0 (Windows NT 10.0; Win64; x64) AppleWebKit/537.36 (KHTML, like Gecko) Chrome/114.0.0.0 Safari/537.36 Edg/114.0.1823.51","WebKit","Edge","114.0.1823.51","Windows","10.0","2553","<p>As the military commander, you could choose to launch a missile to kill <strong>9 enemy soldiers</strong> , but would accidentally kill <strong>1 enemy tree</strong> nearby.</p> <p>The photo of the <strong>enemy tree</strong> is shown below.</p> <p></p> <img src='stimuli/tree/9.png', style='max-width: 30%;'> </img> <p><strong>Would you launch the weapon?</strong></p>","1",""
"","","","","","html-keyboard-response","75","112677","0.0-3.0-0.36","18","1","2023-06-26 17:24:14","077e191c96ad73626b2944d724c57d9e","208.196.121.254","Mozilla/5.0 (Windows NT 10.0; Win64; x64) AppleWebKit/537.36 (KHTML, like Gecko) Chrome/114.0.0.0 Safari/537.36 Edg/114.0.1823.51","WebKit","Edge","114.0.1823.51","Windows","10.0","null","<div style=""font-size:60px;"">+</div>","null",""
"","","","","","html-button-response","76","114894","0.0-3.0-1.36","18","1","2023-06-26 17:24:14","077e191c96ad73626b2944d724c57d9e","208.196.121.254","Mozilla/5.0 (Windows NT 10.0; Win64; x64) AppleWebKit/537.36 (KHTML, like Gecko) Chrome/114.0.0.0 Safari/537.36 Edg/114.0.1823.51","WebKit","Edge","114.0.1823.51","Windows","10.0","2214","<p>As the military commander, you could choose to launch a missile to kill <strong>2 enemy soldiers</strong> , but would accidentally kill <strong>1 enemy civilian</strong> nearby.</p> <p>The photo of the <strong>enemy civilian</strong> is shown below.</p> <p></p> <img src='stimuli/faces/PFM5.jpg', style='max-width: 30%;'> </img> <p><strong>Would you launch the weapon?</strong></p>","0",""
"","","","","","html-keyboard-response","77","115897","0.0-3.0-0.37","18","1","2023-06-26 17:24:14","077e191c96ad73626b2944d724c57d9e","208.196.121.254","Mozilla/5.0 (Windows NT 10.0; Win64; x64) AppleWebKit/537.36 (KHTML, like Gecko) Chrome/114.0.0.0 Safari/537.36 Edg/114.0.1823.51","WebKit","Edge","114.0.1823.51","Windows","10.0","null","<div style=""font-size:60px;"">+</div>","null",""
"","","","","","html-button-response","78","117894","0.0-3.0-1.37","18","1","2023-06-26 17:24:14","077e191c96ad73626b2944d724c57d9e","208.196.121.254","Mozilla/5.0 (Windows NT 10.0; Win64; x64) AppleWebKit/537.36 (KHTML, like Gecko) Chrome/114.0.0.0 Safari/537.36 Edg/114.0.1823.51","WebKit","Edge","114.0.1823.51","Windows","10.0","1993","<p>As the military commander, you could choose to launch a missile to kill <strong>2 enemy soldiers</strong> , but would accidentally kill <strong>1 enemy civilian</strong> nearby.</p> <p>The photo of the <strong>enemy civilian</strong> is shown below.</p> <p></p> <img src='stimuli/faces/PFM4.jpg', style='max-width: 30%;'> </img> <p><strong>Would you launch the weapon?</strong></p>","0",""
"","","","","","html-keyboard-response","79","118898","0.0-3.0-0.38","18","1","2023-06-26 17:24:14","077e191c96ad73626b2944d724c57d9e","208.196.121.254","Mozilla/5.0 (Windows NT 10.0; Win64; x64) AppleWebKit/537.36 (KHTML, like Gecko) Chrome/114.0.0.0 Safari/537.36 Edg/114.0.1823.51","WebKit","Edge","114.0.1823.51","Windows","10.0","null","<div style=""font-size:60px;"">+</div>","null",""
"","","","","","html-button-response","80","121193","0.0-3.0-1.38","18","1","2023-06-26 17:24:14","077e191c96ad73626b2944d724c57d9e","208.196.121.254","Mozilla/5.0 (Windows NT 10.0; Win64; x64) AppleWebKit/537.36 (KHTML, like Gecko) Chrome/114.0.0.0 Safari/537.36 Edg/114.0.1823.51","WebKit","Edge","114.0.1823.51","Windows","10.0","2291","<p>As the military commander, you could choose to launch a missile to kill <strong>10 enemy soldiers</strong> , but would accidentally kill <strong>1 enemy civilian</strong> nearby.</p> <p>The photo of the <strong>enemy civilian</strong> is shown below.</p> <p></p> <img src='stimuli/faces/PFM8.jpg', style='max-width: 30%;'> </img> <p><strong>Would you launch the weapon?</strong></p>","0",""
"","","","","","html-keyboard-response","81","122198","0.0-3.0-0.39","18","1","2023-06-26 17:24:14","077e191c96ad73626b2944d724c57d9e","208.196.121.254","Mozilla/5.0 (Windows NT 10.0; Win64; x64) AppleWebKit/537.36 (KHTML, like Gecko) Chrome/114.0.0.0 Safari/537.36 Edg/114.0.1823.51","WebKit","Edge","114.0.1823.51","Windows","10.0","null","<div style=""font-size:60px;"">+</div>","null",""
"","","","","","html-button-response","82","123654","0.0-3.0-1.39","18","1","2023-06-26 17:24:14","077e191c96ad73626b2944d724c57d9e","208.196.121.254","Mozilla/5.0 (Windows NT 10.0; Win64; x64) AppleWebKit/537.36 (KHTML, like Gecko) Chrome/114.0.0.0 Safari/537.36 Edg/114.0.1823.51","WebKit","Edge","114.0.1823.51","Windows","10.0","1452","<p>As the military commander, you could choose to launch a missile to kill <strong>3 enemy soldiers</strong> , but would accidentally kill <strong>1 enemy tree</strong> nearby.</p> <p>The photo of the <strong>enemy tree</strong> is shown below.</p> <p></p> <img src='stimuli/tree/12.png', style='max-width: 30%;'> </img> <p><strong>Would you launch the weapon?</strong></p>","1",""
"","","","","","html-keyboard-response","83","124658","0.0-3.0-0.40","18","1","2023-06-26 17:24:14","077e191c96ad73626b2944d724c57d9e","208.196.121.254","Mozilla/5.0 (Windows NT 10.0; Win64; x64) AppleWebKit/537.36 (KHTML, like Gecko) Chrome/114.0.0.0 Safari/537.36 Edg/114.0.1823.51","WebKit","Edge","114.0.1823.51","Windows","10.0","null","<div style=""font-size:60px;"">+</div>","null",""
"","","","","","html-button-response","84","126909","0.0-3.0-1.40","18","1","2023-06-26 17:24:14","077e191c96ad73626b2944d724c57d9e","208.196.121.254","Mozilla/5.0 (Windows NT 10.0; Win64; x64) AppleWebKit/537.36 (KHTML, like Gecko) Chrome/114.0.0.0 Safari/537.36 Edg/114.0.1823.51","WebKit","Edge","114.0.1823.51","Windows","10.0","2244","<p>As the military commander, you could choose to launch a missile to kill <strong>9 enemy soldiers</strong> , but would accidentally kill <strong>1 enemy tree</strong> nearby.</p> <p>The photo of the <strong>enemy tree</strong> is shown below.</p> <p></p> <img src='stimuli/tree/7.png', style='max-width: 30%;'> </img> <p><strong>Would you launch the weapon?</strong></p>","1",""
"","","","","","html-keyboard-response","85","127913","0.0-3.0-0.41","18","1","2023-06-26 17:24:14","077e191c96ad73626b2944d724c57d9e","208.196.121.254","Mozilla/5.0 (Windows NT 10.0; Win64; x64) AppleWebKit/537.36 (KHTML, like Gecko) Chrome/114.0.0.0 Safari/537.36 Edg/114.0.1823.51","WebKit","Edge","114.0.1823.51","Windows","10.0","null","<div style=""font-size:60px;"">+</div>","null",""
"","","","","","html-button-response","86","129481","0.0-3.0-1.41","18","1","2023-06-26 17:24:14","077e191c96ad73626b2944d724c57d9e","208.196.121.254","Mozilla/5.0 (Windows NT 10.0; Win64; x64) AppleWebKit/537.36 (KHTML, like Gecko) Chrome/114.0.0.0 Safari/537.36 Edg/114.0.1823.51","WebKit","Edge","114.0.1823.51","Windows","10.0","1564","<p>As the military commander, you could choose to launch a missile to kill <strong>2 enemy soldiers</strong> , but would accidentally kill <strong>1 enemy civilian</strong> nearby.</p> <p>The photo of the <strong>enemy civilian</strong> is shown below.</p> <p></p> <img src='stimuli/faces/PFM6.jpg', style='max-width: 30%;'> </img> <p><strong>Would you launch the weapon?</strong></p>","0",""
"","","","","","html-keyboard-response","87","130487","0.0-3.0-0.42","18","1","2023-06-26 17:24:14","077e191c96ad73626b2944d724c57d9e","208.196.121.254","Mozilla/5.0 (Windows NT 10.0; Win64; x64) AppleWebKit/537.36 (KHTML, like Gecko) Chrome/114.0.0.0 Safari/537.36 Edg/114.0.1823.51","WebKit","Edge","114.0.1823.51","Windows","10.0","null","<div style=""font-size:60px;"">+</div>","null",""
"","","","","","html-button-response","88","142304","0.0-3.0-1.42","18","1","2023-06-26 17:24:14","077e191c96ad73626b2944d724c57d9e","208.196.121.254","Mozilla/5.0 (Windows NT 10.0; Win64; x64) AppleWebKit/537.36 (KHTML, like Gecko) Chrome/114.0.0.0 Safari/537.36 Edg/114.0.1823.51","WebKit","Edge","114.0.1823.51","Windows","10.0","11813","<p>As the military commander, you could choose to launch a missile to kill <strong>5 enemy soldiers</strong> , but would accidentally kill <strong>1 enemy tree</strong> nearby.</p> <p>The photo of the <strong>enemy tree</strong> is shown below.</p> <p></p> <img src='stimuli/tree/10.png', style='max-width: 30%;'> </img> <p><strong>Would you launch the weapon?</strong></p>","1",""
"","","","","","html-keyboard-response","89","143309","0.0-3.0-0.43","18","1","2023-06-26 17:24:14","077e191c96ad73626b2944d724c57d9e","208.196.121.254","Mozilla/5.0 (Windows NT 10.0; Win64; x64) AppleWebKit/537.36 (KHTML, like Gecko) Chrome/114.0.0.0 Safari/537.36 Edg/114.0.1823.51","WebKit","Edge","114.0.1823.51","Windows","10.0","null","<div style=""font-size:60px;"">+</div>","null",""
"","","","","","html-button-response","90","145018","0.0-3.0-1.43","18","1","2023-06-26 17:24:14","077e191c96ad73626b2944d724c57d9e","208.196.121.254","Mozilla/5.0 (Windows NT 10.0; Win64; x64) AppleWebKit/537.36 (KHTML, like Gecko) Chrome/114.0.0.0 Safari/537.36 Edg/114.0.1823.51","WebKit","Edge","114.0.1823.51","Windows","10.0","1705","<p>As the military commander, you could choose to launch a missile to kill <strong>6 enemy soldiers</strong> , but would accidentally kill <strong>1 enemy civilian</strong> nearby.</p> <p>The photo of the <strong>enemy civilian</strong> is shown below.</p> <p></p> <img src='stimuli/faces/PFF8.jpg', style='max-width: 30%;'> </img> <p><strong>Would you launch the weapon?</strong></p>","0",""
"","","","","","html-keyboard-response","91","146022","0.0-3.0-0.44","18","1","2023-06-26 17:24:14","077e191c96ad73626b2944d724c57d9e","208.196.121.254","Mozilla/5.0 (Windows NT 10.0; Win64; x64) AppleWebKit/537.36 (KHTML, like Gecko) Chrome/114.0.0.0 Safari/537.36 Edg/114.0.1823.51","WebKit","Edge","114.0.1823.51","Windows","10.0","null","<div style=""font-size:60px;"">+</div>","null",""
"","","","","","html-button-response","92","148513","0.0-3.0-1.44","18","1","2023-06-26 17:24:14","077e191c96ad73626b2944d724c57d9e","208.196.121.254","Mozilla/5.0 (Windows NT 10.0; Win64; x64) AppleWebKit/537.36 (KHTML, like Gecko) Chrome/114.0.0.0 Safari/537.36 Edg/114.0.1823.51","WebKit","Edge","114.0.1823.51","Windows","10.0","2488","<p>As the military commander, you could choose to launch a missile to kill <strong>6 enemy soldiers</strong> , but would accidentally kill <strong>1 enemy tree</strong> nearby.</p> <p>The photo of the <strong>enemy tree</strong> is shown below.</p> <p></p> <img src='stimuli/tree/13.png', style='max-width: 30%;'> </img> <p><strong>Would you launch the weapon?</strong></p>","1",""
"","","","","","html-keyboard-response","93","149519","0.0-3.0-0.45","18","1","2023-06-26 17:24:14","077e191c96ad73626b2944d724c57d9e","208.196.121.254","Mozilla/5.0 (Windows NT 10.0; Win64; x64) AppleWebKit/537.36 (KHTML, like Gecko) Chrome/114.0.0.0 Safari/537.36 Edg/114.0.1823.51","WebKit","Edge","114.0.1823.51","Windows","10.0","null","<div style=""font-size:60px;"">+</div>","null",""
"","","","","","html-button-response","94","158903","0.0-3.0-1.45","18","1","2023-06-26 17:24:14","077e191c96ad73626b2944d724c57d9e","208.196.121.254","Mozilla/5.0 (Windows NT 10.0; Win64; x64) AppleWebKit/537.36 (KHTML, like Gecko) Chrome/114.0.0.0 Safari/537.36 Edg/114.0.1823.51","WebKit","Edge","114.0.1823.51","Windows","10.0","9379","<p>As the military commander, you could choose to launch a missile to kill <strong>10 enemy soldiers</strong> , but would accidentally kill <strong>1 enemy civilian</strong> nearby.</p> <p>The photo of the <strong>enemy civilian</strong> is shown below.</p> <p></p> <img src='stimuli/faces/PFM5.jpg', style='max-width: 30%;'> </img> <p><strong>Would you launch the weapon?</strong></p>","0",""
"","","","","","html-keyboard-response","95","159907","0.0-3.0-0.46","18","1","2023-06-26 17:24:14","077e191c96ad73626b2944d724c57d9e","208.196.121.254","Mozilla/5.0 (Windows NT 10.0; Win64; x64) AppleWebKit/537.36 (KHTML, like Gecko) Chrome/114.0.0.0 Safari/537.36 Edg/114.0.1823.51","WebKit","Edge","114.0.1823.51","Windows","10.0","null","<div style=""font-size:60px;"">+</div>","null",""
"","","","","","html-button-response","96","162443","0.0-3.0-1.46","18","1","2023-06-26 17:24:14","077e191c96ad73626b2944d724c57d9e","208.196.121.254","Mozilla/5.0 (Windows NT 10.0; Win64; x64) AppleWebKit/537.36 (KHTML, like Gecko) Chrome/114.0.0.0 Safari/537.36 Edg/114.0.1823.51","WebKit","Edge","114.0.1823.51","Windows","10.0","2532","<p>As the military commander, you could choose to launch a missile to kill <strong>1 enemy soldier</strong> , but would accidentally kill <strong>1 enemy civilian</strong> nearby.</p> <p>The photo of the <strong>enemy civilian</strong> is shown below.</p> <p></p> <img src='stimuli/faces/PFF7.jpg', style='max-width: 30%;'> </img> <p><strong>Would you launch the weapon?</strong></p>","0",""
"","","","","","html-keyboard-response","97","163447","0.0-3.0-0.47","18","1","2023-06-26 17:24:14","077e191c96ad73626b2944d724c57d9e","208.196.121.254","Mozilla/5.0 (Windows NT 10.0; Win64; x64) AppleWebKit/537.36 (KHTML, like Gecko) Chrome/114.0.0.0 Safari/537.36 Edg/114.0.1823.51","WebKit","Edge","114.0.1823.51","Windows","10.0","null","<div style=""font-size:60px;"">+</div>","null",""
"","","","","","html-button-response","98","171815","0.0-3.0-1.47","18","1","2023-06-26 17:24:14","077e191c96ad73626b2944d724c57d9e","208.196.121.254","Mozilla/5.0 (Windows NT 10.0; Win64; x64) AppleWebKit/537.36 (KHTML, like Gecko) Chrome/114.0.0.0 Safari/537.36 Edg/114.0.1823.51","WebKit","Edge","114.0.1823.51","Windows","10.0","8363","<p>As the military commander, you could choose to launch a missile to kill <strong>3 enemy soldiers</strong> , but would accidentally kill <strong>1 enemy civilian</strong> nearby.</p> <p>The photo of the <strong>enemy civilian</strong> is shown below.</p> <p></p> <img src='stimuli/faces/PFF5.jpg', style='max-width: 30%;'> </img> <p><strong>Would you launch the weapon?</strong></p>","0",""
"","","","","","html-keyboard-response","99","172820","0.0-3.0-0.48","18","1","2023-06-26 17:24:14","077e191c96ad73626b2944d724c57d9e","208.196.121.254","Mozilla/5.0 (Windows NT 10.0; Win64; x64) AppleWebKit/537.36 (KHTML, like Gecko) Chrome/114.0.0.0 Safari/537.36 Edg/114.0.1823.51","WebKit","Edge","114.0.1823.51","Windows","10.0","null","<div style=""font-size:60px;"">+</div>","null",""
"","","","","","html-button-response","100","179584","0.0-3.0-1.48","18","1","2023-06-26 17:24:14","077e191c96ad73626b2944d724c57d9e","208.196.121.254","Mozilla/5.0 (Windows NT 10.0; Win64; x64) AppleWebKit/537.36 (KHTML, like Gecko) Chrome/114.0.0.0 Safari/537.36 Edg/114.0.1823.51","WebKit","Edge","114.0.1823.51","Windows","10.0","6760","<p>As the military commander, you could choose to launch a missile to kill <strong>6 enemy soldiers</strong> , but would accidentally kill <strong>1 enemy civilian</strong> nearby.</p> <p>The photo of the <strong>enemy civilian</strong> is shown below.</p> <p></p> <img src='stimuli/faces/PFF7.jpg', style='max-width: 30%;'> </img> <p><strong>Would you launch the weapon?</strong></p>","0",""
"","","","","","html-keyboard-response","101","180589","0.0-3.0-0.49","18","1","2023-06-26 17:24:14","077e191c96ad73626b2944d724c57d9e","208.196.121.254","Mozilla/5.0 (Windows NT 10.0; Win64; x64) AppleWebKit/537.36 (KHTML, like Gecko) Chrome/114.0.0.0 Safari/537.36 Edg/114.0.1823.51","WebKit","Edge","114.0.1823.51","Windows","10.0","null","<div style=""font-size:60px;"">+</div>","null",""
"","","","","","html-button-response","102","182534","0.0-3.0-1.49","18","1","2023-06-26 17:24:14","077e191c96ad73626b2944d724c57d9e","208.196.121.254","Mozilla/5.0 (Windows NT 10.0; Win64; x64) AppleWebKit/537.36 (KHTML, like Gecko) Chrome/114.0.0.0 Safari/537.36 Edg/114.0.1823.51","WebKit","Edge","114.0.1823.51","Windows","10.0","1940","<p>As the military commander, you could choose to launch a missile to kill <strong>8 enemy soldiers</strong> , but would accidentally kill <strong>1 enemy tree</strong> nearby.</p> <p>The photo of the <strong>enemy tree</strong> is shown below.</p> <p></p> <img src='stimuli/tree/11.png', style='max-width: 30%;'> </img> <p><strong>Would you launch the weapon?</strong></p>","1",""
"","","","","","html-keyboard-response","103","183540","0.0-3.0-0.50","18","1","2023-06-26 17:24:14","077e191c96ad73626b2944d724c57d9e","208.196.121.254","Mozilla/5.0 (Windows NT 10.0; Win64; x64) AppleWebKit/537.36 (KHTML, like Gecko) Chrome/114.0.0.0 Safari/537.36 Edg/114.0.1823.51","WebKit","Edge","114.0.1823.51","Windows","10.0","null","<div style=""font-size:60px;"">+</div>","null",""
"","","","","","html-button-response","104","195065","0.0-3.0-1.50","18","1","2023-06-26 17:24:14","077e191c96ad73626b2944d724c57d9e","208.196.121.254","Mozilla/5.0 (Windows NT 10.0; Win64; x64) AppleWebKit/537.36 (KHTML, like Gecko) Chrome/114.0.0.0 Safari/537.36 Edg/114.0.1823.51","WebKit","Edge","114.0.1823.51","Windows","10.0","11518","<p>As the military commander, you could choose to launch a missile to kill <strong>8 enemy soldiers</strong> , but would accidentally kill <strong>1 enemy civilian</strong> nearby.</p> <p>The photo of the <strong>enemy civilian</strong> is shown below.</p> <p></p> <img src='stimuli/faces/PFF5.jpg', style='max-width: 30%;'> </img> <p><strong>Would you launch the weapon?</strong></p>","0",""
"","","","","","html-keyboard-response","105","196072","0.0-3.0-0.51","18","1","2023-06-26 17:24:14","077e191c96ad73626b2944d724c57d9e","208.196.121.254","Mozilla/5.0 (Windows NT 10.0; Win64; x64) AppleWebKit/537.36 (KHTML, like Gecko) Chrome/114.0.0.0 Safari/537.36 Edg/114.0.1823.51","WebKit","Edge","114.0.1823.51","Windows","10.0","null","<div style=""font-size:60px;"">+</div>","null",""
"","","","","","html-button-response","106","198664","0.0-3.0-1.51","18","1","2023-06-26 17:24:14","077e191c96ad73626b2944d724c57d9e","208.196.121.254","Mozilla/5.0 (Windows NT 10.0; Win64; x64) AppleWebKit/537.36 (KHTML, like Gecko) Chrome/114.0.0.0 Safari/537.36 Edg/114.0.1823.51","WebKit","Edge","114.0.1823.51","Windows","10.0","2587","<p>As the military commander, you could choose to launch a missile to kill <strong>2 enemy soldiers</strong> , but would accidentally kill <strong>1 enemy tree</strong> nearby.</p> <p>The photo of the <strong>enemy tree</strong> is shown below.</p> <p></p> <img src='stimuli/tree/13.png', style='max-width: 30%;'> </img> <p><strong>Would you launch the weapon?</strong></p>","1",""
"","","","","","html-keyboard-response","107","199670","0.0-3.0-0.52","18","1","2023-06-26 17:24:14","077e191c96ad73626b2944d724c57d9e","208.196.121.254","Mozilla/5.0 (Windows NT 10.0; Win64; x64) AppleWebKit/537.36 (KHTML, like Gecko) Chrome/114.0.0.0 Safari/537.36 Edg/114.0.1823.51","WebKit","Edge","114.0.1823.51","Windows","10.0","null","<div style=""font-size:60px;"">+</div>","null",""
"","","","","","html-button-response","108","202891","0.0-3.0-1.52","18","1","2023-06-26 17:24:14","077e191c96ad73626b2944d724c57d9e","208.196.121.254","Mozilla/5.0 (Windows NT 10.0; Win64; x64) AppleWebKit/537.36 (KHTML, like Gecko) Chrome/114.0.0.0 Safari/537.36 Edg/114.0.1823.51","WebKit","Edge","114.0.1823.51","Windows","10.0","3216","<p>As the military commander, you could choose to launch a missile to kill <strong>2 enemy soldiers</strong> , but would accidentally kill <strong>1 enemy tree</strong> nearby.</p> <p>The photo of the <strong>enemy tree</strong> is shown below.</p> <p></p> <img src='stimuli/tree/9.png', style='max-width: 30%;'> </img> <p><strong>Would you launch the weapon?</strong></p>","1",""
"","","","","","html-keyboard-response","109","203896","0.0-3.0-0.53","18","1","2023-06-26 17:24:14","077e191c96ad73626b2944d724c57d9e","208.196.121.254","Mozilla/5.0 (Windows NT 10.0; Win64; x64) AppleWebKit/537.36 (KHTML, like Gecko) Chrome/114.0.0.0 Safari/537.36 Edg/114.0.1823.51","WebKit","Edge","114.0.1823.51","Windows","10.0","null","<div style=""font-size:60px;"">+</div>","null",""
"","","","","","html-button-response","110","205612","0.0-3.0-1.53","18","1","2023-06-26 17:24:14","077e191c96ad73626b2944d724c57d9e","208.196.121.254","Mozilla/5.0 (Windows NT 10.0; Win64; x64) AppleWebKit/537.36 (KHTML, like Gecko) Chrome/114.0.0.0 Safari/537.36 Edg/114.0.1823.51","WebKit","Edge","114.0.1823.51","Windows","10.0","1711","<p>As the military commander, you could choose to launch a missile to kill <strong>1 enemy soldier</strong> , but would accidentally kill <strong>1 enemy civilian</strong> nearby.</p> <p>The photo of the <strong>enemy civilian</strong> is shown below.</p> <p></p> <img src='stimuli/faces/PFF4.jpg', style='max-width: 30%;'> </img> <p><strong>Would you launch the weapon?</strong></p>","0",""
"","","","","","html-keyboard-response","111","206618","0.0-3.0-0.54","18","1","2023-06-26 17:24:14","077e191c96ad73626b2944d724c57d9e","208.196.121.254","Mozilla/5.0 (Windows NT 10.0; Win64; x64) AppleWebKit/537.36 (KHTML, like Gecko) Chrome/114.0.0.0 Safari/537.36 Edg/114.0.1823.51","WebKit","Edge","114.0.1823.51","Windows","10.0","null","<div style=""font-size:60px;"">+</div>","null",""
"","","","","","html-button-response","112","208423","0.0-3.0-1.54","18","1","2023-06-26 17:24:14","077e191c96ad73626b2944d724c57d9e","208.196.121.254","Mozilla/5.0 (Windows NT 10.0; Win64; x64) AppleWebKit/537.36 (KHTML, like Gecko) Chrome/114.0.0.0 Safari/537.36 Edg/114.0.1823.51","WebKit","Edge","114.0.1823.51","Windows","10.0","1800","<p>As the military commander, you could choose to launch a missile to kill <strong>10 enemy soldiers</strong> , but would accidentally kill <strong>1 enemy tree</strong> nearby.</p> <p>The photo of the <strong>enemy tree</strong> is shown below.</p> <p></p> <img src='stimuli/tree/2.png', style='max-width: 30%;'> </img> <p><strong>Would you launch the weapon?</strong></p>","1",""
"","","","","","html-keyboard-response","113","209430","0.0-3.0-0.55","18","1","2023-06-26 17:24:14","077e191c96ad73626b2944d724c57d9e","208.196.121.254","Mozilla/5.0 (Windows NT 10.0; Win64; x64) AppleWebKit/537.36 (KHTML, like Gecko) Chrome/114.0.0.0 Safari/537.36 Edg/114.0.1823.51","WebKit","Edge","114.0.1823.51","Windows","10.0","null","<div style=""font-size:60px;"">+</div>","null",""
"","","","","","html-button-response","114","211062","0.0-3.0-1.55","18","1","2023-06-26 17:24:14","077e191c96ad73626b2944d724c57d9e","208.196.121.254","Mozilla/5.0 (Windows NT 10.0; Win64; x64) AppleWebKit/537.36 (KHTML, like Gecko) Chrome/114.0.0.0 Safari/537.36 Edg/114.0.1823.51","WebKit","Edge","114.0.1823.51","Windows","10.0","1625","<p>As the military commander, you could choose to launch a missile to kill <strong>8 enemy soldiers</strong> , but would accidentally kill <strong>1 enemy civilian</strong> nearby.</p> <p>The photo of the <strong>enemy civilian</strong> is shown below.</p> <p></p> <img src='stimuli/faces/PFM2.jpg', style='max-width: 30%;'> </img> <p><strong>Would you launch the weapon?</strong></p>","0",""
"","","","","","html-keyboard-response","115","212066","0.0-3.0-0.56","18","1","2023-06-26 17:24:14","077e191c96ad73626b2944d724c57d9e","208.196.121.254","Mozilla/5.0 (Windows NT 10.0; Win64; x64) AppleWebKit/537.36 (KHTML, like Gecko) Chrome/114.0.0.0 Safari/537.36 Edg/114.0.1823.51","WebKit","Edge","114.0.1823.51","Windows","10.0","null","<div style=""font-size:60px;"">+</div>","null",""
"","","","","","html-button-response","116","214112","0.0-3.0-1.56","18","1","2023-06-26 17:24:14","077e191c96ad73626b2944d724c57d9e","208.196.121.254","Mozilla/5.0 (Windows NT 10.0; Win64; x64) AppleWebKit/537.36 (KHTML, like Gecko) Chrome/114.0.0.0 Safari/537.36 Edg/114.0.1823.51","WebKit","Edge","114.0.1823.51","Windows","10.0","2042","<p>As the military commander, you could choose to launch a missile to kill <strong>9 enemy soldiers</strong> , but would accidentally kill <strong>1 enemy civilian</strong> nearby.</p> <p>The photo of the <strong>enemy civilian</strong> is shown below.</p> <p></p> <img src='stimuli/faces/PFM7.jpg', style='max-width: 30%;'> </img> <p><strong>Would you launch the weapon?</strong></p>","0",""
"","","","","","html-keyboard-response","117","215116","0.0-3.0-0.57","18","1","2023-06-26 17:24:14","077e191c96ad73626b2944d724c57d9e","208.196.121.254","Mozilla/5.0 (Windows NT 10.0; Win64; x64) AppleWebKit/537.36 (KHTML, like Gecko) Chrome/114.0.0.0 Safari/537.36 Edg/114.0.1823.51","WebKit","Edge","114.0.1823.51","Windows","10.0","null","<div style=""font-size:60px;"">+</div>","null",""
"","","","","","html-button-response","118","216693","0.0-3.0-1.57","18","1","2023-06-26 17:24:14","077e191c96ad73626b2944d724c57d9e","208.196.121.254","Mozilla/5.0 (Windows NT 10.0; Win64; x64) AppleWebKit/537.36 (KHTML, like Gecko) Chrome/114.0.0.0 Safari/537.36 Edg/114.0.1823.51","WebKit","Edge","114.0.1823.51","Windows","10.0","1571","<p>As the military commander, you could choose to launch a missile to kill <strong>7 enemy soldiers</strong> , but would accidentally kill <strong>1 enemy tree</strong> nearby.</p> <p>The photo of the <strong>enemy tree</strong> is shown below.</p> <p></p> <img src='stimuli/tree/1.png', style='max-width: 30%;'> </img> <p><strong>Would you launch the weapon?</strong></p>","1",""
"","","","","","html-keyboard-response","119","217700","0.0-3.0-0.58","18","1","2023-06-26 17:24:14","077e191c96ad73626b2944d724c57d9e","208.196.121.254","Mozilla/5.0 (Windows NT 10.0; Win64; x64) AppleWebKit/537.36 (KHTML, like Gecko) Chrome/114.0.0.0 Safari/537.36 Edg/114.0.1823.51","WebKit","Edge","114.0.1823.51","Windows","10.0","null","<div style=""font-size:60px;"">+</div>","null",""
"","","","","","html-button-response","120","223013","0.0-3.0-1.58","18","1","2023-06-26 17:24:14","077e191c96ad73626b2944d724c57d9e","208.196.121.254","Mozilla/5.0 (Windows NT 10.0; Win64; x64) AppleWebKit/537.36 (KHTML, like Gecko) Chrome/114.0.0.0 Safari/537.36 Edg/114.0.1823.51","WebKit","Edge","114.0.1823.51","Windows","10.0","5308","<p>As the military commander, you could choose to launch a missile to kill <strong>10 enemy soldiers</strong> , but would accidentally kill <strong>1 enemy civilian</strong> nearby.</p> <p>The photo of the <strong>enemy civilian</strong> is shown below.</p> <p></p> <img src='stimuli/faces/PFF3.jpg', style='max-width: 30%;'> </img> <p><strong>Would you launch the weapon?</strong></p>","0",""
"","","","","","html-keyboard-response","121","224018","0.0-3.0-0.59","18","1","2023-06-26 17:24:14","077e191c96ad73626b2944d724c57d9e","208.196.121.254","Mozilla/5.0 (Windows NT 10.0; Win64; x64) AppleWebKit/537.36 (KHTML, like Gecko) Chrome/114.0.0.0 Safari/537.36 Edg/114.0.1823.51","WebKit","Edge","114.0.1823.51","Windows","10.0","null","<div style=""font-size:60px;"">+</div>","null",""
"","","","","","html-button-response","122","225631","0.0-3.0-1.59","18","1","2023-06-26 17:24:14","077e191c96ad73626b2944d724c57d9e","208.196.121.254","Mozilla/5.0 (Windows NT 10.0; Win64; x64) AppleWebKit/537.36 (KHTML, like Gecko) Chrome/114.0.0.0 Safari/537.36 Edg/114.0.1823.51","WebKit","Edge","114.0.1823.51","Windows","10.0","1609","<p>As the military commander, you could choose to launch a missile to kill <strong>6 enemy soldiers</strong> , but would accidentally kill <strong>1 enemy civilian</strong> nearby.</p> <p>The photo of the <strong>enemy civilian</strong> is shown below.</p> <p></p> <img src='stimuli/faces/PFF6.jpg', style='max-width: 30%;'> </img> <p><strong>Would you launch the weapon?</strong></p>","0",""
"","","","","","html-keyboard-response","123","226635","0.0-3.0-0.60","18","1","2023-06-26 17:24:14","077e191c96ad73626b2944d724c57d9e","208.196.121.254","Mozilla/5.0 (Windows NT 10.0; Win64; x64) AppleWebKit/537.36 (KHTML, like Gecko) Chrome/114.0.0.0 Safari/537.36 Edg/114.0.1823.51","WebKit","Edge","114.0.1823.51","Windows","10.0","null","<div style=""font-size:60px;"">+</div>","null",""
"","","","","","html-button-response","124","228272","0.0-3.0-1.60","18","1","2023-06-26 17:24:14","077e191c96ad73626b2944d724c57d9e","208.196.121.254","Mozilla/5.0 (Windows NT 10.0; Win64; x64) AppleWebKit/537.36 (KHTML, like Gecko) Chrome/114.0.0.0 Safari/537.36 Edg/114.0.1823.51","WebKit","Edge","114.0.1823.51","Windows","10.0","1631","<p>As the military commander, you could choose to launch a missile to kill <strong>6 enemy soldiers</strong> , but would accidentally kill <strong>1 enemy tree</strong> nearby.</p> <p>The photo of the <strong>enemy tree</strong> is shown below.</p> <p></p> <img src='stimuli/tree/14.png', style='max-width: 30%;'> </img> <p><strong>Would you launch the weapon?</strong></p>","1",""
"","","","","","html-keyboard-response","125","229276","0.0-3.0-0.61","18","1","2023-06-26 17:24:14","077e191c96ad73626b2944d724c57d9e","208.196.121.254","Mozilla/5.0 (Windows NT 10.0; Win64; x64) AppleWebKit/537.36 (KHTML, like Gecko) Chrome/114.0.0.0 Safari/537.36 Edg/114.0.1823.51","WebKit","Edge","114.0.1823.51","Windows","10.0","null","<div style=""font-size:60px;"">+</div>","null",""
"","","","","","html-button-response","126","231263","0.0-3.0-1.61","18","1","2023-06-26 17:24:14","077e191c96ad73626b2944d724c57d9e","208.196.121.254","Mozilla/5.0 (Windows NT 10.0; Win64; x64) AppleWebKit/537.36 (KHTML, like Gecko) Chrome/114.0.0.0 Safari/537.36 Edg/114.0.1823.51","WebKit","Edge","114.0.1823.51","Windows","10.0","1981","<p>As the military commander, you could choose to launch a missile to kill <strong>7 enemy soldiers</strong> , but would accidentally kill <strong>1 enemy civilian</strong> nearby.</p> <p>The photo of the <strong>enemy civilian</strong> is shown below.</p> <p></p> <img src='stimuli/faces/PFF4.jpg', style='max-width: 30%;'> </img> <p><strong>Would you launch the weapon?</strong></p>","0",""
"","","","","","html-keyboard-response","127","232270","0.0-3.0-0.62","18","1","2023-06-26 17:24:14","077e191c96ad73626b2944d724c57d9e","208.196.121.254","Mozilla/5.0 (Windows NT 10.0; Win64; x64) AppleWebKit/537.36 (KHTML, like Gecko) Chrome/114.0.0.0 Safari/537.36 Edg/114.0.1823.51","WebKit","Edge","114.0.1823.51","Windows","10.0","null","<div style=""font-size:60px;"">+</div>","null",""
"","","","","","html-button-response","128","234122","0.0-3.0-1.62","18","1","2023-06-26 17:24:14","077e191c96ad73626b2944d724c57d9e","208.196.121.254","Mozilla/5.0 (Windows NT 10.0; Win64; x64) AppleWebKit/537.36 (KHTML, like Gecko) Chrome/114.0.0.0 Safari/537.36 Edg/114.0.1823.51","WebKit","Edge","114.0.1823.51","Windows","10.0","1847","<p>As the military commander, you could choose to launch a missile to kill <strong>3 enemy soldiers</strong> , but would accidentally kill <strong>1 enemy civilian</strong> nearby.</p> <p>The photo of the <strong>enemy civilian</strong> is shown below.</p> <p></p> <img src='stimuli/faces/PFM3.jpg', style='max-width: 30%;'> </img> <p><strong>Would you launch the weapon?</strong></p>","0",""
"","","","","","html-keyboard-response","129","235126","0.0-3.0-0.63","18","1","2023-06-26 17:24:14","077e191c96ad73626b2944d724c57d9e","208.196.121.254","Mozilla/5.0 (Windows NT 10.0; Win64; x64) AppleWebKit/537.36 (KHTML, like Gecko) Chrome/114.0.0.0 Safari/537.36 Edg/114.0.1823.51","WebKit","Edge","114.0.1823.51","Windows","10.0","null","<div style=""font-size:60px;"">+</div>","null",""
"","","","","","html-button-response","130","236695","0.0-3.0-1.63","18","1","2023-06-26 17:24:14","077e191c96ad73626b2944d724c57d9e","208.196.121.254","Mozilla/5.0 (Windows NT 10.0; Win64; x64) AppleWebKit/537.36 (KHTML, like Gecko) Chrome/114.0.0.0 Safari/537.36 Edg/114.0.1823.51","WebKit","Edge","114.0.1823.51","Windows","10.0","1562","<p>As the military commander, you could choose to launch a missile to kill <strong>7 enemy soldiers</strong> , but would accidentally kill <strong>1 enemy civilian</strong> nearby.</p> <p>The photo of the <strong>enemy civilian</strong> is shown below.</p> <p></p> <img src='stimuli/faces/PFM4.jpg', style='max-width: 30%;'> </img> <p><strong>Would you launch the weapon?</strong></p>","0",""
"","","","","","survey-multi-choice","131","241912","0.0-4.0","18","1","2023-06-26 17:24:14","077e191c96ad73626b2944d724c57d9e","208.196.121.254","Mozilla/5.0 (Windows NT 10.0; Win64; x64) AppleWebKit/537.36 (KHTML, like Gecko) Chrome/114.0.0.0 Safari/537.36 Edg/114.0.1823.51","WebKit","Edge","114.0.1823.51","Windows","10.0","5209","","{""Attention1"":""""}","[0]"
"","","","","","html-button-response","132","243504","0.0-5.0","18","1","2023-06-26 17:24:14","077e191c96ad73626b2944d724c57d9e","208.196.121.254","Mozilla/5.0 (Windows NT 10.0; Win64; x64) AppleWebKit/537.36 (KHTML, like Gecko) Chrome/114.0.0.0 Safari/537.36 Edg/114.0.1823.51","WebKit","Edge","114.0.1823.51","Windows","10.0","1583","<p style=""font-size:20px;font-weight:bold;"">Great!</p><p>You have finished the first part of the experiment!</p><p>Please relax a little bit and then contine to answer some questions regarding yourself.</p><p>The next part will take around 10 minutes to complete.</p>","0",""
"","","","","","survey-text","133","261941","0.0-6.0","18","1","2023-06-26 17:24:14","077e191c96ad73626b2944d724c57d9e","208.196.121.254","Mozilla/5.0 (Windows NT 10.0; Win64; x64) AppleWebKit/537.36 (KHTML, like Gecko) Chrome/114.0.0.0 Safari/537.36 Edg/114.0.1823.51","WebKit","Edge","114.0.1823.51","Windows","10.0","17423","","{""Age"":""25"",""Nation"":""USA"",""Born"":""1998"",""Live"":""Indiana""}",""
"","","","","","survey-multi-choice","134","275871","0.0-7.0","18","1","2023-06-26 17:24:14","077e191c96ad73626b2944d724c57d9e","208.196.121.254","Mozilla/5.0 (Windows NT 10.0; Win64; x64) AppleWebKit/537.36 (KHTML, like Gecko) Chrome/114.0.0.0 Safari/537.36 Edg/114.0.1823.51","WebKit","Edge","114.0.1823.51","Windows","10.0","13922","","{""Gender"":""Female"",""Education"":""Bachelor's Degree"",""Income"":""$40,000 - $69,999"",""Children"":""2"",""Ethnicity"":""White""}","[0,1,2,3,4]"
"","","","","","survey-multi-select","135","280816","0.0-8.0","18","1","2023-06-26 17:24:14","077e191c96ad73626b2944d724c57d9e","208.196.121.254","Mozilla/5.0 (Windows NT 10.0; Win64; x64) AppleWebKit/537.36 (KHTML, like Gecko) Chrome/114.0.0.0 Safari/537.36 Edg/114.0.1823.51","WebKit","Edge","114.0.1823.51","Windows","10.0","4930","","{""Marriage"":[""Married""],""Religion"":[""Catholic""]}","[0,1]"
"","","","","","survey-multi-choice","136","284851","0.0-9.0","18","1","2023-06-26 17:24:14","077e191c96ad73626b2944d724c57d9e","208.196.121.254","Mozilla/5.0 (Windows NT 10.0; Win64; x64) AppleWebKit/537.36 (KHTML, like Gecko) Chrome/114.0.0.0 Safari/537.36 Edg/114.0.1823.51","WebKit","Edge","114.0.1823.51","Windows","10.0","4029","","{""SES"":""9""}","[0]"
"","","","","","html-button-response","137","286521","0.0-10.0","18","1","2023-06-26 17:24:14","077e191c96ad73626b2944d724c57d9e","208.196.121.254","Mozilla/5.0 (Windows NT 10.0; Win64; x64) AppleWebKit/537.36 (KHTML, like Gecko) Chrome/114.0.0.0 Safari/537.36 Edg/114.0.1823.51","WebKit","Edge","114.0.1823.51","Windows","10.0","1662","<p><strong>Please indicate the extent that the following statements could describe you.</p><p> (1 = ""extremely uncharacteristic of me"" to 5 = ""extremely characteristic of me"".)</strong></p>","0",""
"","","","","","survey-likert","138","305002","0.0-11.0","18","1","2023-06-26 17:24:14","077e191c96ad73626b2944d724c57d9e","208.196.121.254","Mozilla/5.0 (Windows NT 10.0; Win64; x64) AppleWebKit/537.36 (KHTML, like Gecko) Chrome/114.0.0.0 Safari/537.36 Edg/114.0.1823.51","WebKit","Edge","114.0.1823.51","Windows","10.0","18471","","{""Aggression1"":2,""Aggression2"":3,""Aggression3"":2,""Aggression4"":2,""Aggression5"":3,""Aggression6"":2,""Aggression7"":2,""Aggression8"":2,""Aggression9"":3}","[0,1,2,3,4,5,6,7,8]"
"","","","","","html-button-response","139","306911","0.0-12.0","18","1","2023-06-26 17:24:14","077e191c96ad73626b2944d724c57d9e","208.196.121.254","Mozilla/5.0 (Windows NT 10.0; Win64; x64) AppleWebKit/537.36 (KHTML, like Gecko) Chrome/114.0.0.0 Safari/537.36 Edg/114.0.1823.51","WebKit","Edge","114.0.1823.51","Windows","10.0","1901","<p><strong>Please indicate the extent that the following statements could describe you. </strong></p><p><strong> (1 = ""Does not describe me well"" to 5 = ""Does decribe me well"".)</strong></p>","0",""
"","","","","","survey-likert","140","356507","0.0-13.0","18","1","2023-06-26 17:24:14","077e191c96ad73626b2944d724c57d9e","208.196.121.254","Mozilla/5.0 (Windows NT 10.0; Win64; x64) AppleWebKit/537.36 (KHTML, like Gecko) Chrome/114.0.0.0 Safari/537.36 Edg/114.0.1823.51","WebKit","Edge","114.0.1823.51","Windows","10.0","49583","","{""fs5"":2,""ecs6"":3,""pts1"":2,""pts4"":2,""fs2"":2,""pts6"":2,""pds5"":3,""pds3"":2,""pds2"":2,""pts3"":2,""pds1"":3,""pts2"":2,""pts5"":2,""pds6"":3,""ecs7"":3,""ecs3"":3,""pds4"":3,""ecs2"":2,""ecs1"":3,""fs6"":2,""ecs4"":2,""ecs5"":3,""fs3"":2,""fs1"":2,""pds7"":2,""pts7"":2,""fs4"":3,""fs7"":3}","[15,19,2,14,4,24,18,12,9,10,5,7,20,23,21,8,16,3,1,22,13,17,6,0,26,27,11,25]"
"","","","","","html-button-response","141","358186","0.0-14.0","18","1","2023-06-26 17:24:14","077e191c96ad73626b2944d724c57d9e","208.196.121.254","Mozilla/5.0 (Windows NT 10.0; Win64; x64) AppleWebKit/537.36 (KHTML, like Gecko) Chrome/114.0.0.0 Safari/537.36 Edg/114.0.1823.51","WebKit","Edge","114.0.1823.51","Windows","10.0","1672","<p><strong>Which of the following objects or statements do you have a positive or negative feeling towards? </strong></p><p><strong> (1 = ""Very negative"" to 7 = ""Very positive"") </strong></p>","0",""
"","","","","","survey-likert","142","442731","0.0-15.0","18","1","2023-06-26 17:24:14","077e191c96ad73626b2944d724c57d9e","208.196.121.254","Mozilla/5.0 (Windows NT 10.0; Win64; x64) AppleWebKit/537.36 (KHTML, like Gecko) Chrome/114.0.0.0 Safari/537.36 Edg/114.0.1823.51","WebKit","Edge","114.0.1823.51","Windows","10.0","84538","","{""sdo14"":4,""sdo13"":3,""sdo11"":4,""sdo1"":3,""sdo8"":4,""sdo6"":3,""sdo2"":3,""sdo7"":3,""sdo10"":4,""sdo9"":4,""sdo16"":3,""sdo4"":4,""sdo3"":4,""sdo12"":4,""sdo5"":3,""sdo15"":4}","[13,12,10,0,7,5,1,6,9,8,15,3,2,11,4,14]"
"","","","","","html-button-response","143","444084","0.0-16.0","18","1","2023-06-26 17:24:14","077e191c96ad73626b2944d724c57d9e","208.196.121.254","Mozilla/5.0 (Windows NT 10.0; Win64; x64) AppleWebKit/537.36 (KHTML, like Gecko) Chrome/114.0.0.0 Safari/537.36 Edg/114.0.1823.51","WebKit","Edge","114.0.1823.51","Windows","10.0","1345","<p><strong>Please indicate the extent you agree with the following statements.</strong></p><strong><p> (1 = ""Strongly Disagree"" to 5 = ""Srongly Agree"") </strong></p>","0",""
"","","","","","survey-likert","144","472283","0.0-17.0","18","1","2023-06-26 17:24:14","077e191c96ad73626b2944d724c57d9e","208.196.121.254","Mozilla/5.0 (Windows NT 10.0; Win64; x64) AppleWebKit/537.36 (KHTML, like Gecko) Chrome/114.0.0.0 Safari/537.36 Edg/114.0.1823.51","WebKit","Edge","114.0.1823.51","Windows","10.0","28191","","{""caring1"":3,""liking1"":2,""caring2"":2,""protection1"":2,""liking2"":2,""caring3"":3,""protection2"":2,""liking3"":3,""protection3"":3,""caring4"":2,""liking4"":2,""protection4"":2,""caring5"":2,""liking5"":3,""protection5"":2}","[0,1,2,3,4,5,6,7,8,9,10,11,12,13,14]"
"","","","","","html-button-response","145","473746","0.0-18.0","18","1","2023-06-26 17:24:14","077e191c96ad73626b2944d724c57d9e","208.196.121.254","Mozilla/5.0 (Windows NT 10.0; Win64; x64) AppleWebKit/537.36 (KHTML, like Gecko) Chrome/114.0.0.0 Safari/537.36 Edg/114.0.1823.51","WebKit","Edge","114.0.1823.51","Windows","10.0","1451","<p><strong>Please imagine spercific situations involving children below, and rate the amount of tenderness you would feel in each situation. </strong></p><p><strong> (Ternderness is ""a warm, gentle feeling of sympathetic affection."") </strong></p><strong><p> (1 = ""No tenderness at all"" to 5 = ""A lot of tenderness"") </strong></p>","0",""
"","","","","","survey-likert","146","490750","0.0-19.0","18","1","2023-06-26 17:24:14","077e191c96ad73626b2944d724c57d9e","208.196.121.254","Mozilla/5.0 (Windows NT 10.0; Win64; x64) AppleWebKit/537.36 (KHTML, like Gecko) Chrome/114.0.0.0 Safari/537.36 Edg/114.0.1823.51","WebKit","Edge","114.0.1823.51","Windows","10.0","16997","","{""tenderness-positive1"":3,""tenderness-negative1"":2,""tenderness-negative2"":2,""tenderness-positive2"":3,""tenderness-positive3"":3,""tenderness-negative3"":3,""tenderness-positive4"":2,""tendereness-negative4"":2,""tendernness-negative5"":2,""tenderness-positive5"":2}","[0,1,2,3,4,5,6,7,8,9]"
"","","","","","survey-multi-choice","147","495207","0.0-20.0","18","1","2023-06-26 17:24:14","077e191c96ad73626b2944d724c57d9e","208.196.121.254","Mozilla/5.0 (Windows NT 10.0; Win64; x64) AppleWebKit/537.36 (KHTML, like Gecko) Chrome/114.0.0.0 Safari/537.36 Edg/114.0.1823.51","WebKit","Edge","114.0.1823.51","Windows","10.0","4446","","{""Attention2"":""Other""}","[0]"
"","","","","","html-button-response","148","496647","0.0-21.0","18","1","2023-06-26 17:24:14","077e191c96ad73626b2944d724c57d9e","208.196.121.254","Mozilla/5.0 (Windows NT 10.0; Win64; x64) AppleWebKit/537.36 (KHTML, like Gecko) Chrome/114.0.0.0 Safari/537.36 Edg/114.0.1823.51","WebKit","Edge","114.0.1823.51","Windows","10.0","1430","<p><strong>Please indicate the extent you agree with the following statements.</strong></p>","0",""
"","","","","","survey-likert","149","534971","0.0-22.0","18","1","2023-06-26 17:24:14","077e191c96ad73626b2944d724c57d9e","208.196.121.254","Mozilla/5.0 (Windows NT 10.0; Win64; x64) AppleWebKit/537.36 (KHTML, like Gecko) Chrome/114.0.0.0 Safari/537.36 Edg/114.0.1823.51","WebKit","Edge","114.0.1823.51","Windows","10.0","38315","","{""Nation4"":2,""Patri7"":2,""Patri10"":3,""Patri6"":3,""Patri12"":3,""Patri1"":2,""Nation8"":2,""Patri9"":3,""Nation7"":2,""Nation3"":3,""Patri5"":3,""Nation1"":2,""Patri11"":3,""Nation5"":3,""Nation6"":3,""Patri4"":2,""Patri2"":2,""Patri8"":2,""Nation2"":2,""Patri3"":2}","[15,6,9,5,11,0,19,8,18,14,4,12,10,16,17,3,1,7,13,2]"
"","","","","","html-button-response","150","537336","0.0-23.0","18","1","2023-06-26 17:24:14","077e191c96ad73626b2944d724c57d9e","208.196.121.254","Mozilla/5.0 (Windows NT 10.0; Win64; x64) AppleWebKit/537.36 (KHTML, like Gecko) Chrome/114.0.0.0 Safari/537.36 Edg/114.0.1823.51","WebKit","Edge","114.0.1823.51","Windows","10.0","2356","<p><strong>Please indicate the extent you agree with the following statements. </p><p>(1 = ""never or definitely no"" and 9 = ""always or definitely yes"".)</strong></p>","0",""
"","","","","","survey-likert","151","579209","0.0-24.0","18","1","2023-06-26 17:24:14","077e191c96ad73626b2944d724c57d9e","208.196.121.254","Mozilla/5.0 (Windows NT 10.0; Win64; x64) AppleWebKit/537.36 (KHTML, like Gecko) Chrome/114.0.0.0 Safari/537.36 Edg/114.0.1823.51","WebKit","Edge","114.0.1823.51","Windows","10.0","41864","","{""vi1"":5,""hi4"":5,""vi4"":4,""vi2"":5,""hc2"":4,""hc1"":5,""vc2"":4,""vi3"":5,""vc3"":4,""vc4"":5,""hi1"":4,""hi2"":5,""vc1"":5,""hc3"":5,""Robot2"":6,""hi3"":5,""hc4"":4}","[4,3,8,5,10,9,14,6,15,16,0,1,13,11,7,2,12]"
"","","","","","survey-text","152","586705","0.0-25.0","18","1","2023-06-26 17:24:14","077e191c96ad73626b2944d724c57d9e","208.196.121.254","Mozilla/5.0 (Windows NT 10.0; Win64; x64) AppleWebKit/537.36 (KHTML, like Gecko) Chrome/114.0.0.0 Safari/537.36 Edg/114.0.1823.51","WebKit","Edge","114.0.1823.51","Windows","10.0","7479","","{""ID"":""A2SJ2473KT2BYQ"",""Comments"":""Good""}",""
