"success","timeout","failed_images","failed_audio","failed_video","trial_type","trial_index","time_elapsed","internal_node_id","run_id","condition","recorded_at","source_code_version","ip","user_agent","device","browser","browser_version","platform","platform_version","rt","stimulus","response","question_order"
"true","false","[]","[]","[]","preload","0","5519","0.0-0.0","25","1","2023-06-25 14:56:08","077e191c96ad73626b2944d724c57d9e","192.126.181.63","Mozilla/5.0 (Windows NT 10.0; Win64; x64) AppleWebKit/537.36 (KHTML, like Gecko) Chrome/113.0.0.0 Safari/537.36","WebKit","Chrome","113.0.0.0","Windows","10.0","","","",""
"true","","","","","fullscreen","1","9502","0.0-1.0","25","1","2023-06-25 14:56:08","077e191c96ad73626b2944d724c57d9e","192.126.181.63","Mozilla/5.0 (Windows NT 10.0; Win64; x64) AppleWebKit/537.36 (KHTML, like Gecko) Chrome/113.0.0.0 Safari/537.36","WebKit","Chrome","113.0.0.0","Windows","10.0","","","",""
"","","","","","html-button-response","2","11870","0.0-2.0","25","1","2023-06-25 14:56:08","077e191c96ad73626b2944d724c57d9e","192.126.181.63","Mozilla/5.0 (Windows NT 10.0; Win64; x64) AppleWebKit/537.36 (KHTML, like Gecko) Chrome/113.0.0.0 Safari/537.36","WebKit","Chrome","113.0.0.0","Windows","10.0","2365","<p ><strong>Welcome to the experiment!</strong></p><p ><strong>In the first task, please imagine:</strong></p><p>Your country is involved in a military conflict with another country.</p><p>You are the commander of your army and must make decisions in the conflict.</p><p>Specifically, as the military commander, you must decide whether to launch a missile to strike enemy.</p><p>You will face a series of scenarios. Please read each scenario carefully and make a decision.</p><p>The task will take around 10 minutes to complete.</p><p><strong>Please pay your attention during the experiment.</strong></p>","0",""
"","","","","","html-keyboard-response","3","12873","0.0-3.0-0.0","25","1","2023-06-25 14:56:08","077e191c96ad73626b2944d724c57d9e","192.126.181.63","Mozilla/5.0 (Windows NT 10.0; Win64; x64) AppleWebKit/537.36 (KHTML, like Gecko) Chrome/113.0.0.0 Safari/537.36","WebKit","Chrome","113.0.0.0","Windows","10.0","null","<div style=""font-size:60px;"">+</div>","null",""
"","","","","","html-button-response","4","14510","0.0-3.0-1.0","25","1","2023-06-25 14:56:08","077e191c96ad73626b2944d724c57d9e","192.126.181.63","Mozilla/5.0 (Windows NT 10.0; Win64; x64) AppleWebKit/537.36 (KHTML, like Gecko) Chrome/113.0.0.0 Safari/537.36","WebKit","Chrome","113.0.0.0","Windows","10.0","1635","<p>As the military commander, you could choose to launch a missile to kill <strong>3 enemy soldiers</strong> , but would accidentally kill <strong>1 enemy civilian</strong> nearby.</p> <p>The photo of the <strong>enemy civilian</strong> is shown below.</p> <p></p> <img src='stimuli/faces/PFM6.jpg', style='max-width: 30%;'> </img> <p><strong>Would you launch the weapon?</strong></p>","0",""
"","","","","","html-keyboard-response","5","15513","0.0-3.0-0.1","25","1","2023-06-25 14:56:08","077e191c96ad73626b2944d724c57d9e","192.126.181.63","Mozilla/5.0 (Windows NT 10.0; Win64; x64) AppleWebKit/537.36 (KHTML, like Gecko) Chrome/113.0.0.0 Safari/537.36","WebKit","Chrome","113.0.0.0","Windows","10.0","null","<div style=""font-size:60px;"">+</div>","null",""
"","","","","","html-button-response","6","15887","0.0-3.0-1.1","25","1","2023-06-25 14:56:08","077e191c96ad73626b2944d724c57d9e","192.126.181.63","Mozilla/5.0 (Windows NT 10.0; Win64; x64) AppleWebKit/537.36 (KHTML, like Gecko) Chrome/113.0.0.0 Safari/537.36","WebKit","Chrome","113.0.0.0","Windows","10.0","371","<p>As the military commander, you could choose to launch a missile to kill <strong>2 enemy soldiers</strong> , but would accidentally kill <strong>1 enemy tree</strong> nearby.</p> <p>The photo of the <strong>enemy tree</strong> is shown below.</p> <p></p> <img src='stimuli/tree/9.png', style='max-width: 30%;'> </img> <p><strong>Would you launch the weapon?</strong></p>","0",""
"","","","","","html-keyboard-response","7","16891","0.0-3.0-0.2","25","1","2023-06-25 14:56:08","077e191c96ad73626b2944d724c57d9e","192.126.181.63","Mozilla/5.0 (Windows NT 10.0; Win64; x64) AppleWebKit/537.36 (KHTML, like Gecko) Chrome/113.0.0.0 Safari/537.36","WebKit","Chrome","113.0.0.0","Windows","10.0","null","<div style=""font-size:60px;"">+</div>","null",""
"","","","","","html-button-response","8","23435","0.0-3.0-1.2","25","1","2023-06-25 14:56:08","077e191c96ad73626b2944d724c57d9e","192.126.181.63","Mozilla/5.0 (Windows NT 10.0; Win64; x64) AppleWebKit/537.36 (KHTML, like Gecko) Chrome/113.0.0.0 Safari/537.36","WebKit","Chrome","113.0.0.0","Windows","10.0","6540","<p>As the military commander, you could choose to launch a missile to kill <strong>2 enemy soldiers</strong> , but would accidentally kill <strong>1 enemy tree</strong> nearby.</p> <p>The photo of the <strong>enemy tree</strong> is shown below.</p> <p></p> <img src='stimuli/tree/11.png', style='max-width: 30%;'> </img> <p><strong>Would you launch the weapon?</strong></p>","0",""
"","","","","","html-keyboard-response","9","24437","0.0-3.0-0.3","25","1","2023-06-25 14:56:08","077e191c96ad73626b2944d724c57d9e","192.126.181.63","Mozilla/5.0 (Windows NT 10.0; Win64; x64) AppleWebKit/537.36 (KHTML, like Gecko) Chrome/113.0.0.0 Safari/537.36","WebKit","Chrome","113.0.0.0","Windows","10.0","null","<div style=""font-size:60px;"">+</div>","null",""
"","","","","","html-button-response","10","24670","0.0-3.0-1.3","25","1","2023-06-25 14:56:08","077e191c96ad73626b2944d724c57d9e","192.126.181.63","Mozilla/5.0 (Windows NT 10.0; Win64; x64) AppleWebKit/537.36 (KHTML, like Gecko) Chrome/113.0.0.0 Safari/537.36","WebKit","Chrome","113.0.0.0","Windows","10.0","230","<p>As the military commander, you could choose to launch a missile to kill <strong>6 enemy soldiers</strong> , but would accidentally kill <strong>1 enemy tree</strong> nearby.</p> <p>The photo of the <strong>enemy tree</strong> is shown below.</p> <p></p> <img src='stimuli/tree/5.png', style='max-width: 30%;'> </img> <p><strong>Would you launch the weapon?</strong></p>","0",""
"","","","","","html-keyboard-response","11","25673","0.0-3.0-0.4","25","1","2023-06-25 14:56:08","077e191c96ad73626b2944d724c57d9e","192.126.181.63","Mozilla/5.0 (Windows NT 10.0; Win64; x64) AppleWebKit/537.36 (KHTML, like Gecko) Chrome/113.0.0.0 Safari/537.36","WebKit","Chrome","113.0.0.0","Windows","10.0","null","<div style=""font-size:60px;"">+</div>","null",""
"","","","","","html-button-response","12","25879","0.0-3.0-1.4","25","1","2023-06-25 14:56:08","077e191c96ad73626b2944d724c57d9e","192.126.181.63","Mozilla/5.0 (Windows NT 10.0; Win64; x64) AppleWebKit/537.36 (KHTML, like Gecko) Chrome/113.0.0.0 Safari/537.36","WebKit","Chrome","113.0.0.0","Windows","10.0","202","<p>As the military commander, you could choose to launch a missile to kill <strong>7 enemy soldiers</strong> , but would accidentally kill <strong>1 enemy tree</strong> nearby.</p> <p>The photo of the <strong>enemy tree</strong> is shown below.</p> <p></p> <img src='stimuli/tree/7.png', style='max-width: 30%;'> </img> <p><strong>Would you launch the weapon?</strong></p>","0",""
"","","","","","html-keyboard-response","13","26882","0.0-3.0-0.5","25","1","2023-06-25 14:56:08","077e191c96ad73626b2944d724c57d9e","192.126.181.63","Mozilla/5.0 (Windows NT 10.0; Win64; x64) AppleWebKit/537.36 (KHTML, like Gecko) Chrome/113.0.0.0 Safari/537.36","WebKit","Chrome","113.0.0.0","Windows","10.0","null","<div style=""font-size:60px;"">+</div>","null",""
"","","","","","html-button-response","14","27294","0.0-3.0-1.5","25","1","2023-06-25 14:56:08","077e191c96ad73626b2944d724c57d9e","192.126.181.63","Mozilla/5.0 (Windows NT 10.0; Win64; x64) AppleWebKit/537.36 (KHTML, like Gecko) Chrome/113.0.0.0 Safari/537.36","WebKit","Chrome","113.0.0.0","Windows","10.0","408","<p>As the military commander, you could choose to launch a missile to kill <strong>8 enemy soldiers</strong> , but would accidentally kill <strong>1 enemy tree</strong> nearby.</p> <p>The photo of the <strong>enemy tree</strong> is shown below.</p> <p></p> <img src='stimuli/tree/10.png', style='max-width: 30%;'> </img> <p><strong>Would you launch the weapon?</strong></p>","0",""
"","","","","","html-keyboard-response","15","28297","0.0-3.0-0.6","25","1","2023-06-25 14:56:08","077e191c96ad73626b2944d724c57d9e","192.126.181.63","Mozilla/5.0 (Windows NT 10.0; Win64; x64) AppleWebKit/537.36 (KHTML, like Gecko) Chrome/113.0.0.0 Safari/537.36","WebKit","Chrome","113.0.0.0","Windows","10.0","null","<div style=""font-size:60px;"">+</div>","null",""
"","","","","","html-button-response","16","28485","0.0-3.0-1.6","25","1","2023-06-25 14:56:08","077e191c96ad73626b2944d724c57d9e","192.126.181.63","Mozilla/5.0 (Windows NT 10.0; Win64; x64) AppleWebKit/537.36 (KHTML, like Gecko) Chrome/113.0.0.0 Safari/537.36","WebKit","Chrome","113.0.0.0","Windows","10.0","185","<p>As the military commander, you could choose to launch a missile to kill <strong>3 enemy soldiers</strong> , but would accidentally kill <strong>1 enemy tree</strong> nearby.</p> <p>The photo of the <strong>enemy tree</strong> is shown below.</p> <p></p> <img src='stimuli/tree/1.png', style='max-width: 30%;'> </img> <p><strong>Would you launch the weapon?</strong></p>","0",""
"","","","","","html-keyboard-response","17","29488","0.0-3.0-0.7","25","1","2023-06-25 14:56:08","077e191c96ad73626b2944d724c57d9e","192.126.181.63","Mozilla/5.0 (Windows NT 10.0; Win64; x64) AppleWebKit/537.36 (KHTML, like Gecko) Chrome/113.0.0.0 Safari/537.36","WebKit","Chrome","113.0.0.0","Windows","10.0","null","<div style=""font-size:60px;"">+</div>","null",""
"","","","","","html-button-response","18","29877","0.0-3.0-1.7","25","1","2023-06-25 14:56:08","077e191c96ad73626b2944d724c57d9e","192.126.181.63","Mozilla/5.0 (Windows NT 10.0; Win64; x64) AppleWebKit/537.36 (KHTML, like Gecko) Chrome/113.0.0.0 Safari/537.36","WebKit","Chrome","113.0.0.0","Windows","10.0","386","<p>As the military commander, you could choose to launch a missile to kill <strong>5 enemy soldiers</strong> , but would accidentally kill <strong>1 enemy civilian</strong> nearby.</p> <p>The photo of the <strong>enemy civilian</strong> is shown below.</p> <p></p> <img src='stimuli/faces/PFF3.jpg', style='max-width: 30%;'> </img> <p><strong>Would you launch the weapon?</strong></p>","0",""
"","","","","","html-keyboard-response","19","30880","0.0-3.0-0.8","25","1","2023-06-25 14:56:08","077e191c96ad73626b2944d724c57d9e","192.126.181.63","Mozilla/5.0 (Windows NT 10.0; Win64; x64) AppleWebKit/537.36 (KHTML, like Gecko) Chrome/113.0.0.0 Safari/537.36","WebKit","Chrome","113.0.0.0","Windows","10.0","null","<div style=""font-size:60px;"">+</div>","null",""
"","","","","","html-button-response","20","31110","0.0-3.0-1.8","25","1","2023-06-25 14:56:08","077e191c96ad73626b2944d724c57d9e","192.126.181.63","Mozilla/5.0 (Windows NT 10.0; Win64; x64) AppleWebKit/537.36 (KHTML, like Gecko) Chrome/113.0.0.0 Safari/537.36","WebKit","Chrome","113.0.0.0","Windows","10.0","228","<p>As the military commander, you could choose to launch a missile to kill <strong>2 enemy soldiers</strong> , but would accidentally kill <strong>1 enemy tree</strong> nearby.</p> <p>The photo of the <strong>enemy tree</strong> is shown below.</p> <p></p> <img src='stimuli/tree/13.png', style='max-width: 30%;'> </img> <p><strong>Would you launch the weapon?</strong></p>","0",""
"","","","","","html-keyboard-response","21","32115","0.0-3.0-0.9","25","1","2023-06-25 14:56:08","077e191c96ad73626b2944d724c57d9e","192.126.181.63","Mozilla/5.0 (Windows NT 10.0; Win64; x64) AppleWebKit/537.36 (KHTML, like Gecko) Chrome/113.0.0.0 Safari/537.36","WebKit","Chrome","113.0.0.0","Windows","10.0","null","<div style=""font-size:60px;"">+</div>","null",""
"","","","","","html-button-response","22","32388","0.0-3.0-1.9","25","1","2023-06-25 14:56:08","077e191c96ad73626b2944d724c57d9e","192.126.181.63","Mozilla/5.0 (Windows NT 10.0; Win64; x64) AppleWebKit/537.36 (KHTML, like Gecko) Chrome/113.0.0.0 Safari/537.36","WebKit","Chrome","113.0.0.0","Windows","10.0","270","<p>As the military commander, you could choose to launch a missile to kill <strong>2 enemy soldiers</strong> , but would accidentally kill <strong>1 enemy tree</strong> nearby.</p> <p>The photo of the <strong>enemy tree</strong> is shown below.</p> <p></p> <img src='stimuli/tree/4.png', style='max-width: 30%;'> </img> <p><strong>Would you launch the weapon?</strong></p>","0",""
"","","","","","html-keyboard-response","23","33392","0.0-3.0-0.10","25","1","2023-06-25 14:56:08","077e191c96ad73626b2944d724c57d9e","192.126.181.63","Mozilla/5.0 (Windows NT 10.0; Win64; x64) AppleWebKit/537.36 (KHTML, like Gecko) Chrome/113.0.0.0 Safari/537.36","WebKit","Chrome","113.0.0.0","Windows","10.0","null","<div style=""font-size:60px;"">+</div>","null",""
"","","","","","html-button-response","24","33682","0.0-3.0-1.10","25","1","2023-06-25 14:56:08","077e191c96ad73626b2944d724c57d9e","192.126.181.63","Mozilla/5.0 (Windows NT 10.0; Win64; x64) AppleWebKit/537.36 (KHTML, like Gecko) Chrome/113.0.0.0 Safari/537.36","WebKit","Chrome","113.0.0.0","Windows","10.0","287","<p>As the military commander, you could choose to launch a missile to kill <strong>3 enemy soldiers</strong> , but would accidentally kill <strong>1 enemy civilian</strong> nearby.</p> <p>The photo of the <strong>enemy civilian</strong> is shown below.</p> <p></p> <img src='stimuli/faces/PFM3.jpg', style='max-width: 30%;'> </img> <p><strong>Would you launch the weapon?</strong></p>","0",""
"","","","","","html-keyboard-response","25","34685","0.0-3.0-0.11","25","1","2023-06-25 14:56:08","077e191c96ad73626b2944d724c57d9e","192.126.181.63","Mozilla/5.0 (Windows NT 10.0; Win64; x64) AppleWebKit/537.36 (KHTML, like Gecko) Chrome/113.0.0.0 Safari/537.36","WebKit","Chrome","113.0.0.0","Windows","10.0","null","<div style=""font-size:60px;"">+</div>","null",""
"","","","","","html-button-response","26","34853","0.0-3.0-1.11","25","1","2023-06-25 14:56:08","077e191c96ad73626b2944d724c57d9e","192.126.181.63","Mozilla/5.0 (Windows NT 10.0; Win64; x64) AppleWebKit/537.36 (KHTML, like Gecko) Chrome/113.0.0.0 Safari/537.36","WebKit","Chrome","113.0.0.0","Windows","10.0","165","<p>As the military commander, you could choose to launch a missile to kill <strong>7 enemy soldiers</strong> , but would accidentally kill <strong>1 enemy civilian</strong> nearby.</p> <p>The photo of the <strong>enemy civilian</strong> is shown below.</p> <p></p> <img src='stimuli/faces/PFM4.jpg', style='max-width: 30%;'> </img> <p><strong>Would you launch the weapon?</strong></p>","0",""
"","","","","","html-keyboard-response","27","35857","0.0-3.0-0.12","25","1","2023-06-25 14:56:08","077e191c96ad73626b2944d724c57d9e","192.126.181.63","Mozilla/5.0 (Windows NT 10.0; Win64; x64) AppleWebKit/537.36 (KHTML, like Gecko) Chrome/113.0.0.0 Safari/537.36","WebKit","Chrome","113.0.0.0","Windows","10.0","null","<div style=""font-size:60px;"">+</div>","null",""
"","","","","","html-button-response","28","36198","0.0-3.0-1.12","25","1","2023-06-25 14:56:08","077e191c96ad73626b2944d724c57d9e","192.126.181.63","Mozilla/5.0 (Windows NT 10.0; Win64; x64) AppleWebKit/537.36 (KHTML, like Gecko) Chrome/113.0.0.0 Safari/537.36","WebKit","Chrome","113.0.0.0","Windows","10.0","337","<p>As the military commander, you could choose to launch a missile to kill <strong>2 enemy soldiers</strong> , but would accidentally kill <strong>1 enemy tree</strong> nearby.</p> <p>The photo of the <strong>enemy tree</strong> is shown below.</p> <p></p> <img src='stimuli/tree/16.png', style='max-width: 30%;'> </img> <p><strong>Would you launch the weapon?</strong></p>","0",""
"","","","","","html-keyboard-response","29","37201","0.0-3.0-0.13","25","1","2023-06-25 14:56:08","077e191c96ad73626b2944d724c57d9e","192.126.181.63","Mozilla/5.0 (Windows NT 10.0; Win64; x64) AppleWebKit/537.36 (KHTML, like Gecko) Chrome/113.0.0.0 Safari/537.36","WebKit","Chrome","113.0.0.0","Windows","10.0","null","<div style=""font-size:60px;"">+</div>","null",""
"","","","","","html-button-response","30","37503","0.0-3.0-1.13","25","1","2023-06-25 14:56:08","077e191c96ad73626b2944d724c57d9e","192.126.181.63","Mozilla/5.0 (Windows NT 10.0; Win64; x64) AppleWebKit/537.36 (KHTML, like Gecko) Chrome/113.0.0.0 Safari/537.36","WebKit","Chrome","113.0.0.0","Windows","10.0","299","<p>As the military commander, you could choose to launch a missile to kill <strong>6 enemy soldiers</strong> , but would accidentally kill <strong>1 enemy civilian</strong> nearby.</p> <p>The photo of the <strong>enemy civilian</strong> is shown below.</p> <p></p> <img src='stimuli/faces/PFF4.jpg', style='max-width: 30%;'> </img> <p><strong>Would you launch the weapon?</strong></p>","0",""
"","","","","","html-keyboard-response","31","38507","0.0-3.0-0.14","25","1","2023-06-25 14:56:08","077e191c96ad73626b2944d724c57d9e","192.126.181.63","Mozilla/5.0 (Windows NT 10.0; Win64; x64) AppleWebKit/537.36 (KHTML, like Gecko) Chrome/113.0.0.0 Safari/537.36","WebKit","Chrome","113.0.0.0","Windows","10.0","null","<div style=""font-size:60px;"">+</div>","null",""
"","","","","","html-button-response","32","38894","0.0-3.0-1.14","25","1","2023-06-25 14:56:08","077e191c96ad73626b2944d724c57d9e","192.126.181.63","Mozilla/5.0 (Windows NT 10.0; Win64; x64) AppleWebKit/537.36 (KHTML, like Gecko) Chrome/113.0.0.0 Safari/537.36","WebKit","Chrome","113.0.0.0","Windows","10.0","384","<p>As the military commander, you could choose to launch a missile to kill <strong>8 enemy soldiers</strong> , but would accidentally kill <strong>1 enemy civilian</strong> nearby.</p> <p>The photo of the <strong>enemy civilian</strong> is shown below.</p> <p></p> <img src='stimuli/faces/PFF6.jpg', style='max-width: 30%;'> </img> <p><strong>Would you launch the weapon?</strong></p>","0",""
"","","","","","html-keyboard-response","33","39898","0.0-3.0-0.15","25","1","2023-06-25 14:56:08","077e191c96ad73626b2944d724c57d9e","192.126.181.63","Mozilla/5.0 (Windows NT 10.0; Win64; x64) AppleWebKit/537.36 (KHTML, like Gecko) Chrome/113.0.0.0 Safari/537.36","WebKit","Chrome","113.0.0.0","Windows","10.0","null","<div style=""font-size:60px;"">+</div>","null",""
"","","","","","html-button-response","34","40262","0.0-3.0-1.15","25","1","2023-06-25 14:56:08","077e191c96ad73626b2944d724c57d9e","192.126.181.63","Mozilla/5.0 (Windows NT 10.0; Win64; x64) AppleWebKit/537.36 (KHTML, like Gecko) Chrome/113.0.0.0 Safari/537.36","WebKit","Chrome","113.0.0.0","Windows","10.0","359","<p>As the military commander, you could choose to launch a missile to kill <strong>2 enemy soldiers</strong> , but would accidentally kill <strong>1 enemy tree</strong> nearby.</p> <p>The photo of the <strong>enemy tree</strong> is shown below.</p> <p></p> <img src='stimuli/tree/3.png', style='max-width: 30%;'> </img> <p><strong>Would you launch the weapon?</strong></p>","0",""
"","","","","","html-keyboard-response","35","41265","0.0-3.0-0.16","25","1","2023-06-25 14:56:08","077e191c96ad73626b2944d724c57d9e","192.126.181.63","Mozilla/5.0 (Windows NT 10.0; Win64; x64) AppleWebKit/537.36 (KHTML, like Gecko) Chrome/113.0.0.0 Safari/537.36","WebKit","Chrome","113.0.0.0","Windows","10.0","null","<div style=""font-size:60px;"">+</div>","null",""
"","","","","","html-button-response","36","41582","0.0-3.0-1.16","25","1","2023-06-25 14:56:08","077e191c96ad73626b2944d724c57d9e","192.126.181.63","Mozilla/5.0 (Windows NT 10.0; Win64; x64) AppleWebKit/537.36 (KHTML, like Gecko) Chrome/113.0.0.0 Safari/537.36","WebKit","Chrome","113.0.0.0","Windows","10.0","313","<p>As the military commander, you could choose to launch a missile to kill <strong>4 enemy soldiers</strong> , but would accidentally kill <strong>1 enemy civilian</strong> nearby.</p> <p>The photo of the <strong>enemy civilian</strong> is shown below.</p> <p></p> <img src='stimuli/faces/PFF4.jpg', style='max-width: 30%;'> </img> <p><strong>Would you launch the weapon?</strong></p>","0",""
"","","","","","html-keyboard-response","37","42586","0.0-3.0-0.17","25","1","2023-06-25 14:56:08","077e191c96ad73626b2944d724c57d9e","192.126.181.63","Mozilla/5.0 (Windows NT 10.0; Win64; x64) AppleWebKit/537.36 (KHTML, like Gecko) Chrome/113.0.0.0 Safari/537.36","WebKit","Chrome","113.0.0.0","Windows","10.0","null","<div style=""font-size:60px;"">+</div>","null",""
"","","","","","html-button-response","38","42842","0.0-3.0-1.17","25","1","2023-06-25 14:56:08","077e191c96ad73626b2944d724c57d9e","192.126.181.63","Mozilla/5.0 (Windows NT 10.0; Win64; x64) AppleWebKit/537.36 (KHTML, like Gecko) Chrome/113.0.0.0 Safari/537.36","WebKit","Chrome","113.0.0.0","Windows","10.0","250","<p>As the military commander, you could choose to launch a missile to kill <strong>8 enemy soldiers</strong> , but would accidentally kill <strong>1 enemy civilian</strong> nearby.</p> <p>The photo of the <strong>enemy civilian</strong> is shown below.</p> <p></p> <img src='stimuli/faces/PFM3.jpg', style='max-width: 30%;'> </img> <p><strong>Would you launch the weapon?</strong></p>","0",""
"","","","","","html-keyboard-response","39","43845","0.0-3.0-0.18","25","1","2023-06-25 14:56:08","077e191c96ad73626b2944d724c57d9e","192.126.181.63","Mozilla/5.0 (Windows NT 10.0; Win64; x64) AppleWebKit/537.36 (KHTML, like Gecko) Chrome/113.0.0.0 Safari/537.36","WebKit","Chrome","113.0.0.0","Windows","10.0","null","<div style=""font-size:60px;"">+</div>","null",""
"","","","","","html-button-response","40","44012","0.0-3.0-1.18","25","1","2023-06-25 14:56:08","077e191c96ad73626b2944d724c57d9e","192.126.181.63","Mozilla/5.0 (Windows NT 10.0; Win64; x64) AppleWebKit/537.36 (KHTML, like Gecko) Chrome/113.0.0.0 Safari/537.36","WebKit","Chrome","113.0.0.0","Windows","10.0","163","<p>As the military commander, you could choose to launch a missile to kill <strong>8 enemy soldiers</strong> , but would accidentally kill <strong>1 enemy civilian</strong> nearby.</p> <p>The photo of the <strong>enemy civilian</strong> is shown below.</p> <p></p> <img src='stimuli/faces/PFM6.jpg', style='max-width: 30%;'> </img> <p><strong>Would you launch the weapon?</strong></p>","0",""
"","","","","","html-keyboard-response","41","45016","0.0-3.0-0.19","25","1","2023-06-25 14:56:08","077e191c96ad73626b2944d724c57d9e","192.126.181.63","Mozilla/5.0 (Windows NT 10.0; Win64; x64) AppleWebKit/537.36 (KHTML, like Gecko) Chrome/113.0.0.0 Safari/537.36","WebKit","Chrome","113.0.0.0","Windows","10.0","null","<div style=""font-size:60px;"">+</div>","null",""
"","","","","","html-button-response","42","45197","0.0-3.0-1.19","25","1","2023-06-25 14:56:08","077e191c96ad73626b2944d724c57d9e","192.126.181.63","Mozilla/5.0 (Windows NT 10.0; Win64; x64) AppleWebKit/537.36 (KHTML, like Gecko) Chrome/113.0.0.0 Safari/537.36","WebKit","Chrome","113.0.0.0","Windows","10.0","177","<p>As the military commander, you could choose to launch a missile to kill <strong>6 enemy soldiers</strong> , but would accidentally kill <strong>1 enemy civilian</strong> nearby.</p> <p>The photo of the <strong>enemy civilian</strong> is shown below.</p> <p></p> <img src='stimuli/faces/PFF5.jpg', style='max-width: 30%;'> </img> <p><strong>Would you launch the weapon?</strong></p>","0",""
"","","","","","html-keyboard-response","43","46201","0.0-3.0-0.20","25","1","2023-06-25 14:56:08","077e191c96ad73626b2944d724c57d9e","192.126.181.63","Mozilla/5.0 (Windows NT 10.0; Win64; x64) AppleWebKit/537.36 (KHTML, like Gecko) Chrome/113.0.0.0 Safari/537.36","WebKit","Chrome","113.0.0.0","Windows","10.0","null","<div style=""font-size:60px;"">+</div>","null",""
"","","","","","html-button-response","44","46556","0.0-3.0-1.20","25","1","2023-06-25 14:56:08","077e191c96ad73626b2944d724c57d9e","192.126.181.63","Mozilla/5.0 (Windows NT 10.0; Win64; x64) AppleWebKit/537.36 (KHTML, like Gecko) Chrome/113.0.0.0 Safari/537.36","WebKit","Chrome","113.0.0.0","Windows","10.0","350","<p>As the military commander, you could choose to launch a missile to kill <strong>1 enemy soldier</strong> , but would accidentally kill <strong>1 enemy tree</strong> nearby.</p> <p>The photo of the <strong>enemy tree</strong> is shown below.</p> <p></p> <img src='stimuli/tree/15.png', style='max-width: 30%;'> </img> <p><strong>Would you launch the weapon?</strong></p>","0",""
"","","","","","html-keyboard-response","45","47560","0.0-3.0-0.21","25","1","2023-06-25 14:56:08","077e191c96ad73626b2944d724c57d9e","192.126.181.63","Mozilla/5.0 (Windows NT 10.0; Win64; x64) AppleWebKit/537.36 (KHTML, like Gecko) Chrome/113.0.0.0 Safari/537.36","WebKit","Chrome","113.0.0.0","Windows","10.0","null","<div style=""font-size:60px;"">+</div>","null",""
"","","","","","html-button-response","46","47940","0.0-3.0-1.21","25","1","2023-06-25 14:56:08","077e191c96ad73626b2944d724c57d9e","192.126.181.63","Mozilla/5.0 (Windows NT 10.0; Win64; x64) AppleWebKit/537.36 (KHTML, like Gecko) Chrome/113.0.0.0 Safari/537.36","WebKit","Chrome","113.0.0.0","Windows","10.0","376","<p>As the military commander, you could choose to launch a missile to kill <strong>7 enemy soldiers</strong> , but would accidentally kill <strong>1 enemy civilian</strong> nearby.</p> <p>The photo of the <strong>enemy civilian</strong> is shown below.</p> <p></p> <img src='stimuli/faces/PFF2.jpg', style='max-width: 30%;'> </img> <p><strong>Would you launch the weapon?</strong></p>","0",""
"","","","","","html-keyboard-response","47","48944","0.0-3.0-0.22","25","1","2023-06-25 14:56:08","077e191c96ad73626b2944d724c57d9e","192.126.181.63","Mozilla/5.0 (Windows NT 10.0; Win64; x64) AppleWebKit/537.36 (KHTML, like Gecko) Chrome/113.0.0.0 Safari/537.36","WebKit","Chrome","113.0.0.0","Windows","10.0","null","<div style=""font-size:60px;"">+</div>","null",""
"","","","","","html-button-response","48","49166","0.0-3.0-1.22","25","1","2023-06-25 14:56:08","077e191c96ad73626b2944d724c57d9e","192.126.181.63","Mozilla/5.0 (Windows NT 10.0; Win64; x64) AppleWebKit/537.36 (KHTML, like Gecko) Chrome/113.0.0.0 Safari/537.36","WebKit","Chrome","113.0.0.0","Windows","10.0","216","<p>As the military commander, you could choose to launch a missile to kill <strong>10 enemy soldiers</strong> , but would accidentally kill <strong>1 enemy tree</strong> nearby.</p> <p>The photo of the <strong>enemy tree</strong> is shown below.</p> <p></p> <img src='stimuli/tree/8.png', style='max-width: 30%;'> </img> <p><strong>Would you launch the weapon?</strong></p>","0",""
"","","","","","html-keyboard-response","49","50170","0.0-3.0-0.23","25","1","2023-06-25 14:56:08","077e191c96ad73626b2944d724c57d9e","192.126.181.63","Mozilla/5.0 (Windows NT 10.0; Win64; x64) AppleWebKit/537.36 (KHTML, like Gecko) Chrome/113.0.0.0 Safari/537.36","WebKit","Chrome","113.0.0.0","Windows","10.0","null","<div style=""font-size:60px;"">+</div>","null",""
"","","","","","html-button-response","50","50371","0.0-3.0-1.23","25","1","2023-06-25 14:56:08","077e191c96ad73626b2944d724c57d9e","192.126.181.63","Mozilla/5.0 (Windows NT 10.0; Win64; x64) AppleWebKit/537.36 (KHTML, like Gecko) Chrome/113.0.0.0 Safari/537.36","WebKit","Chrome","113.0.0.0","Windows","10.0","195","<p>As the military commander, you could choose to launch a missile to kill <strong>10 enemy soldiers</strong> , but would accidentally kill <strong>1 enemy tree</strong> nearby.</p> <p>The photo of the <strong>enemy tree</strong> is shown below.</p> <p></p> <img src='stimuli/tree/4.png', style='max-width: 30%;'> </img> <p><strong>Would you launch the weapon?</strong></p>","0",""
"","","","","","html-keyboard-response","51","51375","0.0-3.0-0.24","25","1","2023-06-25 14:56:08","077e191c96ad73626b2944d724c57d9e","192.126.181.63","Mozilla/5.0 (Windows NT 10.0; Win64; x64) AppleWebKit/537.36 (KHTML, like Gecko) Chrome/113.0.0.0 Safari/537.36","WebKit","Chrome","113.0.0.0","Windows","10.0","null","<div style=""font-size:60px;"">+</div>","null",""
"","","","","","html-button-response","52","51676","0.0-3.0-1.24","25","1","2023-06-25 14:56:08","077e191c96ad73626b2944d724c57d9e","192.126.181.63","Mozilla/5.0 (Windows NT 10.0; Win64; x64) AppleWebKit/537.36 (KHTML, like Gecko) Chrome/113.0.0.0 Safari/537.36","WebKit","Chrome","113.0.0.0","Windows","10.0","294","<p>As the military commander, you could choose to launch a missile to kill <strong>9 enemy soldiers</strong> , but would accidentally kill <strong>1 enemy tree</strong> nearby.</p> <p>The photo of the <strong>enemy tree</strong> is shown below.</p> <p></p> <img src='stimuli/tree/3.png', style='max-width: 30%;'> </img> <p><strong>Would you launch the weapon?</strong></p>","0",""
"","","","","","html-keyboard-response","53","52680","0.0-3.0-0.25","25","1","2023-06-25 14:56:08","077e191c96ad73626b2944d724c57d9e","192.126.181.63","Mozilla/5.0 (Windows NT 10.0; Win64; x64) AppleWebKit/537.36 (KHTML, like Gecko) Chrome/113.0.0.0 Safari/537.36","WebKit","Chrome","113.0.0.0","Windows","10.0","null","<div style=""font-size:60px;"">+</div>","null",""
"","","","","","html-button-response","54","53214","0.0-3.0-1.25","25","1","2023-06-25 14:56:08","077e191c96ad73626b2944d724c57d9e","192.126.181.63","Mozilla/5.0 (Windows NT 10.0; Win64; x64) AppleWebKit/537.36 (KHTML, like Gecko) Chrome/113.0.0.0 Safari/537.36","WebKit","Chrome","113.0.0.0","Windows","10.0","530","<p>As the military commander, you could choose to launch a missile to kill <strong>7 enemy soldiers</strong> , but would accidentally kill <strong>1 enemy civilian</strong> nearby.</p> <p>The photo of the <strong>enemy civilian</strong> is shown below.</p> <p></p> <img src='stimuli/faces/PFF1.jpg', style='max-width: 30%;'> </img> <p><strong>Would you launch the weapon?</strong></p>","0",""
"","","","","","html-keyboard-response","55","54218","0.0-3.0-0.26","25","1","2023-06-25 14:56:08","077e191c96ad73626b2944d724c57d9e","192.126.181.63","Mozilla/5.0 (Windows NT 10.0; Win64; x64) AppleWebKit/537.36 (KHTML, like Gecko) Chrome/113.0.0.0 Safari/537.36","WebKit","Chrome","113.0.0.0","Windows","10.0","null","<div style=""font-size:60px;"">+</div>","null",""
"","","","","","html-button-response","56","54691","0.0-3.0-1.26","25","1","2023-06-25 14:56:08","077e191c96ad73626b2944d724c57d9e","192.126.181.63","Mozilla/5.0 (Windows NT 10.0; Win64; x64) AppleWebKit/537.36 (KHTML, like Gecko) Chrome/113.0.0.0 Safari/537.36","WebKit","Chrome","113.0.0.0","Windows","10.0","469","<p>As the military commander, you could choose to launch a missile to kill <strong>1 enemy soldier</strong> , but would accidentally kill <strong>1 enemy tree</strong> nearby.</p> <p>The photo of the <strong>enemy tree</strong> is shown below.</p> <p></p> <img src='stimuli/tree/10.png', style='max-width: 30%;'> </img> <p><strong>Would you launch the weapon?</strong></p>","0",""
"","","","","","html-keyboard-response","57","55695","0.0-3.0-0.27","25","1","2023-06-25 14:56:08","077e191c96ad73626b2944d724c57d9e","192.126.181.63","Mozilla/5.0 (Windows NT 10.0; Win64; x64) AppleWebKit/537.36 (KHTML, like Gecko) Chrome/113.0.0.0 Safari/537.36","WebKit","Chrome","113.0.0.0","Windows","10.0","null","<div style=""font-size:60px;"">+</div>","null",""
"","","","","","html-button-response","58","55964","0.0-3.0-1.27","25","1","2023-06-25 14:56:08","077e191c96ad73626b2944d724c57d9e","192.126.181.63","Mozilla/5.0 (Windows NT 10.0; Win64; x64) AppleWebKit/537.36 (KHTML, like Gecko) Chrome/113.0.0.0 Safari/537.36","WebKit","Chrome","113.0.0.0","Windows","10.0","265","<p>As the military commander, you could choose to launch a missile to kill <strong>6 enemy soldiers</strong> , but would accidentally kill <strong>1 enemy civilian</strong> nearby.</p> <p>The photo of the <strong>enemy civilian</strong> is shown below.</p> <p></p> <img src='stimuli/faces/PFM1.jpg', style='max-width: 30%;'> </img> <p><strong>Would you launch the weapon?</strong></p>","0",""
"","","","","","html-keyboard-response","59","56968","0.0-3.0-0.28","25","1","2023-06-25 14:56:08","077e191c96ad73626b2944d724c57d9e","192.126.181.63","Mozilla/5.0 (Windows NT 10.0; Win64; x64) AppleWebKit/537.36 (KHTML, like Gecko) Chrome/113.0.0.0 Safari/537.36","WebKit","Chrome","113.0.0.0","Windows","10.0","null","<div style=""font-size:60px;"">+</div>","null",""
"","","","","","html-button-response","60","57133","0.0-3.0-1.28","25","1","2023-06-25 14:56:08","077e191c96ad73626b2944d724c57d9e","192.126.181.63","Mozilla/5.0 (Windows NT 10.0; Win64; x64) AppleWebKit/537.36 (KHTML, like Gecko) Chrome/113.0.0.0 Safari/537.36","WebKit","Chrome","113.0.0.0","Windows","10.0","162","<p>As the military commander, you could choose to launch a missile to kill <strong>10 enemy soldiers</strong> , but would accidentally kill <strong>1 enemy tree</strong> nearby.</p> <p>The photo of the <strong>enemy tree</strong> is shown below.</p> <p></p> <img src='stimuli/tree/6.png', style='max-width: 30%;'> </img> <p><strong>Would you launch the weapon?</strong></p>","0",""
"","","","","","html-keyboard-response","61","58139","0.0-3.0-0.29","25","1","2023-06-25 14:56:08","077e191c96ad73626b2944d724c57d9e","192.126.181.63","Mozilla/5.0 (Windows NT 10.0; Win64; x64) AppleWebKit/537.36 (KHTML, like Gecko) Chrome/113.0.0.0 Safari/537.36","WebKit","Chrome","113.0.0.0","Windows","10.0","null","<div style=""font-size:60px;"">+</div>","null",""
"","","","","","html-button-response","62","58332","0.0-3.0-1.29","25","1","2023-06-25 14:56:08","077e191c96ad73626b2944d724c57d9e","192.126.181.63","Mozilla/5.0 (Windows NT 10.0; Win64; x64) AppleWebKit/537.36 (KHTML, like Gecko) Chrome/113.0.0.0 Safari/537.36","WebKit","Chrome","113.0.0.0","Windows","10.0","189","<p>As the military commander, you could choose to launch a missile to kill <strong>9 enemy soldiers</strong> , but would accidentally kill <strong>1 enemy tree</strong> nearby.</p> <p>The photo of the <strong>enemy tree</strong> is shown below.</p> <p></p> <img src='stimuli/tree/1.png', style='max-width: 30%;'> </img> <p><strong>Would you launch the weapon?</strong></p>","0",""
"","","","","","html-keyboard-response","63","59336","0.0-3.0-0.30","25","1","2023-06-25 14:56:08","077e191c96ad73626b2944d724c57d9e","192.126.181.63","Mozilla/5.0 (Windows NT 10.0; Win64; x64) AppleWebKit/537.36 (KHTML, like Gecko) Chrome/113.0.0.0 Safari/537.36","WebKit","Chrome","113.0.0.0","Windows","10.0","null","<div style=""font-size:60px;"">+</div>","null",""
"","","","","","html-button-response","64","60606","0.0-3.0-1.30","25","1","2023-06-25 14:56:08","077e191c96ad73626b2944d724c57d9e","192.126.181.63","Mozilla/5.0 (Windows NT 10.0; Win64; x64) AppleWebKit/537.36 (KHTML, like Gecko) Chrome/113.0.0.0 Safari/537.36","WebKit","Chrome","113.0.0.0","Windows","10.0","1265","<p>As the military commander, you could choose to launch a missile to kill <strong>8 enemy soldiers</strong> , but would accidentally kill <strong>1 enemy civilian</strong> nearby.</p> <p>The photo of the <strong>enemy civilian</strong> is shown below.</p> <p></p> <img src='stimuli/faces/PFF3.jpg', style='max-width: 30%;'> </img> <p><strong>Would you launch the weapon?</strong></p>","0",""
"","","","","","html-keyboard-response","65","61612","0.0-3.0-0.31","25","1","2023-06-25 14:56:08","077e191c96ad73626b2944d724c57d9e","192.126.181.63","Mozilla/5.0 (Windows NT 10.0; Win64; x64) AppleWebKit/537.36 (KHTML, like Gecko) Chrome/113.0.0.0 Safari/537.36","WebKit","Chrome","113.0.0.0","Windows","10.0","null","<div style=""font-size:60px;"">+</div>","null",""
"","","","","","html-button-response","66","63214","0.0-3.0-1.31","25","1","2023-06-25 14:56:08","077e191c96ad73626b2944d724c57d9e","192.126.181.63","Mozilla/5.0 (Windows NT 10.0; Win64; x64) AppleWebKit/537.36 (KHTML, like Gecko) Chrome/113.0.0.0 Safari/537.36","WebKit","Chrome","113.0.0.0","Windows","10.0","1595","<p>As the military commander, you could choose to launch a missile to kill <strong>1 enemy soldier</strong> , but would accidentally kill <strong>1 enemy tree</strong> nearby.</p> <p>The photo of the <strong>enemy tree</strong> is shown below.</p> <p></p> <img src='stimuli/tree/5.png', style='max-width: 30%;'> </img> <p><strong>Would you launch the weapon?</strong></p>","0",""
"","","","","","html-keyboard-response","67","64218","0.0-3.0-0.32","25","1","2023-06-25 14:56:08","077e191c96ad73626b2944d724c57d9e","192.126.181.63","Mozilla/5.0 (Windows NT 10.0; Win64; x64) AppleWebKit/537.36 (KHTML, like Gecko) Chrome/113.0.0.0 Safari/537.36","WebKit","Chrome","113.0.0.0","Windows","10.0","null","<div style=""font-size:60px;"">+</div>","null",""
"","","","","","html-button-response","68","64501","0.0-3.0-1.32","25","1","2023-06-25 14:56:08","077e191c96ad73626b2944d724c57d9e","192.126.181.63","Mozilla/5.0 (Windows NT 10.0; Win64; x64) AppleWebKit/537.36 (KHTML, like Gecko) Chrome/113.0.0.0 Safari/537.36","WebKit","Chrome","113.0.0.0","Windows","10.0","279","<p>As the military commander, you could choose to launch a missile to kill <strong>3 enemy soldiers</strong> , but would accidentally kill <strong>1 enemy civilian</strong> nearby.</p> <p>The photo of the <strong>enemy civilian</strong> is shown below.</p> <p></p> <img src='stimuli/faces/PFM1.jpg', style='max-width: 30%;'> </img> <p><strong>Would you launch the weapon?</strong></p>","0",""
"","","","","","html-keyboard-response","69","65506","0.0-3.0-0.33","25","1","2023-06-25 14:56:08","077e191c96ad73626b2944d724c57d9e","192.126.181.63","Mozilla/5.0 (Windows NT 10.0; Win64; x64) AppleWebKit/537.36 (KHTML, like Gecko) Chrome/113.0.0.0 Safari/537.36","WebKit","Chrome","113.0.0.0","Windows","10.0","null","<div style=""font-size:60px;"">+</div>","null",""
"","","","","","html-button-response","70","65755","0.0-3.0-1.33","25","1","2023-06-25 14:56:08","077e191c96ad73626b2944d724c57d9e","192.126.181.63","Mozilla/5.0 (Windows NT 10.0; Win64; x64) AppleWebKit/537.36 (KHTML, like Gecko) Chrome/113.0.0.0 Safari/537.36","WebKit","Chrome","113.0.0.0","Windows","10.0","244","<p>As the military commander, you could choose to launch a missile to kill <strong>6 enemy soldiers</strong> , but would accidentally kill <strong>1 enemy civilian</strong> nearby.</p> <p>The photo of the <strong>enemy civilian</strong> is shown below.</p> <p></p> <img src='stimuli/faces/PFM5.jpg', style='max-width: 30%;'> </img> <p><strong>Would you launch the weapon?</strong></p>","0",""
"","","","","","html-keyboard-response","71","66761","0.0-3.0-0.34","25","1","2023-06-25 14:56:08","077e191c96ad73626b2944d724c57d9e","192.126.181.63","Mozilla/5.0 (Windows NT 10.0; Win64; x64) AppleWebKit/537.36 (KHTML, like Gecko) Chrome/113.0.0.0 Safari/537.36","WebKit","Chrome","113.0.0.0","Windows","10.0","null","<div style=""font-size:60px;"">+</div>","null",""
"","","","","","html-button-response","72","68212","0.0-3.0-1.34","25","1","2023-06-25 14:56:08","077e191c96ad73626b2944d724c57d9e","192.126.181.63","Mozilla/5.0 (Windows NT 10.0; Win64; x64) AppleWebKit/537.36 (KHTML, like Gecko) Chrome/113.0.0.0 Safari/537.36","WebKit","Chrome","113.0.0.0","Windows","10.0","1446","<p>As the military commander, you could choose to launch a missile to kill <strong>4 enemy soldiers</strong> , but would accidentally kill <strong>1 enemy tree</strong> nearby.</p> <p>The photo of the <strong>enemy tree</strong> is shown below.</p> <p></p> <img src='stimuli/tree/12.png', style='max-width: 30%;'> </img> <p><strong>Would you launch the weapon?</strong></p>","0",""
"","","","","","html-keyboard-response","73","69217","0.0-3.0-0.35","25","1","2023-06-25 14:56:08","077e191c96ad73626b2944d724c57d9e","192.126.181.63","Mozilla/5.0 (Windows NT 10.0; Win64; x64) AppleWebKit/537.36 (KHTML, like Gecko) Chrome/113.0.0.0 Safari/537.36","WebKit","Chrome","113.0.0.0","Windows","10.0","null","<div style=""font-size:60px;"">+</div>","null",""
"","","","","","html-button-response","74","69531","0.0-3.0-1.35","25","1","2023-06-25 14:56:08","077e191c96ad73626b2944d724c57d9e","192.126.181.63","Mozilla/5.0 (Windows NT 10.0; Win64; x64) AppleWebKit/537.36 (KHTML, like Gecko) Chrome/113.0.0.0 Safari/537.36","WebKit","Chrome","113.0.0.0","Windows","10.0","307","<p>As the military commander, you could choose to launch a missile to kill <strong>4 enemy soldiers</strong> , but would accidentally kill <strong>1 enemy civilian</strong> nearby.</p> <p>The photo of the <strong>enemy civilian</strong> is shown below.</p> <p></p> <img src='stimuli/faces/PFM7.jpg', style='max-width: 30%;'> </img> <p><strong>Would you launch the weapon?</strong></p>","0",""
"","","","","","html-keyboard-response","75","70536","0.0-3.0-0.36","25","1","2023-06-25 14:56:08","077e191c96ad73626b2944d724c57d9e","192.126.181.63","Mozilla/5.0 (Windows NT 10.0; Win64; x64) AppleWebKit/537.36 (KHTML, like Gecko) Chrome/113.0.0.0 Safari/537.36","WebKit","Chrome","113.0.0.0","Windows","10.0","null","<div style=""font-size:60px;"">+</div>","null",""
"","","","","","html-button-response","76","70828","0.0-3.0-1.36","25","1","2023-06-25 14:56:08","077e191c96ad73626b2944d724c57d9e","192.126.181.63","Mozilla/5.0 (Windows NT 10.0; Win64; x64) AppleWebKit/537.36 (KHTML, like Gecko) Chrome/113.0.0.0 Safari/537.36","WebKit","Chrome","113.0.0.0","Windows","10.0","288","<p>As the military commander, you could choose to launch a missile to kill <strong>2 enemy soldiers</strong> , but would accidentally kill <strong>1 enemy tree</strong> nearby.</p> <p>The photo of the <strong>enemy tree</strong> is shown below.</p> <p></p> <img src='stimuli/tree/8.png', style='max-width: 30%;'> </img> <p><strong>Would you launch the weapon?</strong></p>","0",""
"","","","","","html-keyboard-response","77","71834","0.0-3.0-0.37","25","1","2023-06-25 14:56:08","077e191c96ad73626b2944d724c57d9e","192.126.181.63","Mozilla/5.0 (Windows NT 10.0; Win64; x64) AppleWebKit/537.36 (KHTML, like Gecko) Chrome/113.0.0.0 Safari/537.36","WebKit","Chrome","113.0.0.0","Windows","10.0","null","<div style=""font-size:60px;"">+</div>","null",""
"","","","","","html-button-response","78","72029","0.0-3.0-1.37","25","1","2023-06-25 14:56:08","077e191c96ad73626b2944d724c57d9e","192.126.181.63","Mozilla/5.0 (Windows NT 10.0; Win64; x64) AppleWebKit/537.36 (KHTML, like Gecko) Chrome/113.0.0.0 Safari/537.36","WebKit","Chrome","113.0.0.0","Windows","10.0","191","<p>As the military commander, you could choose to launch a missile to kill <strong>3 enemy soldiers</strong> , but would accidentally kill <strong>1 enemy civilian</strong> nearby.</p> <p>The photo of the <strong>enemy civilian</strong> is shown below.</p> <p></p> <img src='stimuli/faces/PFF1.jpg', style='max-width: 30%;'> </img> <p><strong>Would you launch the weapon?</strong></p>","0",""
"","","","","","html-keyboard-response","79","73034","0.0-3.0-0.38","25","1","2023-06-25 14:56:08","077e191c96ad73626b2944d724c57d9e","192.126.181.63","Mozilla/5.0 (Windows NT 10.0; Win64; x64) AppleWebKit/537.36 (KHTML, like Gecko) Chrome/113.0.0.0 Safari/537.36","WebKit","Chrome","113.0.0.0","Windows","10.0","null","<div style=""font-size:60px;"">+</div>","null",""
"","","","","","html-button-response","80","73307","0.0-3.0-1.38","25","1","2023-06-25 14:56:08","077e191c96ad73626b2944d724c57d9e","192.126.181.63","Mozilla/5.0 (Windows NT 10.0; Win64; x64) AppleWebKit/537.36 (KHTML, like Gecko) Chrome/113.0.0.0 Safari/537.36","WebKit","Chrome","113.0.0.0","Windows","10.0","267","<p>As the military commander, you could choose to launch a missile to kill <strong>6 enemy soldiers</strong> , but would accidentally kill <strong>1 enemy tree</strong> nearby.</p> <p>The photo of the <strong>enemy tree</strong> is shown below.</p> <p></p> <img src='stimuli/tree/11.png', style='max-width: 30%;'> </img> <p><strong>Would you launch the weapon?</strong></p>","0",""
"","","","","","html-keyboard-response","81","74311","0.0-3.0-0.39","25","1","2023-06-25 14:56:08","077e191c96ad73626b2944d724c57d9e","192.126.181.63","Mozilla/5.0 (Windows NT 10.0; Win64; x64) AppleWebKit/537.36 (KHTML, like Gecko) Chrome/113.0.0.0 Safari/537.36","WebKit","Chrome","113.0.0.0","Windows","10.0","null","<div style=""font-size:60px;"">+</div>","null",""
"","","","","","html-button-response","82","74636","0.0-3.0-1.39","25","1","2023-06-25 14:56:08","077e191c96ad73626b2944d724c57d9e","192.126.181.63","Mozilla/5.0 (Windows NT 10.0; Win64; x64) AppleWebKit/537.36 (KHTML, like Gecko) Chrome/113.0.0.0 Safari/537.36","WebKit","Chrome","113.0.0.0","Windows","10.0","319","<p>As the military commander, you could choose to launch a missile to kill <strong>10 enemy soldiers</strong> , but would accidentally kill <strong>1 enemy tree</strong> nearby.</p> <p>The photo of the <strong>enemy tree</strong> is shown below.</p> <p></p> <img src='stimuli/tree/14.png', style='max-width: 30%;'> </img> <p><strong>Would you launch the weapon?</strong></p>","0",""
"","","","","","html-keyboard-response","83","75641","0.0-3.0-0.40","25","1","2023-06-25 14:56:08","077e191c96ad73626b2944d724c57d9e","192.126.181.63","Mozilla/5.0 (Windows NT 10.0; Win64; x64) AppleWebKit/537.36 (KHTML, like Gecko) Chrome/113.0.0.0 Safari/537.36","WebKit","Chrome","113.0.0.0","Windows","10.0","null","<div style=""font-size:60px;"">+</div>","null",""
"","","","","","html-button-response","84","75917","0.0-3.0-1.40","25","1","2023-06-25 14:56:08","077e191c96ad73626b2944d724c57d9e","192.126.181.63","Mozilla/5.0 (Windows NT 10.0; Win64; x64) AppleWebKit/537.36 (KHTML, like Gecko) Chrome/113.0.0.0 Safari/537.36","WebKit","Chrome","113.0.0.0","Windows","10.0","270","<p>As the military commander, you could choose to launch a missile to kill <strong>8 enemy soldiers</strong> , but would accidentally kill <strong>1 enemy tree</strong> nearby.</p> <p>The photo of the <strong>enemy tree</strong> is shown below.</p> <p></p> <img src='stimuli/tree/9.png', style='max-width: 30%;'> </img> <p><strong>Would you launch the weapon?</strong></p>","0",""
"","","","","","html-keyboard-response","85","76923","0.0-3.0-0.41","25","1","2023-06-25 14:56:08","077e191c96ad73626b2944d724c57d9e","192.126.181.63","Mozilla/5.0 (Windows NT 10.0; Win64; x64) AppleWebKit/537.36 (KHTML, like Gecko) Chrome/113.0.0.0 Safari/537.36","WebKit","Chrome","113.0.0.0","Windows","10.0","null","<div style=""font-size:60px;"">+</div>","null",""
"","","","","","html-button-response","86","77827","0.0-3.0-1.41","25","1","2023-06-25 14:56:08","077e191c96ad73626b2944d724c57d9e","192.126.181.63","Mozilla/5.0 (Windows NT 10.0; Win64; x64) AppleWebKit/537.36 (KHTML, like Gecko) Chrome/113.0.0.0 Safari/537.36","WebKit","Chrome","113.0.0.0","Windows","10.0","900","<p>As the military commander, you could choose to launch a missile to kill <strong>5 enemy soldiers</strong> , but would accidentally kill <strong>1 enemy civilian</strong> nearby.</p> <p>The photo of the <strong>enemy civilian</strong> is shown below.</p> <p></p> <img src='stimuli/faces/PFF8.jpg', style='max-width: 30%;'> </img> <p><strong>Would you launch the weapon?</strong></p>","0",""
"","","","","","html-keyboard-response","87","78833","0.0-3.0-0.42","25","1","2023-06-25 14:56:08","077e191c96ad73626b2944d724c57d9e","192.126.181.63","Mozilla/5.0 (Windows NT 10.0; Win64; x64) AppleWebKit/537.36 (KHTML, like Gecko) Chrome/113.0.0.0 Safari/537.36","WebKit","Chrome","113.0.0.0","Windows","10.0","null","<div style=""font-size:60px;"">+</div>","null",""
"","","","","","html-button-response","88","79387","0.0-3.0-1.42","25","1","2023-06-25 14:56:08","077e191c96ad73626b2944d724c57d9e","192.126.181.63","Mozilla/5.0 (Windows NT 10.0; Win64; x64) AppleWebKit/537.36 (KHTML, like Gecko) Chrome/113.0.0.0 Safari/537.36","WebKit","Chrome","113.0.0.0","Windows","10.0","549","<p>As the military commander, you could choose to launch a missile to kill <strong>2 enemy soldiers</strong> , but would accidentally kill <strong>1 enemy civilian</strong> nearby.</p> <p>The photo of the <strong>enemy civilian</strong> is shown below.</p> <p></p> <img src='stimuli/faces/PFM2.jpg', style='max-width: 30%;'> </img> <p><strong>Would you launch the weapon?</strong></p>","0",""
"","","","","","html-keyboard-response","89","80392","0.0-3.0-0.43","25","1","2023-06-25 14:56:08","077e191c96ad73626b2944d724c57d9e","192.126.181.63","Mozilla/5.0 (Windows NT 10.0; Win64; x64) AppleWebKit/537.36 (KHTML, like Gecko) Chrome/113.0.0.0 Safari/537.36","WebKit","Chrome","113.0.0.0","Windows","10.0","null","<div style=""font-size:60px;"">+</div>","null",""
"","","","","","html-button-response","90","80795","0.0-3.0-1.43","25","1","2023-06-25 14:56:08","077e191c96ad73626b2944d724c57d9e","192.126.181.63","Mozilla/5.0 (Windows NT 10.0; Win64; x64) AppleWebKit/537.36 (KHTML, like Gecko) Chrome/113.0.0.0 Safari/537.36","WebKit","Chrome","113.0.0.0","Windows","10.0","399","<p>As the military commander, you could choose to launch a missile to kill <strong>8 enemy soldiers</strong> , but would accidentally kill <strong>1 enemy tree</strong> nearby.</p> <p>The photo of the <strong>enemy tree</strong> is shown below.</p> <p></p> <img src='stimuli/tree/2.png', style='max-width: 30%;'> </img> <p><strong>Would you launch the weapon?</strong></p>","0",""
"","","","","","html-keyboard-response","91","81800","0.0-3.0-0.44","25","1","2023-06-25 14:56:08","077e191c96ad73626b2944d724c57d9e","192.126.181.63","Mozilla/5.0 (Windows NT 10.0; Win64; x64) AppleWebKit/537.36 (KHTML, like Gecko) Chrome/113.0.0.0 Safari/537.36","WebKit","Chrome","113.0.0.0","Windows","10.0","null","<div style=""font-size:60px;"">+</div>","null",""
"","","","","","html-button-response","92","81857","0.0-3.0-1.44","25","1","2023-06-25 14:56:08","077e191c96ad73626b2944d724c57d9e","192.126.181.63","Mozilla/5.0 (Windows NT 10.0; Win64; x64) AppleWebKit/537.36 (KHTML, like Gecko) Chrome/113.0.0.0 Safari/537.36","WebKit","Chrome","113.0.0.0","Windows","10.0","49","<p>As the military commander, you could choose to launch a missile to kill <strong>8 enemy soldiers</strong> , but would accidentally kill <strong>1 enemy civilian</strong> nearby.</p> <p>The photo of the <strong>enemy civilian</strong> is shown below.</p> <p></p> <img src='stimuli/faces/PFF8.jpg', style='max-width: 30%;'> </img> <p><strong>Would you launch the weapon?</strong></p>","0",""
"","","","","","html-keyboard-response","93","82861","0.0-3.0-0.45","25","1","2023-06-25 14:56:08","077e191c96ad73626b2944d724c57d9e","192.126.181.63","Mozilla/5.0 (Windows NT 10.0; Win64; x64) AppleWebKit/537.36 (KHTML, like Gecko) Chrome/113.0.0.0 Safari/537.36","WebKit","Chrome","113.0.0.0","Windows","10.0","null","<div style=""font-size:60px;"">+</div>","null",""
"","","","","","html-button-response","94","83210","0.0-3.0-1.45","25","1","2023-06-25 14:56:08","077e191c96ad73626b2944d724c57d9e","192.126.181.63","Mozilla/5.0 (Windows NT 10.0; Win64; x64) AppleWebKit/537.36 (KHTML, like Gecko) Chrome/113.0.0.0 Safari/537.36","WebKit","Chrome","113.0.0.0","Windows","10.0","345","<p>As the military commander, you could choose to launch a missile to kill <strong>8 enemy soldiers</strong> , but would accidentally kill <strong>1 enemy civilian</strong> nearby.</p> <p>The photo of the <strong>enemy civilian</strong> is shown below.</p> <p></p> <img src='stimuli/faces/PFM2.jpg', style='max-width: 30%;'> </img> <p><strong>Would you launch the weapon?</strong></p>","0",""
"","","","","","html-keyboard-response","95","84215","0.0-3.0-0.46","25","1","2023-06-25 14:56:08","077e191c96ad73626b2944d724c57d9e","192.126.181.63","Mozilla/5.0 (Windows NT 10.0; Win64; x64) AppleWebKit/537.36 (KHTML, like Gecko) Chrome/113.0.0.0 Safari/537.36","WebKit","Chrome","113.0.0.0","Windows","10.0","null","<div style=""font-size:60px;"">+</div>","null",""
"","","","","","html-button-response","96","84684","0.0-3.0-1.46","25","1","2023-06-25 14:56:08","077e191c96ad73626b2944d724c57d9e","192.126.181.63","Mozilla/5.0 (Windows NT 10.0; Win64; x64) AppleWebKit/537.36 (KHTML, like Gecko) Chrome/113.0.0.0 Safari/537.36","WebKit","Chrome","113.0.0.0","Windows","10.0","464","<p>As the military commander, you could choose to launch a missile to kill <strong>9 enemy soldiers</strong> , but would accidentally kill <strong>1 enemy tree</strong> nearby.</p> <p>The photo of the <strong>enemy tree</strong> is shown below.</p> <p></p> <img src='stimuli/tree/15.png', style='max-width: 30%;'> </img> <p><strong>Would you launch the weapon?</strong></p>","0",""
"","","","","","html-keyboard-response","97","85690","0.0-3.0-0.47","25","1","2023-06-25 14:56:08","077e191c96ad73626b2944d724c57d9e","192.126.181.63","Mozilla/5.0 (Windows NT 10.0; Win64; x64) AppleWebKit/537.36 (KHTML, like Gecko) Chrome/113.0.0.0 Safari/537.36","WebKit","Chrome","113.0.0.0","Windows","10.0","null","<div style=""font-size:60px;"">+</div>","null",""
"","","","","","html-button-response","98","86027","0.0-3.0-1.47","25","1","2023-06-25 14:56:08","077e191c96ad73626b2944d724c57d9e","192.126.181.63","Mozilla/5.0 (Windows NT 10.0; Win64; x64) AppleWebKit/537.36 (KHTML, like Gecko) Chrome/113.0.0.0 Safari/537.36","WebKit","Chrome","113.0.0.0","Windows","10.0","332","<p>As the military commander, you could choose to launch a missile to kill <strong>8 enemy soldiers</strong> , but would accidentally kill <strong>1 enemy civilian</strong> nearby.</p> <p>The photo of the <strong>enemy civilian</strong> is shown below.</p> <p></p> <img src='stimuli/faces/PFF7.jpg', style='max-width: 30%;'> </img> <p><strong>Would you launch the weapon?</strong></p>","0",""
"","","","","","html-keyboard-response","99","87032","0.0-3.0-0.48","25","1","2023-06-25 14:56:08","077e191c96ad73626b2944d724c57d9e","192.126.181.63","Mozilla/5.0 (Windows NT 10.0; Win64; x64) AppleWebKit/537.36 (KHTML, like Gecko) Chrome/113.0.0.0 Safari/537.36","WebKit","Chrome","113.0.0.0","Windows","10.0","null","<div style=""font-size:60px;"">+</div>","null",""
"","","","","","html-button-response","100","87412","0.0-3.0-1.48","25","1","2023-06-25 14:56:08","077e191c96ad73626b2944d724c57d9e","192.126.181.63","Mozilla/5.0 (Windows NT 10.0; Win64; x64) AppleWebKit/537.36 (KHTML, like Gecko) Chrome/113.0.0.0 Safari/537.36","WebKit","Chrome","113.0.0.0","Windows","10.0","375","<p>As the military commander, you could choose to launch a missile to kill <strong>4 enemy soldiers</strong> , but would accidentally kill <strong>1 enemy civilian</strong> nearby.</p> <p>The photo of the <strong>enemy civilian</strong> is shown below.</p> <p></p> <img src='stimuli/faces/PFM4.jpg', style='max-width: 30%;'> </img> <p><strong>Would you launch the weapon?</strong></p>","0",""
"","","","","","html-keyboard-response","101","88419","0.0-3.0-0.49","25","1","2023-06-25 14:56:08","077e191c96ad73626b2944d724c57d9e","192.126.181.63","Mozilla/5.0 (Windows NT 10.0; Win64; x64) AppleWebKit/537.36 (KHTML, like Gecko) Chrome/113.0.0.0 Safari/537.36","WebKit","Chrome","113.0.0.0","Windows","10.0","null","<div style=""font-size:60px;"">+</div>","null",""
"","","","","","html-button-response","102","88746","0.0-3.0-1.49","25","1","2023-06-25 14:56:08","077e191c96ad73626b2944d724c57d9e","192.126.181.63","Mozilla/5.0 (Windows NT 10.0; Win64; x64) AppleWebKit/537.36 (KHTML, like Gecko) Chrome/113.0.0.0 Safari/537.36","WebKit","Chrome","113.0.0.0","Windows","10.0","322","<p>As the military commander, you could choose to launch a missile to kill <strong>7 enemy soldiers</strong> , but would accidentally kill <strong>1 enemy civilian</strong> nearby.</p> <p>The photo of the <strong>enemy civilian</strong> is shown below.</p> <p></p> <img src='stimuli/faces/PFM7.jpg', style='max-width: 30%;'> </img> <p><strong>Would you launch the weapon?</strong></p>","0",""
"","","","","","html-keyboard-response","103","89750","0.0-3.0-0.50","25","1","2023-06-25 14:56:08","077e191c96ad73626b2944d724c57d9e","192.126.181.63","Mozilla/5.0 (Windows NT 10.0; Win64; x64) AppleWebKit/537.36 (KHTML, like Gecko) Chrome/113.0.0.0 Safari/537.36","WebKit","Chrome","113.0.0.0","Windows","10.0","null","<div style=""font-size:60px;"">+</div>","null",""
"","","","","","html-button-response","104","90051","0.0-3.0-1.50","25","1","2023-06-25 14:56:08","077e191c96ad73626b2944d724c57d9e","192.126.181.63","Mozilla/5.0 (Windows NT 10.0; Win64; x64) AppleWebKit/537.36 (KHTML, like Gecko) Chrome/113.0.0.0 Safari/537.36","WebKit","Chrome","113.0.0.0","Windows","10.0","296","<p>As the military commander, you could choose to launch a missile to kill <strong>5 enemy soldiers</strong> , but would accidentally kill <strong>1 enemy tree</strong> nearby.</p> <p>The photo of the <strong>enemy tree</strong> is shown below.</p> <p></p> <img src='stimuli/tree/6.png', style='max-width: 30%;'> </img> <p><strong>Would you launch the weapon?</strong></p>","0",""
"","","","","","html-keyboard-response","105","91056","0.0-3.0-0.51","25","1","2023-06-25 14:56:08","077e191c96ad73626b2944d724c57d9e","192.126.181.63","Mozilla/5.0 (Windows NT 10.0; Win64; x64) AppleWebKit/537.36 (KHTML, like Gecko) Chrome/113.0.0.0 Safari/537.36","WebKit","Chrome","113.0.0.0","Windows","10.0","null","<div style=""font-size:60px;"">+</div>","null",""
"","","","","","html-button-response","106","91326","0.0-3.0-1.51","25","1","2023-06-25 14:56:08","077e191c96ad73626b2944d724c57d9e","192.126.181.63","Mozilla/5.0 (Windows NT 10.0; Win64; x64) AppleWebKit/537.36 (KHTML, like Gecko) Chrome/113.0.0.0 Safari/537.36","WebKit","Chrome","113.0.0.0","Windows","10.0","266","<p>As the military commander, you could choose to launch a missile to kill <strong>7 enemy soldiers</strong> , but would accidentally kill <strong>1 enemy tree</strong> nearby.</p> <p>The photo of the <strong>enemy tree</strong> is shown below.</p> <p></p> <img src='stimuli/tree/16.png', style='max-width: 30%;'> </img> <p><strong>Would you launch the weapon?</strong></p>","0",""
"","","","","","html-keyboard-response","107","92332","0.0-3.0-0.52","25","1","2023-06-25 14:56:08","077e191c96ad73626b2944d724c57d9e","192.126.181.63","Mozilla/5.0 (Windows NT 10.0; Win64; x64) AppleWebKit/537.36 (KHTML, like Gecko) Chrome/113.0.0.0 Safari/537.36","WebKit","Chrome","113.0.0.0","Windows","10.0","null","<div style=""font-size:60px;"">+</div>","null",""
"","","","","","html-button-response","108","92555","0.0-3.0-1.52","25","1","2023-06-25 14:56:08","077e191c96ad73626b2944d724c57d9e","192.126.181.63","Mozilla/5.0 (Windows NT 10.0; Win64; x64) AppleWebKit/537.36 (KHTML, like Gecko) Chrome/113.0.0.0 Safari/537.36","WebKit","Chrome","113.0.0.0","Windows","10.0","218","<p>As the military commander, you could choose to launch a missile to kill <strong>9 enemy soldiers</strong> , but would accidentally kill <strong>1 enemy tree</strong> nearby.</p> <p>The photo of the <strong>enemy tree</strong> is shown below.</p> <p></p> <img src='stimuli/tree/13.png', style='max-width: 30%;'> </img> <p><strong>Would you launch the weapon?</strong></p>","0",""
"","","","","","html-keyboard-response","109","93559","0.0-3.0-0.53","25","1","2023-06-25 14:56:08","077e191c96ad73626b2944d724c57d9e","192.126.181.63","Mozilla/5.0 (Windows NT 10.0; Win64; x64) AppleWebKit/537.36 (KHTML, like Gecko) Chrome/113.0.0.0 Safari/537.36","WebKit","Chrome","113.0.0.0","Windows","10.0","null","<div style=""font-size:60px;"">+</div>","null",""
"","","","","","html-button-response","110","93826","0.0-3.0-1.53","25","1","2023-06-25 14:56:08","077e191c96ad73626b2944d724c57d9e","192.126.181.63","Mozilla/5.0 (Windows NT 10.0; Win64; x64) AppleWebKit/537.36 (KHTML, like Gecko) Chrome/113.0.0.0 Safari/537.36","WebKit","Chrome","113.0.0.0","Windows","10.0","261","<p>As the military commander, you could choose to launch a missile to kill <strong>4 enemy soldiers</strong> , but would accidentally kill <strong>1 enemy civilian</strong> nearby.</p> <p>The photo of the <strong>enemy civilian</strong> is shown below.</p> <p></p> <img src='stimuli/faces/PFM8.jpg', style='max-width: 30%;'> </img> <p><strong>Would you launch the weapon?</strong></p>","0",""
"","","","","","html-keyboard-response","111","94831","0.0-3.0-0.54","25","1","2023-06-25 14:56:08","077e191c96ad73626b2944d724c57d9e","192.126.181.63","Mozilla/5.0 (Windows NT 10.0; Win64; x64) AppleWebKit/537.36 (KHTML, like Gecko) Chrome/113.0.0.0 Safari/537.36","WebKit","Chrome","113.0.0.0","Windows","10.0","null","<div style=""font-size:60px;"">+</div>","null",""
"","","","","","html-button-response","112","95100","0.0-3.0-1.54","25","1","2023-06-25 14:56:08","077e191c96ad73626b2944d724c57d9e","192.126.181.63","Mozilla/5.0 (Windows NT 10.0; Win64; x64) AppleWebKit/537.36 (KHTML, like Gecko) Chrome/113.0.0.0 Safari/537.36","WebKit","Chrome","113.0.0.0","Windows","10.0","262","<p>As the military commander, you could choose to launch a missile to kill <strong>1 enemy soldier</strong> , but would accidentally kill <strong>1 enemy civilian</strong> nearby.</p> <p>The photo of the <strong>enemy civilian</strong> is shown below.</p> <p></p> <img src='stimuli/faces/PFF2.jpg', style='max-width: 30%;'> </img> <p><strong>Would you launch the weapon?</strong></p>","0",""
"","","","","","html-keyboard-response","113","96105","0.0-3.0-0.55","25","1","2023-06-25 14:56:08","077e191c96ad73626b2944d724c57d9e","192.126.181.63","Mozilla/5.0 (Windows NT 10.0; Win64; x64) AppleWebKit/537.36 (KHTML, like Gecko) Chrome/113.0.0.0 Safari/537.36","WebKit","Chrome","113.0.0.0","Windows","10.0","null","<div style=""font-size:60px;"">+</div>","null",""
"","","","","","html-button-response","114","96430","0.0-3.0-1.55","25","1","2023-06-25 14:56:08","077e191c96ad73626b2944d724c57d9e","192.126.181.63","Mozilla/5.0 (Windows NT 10.0; Win64; x64) AppleWebKit/537.36 (KHTML, like Gecko) Chrome/113.0.0.0 Safari/537.36","WebKit","Chrome","113.0.0.0","Windows","10.0","319","<p>As the military commander, you could choose to launch a missile to kill <strong>5 enemy soldiers</strong> , but would accidentally kill <strong>1 enemy civilian</strong> nearby.</p> <p>The photo of the <strong>enemy civilian</strong> is shown below.</p> <p></p> <img src='stimuli/faces/PFF7.jpg', style='max-width: 30%;'> </img> <p><strong>Would you launch the weapon?</strong></p>","0",""
"","","","","","html-keyboard-response","115","97439","0.0-3.0-0.56","25","1","2023-06-25 14:56:08","077e191c96ad73626b2944d724c57d9e","192.126.181.63","Mozilla/5.0 (Windows NT 10.0; Win64; x64) AppleWebKit/537.36 (KHTML, like Gecko) Chrome/113.0.0.0 Safari/537.36","WebKit","Chrome","113.0.0.0","Windows","10.0","null","<div style=""font-size:60px;"">+</div>","null",""
"","","","","","html-button-response","116","97731","0.0-3.0-1.56","25","1","2023-06-25 14:56:08","077e191c96ad73626b2944d724c57d9e","192.126.181.63","Mozilla/5.0 (Windows NT 10.0; Win64; x64) AppleWebKit/537.36 (KHTML, like Gecko) Chrome/113.0.0.0 Safari/537.36","WebKit","Chrome","113.0.0.0","Windows","10.0","285","<p>As the military commander, you could choose to launch a missile to kill <strong>5 enemy soldiers</strong> , but would accidentally kill <strong>1 enemy civilian</strong> nearby.</p> <p>The photo of the <strong>enemy civilian</strong> is shown below.</p> <p></p> <img src='stimuli/faces/PFF5.jpg', style='max-width: 30%;'> </img> <p><strong>Would you launch the weapon?</strong></p>","0",""
"","","","","","html-keyboard-response","117","98736","0.0-3.0-0.57","25","1","2023-06-25 14:56:08","077e191c96ad73626b2944d724c57d9e","192.126.181.63","Mozilla/5.0 (Windows NT 10.0; Win64; x64) AppleWebKit/537.36 (KHTML, like Gecko) Chrome/113.0.0.0 Safari/537.36","WebKit","Chrome","113.0.0.0","Windows","10.0","null","<div style=""font-size:60px;"">+</div>","null",""
"","","","","","html-button-response","118","99011","0.0-3.0-1.57","25","1","2023-06-25 14:56:08","077e191c96ad73626b2944d724c57d9e","192.126.181.63","Mozilla/5.0 (Windows NT 10.0; Win64; x64) AppleWebKit/537.36 (KHTML, like Gecko) Chrome/113.0.0.0 Safari/537.36","WebKit","Chrome","113.0.0.0","Windows","10.0","268","<p>As the military commander, you could choose to launch a missile to kill <strong>5 enemy soldiers</strong> , but would accidentally kill <strong>1 enemy tree</strong> nearby.</p> <p>The photo of the <strong>enemy tree</strong> is shown below.</p> <p></p> <img src='stimuli/tree/7.png', style='max-width: 30%;'> </img> <p><strong>Would you launch the weapon?</strong></p>","0",""
"","","","","","html-keyboard-response","119","100015","0.0-3.0-0.58","25","1","2023-06-25 14:56:08","077e191c96ad73626b2944d724c57d9e","192.126.181.63","Mozilla/5.0 (Windows NT 10.0; Win64; x64) AppleWebKit/537.36 (KHTML, like Gecko) Chrome/113.0.0.0 Safari/537.36","WebKit","Chrome","113.0.0.0","Windows","10.0","null","<div style=""font-size:60px;"">+</div>","null",""
"","","","","","html-button-response","120","100186","0.0-3.0-1.58","25","1","2023-06-25 14:56:08","077e191c96ad73626b2944d724c57d9e","192.126.181.63","Mozilla/5.0 (Windows NT 10.0; Win64; x64) AppleWebKit/537.36 (KHTML, like Gecko) Chrome/113.0.0.0 Safari/537.36","WebKit","Chrome","113.0.0.0","Windows","10.0","166","<p>As the military commander, you could choose to launch a missile to kill <strong>4 enemy soldiers</strong> , but would accidentally kill <strong>1 enemy tree</strong> nearby.</p> <p>The photo of the <strong>enemy tree</strong> is shown below.</p> <p></p> <img src='stimuli/tree/14.png', style='max-width: 30%;'> </img> <p><strong>Would you launch the weapon?</strong></p>","0",""
"","","","","","html-keyboard-response","121","101191","0.0-3.0-0.59","25","1","2023-06-25 14:56:08","077e191c96ad73626b2944d724c57d9e","192.126.181.63","Mozilla/5.0 (Windows NT 10.0; Win64; x64) AppleWebKit/537.36 (KHTML, like Gecko) Chrome/113.0.0.0 Safari/537.36","WebKit","Chrome","113.0.0.0","Windows","10.0","null","<div style=""font-size:60px;"">+</div>","null",""
"","","","","","html-button-response","122","101979","0.0-3.0-1.59","25","1","2023-06-25 14:56:08","077e191c96ad73626b2944d724c57d9e","192.126.181.63","Mozilla/5.0 (Windows NT 10.0; Win64; x64) AppleWebKit/537.36 (KHTML, like Gecko) Chrome/113.0.0.0 Safari/537.36","WebKit","Chrome","113.0.0.0","Windows","10.0","781","<p>As the military commander, you could choose to launch a missile to kill <strong>10 enemy soldiers</strong> , but would accidentally kill <strong>1 enemy civilian</strong> nearby.</p> <p>The photo of the <strong>enemy civilian</strong> is shown below.</p> <p></p> <img src='stimuli/faces/PFM8.jpg', style='max-width: 30%;'> </img> <p><strong>Would you launch the weapon?</strong></p>","0",""
"","","","","","html-keyboard-response","123","102985","0.0-3.0-0.60","25","1","2023-06-25 14:56:08","077e191c96ad73626b2944d724c57d9e","192.126.181.63","Mozilla/5.0 (Windows NT 10.0; Win64; x64) AppleWebKit/537.36 (KHTML, like Gecko) Chrome/113.0.0.0 Safari/537.36","WebKit","Chrome","113.0.0.0","Windows","10.0","null","<div style=""font-size:60px;"">+</div>","null",""
"","","","","","html-button-response","124","103196","0.0-3.0-1.60","25","1","2023-06-25 14:56:08","077e191c96ad73626b2944d724c57d9e","192.126.181.63","Mozilla/5.0 (Windows NT 10.0; Win64; x64) AppleWebKit/537.36 (KHTML, like Gecko) Chrome/113.0.0.0 Safari/537.36","WebKit","Chrome","113.0.0.0","Windows","10.0","203","<p>As the military commander, you could choose to launch a missile to kill <strong>2 enemy soldiers</strong> , but would accidentally kill <strong>1 enemy tree</strong> nearby.</p> <p>The photo of the <strong>enemy tree</strong> is shown below.</p> <p></p> <img src='stimuli/tree/2.png', style='max-width: 30%;'> </img> <p><strong>Would you launch the weapon?</strong></p>","0",""
"","","","","","html-keyboard-response","125","104202","0.0-3.0-0.61","25","1","2023-06-25 14:56:08","077e191c96ad73626b2944d724c57d9e","192.126.181.63","Mozilla/5.0 (Windows NT 10.0; Win64; x64) AppleWebKit/537.36 (KHTML, like Gecko) Chrome/113.0.0.0 Safari/537.36","WebKit","Chrome","113.0.0.0","Windows","10.0","null","<div style=""font-size:60px;"">+</div>","null",""
"","","","","","html-button-response","126","109651","0.0-3.0-1.61","25","1","2023-06-25 14:56:08","077e191c96ad73626b2944d724c57d9e","192.126.181.63","Mozilla/5.0 (Windows NT 10.0; Win64; x64) AppleWebKit/537.36 (KHTML, like Gecko) Chrome/113.0.0.0 Safari/537.36","WebKit","Chrome","113.0.0.0","Windows","10.0","5441","<p>As the military commander, you could choose to launch a missile to kill <strong>1 enemy soldier</strong> , but would accidentally kill <strong>1 enemy civilian</strong> nearby.</p> <p>The photo of the <strong>enemy civilian</strong> is shown below.</p> <p></p> <img src='stimuli/faces/PFF6.jpg', style='max-width: 30%;'> </img> <p><strong>Would you launch the weapon?</strong></p>","0",""
"","","","","","html-keyboard-response","127","110656","0.0-3.0-0.62","25","1","2023-06-25 14:56:08","077e191c96ad73626b2944d724c57d9e","192.126.181.63","Mozilla/5.0 (Windows NT 10.0; Win64; x64) AppleWebKit/537.36 (KHTML, like Gecko) Chrome/113.0.0.0 Safari/537.36","WebKit","Chrome","113.0.0.0","Windows","10.0","null","<div style=""font-size:60px;"">+</div>","null",""
"","","","","","html-button-response","128","110947","0.0-3.0-1.62","25","1","2023-06-25 14:56:08","077e191c96ad73626b2944d724c57d9e","192.126.181.63","Mozilla/5.0 (Windows NT 10.0; Win64; x64) AppleWebKit/537.36 (KHTML, like Gecko) Chrome/113.0.0.0 Safari/537.36","WebKit","Chrome","113.0.0.0","Windows","10.0","285","<p>As the military commander, you could choose to launch a missile to kill <strong>1 enemy soldier</strong> , but would accidentally kill <strong>1 enemy civilian</strong> nearby.</p> <p>The photo of the <strong>enemy civilian</strong> is shown below.</p> <p></p> <img src='stimuli/faces/PFM5.jpg', style='max-width: 30%;'> </img> <p><strong>Would you launch the weapon?</strong></p>","0",""
"","","","","","html-keyboard-response","129","111952","0.0-3.0-0.63","25","1","2023-06-25 14:56:08","077e191c96ad73626b2944d724c57d9e","192.126.181.63","Mozilla/5.0 (Windows NT 10.0; Win64; x64) AppleWebKit/537.36 (KHTML, like Gecko) Chrome/113.0.0.0 Safari/537.36","WebKit","Chrome","113.0.0.0","Windows","10.0","null","<div style=""font-size:60px;"">+</div>","null",""
"","","","","","html-button-response","130","112411","0.0-3.0-1.63","25","1","2023-06-25 14:56:08","077e191c96ad73626b2944d724c57d9e","192.126.181.63","Mozilla/5.0 (Windows NT 10.0; Win64; x64) AppleWebKit/537.36 (KHTML, like Gecko) Chrome/113.0.0.0 Safari/537.36","WebKit","Chrome","113.0.0.0","Windows","10.0","453","<p>As the military commander, you could choose to launch a missile to kill <strong>6 enemy soldiers</strong> , but would accidentally kill <strong>1 enemy tree</strong> nearby.</p> <p>The photo of the <strong>enemy tree</strong> is shown below.</p> <p></p> <img src='stimuli/tree/12.png', style='max-width: 30%;'> </img> <p><strong>Would you launch the weapon?</strong></p>","0",""
"","","","","","survey-multi-choice","131","115862","0.0-4.0","25","1","2023-06-25 14:56:08","077e191c96ad73626b2944d724c57d9e","192.126.181.63","Mozilla/5.0 (Windows NT 10.0; Win64; x64) AppleWebKit/537.36 (KHTML, like Gecko) Chrome/113.0.0.0 Safari/537.36","WebKit","Chrome","113.0.0.0","Windows","10.0","3442","","{""Attention1"":""""}","[0]"
"","","","","","html-button-response","132","244001","0.0-5.0","25","1","2023-06-25 14:56:08","077e191c96ad73626b2944d724c57d9e","192.126.181.63","Mozilla/5.0 (Windows NT 10.0; Win64; x64) AppleWebKit/537.36 (KHTML, like Gecko) Chrome/113.0.0.0 Safari/537.36","WebKit","Chrome","113.0.0.0","Windows","10.0","128131","<p style=""font-size:20px;font-weight:bold;"">Great!</p><p>You have finished the first part of the experiment!</p><p>Please relax a little bit and then contine to answer some questions regarding yourself.</p><p>The next part will take around 10 minutes to complete.</p>","0",""
"","","","","","survey-text","133","255066","0.0-6.0","25","1","2023-06-25 14:56:08","077e191c96ad73626b2944d724c57d9e","192.126.181.63","Mozilla/5.0 (Windows NT 10.0; Win64; x64) AppleWebKit/537.36 (KHTML, like Gecko) Chrome/113.0.0.0 Safari/537.36","WebKit","Chrome","113.0.0.0","Windows","10.0","10052","","{""Age"":""25"",""Nation"":""american"",""Born"":""usa"",""Live"":""usa""}",""
"","","","","","survey-multi-choice","134","264474","0.0-7.0","25","1","2023-06-25 14:56:08","077e191c96ad73626b2944d724c57d9e","192.126.181.63","Mozilla/5.0 (Windows NT 10.0; Win64; x64) AppleWebKit/537.36 (KHTML, like Gecko) Chrome/113.0.0.0 Safari/537.36","WebKit","Chrome","113.0.0.0","Windows","10.0","9401","","{""Gender"":""Male"",""Education"":""Advanced Degree"",""Income"":""$70,000 - $99,999"",""Children"":""0"",""Ethnicity"":""White""}","[0,1,2,3,4]"
"","","","","","survey-multi-select","135","272472","0.0-8.0","25","1","2023-06-25 14:56:08","077e191c96ad73626b2944d724c57d9e","192.126.181.63","Mozilla/5.0 (Windows NT 10.0; Win64; x64) AppleWebKit/537.36 (KHTML, like Gecko) Chrome/113.0.0.0 Safari/537.36","WebKit","Chrome","113.0.0.0","Windows","10.0","7982","","{""Marriage"":[""Single""],""Religion"":[""Catholic""]}","[0,1]"
"","","","","","survey-multi-choice","136","274219","0.0-9.0","25","1","2023-06-25 14:56:08","077e191c96ad73626b2944d724c57d9e","192.126.181.63","Mozilla/5.0 (Windows NT 10.0; Win64; x64) AppleWebKit/537.36 (KHTML, like Gecko) Chrome/113.0.0.0 Safari/537.36","WebKit","Chrome","113.0.0.0","Windows","10.0","1735","","{""SES"":""8""}","[0]"
"","","","","","html-button-response","137","275241","0.0-10.0","25","1","2023-06-25 14:56:08","077e191c96ad73626b2944d724c57d9e","192.126.181.63","Mozilla/5.0 (Windows NT 10.0; Win64; x64) AppleWebKit/537.36 (KHTML, like Gecko) Chrome/113.0.0.0 Safari/537.36","WebKit","Chrome","113.0.0.0","Windows","10.0","1010","<p><strong>Please indicate the extent that the following statements could describe you.</p><p> (1 = ""extremely uncharacteristic of me"" to 5 = ""extremely characteristic of me"".)</strong></p>","0",""
"","","","","","survey-likert","138","280113","0.0-11.0","25","1","2023-06-25 14:56:08","077e191c96ad73626b2944d724c57d9e","192.126.181.63","Mozilla/5.0 (Windows NT 10.0; Win64; x64) AppleWebKit/537.36 (KHTML, like Gecko) Chrome/113.0.0.0 Safari/537.36","WebKit","Chrome","113.0.0.0","Windows","10.0","4862","","{""Aggression1"":1,""Aggression2"":2,""Aggression3"":1,""Aggression4"":1,""Aggression5"":1,""Aggression6"":2,""Aggression7"":1,""Aggression8"":1,""Aggression9"":1}","[0,1,2,3,4,5,6,7,8]"
"","","","","","html-button-response","139","281232","0.0-12.0","25","1","2023-06-25 14:56:08","077e191c96ad73626b2944d724c57d9e","192.126.181.63","Mozilla/5.0 (Windows NT 10.0; Win64; x64) AppleWebKit/537.36 (KHTML, like Gecko) Chrome/113.0.0.0 Safari/537.36","WebKit","Chrome","113.0.0.0","Windows","10.0","1110","<p><strong>Please indicate the extent that the following statements could describe you. </strong></p><p><strong> (1 = ""Does not describe me well"" to 5 = ""Does decribe me well"".)</strong></p>","0",""
"","","","","","survey-likert","140","291127","0.0-13.0","25","1","2023-06-25 14:56:08","077e191c96ad73626b2944d724c57d9e","192.126.181.63","Mozilla/5.0 (Windows NT 10.0; Win64; x64) AppleWebKit/537.36 (KHTML, like Gecko) Chrome/113.0.0.0 Safari/537.36","WebKit","Chrome","113.0.0.0","Windows","10.0","9877","","{""ecs1"":1,""fs6"":2,""fs2"":1,""ecs6"":1,""fs4"":1,""pds4"":1,""pds7"":1,""fs7"":1,""ecs3"":1,""pds5"":1,""ecs7"":2,""fs5"":2,""pts5"":1,""pts6"":1,""pds6"":2,""pts7"":1,""pds1"":1,""pds3"":2,""pts4"":1,""fs3"":1,""pts3"":1,""pts2"":1,""ecs2"":1,""ecs5"":2,""pds2"":1,""pts1"":3,""ecs4"":1,""fs1"":2}","[1,22,4,19,11,16,26,25,8,18,21,15,20,24,23,27,5,12,14,6,10,7,3,17,9,2,13,0]"
"","","","","","html-button-response","141","292144","0.0-14.0","25","1","2023-06-25 14:56:08","077e191c96ad73626b2944d724c57d9e","192.126.181.63","Mozilla/5.0 (Windows NT 10.0; Win64; x64) AppleWebKit/537.36 (KHTML, like Gecko) Chrome/113.0.0.0 Safari/537.36","WebKit","Chrome","113.0.0.0","Windows","10.0","1009","<p><strong>Which of the following objects or statements do you have a positive or negative feeling towards? </strong></p><p><strong> (1 = ""Very negative"" to 7 = ""Very positive"") </strong></p>","0",""
"","","","","","survey-likert","142","297054","0.0-15.0","25","1","2023-06-25 14:56:08","077e191c96ad73626b2944d724c57d9e","192.126.181.63","Mozilla/5.0 (Windows NT 10.0; Win64; x64) AppleWebKit/537.36 (KHTML, like Gecko) Chrome/113.0.0.0 Safari/537.36","WebKit","Chrome","113.0.0.0","Windows","10.0","4895","","{""sdo2"":1,""sdo9"":1,""sdo7"":2,""sdo1"":1,""sdo10"":1,""sdo6"":1,""sdo4"":1,""sdo16"":2,""sdo8"":1,""sdo15"":1,""sdo12"":2,""sdo13"":2,""sdo5"":1,""sdo14"":1,""sdo3"":1,""sdo11"":2}","[1,8,6,0,9,5,3,15,7,14,11,12,4,13,2,10]"
"","","","","","html-button-response","143","298106","0.0-16.0","25","1","2023-06-25 14:56:08","077e191c96ad73626b2944d724c57d9e","192.126.181.63","Mozilla/5.0 (Windows NT 10.0; Win64; x64) AppleWebKit/537.36 (KHTML, like Gecko) Chrome/113.0.0.0 Safari/537.36","WebKit","Chrome","113.0.0.0","Windows","10.0","1039","<p><strong>Please indicate the extent you agree with the following statements.</strong></p><strong><p> (1 = ""Strongly Disagree"" to 5 = ""Srongly Agree"") </strong></p>","0",""
"","","","","","survey-likert","144","302644","0.0-17.0","25","1","2023-06-25 14:56:08","077e191c96ad73626b2944d724c57d9e","192.126.181.63","Mozilla/5.0 (Windows NT 10.0; Win64; x64) AppleWebKit/537.36 (KHTML, like Gecko) Chrome/113.0.0.0 Safari/537.36","WebKit","Chrome","113.0.0.0","Windows","10.0","4521","","{""caring1"":1,""liking1"":2,""caring2"":1,""protection1"":1,""liking2"":1,""caring3"":1,""protection2"":1,""liking3"":2,""protection3"":1,""caring4"":1,""liking4"":1,""protection4"":1,""caring5"":1,""liking5"":1,""protection5"":1}","[0,1,2,3,4,5,6,7,8,9,10,11,12,13,14]"
"","","","","","html-button-response","145","303729","0.0-18.0","25","1","2023-06-25 14:56:08","077e191c96ad73626b2944d724c57d9e","192.126.181.63","Mozilla/5.0 (Windows NT 10.0; Win64; x64) AppleWebKit/537.36 (KHTML, like Gecko) Chrome/113.0.0.0 Safari/537.36","WebKit","Chrome","113.0.0.0","Windows","10.0","1072","<p><strong>Please imagine spercific situations involving children below, and rate the amount of tenderness you would feel in each situation. </strong></p><p><strong> (Ternderness is ""a warm, gentle feeling of sympathetic affection."") </strong></p><strong><p> (1 = ""No tenderness at all"" to 5 = ""A lot of tenderness"") </strong></p>","0",""
"","","","","","survey-likert","146","307187","0.0-19.0","25","1","2023-06-25 14:56:08","077e191c96ad73626b2944d724c57d9e","192.126.181.63","Mozilla/5.0 (Windows NT 10.0; Win64; x64) AppleWebKit/537.36 (KHTML, like Gecko) Chrome/113.0.0.0 Safari/537.36","WebKit","Chrome","113.0.0.0","Windows","10.0","3449","","{""tenderness-positive1"":1,""tenderness-negative1"":2,""tenderness-negative2"":1,""tenderness-positive2"":1,""tenderness-positive3"":1,""tenderness-negative3"":1,""tenderness-positive4"":2,""tendereness-negative4"":1,""tendernness-negative5"":1,""tenderness-positive5"":1}","[0,1,2,3,4,5,6,7,8,9]"
"","","","","","survey-multi-choice","147","312465","0.0-20.0","25","1","2023-06-25 14:56:08","077e191c96ad73626b2944d724c57d9e","192.126.181.63","Mozilla/5.0 (Windows NT 10.0; Win64; x64) AppleWebKit/537.36 (KHTML, like Gecko) Chrome/113.0.0.0 Safari/537.36","WebKit","Chrome","113.0.0.0","Windows","10.0","5268","","{""Attention2"":""Other""}","[0]"
"","","","","","html-button-response","148","313536","0.0-21.0","25","1","2023-06-25 14:56:08","077e191c96ad73626b2944d724c57d9e","192.126.181.63","Mozilla/5.0 (Windows NT 10.0; Win64; x64) AppleWebKit/537.36 (KHTML, like Gecko) Chrome/113.0.0.0 Safari/537.36","WebKit","Chrome","113.0.0.0","Windows","10.0","1060","<p><strong>Please indicate the extent you agree with the following statements.</strong></p>","0",""
"","","","","","survey-likert","149","319757","0.0-22.0","25","1","2023-06-25 14:56:08","077e191c96ad73626b2944d724c57d9e","192.126.181.63","Mozilla/5.0 (Windows NT 10.0; Win64; x64) AppleWebKit/537.36 (KHTML, like Gecko) Chrome/113.0.0.0 Safari/537.36","WebKit","Chrome","113.0.0.0","Windows","10.0","6209","","{""Patri5"":1,""Nation3"":2,""Nation7"":1,""Patri1"":1,""Nation4"":1,""Patri4"":1,""Patri11"":2,""Patri6"":1,""Nation1"":2,""Patri10"":1,""Nation2"":2,""Patri8"":2,""Nation6"":1,""Nation8"":2,""Patri7"":2,""Nation5"":1,""Patri12"":2,""Patri9"":3,""Patri2"":3,""Patri3"":2}","[4,14,18,0,15,3,10,5,12,9,13,7,17,19,6,16,11,8,1,2]"
"","","","","","html-button-response","150","320834","0.0-23.0","25","1","2023-06-25 14:56:08","077e191c96ad73626b2944d724c57d9e","192.126.181.63","Mozilla/5.0 (Windows NT 10.0; Win64; x64) AppleWebKit/537.36 (KHTML, like Gecko) Chrome/113.0.0.0 Safari/537.36","WebKit","Chrome","113.0.0.0","Windows","10.0","1066","<p><strong>Please indicate the extent you agree with the following statements. </p><p>(1 = ""never or definitely no"" and 9 = ""always or definitely yes"".)</strong></p>","0",""
"","","","","","survey-likert","151","335829","0.0-24.0","25","1","2023-06-25 14:56:08","077e191c96ad73626b2944d724c57d9e","192.126.181.63","Mozilla/5.0 (Windows NT 10.0; Win64; x64) AppleWebKit/537.36 (KHTML, like Gecko) Chrome/113.0.0.0 Safari/537.36","WebKit","Chrome","113.0.0.0","Windows","10.0","14981","","{""hc1"":1,""hc4"":1,""hc3"":2,""Robot2"":6,""hi4"":2,""vi4"":1,""hi3"":3,""vi1"":2,""vc3"":1,""vc1"":1,""vc4"":2,""hi1"":2,""vi3"":1,""vi2"":3,""hc2"":3,""hi2"":1,""vc2"":2}","[9,12,11,7,3,8,2,4,15,13,16,0,6,5,10,1,14]"
"","","","","","survey-text","152","353309","0.0-25.0","25","1","2023-06-25 14:56:08","077e191c96ad73626b2944d724c57d9e","192.126.181.63","Mozilla/5.0 (Windows NT 10.0; Win64; x64) AppleWebKit/537.36 (KHTML, like Gecko) Chrome/113.0.0.0 Safari/537.36","WebKit","Chrome","113.0.0.0","Windows","10.0","17462","","{""ID"":""A3POIL48RV5G8Y"",""Comments"":""good""}",""
"","","","","","html-button-response","153","905130","0.0-26.0","25","1","2023-06-25 14:56:08","077e191c96ad73626b2944d724c57d9e","192.126.181.63","Mozilla/5.0 (Windows NT 10.0; Win64; x64) AppleWebKit/537.36 (KHTML, like Gecko) Chrome/113.0.0.0 Safari/537.36","WebKit","Chrome","113.0.0.0","Windows","10.0","551812","<p><strong>Congratulations! </strong> Your have finished all the survey. Thank you for your participation!</p><p><strong>Here is your complete token:</strong></p>nq4lkfz0xc8hxctjh52wf2s9a<p></p><p><strong>Please copy it to the mTurk page.</strong></p>","0",""
