"success","timeout","failed_images","failed_audio","failed_video","trial_type","trial_index","time_elapsed","internal_node_id","run_id","condition","recorded_at","source_code_version","ip","user_agent","device","browser","browser_version","platform","platform_version","rt","stimulus","response","question_order"
"true","false","[]","[]","[]","preload","0","69760","0.0-0.0","33","1","2023-06-22 16:24:39","077e191c96ad73626b2944d724c57d9e","115.167.115.155","Mozilla/5.0 (Windows NT 10.0; Win64; x64) AppleWebKit/537.36 (KHTML, like Gecko) Chrome/109.0.0.0 Safari/537.36","WebKit","Chrome","109.0.0.0","Windows","10.0","","","",""
"true","","","","","fullscreen","1","192238","0.0-1.0","33","1","2023-06-22 16:24:39","077e191c96ad73626b2944d724c57d9e","115.167.115.155","Mozilla/5.0 (Windows NT 10.0; Win64; x64) AppleWebKit/537.36 (KHTML, like Gecko) Chrome/109.0.0.0 Safari/537.36","WebKit","Chrome","109.0.0.0","Windows","10.0","","","",""
"","","","","","html-button-response","2","195678","0.0-2.0","33","1","2023-06-22 16:24:39","077e191c96ad73626b2944d724c57d9e","115.167.115.155","Mozilla/5.0 (Windows NT 10.0; Win64; x64) AppleWebKit/537.36 (KHTML, like Gecko) Chrome/109.0.0.0 Safari/537.36","WebKit","Chrome","109.0.0.0","Windows","10.0","3439","<p ><strong>Welcome to the experiment!</strong></p><p ><strong>In the first task, please imagine:</strong></p><p>Your country is involved in a military conflict with another country.</p><p>You are the commander of your army and must make decisions in the conflict.</p><p>Specifically, as the military commander, you must decide whether to launch a missile to strike enemy.</p><p>You will face a series of scenarios. Please read each scenario carefully and make a decision.</p><p>The task will take around 10 minutes to complete.</p><p><strong>Please pay your attention during the experiment.</strong></p>","0",""
"","","","","","html-keyboard-response","3","196680","0.0-3.0-0.0","33","1","2023-06-22 16:24:39","077e191c96ad73626b2944d724c57d9e","115.167.115.155","Mozilla/5.0 (Windows NT 10.0; Win64; x64) AppleWebKit/537.36 (KHTML, like Gecko) Chrome/109.0.0.0 Safari/537.36","WebKit","Chrome","109.0.0.0","Windows","10.0","null","<div style=""font-size:60px;"">+</div>","null",""
"","","","","","html-button-response","4","199777","0.0-3.0-1.0","33","1","2023-06-22 16:24:39","077e191c96ad73626b2944d724c57d9e","115.167.115.155","Mozilla/5.0 (Windows NT 10.0; Win64; x64) AppleWebKit/537.36 (KHTML, like Gecko) Chrome/109.0.0.0 Safari/537.36","WebKit","Chrome","109.0.0.0","Windows","10.0","3095","<p>As the military commander, you could choose to launch a missile to kill <strong>4 enemy soldiers</strong> , but would accidentally kill <strong>1 enemy civilian</strong> nearby.</p> <p>The photo of the <strong>enemy civilian</strong> is shown below.</p> <p></p> <img src='stimuli/faces/PFM4.jpg', style='max-width: 30%;'> </img> <p><strong>Would you launch the weapon?</strong></p>","0",""
"","","","","","html-keyboard-response","5","200784","0.0-3.0-0.1","33","1","2023-06-22 16:24:39","077e191c96ad73626b2944d724c57d9e","115.167.115.155","Mozilla/5.0 (Windows NT 10.0; Win64; x64) AppleWebKit/537.36 (KHTML, like Gecko) Chrome/109.0.0.0 Safari/537.36","WebKit","Chrome","109.0.0.0","Windows","10.0","null","<div style=""font-size:60px;"">+</div>","null",""
"","","","","","html-button-response","6","204346","0.0-3.0-1.1","33","1","2023-06-22 16:24:39","077e191c96ad73626b2944d724c57d9e","115.167.115.155","Mozilla/5.0 (Windows NT 10.0; Win64; x64) AppleWebKit/537.36 (KHTML, like Gecko) Chrome/109.0.0.0 Safari/537.36","WebKit","Chrome","109.0.0.0","Windows","10.0","3561","<p>As the military commander, you could choose to launch a missile to kill <strong>8 enemy soldiers</strong> , but would accidentally kill <strong>1 enemy tree</strong> nearby.</p> <p>The photo of the <strong>enemy tree</strong> is shown below.</p> <p></p> <img src='stimuli/tree/6.png', style='max-width: 30%;'> </img> <p><strong>Would you launch the weapon?</strong></p>","0",""
"","","","","","html-keyboard-response","7","205351","0.0-3.0-0.2","33","1","2023-06-22 16:24:39","077e191c96ad73626b2944d724c57d9e","115.167.115.155","Mozilla/5.0 (Windows NT 10.0; Win64; x64) AppleWebKit/537.36 (KHTML, like Gecko) Chrome/109.0.0.0 Safari/537.36","WebKit","Chrome","109.0.0.0","Windows","10.0","null","<div style=""font-size:60px;"">+</div>","null",""
"","","","","","html-button-response","8","207813","0.0-3.0-1.2","33","1","2023-06-22 16:24:39","077e191c96ad73626b2944d724c57d9e","115.167.115.155","Mozilla/5.0 (Windows NT 10.0; Win64; x64) AppleWebKit/537.36 (KHTML, like Gecko) Chrome/109.0.0.0 Safari/537.36","WebKit","Chrome","109.0.0.0","Windows","10.0","2460","<p>As the military commander, you could choose to launch a missile to kill <strong>5 enemy soldiers</strong> , but would accidentally kill <strong>1 enemy tree</strong> nearby.</p> <p>The photo of the <strong>enemy tree</strong> is shown below.</p> <p></p> <img src='stimuli/tree/11.png', style='max-width: 30%;'> </img> <p><strong>Would you launch the weapon?</strong></p>","0",""
"","","","","","html-keyboard-response","9","208826","0.0-3.0-0.3","33","1","2023-06-22 16:24:39","077e191c96ad73626b2944d724c57d9e","115.167.115.155","Mozilla/5.0 (Windows NT 10.0; Win64; x64) AppleWebKit/537.36 (KHTML, like Gecko) Chrome/109.0.0.0 Safari/537.36","WebKit","Chrome","109.0.0.0","Windows","10.0","null","<div style=""font-size:60px;"">+</div>","null",""
"","","","","","html-button-response","10","210447","0.0-3.0-1.3","33","1","2023-06-22 16:24:39","077e191c96ad73626b2944d724c57d9e","115.167.115.155","Mozilla/5.0 (Windows NT 10.0; Win64; x64) AppleWebKit/537.36 (KHTML, like Gecko) Chrome/109.0.0.0 Safari/537.36","WebKit","Chrome","109.0.0.0","Windows","10.0","1621","<p>As the military commander, you could choose to launch a missile to kill <strong>8 enemy soldiers</strong> , but would accidentally kill <strong>1 enemy tree</strong> nearby.</p> <p>The photo of the <strong>enemy tree</strong> is shown below.</p> <p></p> <img src='stimuli/tree/9.png', style='max-width: 30%;'> </img> <p><strong>Would you launch the weapon?</strong></p>","0",""
"","","","","","html-keyboard-response","11","211463","0.0-3.0-0.4","33","1","2023-06-22 16:24:39","077e191c96ad73626b2944d724c57d9e","115.167.115.155","Mozilla/5.0 (Windows NT 10.0; Win64; x64) AppleWebKit/537.36 (KHTML, like Gecko) Chrome/109.0.0.0 Safari/537.36","WebKit","Chrome","109.0.0.0","Windows","10.0","null","<div style=""font-size:60px;"">+</div>","null",""
"","","","","","html-button-response","12","213254","0.0-3.0-1.4","33","1","2023-06-22 16:24:39","077e191c96ad73626b2944d724c57d9e","115.167.115.155","Mozilla/5.0 (Windows NT 10.0; Win64; x64) AppleWebKit/537.36 (KHTML, like Gecko) Chrome/109.0.0.0 Safari/537.36","WebKit","Chrome","109.0.0.0","Windows","10.0","1789","<p>As the military commander, you could choose to launch a missile to kill <strong>6 enemy soldiers</strong> , but would accidentally kill <strong>1 enemy tree</strong> nearby.</p> <p>The photo of the <strong>enemy tree</strong> is shown below.</p> <p></p> <img src='stimuli/tree/2.png', style='max-width: 30%;'> </img> <p><strong>Would you launch the weapon?</strong></p>","0",""
"","","","","","html-keyboard-response","13","214270","0.0-3.0-0.5","33","1","2023-06-22 16:24:39","077e191c96ad73626b2944d724c57d9e","115.167.115.155","Mozilla/5.0 (Windows NT 10.0; Win64; x64) AppleWebKit/537.36 (KHTML, like Gecko) Chrome/109.0.0.0 Safari/537.36","WebKit","Chrome","109.0.0.0","Windows","10.0","null","<div style=""font-size:60px;"">+</div>","null",""
"","","","","","html-button-response","14","216102","0.0-3.0-1.5","33","1","2023-06-22 16:24:39","077e191c96ad73626b2944d724c57d9e","115.167.115.155","Mozilla/5.0 (Windows NT 10.0; Win64; x64) AppleWebKit/537.36 (KHTML, like Gecko) Chrome/109.0.0.0 Safari/537.36","WebKit","Chrome","109.0.0.0","Windows","10.0","1832","<p>As the military commander, you could choose to launch a missile to kill <strong>8 enemy soldiers</strong> , but would accidentally kill <strong>1 enemy civilian</strong> nearby.</p> <p>The photo of the <strong>enemy civilian</strong> is shown below.</p> <p></p> <img src='stimuli/faces/PFM5.jpg', style='max-width: 30%;'> </img> <p><strong>Would you launch the weapon?</strong></p>","0",""
"","","","","","html-keyboard-response","15","217103","0.0-3.0-0.6","33","1","2023-06-22 16:24:39","077e191c96ad73626b2944d724c57d9e","115.167.115.155","Mozilla/5.0 (Windows NT 10.0; Win64; x64) AppleWebKit/537.36 (KHTML, like Gecko) Chrome/109.0.0.0 Safari/537.36","WebKit","Chrome","109.0.0.0","Windows","10.0","null","<div style=""font-size:60px;"">+</div>","null",""
"","","","","","html-button-response","16","218875","0.0-3.0-1.6","33","1","2023-06-22 16:24:39","077e191c96ad73626b2944d724c57d9e","115.167.115.155","Mozilla/5.0 (Windows NT 10.0; Win64; x64) AppleWebKit/537.36 (KHTML, like Gecko) Chrome/109.0.0.0 Safari/537.36","WebKit","Chrome","109.0.0.0","Windows","10.0","1771","<p>As the military commander, you could choose to launch a missile to kill <strong>6 enemy soldiers</strong> , but would accidentally kill <strong>1 enemy tree</strong> nearby.</p> <p>The photo of the <strong>enemy tree</strong> is shown below.</p> <p></p> <img src='stimuli/tree/13.png', style='max-width: 30%;'> </img> <p><strong>Would you launch the weapon?</strong></p>","0",""
"","","","","","html-keyboard-response","17","219891","0.0-3.0-0.7","33","1","2023-06-22 16:24:39","077e191c96ad73626b2944d724c57d9e","115.167.115.155","Mozilla/5.0 (Windows NT 10.0; Win64; x64) AppleWebKit/537.36 (KHTML, like Gecko) Chrome/109.0.0.0 Safari/537.36","WebKit","Chrome","109.0.0.0","Windows","10.0","null","<div style=""font-size:60px;"">+</div>","null",""
"","","","","","html-button-response","18","221978","0.0-3.0-1.7","33","1","2023-06-22 16:24:39","077e191c96ad73626b2944d724c57d9e","115.167.115.155","Mozilla/5.0 (Windows NT 10.0; Win64; x64) AppleWebKit/537.36 (KHTML, like Gecko) Chrome/109.0.0.0 Safari/537.36","WebKit","Chrome","109.0.0.0","Windows","10.0","2085","<p>As the military commander, you could choose to launch a missile to kill <strong>7 enemy soldiers</strong> , but would accidentally kill <strong>1 enemy tree</strong> nearby.</p> <p>The photo of the <strong>enemy tree</strong> is shown below.</p> <p></p> <img src='stimuli/tree/14.png', style='max-width: 30%;'> </img> <p><strong>Would you launch the weapon?</strong></p>","0",""
"","","","","","html-keyboard-response","19","222992","0.0-3.0-0.8","33","1","2023-06-22 16:24:39","077e191c96ad73626b2944d724c57d9e","115.167.115.155","Mozilla/5.0 (Windows NT 10.0; Win64; x64) AppleWebKit/537.36 (KHTML, like Gecko) Chrome/109.0.0.0 Safari/537.36","WebKit","Chrome","109.0.0.0","Windows","10.0","null","<div style=""font-size:60px;"">+</div>","null",""
"","","","","","html-button-response","20","224643","0.0-3.0-1.8","33","1","2023-06-22 16:24:39","077e191c96ad73626b2944d724c57d9e","115.167.115.155","Mozilla/5.0 (Windows NT 10.0; Win64; x64) AppleWebKit/537.36 (KHTML, like Gecko) Chrome/109.0.0.0 Safari/537.36","WebKit","Chrome","109.0.0.0","Windows","10.0","1650","<p>As the military commander, you could choose to launch a missile to kill <strong>6 enemy soldiers</strong> , but would accidentally kill <strong>1 enemy civilian</strong> nearby.</p> <p>The photo of the <strong>enemy civilian</strong> is shown below.</p> <p></p> <img src='stimuli/faces/PFF8.jpg', style='max-width: 30%;'> </img> <p><strong>Would you launch the weapon?</strong></p>","0",""
"","","","","","html-keyboard-response","21","225651","0.0-3.0-0.9","33","1","2023-06-22 16:24:39","077e191c96ad73626b2944d724c57d9e","115.167.115.155","Mozilla/5.0 (Windows NT 10.0; Win64; x64) AppleWebKit/537.36 (KHTML, like Gecko) Chrome/109.0.0.0 Safari/537.36","WebKit","Chrome","109.0.0.0","Windows","10.0","null","<div style=""font-size:60px;"">+</div>","null",""
"","","","","","html-button-response","22","227430","0.0-3.0-1.9","33","1","2023-06-22 16:24:39","077e191c96ad73626b2944d724c57d9e","115.167.115.155","Mozilla/5.0 (Windows NT 10.0; Win64; x64) AppleWebKit/537.36 (KHTML, like Gecko) Chrome/109.0.0.0 Safari/537.36","WebKit","Chrome","109.0.0.0","Windows","10.0","1778","<p>As the military commander, you could choose to launch a missile to kill <strong>9 enemy soldiers</strong> , but would accidentally kill <strong>1 enemy civilian</strong> nearby.</p> <p>The photo of the <strong>enemy civilian</strong> is shown below.</p> <p></p> <img src='stimuli/faces/PFM1.jpg', style='max-width: 30%;'> </img> <p><strong>Would you launch the weapon?</strong></p>","0",""
"","","","","","html-keyboard-response","23","228443","0.0-3.0-0.10","33","1","2023-06-22 16:24:39","077e191c96ad73626b2944d724c57d9e","115.167.115.155","Mozilla/5.0 (Windows NT 10.0; Win64; x64) AppleWebKit/537.36 (KHTML, like Gecko) Chrome/109.0.0.0 Safari/537.36","WebKit","Chrome","109.0.0.0","Windows","10.0","null","<div style=""font-size:60px;"">+</div>","null",""
"","","","","","html-button-response","24","229976","0.0-3.0-1.10","33","1","2023-06-22 16:24:39","077e191c96ad73626b2944d724c57d9e","115.167.115.155","Mozilla/5.0 (Windows NT 10.0; Win64; x64) AppleWebKit/537.36 (KHTML, like Gecko) Chrome/109.0.0.0 Safari/537.36","WebKit","Chrome","109.0.0.0","Windows","10.0","1533","<p>As the military commander, you could choose to launch a missile to kill <strong>7 enemy soldiers</strong> , but would accidentally kill <strong>1 enemy civilian</strong> nearby.</p> <p>The photo of the <strong>enemy civilian</strong> is shown below.</p> <p></p> <img src='stimuli/faces/PFF6.jpg', style='max-width: 30%;'> </img> <p><strong>Would you launch the weapon?</strong></p>","0",""
"","","","","","html-keyboard-response","25","230984","0.0-3.0-0.11","33","1","2023-06-22 16:24:39","077e191c96ad73626b2944d724c57d9e","115.167.115.155","Mozilla/5.0 (Windows NT 10.0; Win64; x64) AppleWebKit/537.36 (KHTML, like Gecko) Chrome/109.0.0.0 Safari/537.36","WebKit","Chrome","109.0.0.0","Windows","10.0","null","<div style=""font-size:60px;"">+</div>","null",""
"","","","","","html-button-response","26","232334","0.0-3.0-1.11","33","1","2023-06-22 16:24:39","077e191c96ad73626b2944d724c57d9e","115.167.115.155","Mozilla/5.0 (Windows NT 10.0; Win64; x64) AppleWebKit/537.36 (KHTML, like Gecko) Chrome/109.0.0.0 Safari/537.36","WebKit","Chrome","109.0.0.0","Windows","10.0","1348","<p>As the military commander, you could choose to launch a missile to kill <strong>5 enemy soldiers</strong> , but would accidentally kill <strong>1 enemy civilian</strong> nearby.</p> <p>The photo of the <strong>enemy civilian</strong> is shown below.</p> <p></p> <img src='stimuli/faces/PFF3.jpg', style='max-width: 30%;'> </img> <p><strong>Would you launch the weapon?</strong></p>","0",""
"","","","","","html-keyboard-response","27","233335","0.0-3.0-0.12","33","1","2023-06-22 16:24:39","077e191c96ad73626b2944d724c57d9e","115.167.115.155","Mozilla/5.0 (Windows NT 10.0; Win64; x64) AppleWebKit/537.36 (KHTML, like Gecko) Chrome/109.0.0.0 Safari/537.36","WebKit","Chrome","109.0.0.0","Windows","10.0","null","<div style=""font-size:60px;"">+</div>","null",""
"","","","","","html-button-response","28","234610","0.0-3.0-1.12","33","1","2023-06-22 16:24:39","077e191c96ad73626b2944d724c57d9e","115.167.115.155","Mozilla/5.0 (Windows NT 10.0; Win64; x64) AppleWebKit/537.36 (KHTML, like Gecko) Chrome/109.0.0.0 Safari/537.36","WebKit","Chrome","109.0.0.0","Windows","10.0","1275","<p>As the military commander, you could choose to launch a missile to kill <strong>2 enemy soldiers</strong> , but would accidentally kill <strong>1 enemy tree</strong> nearby.</p> <p>The photo of the <strong>enemy tree</strong> is shown below.</p> <p></p> <img src='stimuli/tree/14.png', style='max-width: 30%;'> </img> <p><strong>Would you launch the weapon?</strong></p>","0",""
"","","","","","html-keyboard-response","29","235622","0.0-3.0-0.13","33","1","2023-06-22 16:24:39","077e191c96ad73626b2944d724c57d9e","115.167.115.155","Mozilla/5.0 (Windows NT 10.0; Win64; x64) AppleWebKit/537.36 (KHTML, like Gecko) Chrome/109.0.0.0 Safari/537.36","WebKit","Chrome","109.0.0.0","Windows","10.0","null","<div style=""font-size:60px;"">+</div>","null",""
"","","","","","html-button-response","30","237862","0.0-3.0-1.13","33","1","2023-06-22 16:24:39","077e191c96ad73626b2944d724c57d9e","115.167.115.155","Mozilla/5.0 (Windows NT 10.0; Win64; x64) AppleWebKit/537.36 (KHTML, like Gecko) Chrome/109.0.0.0 Safari/537.36","WebKit","Chrome","109.0.0.0","Windows","10.0","2240","<p>As the military commander, you could choose to launch a missile to kill <strong>3 enemy soldiers</strong> , but would accidentally kill <strong>1 enemy civilian</strong> nearby.</p> <p>The photo of the <strong>enemy civilian</strong> is shown below.</p> <p></p> <img src='stimuli/faces/PFF2.jpg', style='max-width: 30%;'> </img> <p><strong>Would you launch the weapon?</strong></p>","1",""
"","","","","","html-keyboard-response","31","238868","0.0-3.0-0.14","33","1","2023-06-22 16:24:39","077e191c96ad73626b2944d724c57d9e","115.167.115.155","Mozilla/5.0 (Windows NT 10.0; Win64; x64) AppleWebKit/537.36 (KHTML, like Gecko) Chrome/109.0.0.0 Safari/537.36","WebKit","Chrome","109.0.0.0","Windows","10.0","null","<div style=""font-size:60px;"">+</div>","null",""
"","","","","","html-button-response","32","240278","0.0-3.0-1.14","33","1","2023-06-22 16:24:39","077e191c96ad73626b2944d724c57d9e","115.167.115.155","Mozilla/5.0 (Windows NT 10.0; Win64; x64) AppleWebKit/537.36 (KHTML, like Gecko) Chrome/109.0.0.0 Safari/537.36","WebKit","Chrome","109.0.0.0","Windows","10.0","1409","<p>As the military commander, you could choose to launch a missile to kill <strong>7 enemy soldiers</strong> , but would accidentally kill <strong>1 enemy civilian</strong> nearby.</p> <p>The photo of the <strong>enemy civilian</strong> is shown below.</p> <p></p> <img src='stimuli/faces/PFM6.jpg', style='max-width: 30%;'> </img> <p><strong>Would you launch the weapon?</strong></p>","1",""
"","","","","","html-keyboard-response","33","241280","0.0-3.0-0.15","33","1","2023-06-22 16:24:39","077e191c96ad73626b2944d724c57d9e","115.167.115.155","Mozilla/5.0 (Windows NT 10.0; Win64; x64) AppleWebKit/537.36 (KHTML, like Gecko) Chrome/109.0.0.0 Safari/537.36","WebKit","Chrome","109.0.0.0","Windows","10.0","null","<div style=""font-size:60px;"">+</div>","null",""
"","","","","","html-button-response","34","243144","0.0-3.0-1.15","33","1","2023-06-22 16:24:39","077e191c96ad73626b2944d724c57d9e","115.167.115.155","Mozilla/5.0 (Windows NT 10.0; Win64; x64) AppleWebKit/537.36 (KHTML, like Gecko) Chrome/109.0.0.0 Safari/537.36","WebKit","Chrome","109.0.0.0","Windows","10.0","1862","<p>As the military commander, you could choose to launch a missile to kill <strong>6 enemy soldiers</strong> , but would accidentally kill <strong>1 enemy tree</strong> nearby.</p> <p>The photo of the <strong>enemy tree</strong> is shown below.</p> <p></p> <img src='stimuli/tree/11.png', style='max-width: 30%;'> </img> <p><strong>Would you launch the weapon?</strong></p>","0",""
"","","","","","html-keyboard-response","35","244209","0.0-3.0-0.16","33","1","2023-06-22 16:24:39","077e191c96ad73626b2944d724c57d9e","115.167.115.155","Mozilla/5.0 (Windows NT 10.0; Win64; x64) AppleWebKit/537.36 (KHTML, like Gecko) Chrome/109.0.0.0 Safari/537.36","WebKit","Chrome","109.0.0.0","Windows","10.0","null","<div style=""font-size:60px;"">+</div>","null",""
"","","","","","html-button-response","36","245974","0.0-3.0-1.16","33","1","2023-06-22 16:24:39","077e191c96ad73626b2944d724c57d9e","115.167.115.155","Mozilla/5.0 (Windows NT 10.0; Win64; x64) AppleWebKit/537.36 (KHTML, like Gecko) Chrome/109.0.0.0 Safari/537.36","WebKit","Chrome","109.0.0.0","Windows","10.0","1765","<p>As the military commander, you could choose to launch a missile to kill <strong>3 enemy soldiers</strong> , but would accidentally kill <strong>1 enemy civilian</strong> nearby.</p> <p>The photo of the <strong>enemy civilian</strong> is shown below.</p> <p></p> <img src='stimuli/faces/PFM5.jpg', style='max-width: 30%;'> </img> <p><strong>Would you launch the weapon?</strong></p>","0",""
"","","","","","html-keyboard-response","37","246983","0.0-3.0-0.17","33","1","2023-06-22 16:24:39","077e191c96ad73626b2944d724c57d9e","115.167.115.155","Mozilla/5.0 (Windows NT 10.0; Win64; x64) AppleWebKit/537.36 (KHTML, like Gecko) Chrome/109.0.0.0 Safari/537.36","WebKit","Chrome","109.0.0.0","Windows","10.0","null","<div style=""font-size:60px;"">+</div>","null",""
"","","","","","html-button-response","38","248825","0.0-3.0-1.17","33","1","2023-06-22 16:24:39","077e191c96ad73626b2944d724c57d9e","115.167.115.155","Mozilla/5.0 (Windows NT 10.0; Win64; x64) AppleWebKit/537.36 (KHTML, like Gecko) Chrome/109.0.0.0 Safari/537.36","WebKit","Chrome","109.0.0.0","Windows","10.0","1840","<p>As the military commander, you could choose to launch a missile to kill <strong>1 enemy soldier</strong> , but would accidentally kill <strong>1 enemy civilian</strong> nearby.</p> <p>The photo of the <strong>enemy civilian</strong> is shown below.</p> <p></p> <img src='stimuli/faces/PFM3.jpg', style='max-width: 30%;'> </img> <p><strong>Would you launch the weapon?</strong></p>","0",""
"","","","","","html-keyboard-response","39","249837","0.0-3.0-0.18","33","1","2023-06-22 16:24:39","077e191c96ad73626b2944d724c57d9e","115.167.115.155","Mozilla/5.0 (Windows NT 10.0; Win64; x64) AppleWebKit/537.36 (KHTML, like Gecko) Chrome/109.0.0.0 Safari/537.36","WebKit","Chrome","109.0.0.0","Windows","10.0","null","<div style=""font-size:60px;"">+</div>","null",""
"","","","","","html-button-response","40","250630","0.0-3.0-1.18","33","1","2023-06-22 16:24:39","077e191c96ad73626b2944d724c57d9e","115.167.115.155","Mozilla/5.0 (Windows NT 10.0; Win64; x64) AppleWebKit/537.36 (KHTML, like Gecko) Chrome/109.0.0.0 Safari/537.36","WebKit","Chrome","109.0.0.0","Windows","10.0","792","<p>As the military commander, you could choose to launch a missile to kill <strong>7 enemy soldiers</strong> , but would accidentally kill <strong>1 enemy tree</strong> nearby.</p> <p>The photo of the <strong>enemy tree</strong> is shown below.</p> <p></p> <img src='stimuli/tree/16.png', style='max-width: 30%;'> </img> <p><strong>Would you launch the weapon?</strong></p>","0",""
"","","","","","html-keyboard-response","41","251632","0.0-3.0-0.19","33","1","2023-06-22 16:24:39","077e191c96ad73626b2944d724c57d9e","115.167.115.155","Mozilla/5.0 (Windows NT 10.0; Win64; x64) AppleWebKit/537.36 (KHTML, like Gecko) Chrome/109.0.0.0 Safari/537.36","WebKit","Chrome","109.0.0.0","Windows","10.0","null","<div style=""font-size:60px;"">+</div>","null",""
"","","","","","html-button-response","42","253892","0.0-3.0-1.19","33","1","2023-06-22 16:24:39","077e191c96ad73626b2944d724c57d9e","115.167.115.155","Mozilla/5.0 (Windows NT 10.0; Win64; x64) AppleWebKit/537.36 (KHTML, like Gecko) Chrome/109.0.0.0 Safari/537.36","WebKit","Chrome","109.0.0.0","Windows","10.0","2258","<p>As the military commander, you could choose to launch a missile to kill <strong>2 enemy soldiers</strong> , but would accidentally kill <strong>1 enemy tree</strong> nearby.</p> <p>The photo of the <strong>enemy tree</strong> is shown below.</p> <p></p> <img src='stimuli/tree/16.png', style='max-width: 30%;'> </img> <p><strong>Would you launch the weapon?</strong></p>","0",""
"","","","","","html-keyboard-response","43","254896","0.0-3.0-0.20","33","1","2023-06-22 16:24:39","077e191c96ad73626b2944d724c57d9e","115.167.115.155","Mozilla/5.0 (Windows NT 10.0; Win64; x64) AppleWebKit/537.36 (KHTML, like Gecko) Chrome/109.0.0.0 Safari/537.36","WebKit","Chrome","109.0.0.0","Windows","10.0","null","<div style=""font-size:60px;"">+</div>","null",""
"","","","","","html-button-response","44","255744","0.0-3.0-1.20","33","1","2023-06-22 16:24:39","077e191c96ad73626b2944d724c57d9e","115.167.115.155","Mozilla/5.0 (Windows NT 10.0; Win64; x64) AppleWebKit/537.36 (KHTML, like Gecko) Chrome/109.0.0.0 Safari/537.36","WebKit","Chrome","109.0.0.0","Windows","10.0","846","<p>As the military commander, you could choose to launch a missile to kill <strong>2 enemy soldiers</strong> , but would accidentally kill <strong>1 enemy tree</strong> nearby.</p> <p>The photo of the <strong>enemy tree</strong> is shown below.</p> <p></p> <img src='stimuli/tree/7.png', style='max-width: 30%;'> </img> <p><strong>Would you launch the weapon?</strong></p>","0",""
"","","","","","html-keyboard-response","45","256824","0.0-3.0-0.21","33","1","2023-06-22 16:24:39","077e191c96ad73626b2944d724c57d9e","115.167.115.155","Mozilla/5.0 (Windows NT 10.0; Win64; x64) AppleWebKit/537.36 (KHTML, like Gecko) Chrome/109.0.0.0 Safari/537.36","WebKit","Chrome","109.0.0.0","Windows","10.0","null","<div style=""font-size:60px;"">+</div>","null",""
"","","","","","html-button-response","46","257626","0.0-3.0-1.21","33","1","2023-06-22 16:24:39","077e191c96ad73626b2944d724c57d9e","115.167.115.155","Mozilla/5.0 (Windows NT 10.0; Win64; x64) AppleWebKit/537.36 (KHTML, like Gecko) Chrome/109.0.0.0 Safari/537.36","WebKit","Chrome","109.0.0.0","Windows","10.0","799","<p>As the military commander, you could choose to launch a missile to kill <strong>1 enemy soldier</strong> , but would accidentally kill <strong>1 enemy tree</strong> nearby.</p> <p>The photo of the <strong>enemy tree</strong> is shown below.</p> <p></p> <img src='stimuli/tree/9.png', style='max-width: 30%;'> </img> <p><strong>Would you launch the weapon?</strong></p>","0",""
"","","","","","html-keyboard-response","47","258631","0.0-3.0-0.22","33","1","2023-06-22 16:24:39","077e191c96ad73626b2944d724c57d9e","115.167.115.155","Mozilla/5.0 (Windows NT 10.0; Win64; x64) AppleWebKit/537.36 (KHTML, like Gecko) Chrome/109.0.0.0 Safari/537.36","WebKit","Chrome","109.0.0.0","Windows","10.0","null","<div style=""font-size:60px;"">+</div>","null",""
"","","","","","html-button-response","48","259673","0.0-3.0-1.22","33","1","2023-06-22 16:24:39","077e191c96ad73626b2944d724c57d9e","115.167.115.155","Mozilla/5.0 (Windows NT 10.0; Win64; x64) AppleWebKit/537.36 (KHTML, like Gecko) Chrome/109.0.0.0 Safari/537.36","WebKit","Chrome","109.0.0.0","Windows","10.0","1039","<p>As the military commander, you could choose to launch a missile to kill <strong>6 enemy soldiers</strong> , but would accidentally kill <strong>1 enemy tree</strong> nearby.</p> <p>The photo of the <strong>enemy tree</strong> is shown below.</p> <p></p> <img src='stimuli/tree/8.png', style='max-width: 30%;'> </img> <p><strong>Would you launch the weapon?</strong></p>","0",""
"","","","","","html-keyboard-response","49","260697","0.0-3.0-0.23","33","1","2023-06-22 16:24:39","077e191c96ad73626b2944d724c57d9e","115.167.115.155","Mozilla/5.0 (Windows NT 10.0; Win64; x64) AppleWebKit/537.36 (KHTML, like Gecko) Chrome/109.0.0.0 Safari/537.36","WebKit","Chrome","109.0.0.0","Windows","10.0","null","<div style=""font-size:60px;"">+</div>","null",""
"","","","","","html-button-response","50","262524","0.0-3.0-1.23","33","1","2023-06-22 16:24:39","077e191c96ad73626b2944d724c57d9e","115.167.115.155","Mozilla/5.0 (Windows NT 10.0; Win64; x64) AppleWebKit/537.36 (KHTML, like Gecko) Chrome/109.0.0.0 Safari/537.36","WebKit","Chrome","109.0.0.0","Windows","10.0","1827","<p>As the military commander, you could choose to launch a missile to kill <strong>8 enemy soldiers</strong> , but would accidentally kill <strong>1 enemy tree</strong> nearby.</p> <p>The photo of the <strong>enemy tree</strong> is shown below.</p> <p></p> <img src='stimuli/tree/12.png', style='max-width: 30%;'> </img> <p><strong>Would you launch the weapon?</strong></p>","0",""
"","","","","","html-keyboard-response","51","263529","0.0-3.0-0.24","33","1","2023-06-22 16:24:39","077e191c96ad73626b2944d724c57d9e","115.167.115.155","Mozilla/5.0 (Windows NT 10.0; Win64; x64) AppleWebKit/537.36 (KHTML, like Gecko) Chrome/109.0.0.0 Safari/537.36","WebKit","Chrome","109.0.0.0","Windows","10.0","null","<div style=""font-size:60px;"">+</div>","null",""
"","","","","","html-button-response","52","265936","0.0-3.0-1.24","33","1","2023-06-22 16:24:39","077e191c96ad73626b2944d724c57d9e","115.167.115.155","Mozilla/5.0 (Windows NT 10.0; Win64; x64) AppleWebKit/537.36 (KHTML, like Gecko) Chrome/109.0.0.0 Safari/537.36","WebKit","Chrome","109.0.0.0","Windows","10.0","2403","<p>As the military commander, you could choose to launch a missile to kill <strong>10 enemy soldiers</strong> , but would accidentally kill <strong>1 enemy civilian</strong> nearby.</p> <p>The photo of the <strong>enemy civilian</strong> is shown below.</p> <p></p> <img src='stimuli/faces/PFF7.jpg', style='max-width: 30%;'> </img> <p><strong>Would you launch the weapon?</strong></p>","0",""
"","","","","","html-keyboard-response","53","266944","0.0-3.0-0.25","33","1","2023-06-22 16:24:39","077e191c96ad73626b2944d724c57d9e","115.167.115.155","Mozilla/5.0 (Windows NT 10.0; Win64; x64) AppleWebKit/537.36 (KHTML, like Gecko) Chrome/109.0.0.0 Safari/537.36","WebKit","Chrome","109.0.0.0","Windows","10.0","null","<div style=""font-size:60px;"">+</div>","null",""
"","","","","","html-button-response","54","267687","0.0-3.0-1.25","33","1","2023-06-22 16:24:39","077e191c96ad73626b2944d724c57d9e","115.167.115.155","Mozilla/5.0 (Windows NT 10.0; Win64; x64) AppleWebKit/537.36 (KHTML, like Gecko) Chrome/109.0.0.0 Safari/537.36","WebKit","Chrome","109.0.0.0","Windows","10.0","740","<p>As the military commander, you could choose to launch a missile to kill <strong>4 enemy soldiers</strong> , but would accidentally kill <strong>1 enemy civilian</strong> nearby.</p> <p>The photo of the <strong>enemy civilian</strong> is shown below.</p> <p></p> <img src='stimuli/faces/PFF4.jpg', style='max-width: 30%;'> </img> <p><strong>Would you launch the weapon?</strong></p>","0",""
"","","","","","html-keyboard-response","55","268830","0.0-3.0-0.26","33","1","2023-06-22 16:24:39","077e191c96ad73626b2944d724c57d9e","115.167.115.155","Mozilla/5.0 (Windows NT 10.0; Win64; x64) AppleWebKit/537.36 (KHTML, like Gecko) Chrome/109.0.0.0 Safari/537.36","WebKit","Chrome","109.0.0.0","Windows","10.0","null","<div style=""font-size:60px;"">+</div>","null",""
"","","","","","html-button-response","56","269932","0.0-3.0-1.26","33","1","2023-06-22 16:24:39","077e191c96ad73626b2944d724c57d9e","115.167.115.155","Mozilla/5.0 (Windows NT 10.0; Win64; x64) AppleWebKit/537.36 (KHTML, like Gecko) Chrome/109.0.0.0 Safari/537.36","WebKit","Chrome","109.0.0.0","Windows","10.0","1098","<p>As the military commander, you could choose to launch a missile to kill <strong>8 enemy soldiers</strong> , but would accidentally kill <strong>1 enemy civilian</strong> nearby.</p> <p>The photo of the <strong>enemy civilian</strong> is shown below.</p> <p></p> <img src='stimuli/faces/PFM3.jpg', style='max-width: 30%;'> </img> <p><strong>Would you launch the weapon?</strong></p>","0",""
"","","","","","html-keyboard-response","57","270937","0.0-3.0-0.27","33","1","2023-06-22 16:24:39","077e191c96ad73626b2944d724c57d9e","115.167.115.155","Mozilla/5.0 (Windows NT 10.0; Win64; x64) AppleWebKit/537.36 (KHTML, like Gecko) Chrome/109.0.0.0 Safari/537.36","WebKit","Chrome","109.0.0.0","Windows","10.0","null","<div style=""font-size:60px;"">+</div>","null",""
"","","","","","html-button-response","58","272273","0.0-3.0-1.27","33","1","2023-06-22 16:24:39","077e191c96ad73626b2944d724c57d9e","115.167.115.155","Mozilla/5.0 (Windows NT 10.0; Win64; x64) AppleWebKit/537.36 (KHTML, like Gecko) Chrome/109.0.0.0 Safari/537.36","WebKit","Chrome","109.0.0.0","Windows","10.0","1334","<p>As the military commander, you could choose to launch a missile to kill <strong>3 enemy soldiers</strong> , but would accidentally kill <strong>1 enemy tree</strong> nearby.</p> <p>The photo of the <strong>enemy tree</strong> is shown below.</p> <p></p> <img src='stimuli/tree/3.png', style='max-width: 30%;'> </img> <p><strong>Would you launch the weapon?</strong></p>","0",""
"","","","","","html-keyboard-response","59","273305","0.0-3.0-0.28","33","1","2023-06-22 16:24:39","077e191c96ad73626b2944d724c57d9e","115.167.115.155","Mozilla/5.0 (Windows NT 10.0; Win64; x64) AppleWebKit/537.36 (KHTML, like Gecko) Chrome/109.0.0.0 Safari/537.36","WebKit","Chrome","109.0.0.0","Windows","10.0","null","<div style=""font-size:60px;"">+</div>","null",""
"","","","","","html-button-response","60","274239","0.0-3.0-1.28","33","1","2023-06-22 16:24:39","077e191c96ad73626b2944d724c57d9e","115.167.115.155","Mozilla/5.0 (Windows NT 10.0; Win64; x64) AppleWebKit/537.36 (KHTML, like Gecko) Chrome/109.0.0.0 Safari/537.36","WebKit","Chrome","109.0.0.0","Windows","10.0","934","<p>As the military commander, you could choose to launch a missile to kill <strong>9 enemy soldiers</strong> , but would accidentally kill <strong>1 enemy tree</strong> nearby.</p> <p>The photo of the <strong>enemy tree</strong> is shown below.</p> <p></p> <img src='stimuli/tree/15.png', style='max-width: 30%;'> </img> <p><strong>Would you launch the weapon?</strong></p>","0",""
"","","","","","html-keyboard-response","61","275253","0.0-3.0-0.29","33","1","2023-06-22 16:24:39","077e191c96ad73626b2944d724c57d9e","115.167.115.155","Mozilla/5.0 (Windows NT 10.0; Win64; x64) AppleWebKit/537.36 (KHTML, like Gecko) Chrome/109.0.0.0 Safari/537.36","WebKit","Chrome","109.0.0.0","Windows","10.0","null","<div style=""font-size:60px;"">+</div>","null",""
"","","","","","html-button-response","62","277511","0.0-3.0-1.29","33","1","2023-06-22 16:24:39","077e191c96ad73626b2944d724c57d9e","115.167.115.155","Mozilla/5.0 (Windows NT 10.0; Win64; x64) AppleWebKit/537.36 (KHTML, like Gecko) Chrome/109.0.0.0 Safari/537.36","WebKit","Chrome","109.0.0.0","Windows","10.0","2238","<p>As the military commander, you could choose to launch a missile to kill <strong>5 enemy soldiers</strong> , but would accidentally kill <strong>1 enemy civilian</strong> nearby.</p> <p>The photo of the <strong>enemy civilian</strong> is shown below.</p> <p></p> <img src='stimuli/faces/PFM6.jpg', style='max-width: 30%;'> </img> <p><strong>Would you launch the weapon?</strong></p>","0",""
"","","","","","html-keyboard-response","63","278526","0.0-3.0-0.30","33","1","2023-06-22 16:24:39","077e191c96ad73626b2944d724c57d9e","115.167.115.155","Mozilla/5.0 (Windows NT 10.0; Win64; x64) AppleWebKit/537.36 (KHTML, like Gecko) Chrome/109.0.0.0 Safari/537.36","WebKit","Chrome","109.0.0.0","Windows","10.0","null","<div style=""font-size:60px;"">+</div>","null",""
"","","","","","html-button-response","64","279542","0.0-3.0-1.30","33","1","2023-06-22 16:24:39","077e191c96ad73626b2944d724c57d9e","115.167.115.155","Mozilla/5.0 (Windows NT 10.0; Win64; x64) AppleWebKit/537.36 (KHTML, like Gecko) Chrome/109.0.0.0 Safari/537.36","WebKit","Chrome","109.0.0.0","Windows","10.0","1016","<p>As the military commander, you could choose to launch a missile to kill <strong>10 enemy soldiers</strong> , but would accidentally kill <strong>1 enemy civilian</strong> nearby.</p> <p>The photo of the <strong>enemy civilian</strong> is shown below.</p> <p></p> <img src='stimuli/faces/PFF1.jpg', style='max-width: 30%;'> </img> <p><strong>Would you launch the weapon?</strong></p>","0",""
"","","","","","html-keyboard-response","65","280555","0.0-3.0-0.31","33","1","2023-06-22 16:24:39","077e191c96ad73626b2944d724c57d9e","115.167.115.155","Mozilla/5.0 (Windows NT 10.0; Win64; x64) AppleWebKit/537.36 (KHTML, like Gecko) Chrome/109.0.0.0 Safari/537.36","WebKit","Chrome","109.0.0.0","Windows","10.0","null","<div style=""font-size:60px;"">+</div>","null",""
"","","","","","html-button-response","66","285366","0.0-3.0-1.31","33","1","2023-06-22 16:24:39","077e191c96ad73626b2944d724c57d9e","115.167.115.155","Mozilla/5.0 (Windows NT 10.0; Win64; x64) AppleWebKit/537.36 (KHTML, like Gecko) Chrome/109.0.0.0 Safari/537.36","WebKit","Chrome","109.0.0.0","Windows","10.0","4808","<p>As the military commander, you could choose to launch a missile to kill <strong>5 enemy soldiers</strong> , but would accidentally kill <strong>1 enemy tree</strong> nearby.</p> <p>The photo of the <strong>enemy tree</strong> is shown below.</p> <p></p> <img src='stimuli/tree/5.png', style='max-width: 30%;'> </img> <p><strong>Would you launch the weapon?</strong></p>","0",""
"","","","","","html-keyboard-response","67","286372","0.0-3.0-0.32","33","1","2023-06-22 16:24:39","077e191c96ad73626b2944d724c57d9e","115.167.115.155","Mozilla/5.0 (Windows NT 10.0; Win64; x64) AppleWebKit/537.36 (KHTML, like Gecko) Chrome/109.0.0.0 Safari/537.36","WebKit","Chrome","109.0.0.0","Windows","10.0","null","<div style=""font-size:60px;"">+</div>","null",""
"","","","","","html-button-response","68","287797","0.0-3.0-1.32","33","1","2023-06-22 16:24:39","077e191c96ad73626b2944d724c57d9e","115.167.115.155","Mozilla/5.0 (Windows NT 10.0; Win64; x64) AppleWebKit/537.36 (KHTML, like Gecko) Chrome/109.0.0.0 Safari/537.36","WebKit","Chrome","109.0.0.0","Windows","10.0","1421","<p>As the military commander, you could choose to launch a missile to kill <strong>3 enemy soldiers</strong> , but would accidentally kill <strong>1 enemy civilian</strong> nearby.</p> <p>The photo of the <strong>enemy civilian</strong> is shown below.</p> <p></p> <img src='stimuli/faces/PFF1.jpg', style='max-width: 30%;'> </img> <p><strong>Would you launch the weapon?</strong></p>","0",""
"","","","","","html-keyboard-response","69","288800","0.0-3.0-0.33","33","1","2023-06-22 16:24:39","077e191c96ad73626b2944d724c57d9e","115.167.115.155","Mozilla/5.0 (Windows NT 10.0; Win64; x64) AppleWebKit/537.36 (KHTML, like Gecko) Chrome/109.0.0.0 Safari/537.36","WebKit","Chrome","109.0.0.0","Windows","10.0","null","<div style=""font-size:60px;"">+</div>","null",""
"","","","","","html-button-response","70","289588","0.0-3.0-1.33","33","1","2023-06-22 16:24:39","077e191c96ad73626b2944d724c57d9e","115.167.115.155","Mozilla/5.0 (Windows NT 10.0; Win64; x64) AppleWebKit/537.36 (KHTML, like Gecko) Chrome/109.0.0.0 Safari/537.36","WebKit","Chrome","109.0.0.0","Windows","10.0","785","<p>As the military commander, you could choose to launch a missile to kill <strong>6 enemy soldiers</strong> , but would accidentally kill <strong>1 enemy civilian</strong> nearby.</p> <p>The photo of the <strong>enemy civilian</strong> is shown below.</p> <p></p> <img src='stimuli/faces/PFF4.jpg', style='max-width: 30%;'> </img> <p><strong>Would you launch the weapon?</strong></p>","0",""
"","","","","","html-keyboard-response","71","290604","0.0-3.0-0.34","33","1","2023-06-22 16:24:39","077e191c96ad73626b2944d724c57d9e","115.167.115.155","Mozilla/5.0 (Windows NT 10.0; Win64; x64) AppleWebKit/537.36 (KHTML, like Gecko) Chrome/109.0.0.0 Safari/537.36","WebKit","Chrome","109.0.0.0","Windows","10.0","null","<div style=""font-size:60px;"">+</div>","null",""
"","","","","","html-button-response","72","291213","0.0-3.0-1.34","33","1","2023-06-22 16:24:39","077e191c96ad73626b2944d724c57d9e","115.167.115.155","Mozilla/5.0 (Windows NT 10.0; Win64; x64) AppleWebKit/537.36 (KHTML, like Gecko) Chrome/109.0.0.0 Safari/537.36","WebKit","Chrome","109.0.0.0","Windows","10.0","608","<p>As the military commander, you could choose to launch a missile to kill <strong>7 enemy soldiers</strong> , but would accidentally kill <strong>1 enemy tree</strong> nearby.</p> <p>The photo of the <strong>enemy tree</strong> is shown below.</p> <p></p> <img src='stimuli/tree/5.png', style='max-width: 30%;'> </img> <p><strong>Would you launch the weapon?</strong></p>","0",""
"","","","","","html-keyboard-response","73","292223","0.0-3.0-0.35","33","1","2023-06-22 16:24:39","077e191c96ad73626b2944d724c57d9e","115.167.115.155","Mozilla/5.0 (Windows NT 10.0; Win64; x64) AppleWebKit/537.36 (KHTML, like Gecko) Chrome/109.0.0.0 Safari/537.36","WebKit","Chrome","109.0.0.0","Windows","10.0","null","<div style=""font-size:60px;"">+</div>","null",""
"","","","","","html-button-response","74","292774","0.0-3.0-1.35","33","1","2023-06-22 16:24:39","077e191c96ad73626b2944d724c57d9e","115.167.115.155","Mozilla/5.0 (Windows NT 10.0; Win64; x64) AppleWebKit/537.36 (KHTML, like Gecko) Chrome/109.0.0.0 Safari/537.36","WebKit","Chrome","109.0.0.0","Windows","10.0","551","<p>As the military commander, you could choose to launch a missile to kill <strong>7 enemy soldiers</strong> , but would accidentally kill <strong>1 enemy civilian</strong> nearby.</p> <p>The photo of the <strong>enemy civilian</strong> is shown below.</p> <p></p> <img src='stimuli/faces/PFM7.jpg', style='max-width: 30%;'> </img> <p><strong>Would you launch the weapon?</strong></p>","0",""
"","","","","","html-keyboard-response","75","293790","0.0-3.0-0.36","33","1","2023-06-22 16:24:39","077e191c96ad73626b2944d724c57d9e","115.167.115.155","Mozilla/5.0 (Windows NT 10.0; Win64; x64) AppleWebKit/537.36 (KHTML, like Gecko) Chrome/109.0.0.0 Safari/537.36","WebKit","Chrome","109.0.0.0","Windows","10.0","null","<div style=""font-size:60px;"">+</div>","null",""
"","","","","","html-button-response","76","294367","0.0-3.0-1.36","33","1","2023-06-22 16:24:39","077e191c96ad73626b2944d724c57d9e","115.167.115.155","Mozilla/5.0 (Windows NT 10.0; Win64; x64) AppleWebKit/537.36 (KHTML, like Gecko) Chrome/109.0.0.0 Safari/537.36","WebKit","Chrome","109.0.0.0","Windows","10.0","574","<p>As the military commander, you could choose to launch a missile to kill <strong>5 enemy soldiers</strong> , but would accidentally kill <strong>1 enemy civilian</strong> nearby.</p> <p>The photo of the <strong>enemy civilian</strong> is shown below.</p> <p></p> <img src='stimuli/faces/PFM8.jpg', style='max-width: 30%;'> </img> <p><strong>Would you launch the weapon?</strong></p>","0",""
"","","","","","html-keyboard-response","77","295376","0.0-3.0-0.37","33","1","2023-06-22 16:24:39","077e191c96ad73626b2944d724c57d9e","115.167.115.155","Mozilla/5.0 (Windows NT 10.0; Win64; x64) AppleWebKit/537.36 (KHTML, like Gecko) Chrome/109.0.0.0 Safari/537.36","WebKit","Chrome","109.0.0.0","Windows","10.0","null","<div style=""font-size:60px;"">+</div>","null",""
"","","","","","html-button-response","78","295911","0.0-3.0-1.37","33","1","2023-06-22 16:24:39","077e191c96ad73626b2944d724c57d9e","115.167.115.155","Mozilla/5.0 (Windows NT 10.0; Win64; x64) AppleWebKit/537.36 (KHTML, like Gecko) Chrome/109.0.0.0 Safari/537.36","WebKit","Chrome","109.0.0.0","Windows","10.0","533","<p>As the military commander, you could choose to launch a missile to kill <strong>4 enemy soldiers</strong> , but would accidentally kill <strong>1 enemy civilian</strong> nearby.</p> <p>The photo of the <strong>enemy civilian</strong> is shown below.</p> <p></p> <img src='stimuli/faces/PFF7.jpg', style='max-width: 30%;'> </img> <p><strong>Would you launch the weapon?</strong></p>","0",""
"","","","","","html-keyboard-response","79","296920","0.0-3.0-0.38","33","1","2023-06-22 16:24:39","077e191c96ad73626b2944d724c57d9e","115.167.115.155","Mozilla/5.0 (Windows NT 10.0; Win64; x64) AppleWebKit/537.36 (KHTML, like Gecko) Chrome/109.0.0.0 Safari/537.36","WebKit","Chrome","109.0.0.0","Windows","10.0","null","<div style=""font-size:60px;"">+</div>","null",""
"","","","","","html-button-response","80","297429","0.0-3.0-1.38","33","1","2023-06-22 16:24:39","077e191c96ad73626b2944d724c57d9e","115.167.115.155","Mozilla/5.0 (Windows NT 10.0; Win64; x64) AppleWebKit/537.36 (KHTML, like Gecko) Chrome/109.0.0.0 Safari/537.36","WebKit","Chrome","109.0.0.0","Windows","10.0","506","<p>As the military commander, you could choose to launch a missile to kill <strong>2 enemy soldiers</strong> , but would accidentally kill <strong>1 enemy tree</strong> nearby.</p> <p>The photo of the <strong>enemy tree</strong> is shown below.</p> <p></p> <img src='stimuli/tree/6.png', style='max-width: 30%;'> </img> <p><strong>Would you launch the weapon?</strong></p>","0",""
"","","","","","html-keyboard-response","81","298440","0.0-3.0-0.39","33","1","2023-06-22 16:24:39","077e191c96ad73626b2944d724c57d9e","115.167.115.155","Mozilla/5.0 (Windows NT 10.0; Win64; x64) AppleWebKit/537.36 (KHTML, like Gecko) Chrome/109.0.0.0 Safari/537.36","WebKit","Chrome","109.0.0.0","Windows","10.0","null","<div style=""font-size:60px;"">+</div>","null",""
"","","","","","html-button-response","82","299675","0.0-3.0-1.39","33","1","2023-06-22 16:24:39","077e191c96ad73626b2944d724c57d9e","115.167.115.155","Mozilla/5.0 (Windows NT 10.0; Win64; x64) AppleWebKit/537.36 (KHTML, like Gecko) Chrome/109.0.0.0 Safari/537.36","WebKit","Chrome","109.0.0.0","Windows","10.0","1235","<p>As the military commander, you could choose to launch a missile to kill <strong>5 enemy soldiers</strong> , but would accidentally kill <strong>1 enemy tree</strong> nearby.</p> <p>The photo of the <strong>enemy tree</strong> is shown below.</p> <p></p> <img src='stimuli/tree/13.png', style='max-width: 30%;'> </img> <p><strong>Would you launch the weapon?</strong></p>","0",""
"","","","","","html-keyboard-response","83","300685","0.0-3.0-0.40","33","1","2023-06-22 16:24:39","077e191c96ad73626b2944d724c57d9e","115.167.115.155","Mozilla/5.0 (Windows NT 10.0; Win64; x64) AppleWebKit/537.36 (KHTML, like Gecko) Chrome/109.0.0.0 Safari/537.36","WebKit","Chrome","109.0.0.0","Windows","10.0","null","<div style=""font-size:60px;"">+</div>","null",""
"","","","","","html-button-response","84","301567","0.0-3.0-1.40","33","1","2023-06-22 16:24:39","077e191c96ad73626b2944d724c57d9e","115.167.115.155","Mozilla/5.0 (Windows NT 10.0; Win64; x64) AppleWebKit/537.36 (KHTML, like Gecko) Chrome/109.0.0.0 Safari/537.36","WebKit","Chrome","109.0.0.0","Windows","10.0","881","<p>As the military commander, you could choose to launch a missile to kill <strong>7 enemy soldiers</strong> , but would accidentally kill <strong>1 enemy tree</strong> nearby.</p> <p>The photo of the <strong>enemy tree</strong> is shown below.</p> <p></p> <img src='stimuli/tree/4.png', style='max-width: 30%;'> </img> <p><strong>Would you launch the weapon?</strong></p>","0",""
"","","","","","html-keyboard-response","85","302576","0.0-3.0-0.41","33","1","2023-06-22 16:24:39","077e191c96ad73626b2944d724c57d9e","115.167.115.155","Mozilla/5.0 (Windows NT 10.0; Win64; x64) AppleWebKit/537.36 (KHTML, like Gecko) Chrome/109.0.0.0 Safari/537.36","WebKit","Chrome","109.0.0.0","Windows","10.0","null","<div style=""font-size:60px;"">+</div>","null",""
"","","","","","html-button-response","86","310071","0.0-3.0-1.41","33","1","2023-06-22 16:24:39","077e191c96ad73626b2944d724c57d9e","115.167.115.155","Mozilla/5.0 (Windows NT 10.0; Win64; x64) AppleWebKit/537.36 (KHTML, like Gecko) Chrome/109.0.0.0 Safari/537.36","WebKit","Chrome","109.0.0.0","Windows","10.0","7476","<p>As the military commander, you could choose to launch a missile to kill <strong>10 enemy soldiers</strong> , but would accidentally kill <strong>1 enemy civilian</strong> nearby.</p> <p>The photo of the <strong>enemy civilian</strong> is shown below.</p> <p></p> <img src='stimuli/faces/PFM2.jpg', style='max-width: 30%;'> </img> <p><strong>Would you launch the weapon?</strong></p>","0",""
"","","","","","html-keyboard-response","87","311072","0.0-3.0-0.42","33","1","2023-06-22 16:24:39","077e191c96ad73626b2944d724c57d9e","115.167.115.155","Mozilla/5.0 (Windows NT 10.0; Win64; x64) AppleWebKit/537.36 (KHTML, like Gecko) Chrome/109.0.0.0 Safari/537.36","WebKit","Chrome","109.0.0.0","Windows","10.0","null","<div style=""font-size:60px;"">+</div>","null",""
"","","","","","html-button-response","88","311718","0.0-3.0-1.42","33","1","2023-06-22 16:24:39","077e191c96ad73626b2944d724c57d9e","115.167.115.155","Mozilla/5.0 (Windows NT 10.0; Win64; x64) AppleWebKit/537.36 (KHTML, like Gecko) Chrome/109.0.0.0 Safari/537.36","WebKit","Chrome","109.0.0.0","Windows","10.0","642","<p>As the military commander, you could choose to launch a missile to kill <strong>4 enemy soldiers</strong> , but would accidentally kill <strong>1 enemy tree</strong> nearby.</p> <p>The photo of the <strong>enemy tree</strong> is shown below.</p> <p></p> <img src='stimuli/tree/10.png', style='max-width: 30%;'> </img> <p><strong>Would you launch the weapon?</strong></p>","0",""
"","","","","","html-keyboard-response","89","312742","0.0-3.0-0.43","33","1","2023-06-22 16:24:39","077e191c96ad73626b2944d724c57d9e","115.167.115.155","Mozilla/5.0 (Windows NT 10.0; Win64; x64) AppleWebKit/537.36 (KHTML, like Gecko) Chrome/109.0.0.0 Safari/537.36","WebKit","Chrome","109.0.0.0","Windows","10.0","null","<div style=""font-size:60px;"">+</div>","null",""
"","","","","","html-button-response","90","313846","0.0-3.0-1.43","33","1","2023-06-22 16:24:39","077e191c96ad73626b2944d724c57d9e","115.167.115.155","Mozilla/5.0 (Windows NT 10.0; Win64; x64) AppleWebKit/537.36 (KHTML, like Gecko) Chrome/109.0.0.0 Safari/537.36","WebKit","Chrome","109.0.0.0","Windows","10.0","1104","<p>As the military commander, you could choose to launch a missile to kill <strong>4 enemy soldiers</strong> , but would accidentally kill <strong>1 enemy civilian</strong> nearby.</p> <p>The photo of the <strong>enemy civilian</strong> is shown below.</p> <p></p> <img src='stimuli/faces/PFM2.jpg', style='max-width: 30%;'> </img> <p><strong>Would you launch the weapon?</strong></p>","0",""
"","","","","","html-keyboard-response","91","314853","0.0-3.0-0.44","33","1","2023-06-22 16:24:39","077e191c96ad73626b2944d724c57d9e","115.167.115.155","Mozilla/5.0 (Windows NT 10.0; Win64; x64) AppleWebKit/537.36 (KHTML, like Gecko) Chrome/109.0.0.0 Safari/537.36","WebKit","Chrome","109.0.0.0","Windows","10.0","null","<div style=""font-size:60px;"">+</div>","null",""
"","","","","","html-button-response","92","315460","0.0-3.0-1.44","33","1","2023-06-22 16:24:39","077e191c96ad73626b2944d724c57d9e","115.167.115.155","Mozilla/5.0 (Windows NT 10.0; Win64; x64) AppleWebKit/537.36 (KHTML, like Gecko) Chrome/109.0.0.0 Safari/537.36","WebKit","Chrome","109.0.0.0","Windows","10.0","607","<p>As the military commander, you could choose to launch a missile to kill <strong>1 enemy soldier</strong> , but would accidentally kill <strong>1 enemy tree</strong> nearby.</p> <p>The photo of the <strong>enemy tree</strong> is shown below.</p> <p></p> <img src='stimuli/tree/2.png', style='max-width: 30%;'> </img> <p><strong>Would you launch the weapon?</strong></p>","0",""
"","","","","","html-keyboard-response","93","316464","0.0-3.0-0.45","33","1","2023-06-22 16:24:39","077e191c96ad73626b2944d724c57d9e","115.167.115.155","Mozilla/5.0 (Windows NT 10.0; Win64; x64) AppleWebKit/537.36 (KHTML, like Gecko) Chrome/109.0.0.0 Safari/537.36","WebKit","Chrome","109.0.0.0","Windows","10.0","null","<div style=""font-size:60px;"">+</div>","null",""
"","","","","","html-button-response","94","317190","0.0-3.0-1.45","33","1","2023-06-22 16:24:39","077e191c96ad73626b2944d724c57d9e","115.167.115.155","Mozilla/5.0 (Windows NT 10.0; Win64; x64) AppleWebKit/537.36 (KHTML, like Gecko) Chrome/109.0.0.0 Safari/537.36","WebKit","Chrome","109.0.0.0","Windows","10.0","722","<p>As the military commander, you could choose to launch a missile to kill <strong>8 enemy soldiers</strong> , but would accidentally kill <strong>1 enemy tree</strong> nearby.</p> <p>The photo of the <strong>enemy tree</strong> is shown below.</p> <p></p> <img src='stimuli/tree/10.png', style='max-width: 30%;'> </img> <p><strong>Would you launch the weapon?</strong></p>","0",""
"","","","","","html-keyboard-response","95","318199","0.0-3.0-0.46","33","1","2023-06-22 16:24:39","077e191c96ad73626b2944d724c57d9e","115.167.115.155","Mozilla/5.0 (Windows NT 10.0; Win64; x64) AppleWebKit/537.36 (KHTML, like Gecko) Chrome/109.0.0.0 Safari/537.36","WebKit","Chrome","109.0.0.0","Windows","10.0","null","<div style=""font-size:60px;"">+</div>","null",""
"","","","","","html-button-response","96","319343","0.0-3.0-1.46","33","1","2023-06-22 16:24:39","077e191c96ad73626b2944d724c57d9e","115.167.115.155","Mozilla/5.0 (Windows NT 10.0; Win64; x64) AppleWebKit/537.36 (KHTML, like Gecko) Chrome/109.0.0.0 Safari/537.36","WebKit","Chrome","109.0.0.0","Windows","10.0","1143","<p>As the military commander, you could choose to launch a missile to kill <strong>10 enemy soldiers</strong> , but would accidentally kill <strong>1 enemy tree</strong> nearby.</p> <p>The photo of the <strong>enemy tree</strong> is shown below.</p> <p></p> <img src='stimuli/tree/7.png', style='max-width: 30%;'> </img> <p><strong>Would you launch the weapon?</strong></p>","0",""
"","","","","","html-keyboard-response","97","320357","0.0-3.0-0.47","33","1","2023-06-22 16:24:39","077e191c96ad73626b2944d724c57d9e","115.167.115.155","Mozilla/5.0 (Windows NT 10.0; Win64; x64) AppleWebKit/537.36 (KHTML, like Gecko) Chrome/109.0.0.0 Safari/537.36","WebKit","Chrome","109.0.0.0","Windows","10.0","null","<div style=""font-size:60px;"">+</div>","null",""
"","","","","","html-button-response","98","320878","0.0-3.0-1.47","33","1","2023-06-22 16:24:39","077e191c96ad73626b2944d724c57d9e","115.167.115.155","Mozilla/5.0 (Windows NT 10.0; Win64; x64) AppleWebKit/537.36 (KHTML, like Gecko) Chrome/109.0.0.0 Safari/537.36","WebKit","Chrome","109.0.0.0","Windows","10.0","521","<p>As the military commander, you could choose to launch a missile to kill <strong>8 enemy soldiers</strong> , but would accidentally kill <strong>1 enemy civilian</strong> nearby.</p> <p>The photo of the <strong>enemy civilian</strong> is shown below.</p> <p></p> <img src='stimuli/faces/PFM4.jpg', style='max-width: 30%;'> </img> <p><strong>Would you launch the weapon?</strong></p>","0",""
"","","","","","html-keyboard-response","99","321888","0.0-3.0-0.48","33","1","2023-06-22 16:24:39","077e191c96ad73626b2944d724c57d9e","115.167.115.155","Mozilla/5.0 (Windows NT 10.0; Win64; x64) AppleWebKit/537.36 (KHTML, like Gecko) Chrome/109.0.0.0 Safari/537.36","WebKit","Chrome","109.0.0.0","Windows","10.0","null","<div style=""font-size:60px;"">+</div>","null",""
"","","","","","html-button-response","100","322313","0.0-3.0-1.48","33","1","2023-06-22 16:24:39","077e191c96ad73626b2944d724c57d9e","115.167.115.155","Mozilla/5.0 (Windows NT 10.0; Win64; x64) AppleWebKit/537.36 (KHTML, like Gecko) Chrome/109.0.0.0 Safari/537.36","WebKit","Chrome","109.0.0.0","Windows","10.0","421","<p>As the military commander, you could choose to launch a missile to kill <strong>9 enemy soldiers</strong> , but would accidentally kill <strong>1 enemy tree</strong> nearby.</p> <p>The photo of the <strong>enemy tree</strong> is shown below.</p> <p></p> <img src='stimuli/tree/1.png', style='max-width: 30%;'> </img> <p><strong>Would you launch the weapon?</strong></p>","0",""
"","","","","","html-keyboard-response","101","323336","0.0-3.0-0.49","33","1","2023-06-22 16:24:39","077e191c96ad73626b2944d724c57d9e","115.167.115.155","Mozilla/5.0 (Windows NT 10.0; Win64; x64) AppleWebKit/537.36 (KHTML, like Gecko) Chrome/109.0.0.0 Safari/537.36","WebKit","Chrome","109.0.0.0","Windows","10.0","null","<div style=""font-size:60px;"">+</div>","null",""
"","","","","","html-button-response","102","323774","0.0-3.0-1.49","33","1","2023-06-22 16:24:39","077e191c96ad73626b2944d724c57d9e","115.167.115.155","Mozilla/5.0 (Windows NT 10.0; Win64; x64) AppleWebKit/537.36 (KHTML, like Gecko) Chrome/109.0.0.0 Safari/537.36","WebKit","Chrome","109.0.0.0","Windows","10.0","438","<p>As the military commander, you could choose to launch a missile to kill <strong>2 enemy soldiers</strong> , but would accidentally kill <strong>1 enemy civilian</strong> nearby.</p> <p>The photo of the <strong>enemy civilian</strong> is shown below.</p> <p></p> <img src='stimuli/faces/PFM1.jpg', style='max-width: 30%;'> </img> <p><strong>Would you launch the weapon?</strong></p>","0",""
"","","","","","html-keyboard-response","103","324797","0.0-3.0-0.50","33","1","2023-06-22 16:24:39","077e191c96ad73626b2944d724c57d9e","115.167.115.155","Mozilla/5.0 (Windows NT 10.0; Win64; x64) AppleWebKit/537.36 (KHTML, like Gecko) Chrome/109.0.0.0 Safari/537.36","WebKit","Chrome","109.0.0.0","Windows","10.0","null","<div style=""font-size:60px;"">+</div>","null",""
"","","","","","html-button-response","104","325295","0.0-3.0-1.50","33","1","2023-06-22 16:24:39","077e191c96ad73626b2944d724c57d9e","115.167.115.155","Mozilla/5.0 (Windows NT 10.0; Win64; x64) AppleWebKit/537.36 (KHTML, like Gecko) Chrome/109.0.0.0 Safari/537.36","WebKit","Chrome","109.0.0.0","Windows","10.0","497","<p>As the military commander, you could choose to launch a missile to kill <strong>8 enemy soldiers</strong> , but would accidentally kill <strong>1 enemy civilian</strong> nearby.</p> <p>The photo of the <strong>enemy civilian</strong> is shown below.</p> <p></p> <img src='stimuli/faces/PFM8.jpg', style='max-width: 30%;'> </img> <p><strong>Would you launch the weapon?</strong></p>","0",""
"","","","","","html-keyboard-response","105","326304","0.0-3.0-0.51","33","1","2023-06-22 16:24:39","077e191c96ad73626b2944d724c57d9e","115.167.115.155","Mozilla/5.0 (Windows NT 10.0; Win64; x64) AppleWebKit/537.36 (KHTML, like Gecko) Chrome/109.0.0.0 Safari/537.36","WebKit","Chrome","109.0.0.0","Windows","10.0","null","<div style=""font-size:60px;"">+</div>","null",""
"","","","","","html-button-response","106","326838","0.0-3.0-1.51","33","1","2023-06-22 16:24:39","077e191c96ad73626b2944d724c57d9e","115.167.115.155","Mozilla/5.0 (Windows NT 10.0; Win64; x64) AppleWebKit/537.36 (KHTML, like Gecko) Chrome/109.0.0.0 Safari/537.36","WebKit","Chrome","109.0.0.0","Windows","10.0","531","<p>As the military commander, you could choose to launch a missile to kill <strong>4 enemy soldiers</strong> , but would accidentally kill <strong>1 enemy tree</strong> nearby.</p> <p>The photo of the <strong>enemy tree</strong> is shown below.</p> <p></p> <img src='stimuli/tree/8.png', style='max-width: 30%;'> </img> <p><strong>Would you launch the weapon?</strong></p>","0",""
"","","","","","html-keyboard-response","107","327851","0.0-3.0-0.52","33","1","2023-06-22 16:24:39","077e191c96ad73626b2944d724c57d9e","115.167.115.155","Mozilla/5.0 (Windows NT 10.0; Win64; x64) AppleWebKit/537.36 (KHTML, like Gecko) Chrome/109.0.0.0 Safari/537.36","WebKit","Chrome","109.0.0.0","Windows","10.0","null","<div style=""font-size:60px;"">+</div>","null",""
"","","","","","html-button-response","108","329615","0.0-3.0-1.52","33","1","2023-06-22 16:24:39","077e191c96ad73626b2944d724c57d9e","115.167.115.155","Mozilla/5.0 (Windows NT 10.0; Win64; x64) AppleWebKit/537.36 (KHTML, like Gecko) Chrome/109.0.0.0 Safari/537.36","WebKit","Chrome","109.0.0.0","Windows","10.0","1759","<p>As the military commander, you could choose to launch a missile to kill <strong>3 enemy soldiers</strong> , but would accidentally kill <strong>1 enemy civilian</strong> nearby.</p> <p>The photo of the <strong>enemy civilian</strong> is shown below.</p> <p></p> <img src='stimuli/faces/PFF8.jpg', style='max-width: 30%;'> </img> <p><strong>Would you launch the weapon?</strong></p>","0",""
"","","","","","html-keyboard-response","109","330624","0.0-3.0-0.53","33","1","2023-06-22 16:24:39","077e191c96ad73626b2944d724c57d9e","115.167.115.155","Mozilla/5.0 (Windows NT 10.0; Win64; x64) AppleWebKit/537.36 (KHTML, like Gecko) Chrome/109.0.0.0 Safari/537.36","WebKit","Chrome","109.0.0.0","Windows","10.0","null","<div style=""font-size:60px;"">+</div>","null",""
"","","","","","html-button-response","110","331095","0.0-3.0-1.53","33","1","2023-06-22 16:24:39","077e191c96ad73626b2944d724c57d9e","115.167.115.155","Mozilla/5.0 (Windows NT 10.0; Win64; x64) AppleWebKit/537.36 (KHTML, like Gecko) Chrome/109.0.0.0 Safari/537.36","WebKit","Chrome","109.0.0.0","Windows","10.0","465","<p>As the military commander, you could choose to launch a missile to kill <strong>8 enemy soldiers</strong> , but would accidentally kill <strong>1 enemy civilian</strong> nearby.</p> <p>The photo of the <strong>enemy civilian</strong> is shown below.</p> <p></p> <img src='stimuli/faces/PFF2.jpg', style='max-width: 30%;'> </img> <p><strong>Would you launch the weapon?</strong></p>","0",""
"","","","","","html-keyboard-response","111","332135","0.0-3.0-0.54","33","1","2023-06-22 16:24:39","077e191c96ad73626b2944d724c57d9e","115.167.115.155","Mozilla/5.0 (Windows NT 10.0; Win64; x64) AppleWebKit/537.36 (KHTML, like Gecko) Chrome/109.0.0.0 Safari/537.36","WebKit","Chrome","109.0.0.0","Windows","10.0","null","<div style=""font-size:60px;"">+</div>","null",""
"","","","","","html-button-response","112","332766","0.0-3.0-1.54","33","1","2023-06-22 16:24:39","077e191c96ad73626b2944d724c57d9e","115.167.115.155","Mozilla/5.0 (Windows NT 10.0; Win64; x64) AppleWebKit/537.36 (KHTML, like Gecko) Chrome/109.0.0.0 Safari/537.36","WebKit","Chrome","109.0.0.0","Windows","10.0","627","<p>As the military commander, you could choose to launch a missile to kill <strong>5 enemy soldiers</strong> , but would accidentally kill <strong>1 enemy tree</strong> nearby.</p> <p>The photo of the <strong>enemy tree</strong> is shown below.</p> <p></p> <img src='stimuli/tree/15.png', style='max-width: 30%;'> </img> <p><strong>Would you launch the weapon?</strong></p>","0",""
"","","","","","html-keyboard-response","113","333776","0.0-3.0-0.55","33","1","2023-06-22 16:24:39","077e191c96ad73626b2944d724c57d9e","115.167.115.155","Mozilla/5.0 (Windows NT 10.0; Win64; x64) AppleWebKit/537.36 (KHTML, like Gecko) Chrome/109.0.0.0 Safari/537.36","WebKit","Chrome","109.0.0.0","Windows","10.0","null","<div style=""font-size:60px;"">+</div>","null",""
"","","","","","html-button-response","114","334326","0.0-3.0-1.55","33","1","2023-06-22 16:24:39","077e191c96ad73626b2944d724c57d9e","115.167.115.155","Mozilla/5.0 (Windows NT 10.0; Win64; x64) AppleWebKit/537.36 (KHTML, like Gecko) Chrome/109.0.0.0 Safari/537.36","WebKit","Chrome","109.0.0.0","Windows","10.0","546","<p>As the military commander, you could choose to launch a missile to kill <strong>4 enemy soldiers</strong> , but would accidentally kill <strong>1 enemy tree</strong> nearby.</p> <p>The photo of the <strong>enemy tree</strong> is shown below.</p> <p></p> <img src='stimuli/tree/4.png', style='max-width: 30%;'> </img> <p><strong>Would you launch the weapon?</strong></p>","0",""
"","","","","","html-keyboard-response","115","335336","0.0-3.0-0.56","33","1","2023-06-22 16:24:39","077e191c96ad73626b2944d724c57d9e","115.167.115.155","Mozilla/5.0 (Windows NT 10.0; Win64; x64) AppleWebKit/537.36 (KHTML, like Gecko) Chrome/109.0.0.0 Safari/537.36","WebKit","Chrome","109.0.0.0","Windows","10.0","null","<div style=""font-size:60px;"">+</div>","null",""
"","","","","","html-button-response","116","335847","0.0-3.0-1.56","33","1","2023-06-22 16:24:39","077e191c96ad73626b2944d724c57d9e","115.167.115.155","Mozilla/5.0 (Windows NT 10.0; Win64; x64) AppleWebKit/537.36 (KHTML, like Gecko) Chrome/109.0.0.0 Safari/537.36","WebKit","Chrome","109.0.0.0","Windows","10.0","508","<p>As the military commander, you could choose to launch a missile to kill <strong>1 enemy soldier</strong> , but would accidentally kill <strong>1 enemy civilian</strong> nearby.</p> <p>The photo of the <strong>enemy civilian</strong> is shown below.</p> <p></p> <img src='stimuli/faces/PFF5.jpg', style='max-width: 30%;'> </img> <p><strong>Would you launch the weapon?</strong></p>","0",""
"","","","","","html-keyboard-response","117","336856","0.0-3.0-0.57","33","1","2023-06-22 16:24:39","077e191c96ad73626b2944d724c57d9e","115.167.115.155","Mozilla/5.0 (Windows NT 10.0; Win64; x64) AppleWebKit/537.36 (KHTML, like Gecko) Chrome/109.0.0.0 Safari/537.36","WebKit","Chrome","109.0.0.0","Windows","10.0","null","<div style=""font-size:60px;"">+</div>","null",""
"","","","","","html-button-response","118","337359","0.0-3.0-1.57","33","1","2023-06-22 16:24:39","077e191c96ad73626b2944d724c57d9e","115.167.115.155","Mozilla/5.0 (Windows NT 10.0; Win64; x64) AppleWebKit/537.36 (KHTML, like Gecko) Chrome/109.0.0.0 Safari/537.36","WebKit","Chrome","109.0.0.0","Windows","10.0","499","<p>As the military commander, you could choose to launch a missile to kill <strong>1 enemy soldier</strong> , but would accidentally kill <strong>1 enemy tree</strong> nearby.</p> <p>The photo of the <strong>enemy tree</strong> is shown below.</p> <p></p> <img src='stimuli/tree/12.png', style='max-width: 30%;'> </img> <p><strong>Would you launch the weapon?</strong></p>","0",""
"","","","","","html-keyboard-response","119","338368","0.0-3.0-0.58","33","1","2023-06-22 16:24:39","077e191c96ad73626b2944d724c57d9e","115.167.115.155","Mozilla/5.0 (Windows NT 10.0; Win64; x64) AppleWebKit/537.36 (KHTML, like Gecko) Chrome/109.0.0.0 Safari/537.36","WebKit","Chrome","109.0.0.0","Windows","10.0","null","<div style=""font-size:60px;"">+</div>","null",""
"","","","","","html-button-response","120","339031","0.0-3.0-1.58","33","1","2023-06-22 16:24:39","077e191c96ad73626b2944d724c57d9e","115.167.115.155","Mozilla/5.0 (Windows NT 10.0; Win64; x64) AppleWebKit/537.36 (KHTML, like Gecko) Chrome/109.0.0.0 Safari/537.36","WebKit","Chrome","109.0.0.0","Windows","10.0","659","<p>As the military commander, you could choose to launch a missile to kill <strong>2 enemy soldiers</strong> , but would accidentally kill <strong>1 enemy civilian</strong> nearby.</p> <p>The photo of the <strong>enemy civilian</strong> is shown below.</p> <p></p> <img src='stimuli/faces/PFM7.jpg', style='max-width: 30%;'> </img> <p><strong>Would you launch the weapon?</strong></p>","0",""
"","","","","","html-keyboard-response","121","340102","0.0-3.0-0.59","33","1","2023-06-22 16:24:39","077e191c96ad73626b2944d724c57d9e","115.167.115.155","Mozilla/5.0 (Windows NT 10.0; Win64; x64) AppleWebKit/537.36 (KHTML, like Gecko) Chrome/109.0.0.0 Safari/537.36","WebKit","Chrome","109.0.0.0","Windows","10.0","null","<div style=""font-size:60px;"">+</div>","null",""
"","","","","","html-button-response","122","340705","0.0-3.0-1.59","33","1","2023-06-22 16:24:39","077e191c96ad73626b2944d724c57d9e","115.167.115.155","Mozilla/5.0 (Windows NT 10.0; Win64; x64) AppleWebKit/537.36 (KHTML, like Gecko) Chrome/109.0.0.0 Safari/537.36","WebKit","Chrome","109.0.0.0","Windows","10.0","603","<p>As the military commander, you could choose to launch a missile to kill <strong>2 enemy soldiers</strong> , but would accidentally kill <strong>1 enemy tree</strong> nearby.</p> <p>The photo of the <strong>enemy tree</strong> is shown below.</p> <p></p> <img src='stimuli/tree/1.png', style='max-width: 30%;'> </img> <p><strong>Would you launch the weapon?</strong></p>","0",""
"","","","","","html-keyboard-response","123","341728","0.0-3.0-0.60","33","1","2023-06-22 16:24:39","077e191c96ad73626b2944d724c57d9e","115.167.115.155","Mozilla/5.0 (Windows NT 10.0; Win64; x64) AppleWebKit/537.36 (KHTML, like Gecko) Chrome/109.0.0.0 Safari/537.36","WebKit","Chrome","109.0.0.0","Windows","10.0","null","<div style=""font-size:60px;"">+</div>","null",""
"","","","","","html-button-response","124","343956","0.0-3.0-1.60","33","1","2023-06-22 16:24:39","077e191c96ad73626b2944d724c57d9e","115.167.115.155","Mozilla/5.0 (Windows NT 10.0; Win64; x64) AppleWebKit/537.36 (KHTML, like Gecko) Chrome/109.0.0.0 Safari/537.36","WebKit","Chrome","109.0.0.0","Windows","10.0","2223","<p>As the military commander, you could choose to launch a missile to kill <strong>3 enemy soldiers</strong> , but would accidentally kill <strong>1 enemy civilian</strong> nearby.</p> <p>The photo of the <strong>enemy civilian</strong> is shown below.</p> <p></p> <img src='stimuli/faces/PFF6.jpg', style='max-width: 30%;'> </img> <p><strong>Would you launch the weapon?</strong></p>","0",""
"","","","","","html-keyboard-response","125","344967","0.0-3.0-0.61","33","1","2023-06-22 16:24:39","077e191c96ad73626b2944d724c57d9e","115.167.115.155","Mozilla/5.0 (Windows NT 10.0; Win64; x64) AppleWebKit/537.36 (KHTML, like Gecko) Chrome/109.0.0.0 Safari/537.36","WebKit","Chrome","109.0.0.0","Windows","10.0","null","<div style=""font-size:60px;"">+</div>","null",""
"","","","","","html-button-response","126","345419","0.0-3.0-1.61","33","1","2023-06-22 16:24:39","077e191c96ad73626b2944d724c57d9e","115.167.115.155","Mozilla/5.0 (Windows NT 10.0; Win64; x64) AppleWebKit/537.36 (KHTML, like Gecko) Chrome/109.0.0.0 Safari/537.36","WebKit","Chrome","109.0.0.0","Windows","10.0","452","<p>As the military commander, you could choose to launch a missile to kill <strong>8 enemy soldiers</strong> , but would accidentally kill <strong>1 enemy civilian</strong> nearby.</p> <p>The photo of the <strong>enemy civilian</strong> is shown below.</p> <p></p> <img src='stimuli/faces/PFF5.jpg', style='max-width: 30%;'> </img> <p><strong>Would you launch the weapon?</strong></p>","0",""
"","","","","","html-keyboard-response","127","346424","0.0-3.0-0.62","33","1","2023-06-22 16:24:39","077e191c96ad73626b2944d724c57d9e","115.167.115.155","Mozilla/5.0 (Windows NT 10.0; Win64; x64) AppleWebKit/537.36 (KHTML, like Gecko) Chrome/109.0.0.0 Safari/537.36","WebKit","Chrome","109.0.0.0","Windows","10.0","null","<div style=""font-size:60px;"">+</div>","null",""
"","","","","","html-button-response","128","346975","0.0-3.0-1.62","33","1","2023-06-22 16:24:39","077e191c96ad73626b2944d724c57d9e","115.167.115.155","Mozilla/5.0 (Windows NT 10.0; Win64; x64) AppleWebKit/537.36 (KHTML, like Gecko) Chrome/109.0.0.0 Safari/537.36","WebKit","Chrome","109.0.0.0","Windows","10.0","547","<p>As the military commander, you could choose to launch a missile to kill <strong>9 enemy soldiers</strong> , but would accidentally kill <strong>1 enemy tree</strong> nearby.</p> <p>The photo of the <strong>enemy tree</strong> is shown below.</p> <p></p> <img src='stimuli/tree/3.png', style='max-width: 30%;'> </img> <p><strong>Would you launch the weapon?</strong></p>","0",""
"","","","","","html-keyboard-response","129","347987","0.0-3.0-0.63","33","1","2023-06-22 16:24:39","077e191c96ad73626b2944d724c57d9e","115.167.115.155","Mozilla/5.0 (Windows NT 10.0; Win64; x64) AppleWebKit/537.36 (KHTML, like Gecko) Chrome/109.0.0.0 Safari/537.36","WebKit","Chrome","109.0.0.0","Windows","10.0","null","<div style=""font-size:60px;"">+</div>","null",""
"","","","","","html-button-response","130","359386","0.0-3.0-1.63","33","1","2023-06-22 16:24:39","077e191c96ad73626b2944d724c57d9e","115.167.115.155","Mozilla/5.0 (Windows NT 10.0; Win64; x64) AppleWebKit/537.36 (KHTML, like Gecko) Chrome/109.0.0.0 Safari/537.36","WebKit","Chrome","109.0.0.0","Windows","10.0","11399","<p>As the military commander, you could choose to launch a missile to kill <strong>10 enemy soldiers</strong> , but would accidentally kill <strong>1 enemy civilian</strong> nearby.</p> <p>The photo of the <strong>enemy civilian</strong> is shown below.</p> <p></p> <img src='stimuli/faces/PFF3.jpg', style='max-width: 30%;'> </img> <p><strong>Would you launch the weapon?</strong></p>","0",""
"","","","","","survey-multi-choice","131","365686","0.0-4.0","33","1","2023-06-22 16:24:39","077e191c96ad73626b2944d724c57d9e","115.167.115.155","Mozilla/5.0 (Windows NT 10.0; Win64; x64) AppleWebKit/537.36 (KHTML, like Gecko) Chrome/109.0.0.0 Safari/537.36","WebKit","Chrome","109.0.0.0","Windows","10.0","6300","","{""Attention1"":""""}","[0]"
"","","","","","html-button-response","132","369519","0.0-5.0","33","1","2023-06-22 16:24:39","077e191c96ad73626b2944d724c57d9e","115.167.115.155","Mozilla/5.0 (Windows NT 10.0; Win64; x64) AppleWebKit/537.36 (KHTML, like Gecko) Chrome/109.0.0.0 Safari/537.36","WebKit","Chrome","109.0.0.0","Windows","10.0","3816","<p style=""font-size:20px;font-weight:bold;"">Great!</p><p>You have finished the first part of the experiment!</p><p>Please relax a little bit and then contine to answer some questions regarding yourself.</p><p>The next part will take around 10 minutes to complete.</p>","0",""
"","","","","","survey-text","133","394034","0.0-6.0","33","1","2023-06-22 16:24:39","077e191c96ad73626b2944d724c57d9e","115.167.115.155","Mozilla/5.0 (Windows NT 10.0; Win64; x64) AppleWebKit/537.36 (KHTML, like Gecko) Chrome/109.0.0.0 Safari/537.36","WebKit","Chrome","109.0.0.0","Windows","10.0","23493","","{""Age"":""24"",""Nation"":""American"",""Born"":""usa"",""Live"":""usa""}",""
"","","","","","survey-multi-choice","134","456960","0.0-7.0","33","1","2023-06-22 16:24:39","077e191c96ad73626b2944d724c57d9e","115.167.115.155","Mozilla/5.0 (Windows NT 10.0; Win64; x64) AppleWebKit/537.36 (KHTML, like Gecko) Chrome/109.0.0.0 Safari/537.36","WebKit","Chrome","109.0.0.0","Windows","10.0","62909","","{""Gender"":""Female"",""Education"":""Bachelor's Degree"",""Income"":""$100,000 - $124,999"",""Children"":""1"",""Ethnicity"":""White""}","[0,1,2,3,4]"
"","","","","","survey-multi-select","135","465583","0.0-8.0","33","1","2023-06-22 16:24:39","077e191c96ad73626b2944d724c57d9e","115.167.115.155","Mozilla/5.0 (Windows NT 10.0; Win64; x64) AppleWebKit/537.36 (KHTML, like Gecko) Chrome/109.0.0.0 Safari/537.36","WebKit","Chrome","109.0.0.0","Windows","10.0","8586","","{""Marriage"":[""Married""],""Religion"":[""Catholic""]}","[0,1]"
"","","","","","survey-multi-choice","136","474815","0.0-9.0","33","1","2023-06-22 16:24:39","077e191c96ad73626b2944d724c57d9e","115.167.115.155","Mozilla/5.0 (Windows NT 10.0; Win64; x64) AppleWebKit/537.36 (KHTML, like Gecko) Chrome/109.0.0.0 Safari/537.36","WebKit","Chrome","109.0.0.0","Windows","10.0","9216","","{""SES"":""9""}","[0]"
"","","","","","html-button-response","137","483778","0.0-10.0","33","1","2023-06-22 16:24:39","077e191c96ad73626b2944d724c57d9e","115.167.115.155","Mozilla/5.0 (Windows NT 10.0; Win64; x64) AppleWebKit/537.36 (KHTML, like Gecko) Chrome/109.0.0.0 Safari/537.36","WebKit","Chrome","109.0.0.0","Windows","10.0","8963","<p><strong>Please indicate the extent that the following statements could describe you.</p><p> (1 = ""extremely uncharacteristic of me"" to 5 = ""extremely characteristic of me"".)</strong></p>","0",""
"","","","","","survey-likert","138","507340","0.0-11.0","33","1","2023-06-22 16:24:39","077e191c96ad73626b2944d724c57d9e","115.167.115.155","Mozilla/5.0 (Windows NT 10.0; Win64; x64) AppleWebKit/537.36 (KHTML, like Gecko) Chrome/109.0.0.0 Safari/537.36","WebKit","Chrome","109.0.0.0","Windows","10.0","23545","","{""Aggression1"":3,""Aggression2"":2,""Aggression3"":3,""Aggression4"":2,""Aggression5"":3,""Aggression6"":3,""Aggression7"":3,""Aggression8"":4,""Aggression9"":3}","[0,1,2,3,4,5,6,7,8]"
"","","","","","html-button-response","139","508799","0.0-12.0","33","1","2023-06-22 16:24:39","077e191c96ad73626b2944d724c57d9e","115.167.115.155","Mozilla/5.0 (Windows NT 10.0; Win64; x64) AppleWebKit/537.36 (KHTML, like Gecko) Chrome/109.0.0.0 Safari/537.36","WebKit","Chrome","109.0.0.0","Windows","10.0","1443","<p><strong>Please indicate the extent that the following statements could describe you. </strong></p><p><strong> (1 = ""Does not describe me well"" to 5 = ""Does decribe me well"".)</strong></p>","0",""
"","","","","","survey-likert","140","574023","0.0-13.0","33","1","2023-06-22 16:24:39","077e191c96ad73626b2944d724c57d9e","115.167.115.155","Mozilla/5.0 (Windows NT 10.0; Win64; x64) AppleWebKit/537.36 (KHTML, like Gecko) Chrome/109.0.0.0 Safari/537.36","WebKit","Chrome","109.0.0.0","Windows","10.0","65217","","{""ecs2"":3,""ecs6"":4,""fs6"":3,""pds2"":4,""ecs3"":3,""pts2"":3,""pds4"":3,""pds5"":4,""ecs1"":3,""fs7"":3,""fs3"":4,""ecs4"":3,""pts4"":4,""pds7"":2,""fs1"":4,""fs5"":3,""pts1"":3,""pts6"":4,""ecs7"":3,""fs2"":4,""ecs5"":3,""pts5"":4,""pts3"":3,""pds1"":3,""fs4"":3,""pds3"":4,""pts7"":3,""pds6"":4}","[3,19,22,9,8,7,16,18,1,25,6,13,14,26,0,15,2,24,21,4,17,20,10,5,11,12,27,23]"
"","","","","","html-button-response","141","581014","0.0-14.0","33","1","2023-06-22 16:24:39","077e191c96ad73626b2944d724c57d9e","115.167.115.155","Mozilla/5.0 (Windows NT 10.0; Win64; x64) AppleWebKit/537.36 (KHTML, like Gecko) Chrome/109.0.0.0 Safari/537.36","WebKit","Chrome","109.0.0.0","Windows","10.0","6975","<p><strong>Which of the following objects or statements do you have a positive or negative feeling towards? </strong></p><p><strong> (1 = ""Very negative"" to 7 = ""Very positive"") </strong></p>","0",""
"","","","","","survey-likert","142","671994","0.0-15.0","33","1","2023-06-22 16:24:39","077e191c96ad73626b2944d724c57d9e","115.167.115.155","Mozilla/5.0 (Windows NT 10.0; Win64; x64) AppleWebKit/537.36 (KHTML, like Gecko) Chrome/109.0.0.0 Safari/537.36","WebKit","Chrome","109.0.0.0","Windows","10.0","90974","","{""sdo12"":5,""sdo13"":5,""sdo6"":5,""sdo3"":5,""sdo2"":4,""sdo15"":5,""sdo16"":4,""sdo7"":5,""sdo10"":5,""sdo11"":4,""sdo4"":5,""sdo9"":5,""sdo1"":4,""sdo8"":5,""sdo5"":4,""sdo14"":5}","[11,12,5,2,1,14,15,6,9,10,3,8,0,7,4,13]"
"","","","","","html-button-response","143","684133","0.0-16.0","33","1","2023-06-22 16:24:39","077e191c96ad73626b2944d724c57d9e","115.167.115.155","Mozilla/5.0 (Windows NT 10.0; Win64; x64) AppleWebKit/537.36 (KHTML, like Gecko) Chrome/109.0.0.0 Safari/537.36","WebKit","Chrome","109.0.0.0","Windows","10.0","12122","<p><strong>Please indicate the extent you agree with the following statements.</strong></p><strong><p> (1 = ""Strongly Disagree"" to 5 = ""Srongly Agree"") </strong></p>","0",""
"","","","","","survey-likert","144","716561","0.0-17.0","33","1","2023-06-22 16:24:39","077e191c96ad73626b2944d724c57d9e","115.167.115.155","Mozilla/5.0 (Windows NT 10.0; Win64; x64) AppleWebKit/537.36 (KHTML, like Gecko) Chrome/109.0.0.0 Safari/537.36","WebKit","Chrome","109.0.0.0","Windows","10.0","32426","","{""caring1"":3,""liking1"":3,""caring2"":4,""protection1"":3,""liking2"":4,""caring3"":3,""protection2"":4,""liking3"":3,""protection3"":4,""caring4"":3,""liking4"":4,""protection4"":3,""caring5"":4,""liking5"":3,""protection5"":3}","[0,1,2,3,4,5,6,7,8,9,10,11,12,13,14]"
"","","","","","html-button-response","145","718648","0.0-18.0","33","1","2023-06-22 16:24:39","077e191c96ad73626b2944d724c57d9e","115.167.115.155","Mozilla/5.0 (Windows NT 10.0; Win64; x64) AppleWebKit/537.36 (KHTML, like Gecko) Chrome/109.0.0.0 Safari/537.36","WebKit","Chrome","109.0.0.0","Windows","10.0","2079","<p><strong>Please imagine spercific situations involving children below, and rate the amount of tenderness you would feel in each situation. </strong></p><p><strong> (Ternderness is ""a warm, gentle feeling of sympathetic affection."") </strong></p><strong><p> (1 = ""No tenderness at all"" to 5 = ""A lot of tenderness"") </strong></p>","0",""
"","","","","","survey-likert","146","737240","0.0-19.0","33","1","2023-06-22 16:24:39","077e191c96ad73626b2944d724c57d9e","115.167.115.155","Mozilla/5.0 (Windows NT 10.0; Win64; x64) AppleWebKit/537.36 (KHTML, like Gecko) Chrome/109.0.0.0 Safari/537.36","WebKit","Chrome","109.0.0.0","Windows","10.0","18590","","{""tenderness-positive1"":3,""tenderness-negative1"":4,""tenderness-negative2"":3,""tenderness-positive2"":4,""tenderness-positive3"":3,""tenderness-negative3"":4,""tenderness-positive4"":3,""tendereness-negative4"":4,""tendernness-negative5"":3,""tenderness-positive5"":3}","[0,1,2,3,4,5,6,7,8,9]"
"","","","","","survey-multi-choice","147","750406","0.0-20.0","33","1","2023-06-22 16:24:39","077e191c96ad73626b2944d724c57d9e","115.167.115.155","Mozilla/5.0 (Windows NT 10.0; Win64; x64) AppleWebKit/537.36 (KHTML, like Gecko) Chrome/109.0.0.0 Safari/537.36","WebKit","Chrome","109.0.0.0","Windows","10.0","13157","","{""Attention2"":""Other""}","[0]"
"","","","","","html-button-response","148","752898","0.0-21.0","33","1","2023-06-22 16:24:39","077e191c96ad73626b2944d724c57d9e","115.167.115.155","Mozilla/5.0 (Windows NT 10.0; Win64; x64) AppleWebKit/537.36 (KHTML, like Gecko) Chrome/109.0.0.0 Safari/537.36","WebKit","Chrome","109.0.0.0","Windows","10.0","2490","<p><strong>Please indicate the extent you agree with the following statements.</strong></p>","0",""
"","","","","","survey-likert","149","790104","0.0-22.0","33","1","2023-06-22 16:24:39","077e191c96ad73626b2944d724c57d9e","115.167.115.155","Mozilla/5.0 (Windows NT 10.0; Win64; x64) AppleWebKit/537.36 (KHTML, like Gecko) Chrome/109.0.0.0 Safari/537.36","WebKit","Chrome","109.0.0.0","Windows","10.0","37199","","{""Patri5"":3,""Patri9"":4,""Nation1"":3,""Nation3"":3,""Patri8"":4,""Patri1"":3,""Patri10"":3,""Patri7"":3,""Nation5"":4,""Nation2"":3,""Patri2"":4,""Nation6"":3,""Patri3"":4,""Patri12"":3,""Nation7"":4,""Nation8"":3,""Patri11"":4,""Nation4"":3,""Patri6"":4,""Patri4"":3}","[4,8,12,14,7,0,9,6,16,13,1,17,2,11,18,19,10,15,5,3]"
"","","","","","html-button-response","150","796087","0.0-23.0","33","1","2023-06-22 16:24:39","077e191c96ad73626b2944d724c57d9e","115.167.115.155","Mozilla/5.0 (Windows NT 10.0; Win64; x64) AppleWebKit/537.36 (KHTML, like Gecko) Chrome/109.0.0.0 Safari/537.36","WebKit","Chrome","109.0.0.0","Windows","10.0","5967","<p><strong>Please indicate the extent you agree with the following statements. </p><p>(1 = ""never or definitely no"" and 9 = ""always or definitely yes"".)</strong></p>","0",""
"","","","","","survey-likert","151","838703","0.0-24.0","33","1","2023-06-22 16:24:39","077e191c96ad73626b2944d724c57d9e","115.167.115.155","Mozilla/5.0 (Windows NT 10.0; Win64; x64) AppleWebKit/537.36 (KHTML, like Gecko) Chrome/109.0.0.0 Safari/537.36","WebKit","Chrome","109.0.0.0","Windows","10.0","42609","","{""hc1"":7,""hi4"":7,""vc1"":6,""vi2"":7,""vc2"":7,""hc4"":6,""vc3"":7,""hc2"":6,""vi1"":7,""vc4"":6,""vi3"":7,""hi3"":6,""hi2"":7,""hi1"":6,""vi4"":7,""hc3"":6,""Robot2"":6}","[9,3,13,5,14,12,15,10,4,16,6,2,1,0,8,11,7]"
"","","","","","survey-text","152","973968","0.0-25.0","33","1","2023-06-22 16:24:39","077e191c96ad73626b2944d724c57d9e","115.167.115.155","Mozilla/5.0 (Windows NT 10.0; Win64; x64) AppleWebKit/537.36 (KHTML, like Gecko) Chrome/109.0.0.0 Safari/537.36","WebKit","Chrome","109.0.0.0","Windows","10.0","135244","","{""ID"":""A223D2J4BO90SO"",""Comments"":""good""}",""
"","","","","","html-button-response","153","1648210","0.0-26.0","33","1","2023-06-22 16:24:39","077e191c96ad73626b2944d724c57d9e","115.167.115.155","Mozilla/5.0 (Windows NT 10.0; Win64; x64) AppleWebKit/537.36 (KHTML, like Gecko) Chrome/109.0.0.0 Safari/537.36","WebKit","Chrome","109.0.0.0","Windows","10.0","674236","<p><strong>Congratulations! </strong> Your have finished all the survey. Thank you for your participation!</p><p><strong>Here is your complete token:</strong></p>gj8lbml1meohxc0wotq9bk0yl<p></p><p><strong>Please copy it to the mTurk page.</strong></p>","0",""
