"success","timeout","failed_images","failed_audio","failed_video","trial_type","trial_index","time_elapsed","internal_node_id","run_id","condition","recorded_at","source_code_version","ip","user_agent","device","browser","browser_version","platform","platform_version","rt","stimulus","response","question_order"
"true","false","[]","[]","[]","preload","0","1339","0.0-0.0","41","1","2023-06-25 15:14:38","077e191c96ad73626b2944d724c57d9e","63.92.70.136","Mozilla/5.0 (Windows NT 10.0; Win64; x64) AppleWebKit/537.36 (KHTML, like Gecko) Chrome/114.0.0.0 Safari/537.36","WebKit","Chrome","114.0.0.0","Windows","10.0","","","",""
"true","","","","","fullscreen","1","4728","0.0-1.0","41","1","2023-06-25 15:14:38","077e191c96ad73626b2944d724c57d9e","63.92.70.136","Mozilla/5.0 (Windows NT 10.0; Win64; x64) AppleWebKit/537.36 (KHTML, like Gecko) Chrome/114.0.0.0 Safari/537.36","WebKit","Chrome","114.0.0.0","Windows","10.0","","","",""
"","","","","","html-button-response","2","40437","0.0-2.0","41","1","2023-06-25 15:14:38","077e191c96ad73626b2944d724c57d9e","63.92.70.136","Mozilla/5.0 (Windows NT 10.0; Win64; x64) AppleWebKit/537.36 (KHTML, like Gecko) Chrome/114.0.0.0 Safari/537.36","WebKit","Chrome","114.0.0.0","Windows","10.0","35707","<p ><strong>Welcome to the experiment!</strong></p><p ><strong>In the first task, please imagine:</strong></p><p>Your country is involved in a military conflict with another country.</p><p>You are the commander of your army and must make decisions in the conflict.</p><p>Specifically, as the military commander, you must decide whether to launch a missile to strike enemy.</p><p>You will face a series of scenarios. Please read each scenario carefully and make a decision.</p><p>The task will take around 10 minutes to complete.</p><p><strong>Please pay your attention during the experiment.</strong></p>","0",""
"","","","","","html-keyboard-response","3","41439","0.0-3.0-0.0","41","1","2023-06-25 15:14:38","077e191c96ad73626b2944d724c57d9e","63.92.70.136","Mozilla/5.0 (Windows NT 10.0; Win64; x64) AppleWebKit/537.36 (KHTML, like Gecko) Chrome/114.0.0.0 Safari/537.36","WebKit","Chrome","114.0.0.0","Windows","10.0","null","<div style=""font-size:60px;"">+</div>","null",""
"","","","","","html-button-response","4","66740","0.0-3.0-1.0","41","1","2023-06-25 15:14:38","077e191c96ad73626b2944d724c57d9e","63.92.70.136","Mozilla/5.0 (Windows NT 10.0; Win64; x64) AppleWebKit/537.36 (KHTML, like Gecko) Chrome/114.0.0.0 Safari/537.36","WebKit","Chrome","114.0.0.0","Windows","10.0","25298","<p>As the military commander, you could choose to launch a missile to kill <strong>1 enemy soldier</strong> , but would accidentally kill <strong>1 enemy tree</strong> nearby.</p> <p>The photo of the <strong>enemy tree</strong> is shown below.</p> <p></p> <img src='stimuli/tree/13.png', style='max-width: 30%;'> </img> <p><strong>Would you launch the weapon?</strong></p>","1",""
"","","","","","html-keyboard-response","5","67744","0.0-3.0-0.1","41","1","2023-06-25 15:14:38","077e191c96ad73626b2944d724c57d9e","63.92.70.136","Mozilla/5.0 (Windows NT 10.0; Win64; x64) AppleWebKit/537.36 (KHTML, like Gecko) Chrome/114.0.0.0 Safari/537.36","WebKit","Chrome","114.0.0.0","Windows","10.0","null","<div style=""font-size:60px;"">+</div>","null",""
"","","","","","html-button-response","6","87431","0.0-3.0-1.1","41","1","2023-06-25 15:14:38","077e191c96ad73626b2944d724c57d9e","63.92.70.136","Mozilla/5.0 (Windows NT 10.0; Win64; x64) AppleWebKit/537.36 (KHTML, like Gecko) Chrome/114.0.0.0 Safari/537.36","WebKit","Chrome","114.0.0.0","Windows","10.0","19685","<p>As the military commander, you could choose to launch a missile to kill <strong>8 enemy soldiers</strong> , but would accidentally kill <strong>1 enemy civilian</strong> nearby.</p> <p>The photo of the <strong>enemy civilian</strong> is shown below.</p> <p></p> <img src='stimuli/faces/PFM2.jpg', style='max-width: 30%;'> </img> <p><strong>Would you launch the weapon?</strong></p>","1",""
"","","","","","html-keyboard-response","7","88434","0.0-3.0-0.2","41","1","2023-06-25 15:14:38","077e191c96ad73626b2944d724c57d9e","63.92.70.136","Mozilla/5.0 (Windows NT 10.0; Win64; x64) AppleWebKit/537.36 (KHTML, like Gecko) Chrome/114.0.0.0 Safari/537.36","WebKit","Chrome","114.0.0.0","Windows","10.0","null","<div style=""font-size:60px;"">+</div>","null",""
"","","","","","html-button-response","8","100160","0.0-3.0-1.2","41","1","2023-06-25 15:14:38","077e191c96ad73626b2944d724c57d9e","63.92.70.136","Mozilla/5.0 (Windows NT 10.0; Win64; x64) AppleWebKit/537.36 (KHTML, like Gecko) Chrome/114.0.0.0 Safari/537.36","WebKit","Chrome","114.0.0.0","Windows","10.0","11723","<p>As the military commander, you could choose to launch a missile to kill <strong>9 enemy soldiers</strong> , but would accidentally kill <strong>1 enemy civilian</strong> nearby.</p> <p>The photo of the <strong>enemy civilian</strong> is shown below.</p> <p></p> <img src='stimuli/faces/PFM8.jpg', style='max-width: 30%;'> </img> <p><strong>Would you launch the weapon?</strong></p>","1",""
"","","","","","html-keyboard-response","9","101162","0.0-3.0-0.3","41","1","2023-06-25 15:14:38","077e191c96ad73626b2944d724c57d9e","63.92.70.136","Mozilla/5.0 (Windows NT 10.0; Win64; x64) AppleWebKit/537.36 (KHTML, like Gecko) Chrome/114.0.0.0 Safari/537.36","WebKit","Chrome","114.0.0.0","Windows","10.0","null","<div style=""font-size:60px;"">+</div>","null",""
"","","","","","html-button-response","10","104943","0.0-3.0-1.3","41","1","2023-06-25 15:14:38","077e191c96ad73626b2944d724c57d9e","63.92.70.136","Mozilla/5.0 (Windows NT 10.0; Win64; x64) AppleWebKit/537.36 (KHTML, like Gecko) Chrome/114.0.0.0 Safari/537.36","WebKit","Chrome","114.0.0.0","Windows","10.0","3778","<p>As the military commander, you could choose to launch a missile to kill <strong>7 enemy soldiers</strong> , but would accidentally kill <strong>1 enemy tree</strong> nearby.</p> <p>The photo of the <strong>enemy tree</strong> is shown below.</p> <p></p> <img src='stimuli/tree/3.png', style='max-width: 30%;'> </img> <p><strong>Would you launch the weapon?</strong></p>","1",""
"","","","","","html-keyboard-response","11","105946","0.0-3.0-0.4","41","1","2023-06-25 15:14:38","077e191c96ad73626b2944d724c57d9e","63.92.70.136","Mozilla/5.0 (Windows NT 10.0; Win64; x64) AppleWebKit/537.36 (KHTML, like Gecko) Chrome/114.0.0.0 Safari/537.36","WebKit","Chrome","114.0.0.0","Windows","10.0","null","<div style=""font-size:60px;"">+</div>","null",""
"","","","","","html-button-response","12","111711","0.0-3.0-1.4","41","1","2023-06-25 15:14:38","077e191c96ad73626b2944d724c57d9e","63.92.70.136","Mozilla/5.0 (Windows NT 10.0; Win64; x64) AppleWebKit/537.36 (KHTML, like Gecko) Chrome/114.0.0.0 Safari/537.36","WebKit","Chrome","114.0.0.0","Windows","10.0","5763","<p>As the military commander, you could choose to launch a missile to kill <strong>10 enemy soldiers</strong> , but would accidentally kill <strong>1 enemy civilian</strong> nearby.</p> <p>The photo of the <strong>enemy civilian</strong> is shown below.</p> <p></p> <img src='stimuli/faces/PFF6.jpg', style='max-width: 30%;'> </img> <p><strong>Would you launch the weapon?</strong></p>","1",""
"","","","","","html-keyboard-response","13","112713","0.0-3.0-0.5","41","1","2023-06-25 15:14:38","077e191c96ad73626b2944d724c57d9e","63.92.70.136","Mozilla/5.0 (Windows NT 10.0; Win64; x64) AppleWebKit/537.36 (KHTML, like Gecko) Chrome/114.0.0.0 Safari/537.36","WebKit","Chrome","114.0.0.0","Windows","10.0","null","<div style=""font-size:60px;"">+</div>","null",""
"","","","","","html-button-response","14","120783","0.0-3.0-1.5","41","1","2023-06-25 15:14:38","077e191c96ad73626b2944d724c57d9e","63.92.70.136","Mozilla/5.0 (Windows NT 10.0; Win64; x64) AppleWebKit/537.36 (KHTML, like Gecko) Chrome/114.0.0.0 Safari/537.36","WebKit","Chrome","114.0.0.0","Windows","10.0","8068","<p>As the military commander, you could choose to launch a missile to kill <strong>3 enemy soldiers</strong> , but would accidentally kill <strong>1 enemy tree</strong> nearby.</p> <p>The photo of the <strong>enemy tree</strong> is shown below.</p> <p></p> <img src='stimuli/tree/16.png', style='max-width: 30%;'> </img> <p><strong>Would you launch the weapon?</strong></p>","1",""
"","","","","","html-keyboard-response","15","121787","0.0-3.0-0.6","41","1","2023-06-25 15:14:38","077e191c96ad73626b2944d724c57d9e","63.92.70.136","Mozilla/5.0 (Windows NT 10.0; Win64; x64) AppleWebKit/537.36 (KHTML, like Gecko) Chrome/114.0.0.0 Safari/537.36","WebKit","Chrome","114.0.0.0","Windows","10.0","null","<div style=""font-size:60px;"">+</div>","null",""
"","","","","","html-button-response","16","138926","0.0-3.0-1.6","41","1","2023-06-25 15:14:38","077e191c96ad73626b2944d724c57d9e","63.92.70.136","Mozilla/5.0 (Windows NT 10.0; Win64; x64) AppleWebKit/537.36 (KHTML, like Gecko) Chrome/114.0.0.0 Safari/537.36","WebKit","Chrome","114.0.0.0","Windows","10.0","17137","<p>As the military commander, you could choose to launch a missile to kill <strong>7 enemy soldiers</strong> , but would accidentally kill <strong>1 enemy tree</strong> nearby.</p> <p>The photo of the <strong>enemy tree</strong> is shown below.</p> <p></p> <img src='stimuli/tree/15.png', style='max-width: 30%;'> </img> <p><strong>Would you launch the weapon?</strong></p>","1",""
"","","","","","html-keyboard-response","17","139929","0.0-3.0-0.7","41","1","2023-06-25 15:14:38","077e191c96ad73626b2944d724c57d9e","63.92.70.136","Mozilla/5.0 (Windows NT 10.0; Win64; x64) AppleWebKit/537.36 (KHTML, like Gecko) Chrome/114.0.0.0 Safari/537.36","WebKit","Chrome","114.0.0.0","Windows","10.0","null","<div style=""font-size:60px;"">+</div>","null",""
"","","","","","html-button-response","18","143510","0.0-3.0-1.7","41","1","2023-06-25 15:14:38","077e191c96ad73626b2944d724c57d9e","63.92.70.136","Mozilla/5.0 (Windows NT 10.0; Win64; x64) AppleWebKit/537.36 (KHTML, like Gecko) Chrome/114.0.0.0 Safari/537.36","WebKit","Chrome","114.0.0.0","Windows","10.0","3579","<p>As the military commander, you could choose to launch a missile to kill <strong>5 enemy soldiers</strong> , but would accidentally kill <strong>1 enemy tree</strong> nearby.</p> <p>The photo of the <strong>enemy tree</strong> is shown below.</p> <p></p> <img src='stimuli/tree/10.png', style='max-width: 30%;'> </img> <p><strong>Would you launch the weapon?</strong></p>","1",""
"","","","","","html-keyboard-response","19","144513","0.0-3.0-0.8","41","1","2023-06-25 15:14:38","077e191c96ad73626b2944d724c57d9e","63.92.70.136","Mozilla/5.0 (Windows NT 10.0; Win64; x64) AppleWebKit/537.36 (KHTML, like Gecko) Chrome/114.0.0.0 Safari/537.36","WebKit","Chrome","114.0.0.0","Windows","10.0","null","<div style=""font-size:60px;"">+</div>","null",""
"","","","","","html-button-response","20","147207","0.0-3.0-1.8","41","1","2023-06-25 15:14:38","077e191c96ad73626b2944d724c57d9e","63.92.70.136","Mozilla/5.0 (Windows NT 10.0; Win64; x64) AppleWebKit/537.36 (KHTML, like Gecko) Chrome/114.0.0.0 Safari/537.36","WebKit","Chrome","114.0.0.0","Windows","10.0","2691","<p>As the military commander, you could choose to launch a missile to kill <strong>5 enemy soldiers</strong> , but would accidentally kill <strong>1 enemy civilian</strong> nearby.</p> <p>The photo of the <strong>enemy civilian</strong> is shown below.</p> <p></p> <img src='stimuli/faces/PFM7.jpg', style='max-width: 30%;'> </img> <p><strong>Would you launch the weapon?</strong></p>","0",""
"","","","","","html-keyboard-response","21","148209","0.0-3.0-0.9","41","1","2023-06-25 15:14:38","077e191c96ad73626b2944d724c57d9e","63.92.70.136","Mozilla/5.0 (Windows NT 10.0; Win64; x64) AppleWebKit/537.36 (KHTML, like Gecko) Chrome/114.0.0.0 Safari/537.36","WebKit","Chrome","114.0.0.0","Windows","10.0","null","<div style=""font-size:60px;"">+</div>","null",""
"","","","","","html-button-response","22","150958","0.0-3.0-1.9","41","1","2023-06-25 15:14:38","077e191c96ad73626b2944d724c57d9e","63.92.70.136","Mozilla/5.0 (Windows NT 10.0; Win64; x64) AppleWebKit/537.36 (KHTML, like Gecko) Chrome/114.0.0.0 Safari/537.36","WebKit","Chrome","114.0.0.0","Windows","10.0","2746","<p>As the military commander, you could choose to launch a missile to kill <strong>3 enemy soldiers</strong> , but would accidentally kill <strong>1 enemy civilian</strong> nearby.</p> <p>The photo of the <strong>enemy civilian</strong> is shown below.</p> <p></p> <img src='stimuli/faces/PFF8.jpg', style='max-width: 30%;'> </img> <p><strong>Would you launch the weapon?</strong></p>","0",""
"","","","","","html-keyboard-response","23","151961","0.0-3.0-0.10","41","1","2023-06-25 15:14:38","077e191c96ad73626b2944d724c57d9e","63.92.70.136","Mozilla/5.0 (Windows NT 10.0; Win64; x64) AppleWebKit/537.36 (KHTML, like Gecko) Chrome/114.0.0.0 Safari/537.36","WebKit","Chrome","114.0.0.0","Windows","10.0","null","<div style=""font-size:60px;"">+</div>","null",""
"","","","","","html-button-response","24","154102","0.0-3.0-1.10","41","1","2023-06-25 15:14:38","077e191c96ad73626b2944d724c57d9e","63.92.70.136","Mozilla/5.0 (Windows NT 10.0; Win64; x64) AppleWebKit/537.36 (KHTML, like Gecko) Chrome/114.0.0.0 Safari/537.36","WebKit","Chrome","114.0.0.0","Windows","10.0","2139","<p>As the military commander, you could choose to launch a missile to kill <strong>4 enemy soldiers</strong> , but would accidentally kill <strong>1 enemy tree</strong> nearby.</p> <p>The photo of the <strong>enemy tree</strong> is shown below.</p> <p></p> <img src='stimuli/tree/9.png', style='max-width: 30%;'> </img> <p><strong>Would you launch the weapon?</strong></p>","1",""
"","","","","","html-keyboard-response","25","155104","0.0-3.0-0.11","41","1","2023-06-25 15:14:38","077e191c96ad73626b2944d724c57d9e","63.92.70.136","Mozilla/5.0 (Windows NT 10.0; Win64; x64) AppleWebKit/537.36 (KHTML, like Gecko) Chrome/114.0.0.0 Safari/537.36","WebKit","Chrome","114.0.0.0","Windows","10.0","null","<div style=""font-size:60px;"">+</div>","null",""
"","","","","","html-button-response","26","160790","0.0-3.0-1.11","41","1","2023-06-25 15:14:38","077e191c96ad73626b2944d724c57d9e","63.92.70.136","Mozilla/5.0 (Windows NT 10.0; Win64; x64) AppleWebKit/537.36 (KHTML, like Gecko) Chrome/114.0.0.0 Safari/537.36","WebKit","Chrome","114.0.0.0","Windows","10.0","5683","<p>As the military commander, you could choose to launch a missile to kill <strong>2 enemy soldiers</strong> , but would accidentally kill <strong>1 enemy tree</strong> nearby.</p> <p>The photo of the <strong>enemy tree</strong> is shown below.</p> <p></p> <img src='stimuli/tree/7.png', style='max-width: 30%;'> </img> <p><strong>Would you launch the weapon?</strong></p>","1",""
"","","","","","html-keyboard-response","27","161793","0.0-3.0-0.12","41","1","2023-06-25 15:14:38","077e191c96ad73626b2944d724c57d9e","63.92.70.136","Mozilla/5.0 (Windows NT 10.0; Win64; x64) AppleWebKit/537.36 (KHTML, like Gecko) Chrome/114.0.0.0 Safari/537.36","WebKit","Chrome","114.0.0.0","Windows","10.0","null","<div style=""font-size:60px;"">+</div>","null",""
"","","","","","html-button-response","28","164726","0.0-3.0-1.12","41","1","2023-06-25 15:14:38","077e191c96ad73626b2944d724c57d9e","63.92.70.136","Mozilla/5.0 (Windows NT 10.0; Win64; x64) AppleWebKit/537.36 (KHTML, like Gecko) Chrome/114.0.0.0 Safari/537.36","WebKit","Chrome","114.0.0.0","Windows","10.0","2930","<p>As the military commander, you could choose to launch a missile to kill <strong>3 enemy soldiers</strong> , but would accidentally kill <strong>1 enemy tree</strong> nearby.</p> <p>The photo of the <strong>enemy tree</strong> is shown below.</p> <p></p> <img src='stimuli/tree/6.png', style='max-width: 30%;'> </img> <p><strong>Would you launch the weapon?</strong></p>","1",""
"","","","","","html-keyboard-response","29","165728","0.0-3.0-0.13","41","1","2023-06-25 15:14:38","077e191c96ad73626b2944d724c57d9e","63.92.70.136","Mozilla/5.0 (Windows NT 10.0; Win64; x64) AppleWebKit/537.36 (KHTML, like Gecko) Chrome/114.0.0.0 Safari/537.36","WebKit","Chrome","114.0.0.0","Windows","10.0","null","<div style=""font-size:60px;"">+</div>","null",""
"","","","","","html-button-response","30","167382","0.0-3.0-1.13","41","1","2023-06-25 15:14:38","077e191c96ad73626b2944d724c57d9e","63.92.70.136","Mozilla/5.0 (Windows NT 10.0; Win64; x64) AppleWebKit/537.36 (KHTML, like Gecko) Chrome/114.0.0.0 Safari/537.36","WebKit","Chrome","114.0.0.0","Windows","10.0","1651","<p>As the military commander, you could choose to launch a missile to kill <strong>9 enemy soldiers</strong> , but would accidentally kill <strong>1 enemy tree</strong> nearby.</p> <p>The photo of the <strong>enemy tree</strong> is shown below.</p> <p></p> <img src='stimuli/tree/10.png', style='max-width: 30%;'> </img> <p><strong>Would you launch the weapon?</strong></p>","0",""
"","","","","","html-keyboard-response","31","168386","0.0-3.0-0.14","41","1","2023-06-25 15:14:38","077e191c96ad73626b2944d724c57d9e","63.92.70.136","Mozilla/5.0 (Windows NT 10.0; Win64; x64) AppleWebKit/537.36 (KHTML, like Gecko) Chrome/114.0.0.0 Safari/537.36","WebKit","Chrome","114.0.0.0","Windows","10.0","null","<div style=""font-size:60px;"">+</div>","null",""
"","","","","","html-button-response","32","176966","0.0-3.0-1.14","41","1","2023-06-25 15:14:38","077e191c96ad73626b2944d724c57d9e","63.92.70.136","Mozilla/5.0 (Windows NT 10.0; Win64; x64) AppleWebKit/537.36 (KHTML, like Gecko) Chrome/114.0.0.0 Safari/537.36","WebKit","Chrome","114.0.0.0","Windows","10.0","8576","<p>As the military commander, you could choose to launch a missile to kill <strong>9 enemy soldiers</strong> , but would accidentally kill <strong>1 enemy tree</strong> nearby.</p> <p>The photo of the <strong>enemy tree</strong> is shown below.</p> <p></p> <img src='stimuli/tree/2.png', style='max-width: 30%;'> </img> <p><strong>Would you launch the weapon?</strong></p>","0",""
"","","","","","html-keyboard-response","33","177969","0.0-3.0-0.15","41","1","2023-06-25 15:14:38","077e191c96ad73626b2944d724c57d9e","63.92.70.136","Mozilla/5.0 (Windows NT 10.0; Win64; x64) AppleWebKit/537.36 (KHTML, like Gecko) Chrome/114.0.0.0 Safari/537.36","WebKit","Chrome","114.0.0.0","Windows","10.0","null","<div style=""font-size:60px;"">+</div>","null",""
"","","","","","html-button-response","34","181053","0.0-3.0-1.15","41","1","2023-06-25 15:14:38","077e191c96ad73626b2944d724c57d9e","63.92.70.136","Mozilla/5.0 (Windows NT 10.0; Win64; x64) AppleWebKit/537.36 (KHTML, like Gecko) Chrome/114.0.0.0 Safari/537.36","WebKit","Chrome","114.0.0.0","Windows","10.0","3082","<p>As the military commander, you could choose to launch a missile to kill <strong>2 enemy soldiers</strong> , but would accidentally kill <strong>1 enemy tree</strong> nearby.</p> <p>The photo of the <strong>enemy tree</strong> is shown below.</p> <p></p> <img src='stimuli/tree/11.png', style='max-width: 30%;'> </img> <p><strong>Would you launch the weapon?</strong></p>","1",""
"","","","","","html-keyboard-response","35","182056","0.0-3.0-0.16","41","1","2023-06-25 15:14:38","077e191c96ad73626b2944d724c57d9e","63.92.70.136","Mozilla/5.0 (Windows NT 10.0; Win64; x64) AppleWebKit/537.36 (KHTML, like Gecko) Chrome/114.0.0.0 Safari/537.36","WebKit","Chrome","114.0.0.0","Windows","10.0","null","<div style=""font-size:60px;"">+</div>","null",""
"","","","","","html-button-response","36","184381","0.0-3.0-1.16","41","1","2023-06-25 15:14:38","077e191c96ad73626b2944d724c57d9e","63.92.70.136","Mozilla/5.0 (Windows NT 10.0; Win64; x64) AppleWebKit/537.36 (KHTML, like Gecko) Chrome/114.0.0.0 Safari/537.36","WebKit","Chrome","114.0.0.0","Windows","10.0","2323","<p>As the military commander, you could choose to launch a missile to kill <strong>8 enemy soldiers</strong> , but would accidentally kill <strong>1 enemy tree</strong> nearby.</p> <p>The photo of the <strong>enemy tree</strong> is shown below.</p> <p></p> <img src='stimuli/tree/5.png', style='max-width: 30%;'> </img> <p><strong>Would you launch the weapon?</strong></p>","0",""
"","","","","","html-keyboard-response","37","185384","0.0-3.0-0.17","41","1","2023-06-25 15:14:38","077e191c96ad73626b2944d724c57d9e","63.92.70.136","Mozilla/5.0 (Windows NT 10.0; Win64; x64) AppleWebKit/537.36 (KHTML, like Gecko) Chrome/114.0.0.0 Safari/537.36","WebKit","Chrome","114.0.0.0","Windows","10.0","null","<div style=""font-size:60px;"">+</div>","null",""
"","","","","","html-button-response","38","191669","0.0-3.0-1.17","41","1","2023-06-25 15:14:38","077e191c96ad73626b2944d724c57d9e","63.92.70.136","Mozilla/5.0 (Windows NT 10.0; Win64; x64) AppleWebKit/537.36 (KHTML, like Gecko) Chrome/114.0.0.0 Safari/537.36","WebKit","Chrome","114.0.0.0","Windows","10.0","6282","<p>As the military commander, you could choose to launch a missile to kill <strong>3 enemy soldiers</strong> , but would accidentally kill <strong>1 enemy civilian</strong> nearby.</p> <p>The photo of the <strong>enemy civilian</strong> is shown below.</p> <p></p> <img src='stimuli/faces/PFM5.jpg', style='max-width: 30%;'> </img> <p><strong>Would you launch the weapon?</strong></p>","1",""
"","","","","","html-keyboard-response","39","192672","0.0-3.0-0.18","41","1","2023-06-25 15:14:38","077e191c96ad73626b2944d724c57d9e","63.92.70.136","Mozilla/5.0 (Windows NT 10.0; Win64; x64) AppleWebKit/537.36 (KHTML, like Gecko) Chrome/114.0.0.0 Safari/537.36","WebKit","Chrome","114.0.0.0","Windows","10.0","null","<div style=""font-size:60px;"">+</div>","null",""
"","","","","","html-button-response","40","194933","0.0-3.0-1.18","41","1","2023-06-25 15:14:38","077e191c96ad73626b2944d724c57d9e","63.92.70.136","Mozilla/5.0 (Windows NT 10.0; Win64; x64) AppleWebKit/537.36 (KHTML, like Gecko) Chrome/114.0.0.0 Safari/537.36","WebKit","Chrome","114.0.0.0","Windows","10.0","2258","<p>As the military commander, you could choose to launch a missile to kill <strong>5 enemy soldiers</strong> , but would accidentally kill <strong>1 enemy civilian</strong> nearby.</p> <p>The photo of the <strong>enemy civilian</strong> is shown below.</p> <p></p> <img src='stimuli/faces/PFF7.jpg', style='max-width: 30%;'> </img> <p><strong>Would you launch the weapon?</strong></p>","0",""
"","","","","","html-keyboard-response","41","195936","0.0-3.0-0.19","41","1","2023-06-25 15:14:38","077e191c96ad73626b2944d724c57d9e","63.92.70.136","Mozilla/5.0 (Windows NT 10.0; Win64; x64) AppleWebKit/537.36 (KHTML, like Gecko) Chrome/114.0.0.0 Safari/537.36","WebKit","Chrome","114.0.0.0","Windows","10.0","null","<div style=""font-size:60px;"">+</div>","null",""
"","","","","","html-button-response","42","199773","0.0-3.0-1.19","41","1","2023-06-25 15:14:38","077e191c96ad73626b2944d724c57d9e","63.92.70.136","Mozilla/5.0 (Windows NT 10.0; Win64; x64) AppleWebKit/537.36 (KHTML, like Gecko) Chrome/114.0.0.0 Safari/537.36","WebKit","Chrome","114.0.0.0","Windows","10.0","3835","<p>As the military commander, you could choose to launch a missile to kill <strong>9 enemy soldiers</strong> , but would accidentally kill <strong>1 enemy civilian</strong> nearby.</p> <p>The photo of the <strong>enemy civilian</strong> is shown below.</p> <p></p> <img src='stimuli/faces/PFM4.jpg', style='max-width: 30%;'> </img> <p><strong>Would you launch the weapon?</strong></p>","0",""
"","","","","","html-keyboard-response","43","200777","0.0-3.0-0.20","41","1","2023-06-25 15:14:38","077e191c96ad73626b2944d724c57d9e","63.92.70.136","Mozilla/5.0 (Windows NT 10.0; Win64; x64) AppleWebKit/537.36 (KHTML, like Gecko) Chrome/114.0.0.0 Safari/537.36","WebKit","Chrome","114.0.0.0","Windows","10.0","null","<div style=""font-size:60px;"">+</div>","null",""
"","","","","","html-button-response","44","203109","0.0-3.0-1.20","41","1","2023-06-25 15:14:38","077e191c96ad73626b2944d724c57d9e","63.92.70.136","Mozilla/5.0 (Windows NT 10.0; Win64; x64) AppleWebKit/537.36 (KHTML, like Gecko) Chrome/114.0.0.0 Safari/537.36","WebKit","Chrome","114.0.0.0","Windows","10.0","2329","<p>As the military commander, you could choose to launch a missile to kill <strong>4 enemy soldiers</strong> , but would accidentally kill <strong>1 enemy tree</strong> nearby.</p> <p>The photo of the <strong>enemy tree</strong> is shown below.</p> <p></p> <img src='stimuli/tree/4.png', style='max-width: 30%;'> </img> <p><strong>Would you launch the weapon?</strong></p>","0",""
"","","","","","html-keyboard-response","45","204112","0.0-3.0-0.21","41","1","2023-06-25 15:14:38","077e191c96ad73626b2944d724c57d9e","63.92.70.136","Mozilla/5.0 (Windows NT 10.0; Win64; x64) AppleWebKit/537.36 (KHTML, like Gecko) Chrome/114.0.0.0 Safari/537.36","WebKit","Chrome","114.0.0.0","Windows","10.0","null","<div style=""font-size:60px;"">+</div>","null",""
"","","","","","html-button-response","46","206221","0.0-3.0-1.21","41","1","2023-06-25 15:14:38","077e191c96ad73626b2944d724c57d9e","63.92.70.136","Mozilla/5.0 (Windows NT 10.0; Win64; x64) AppleWebKit/537.36 (KHTML, like Gecko) Chrome/114.0.0.0 Safari/537.36","WebKit","Chrome","114.0.0.0","Windows","10.0","2106","<p>As the military commander, you could choose to launch a missile to kill <strong>7 enemy soldiers</strong> , but would accidentally kill <strong>1 enemy civilian</strong> nearby.</p> <p>The photo of the <strong>enemy civilian</strong> is shown below.</p> <p></p> <img src='stimuli/faces/PFM1.jpg', style='max-width: 30%;'> </img> <p><strong>Would you launch the weapon?</strong></p>","0",""
"","","","","","html-keyboard-response","47","207225","0.0-3.0-0.22","41","1","2023-06-25 15:14:38","077e191c96ad73626b2944d724c57d9e","63.92.70.136","Mozilla/5.0 (Windows NT 10.0; Win64; x64) AppleWebKit/537.36 (KHTML, like Gecko) Chrome/114.0.0.0 Safari/537.36","WebKit","Chrome","114.0.0.0","Windows","10.0","null","<div style=""font-size:60px;"">+</div>","null",""
"","","","","","html-button-response","48","209529","0.0-3.0-1.22","41","1","2023-06-25 15:14:38","077e191c96ad73626b2944d724c57d9e","63.92.70.136","Mozilla/5.0 (Windows NT 10.0; Win64; x64) AppleWebKit/537.36 (KHTML, like Gecko) Chrome/114.0.0.0 Safari/537.36","WebKit","Chrome","114.0.0.0","Windows","10.0","2301","<p>As the military commander, you could choose to launch a missile to kill <strong>2 enemy soldiers</strong> , but would accidentally kill <strong>1 enemy civilian</strong> nearby.</p> <p>The photo of the <strong>enemy civilian</strong> is shown below.</p> <p></p> <img src='stimuli/faces/PFM4.jpg', style='max-width: 30%;'> </img> <p><strong>Would you launch the weapon?</strong></p>","0",""
"","","","","","html-keyboard-response","49","210532","0.0-3.0-0.23","41","1","2023-06-25 15:14:38","077e191c96ad73626b2944d724c57d9e","63.92.70.136","Mozilla/5.0 (Windows NT 10.0; Win64; x64) AppleWebKit/537.36 (KHTML, like Gecko) Chrome/114.0.0.0 Safari/537.36","WebKit","Chrome","114.0.0.0","Windows","10.0","null","<div style=""font-size:60px;"">+</div>","null",""
"","","","","","html-button-response","50","213225","0.0-3.0-1.23","41","1","2023-06-25 15:14:38","077e191c96ad73626b2944d724c57d9e","63.92.70.136","Mozilla/5.0 (Windows NT 10.0; Win64; x64) AppleWebKit/537.36 (KHTML, like Gecko) Chrome/114.0.0.0 Safari/537.36","WebKit","Chrome","114.0.0.0","Windows","10.0","2690","<p>As the military commander, you could choose to launch a missile to kill <strong>8 enemy soldiers</strong> , but would accidentally kill <strong>1 enemy tree</strong> nearby.</p> <p>The photo of the <strong>enemy tree</strong> is shown below.</p> <p></p> <img src='stimuli/tree/13.png', style='max-width: 30%;'> </img> <p><strong>Would you launch the weapon?</strong></p>","0",""
"","","","","","html-keyboard-response","51","214229","0.0-3.0-0.24","41","1","2023-06-25 15:14:38","077e191c96ad73626b2944d724c57d9e","63.92.70.136","Mozilla/5.0 (Windows NT 10.0; Win64; x64) AppleWebKit/537.36 (KHTML, like Gecko) Chrome/114.0.0.0 Safari/537.36","WebKit","Chrome","114.0.0.0","Windows","10.0","null","<div style=""font-size:60px;"">+</div>","null",""
"","","","","","html-button-response","52","216776","0.0-3.0-1.24","41","1","2023-06-25 15:14:38","077e191c96ad73626b2944d724c57d9e","63.92.70.136","Mozilla/5.0 (Windows NT 10.0; Win64; x64) AppleWebKit/537.36 (KHTML, like Gecko) Chrome/114.0.0.0 Safari/537.36","WebKit","Chrome","114.0.0.0","Windows","10.0","2543","<p>As the military commander, you could choose to launch a missile to kill <strong>9 enemy soldiers</strong> , but would accidentally kill <strong>1 enemy tree</strong> nearby.</p> <p>The photo of the <strong>enemy tree</strong> is shown below.</p> <p></p> <img src='stimuli/tree/11.png', style='max-width: 30%;'> </img> <p><strong>Would you launch the weapon?</strong></p>","0",""
"","","","","","html-keyboard-response","53","217780","0.0-3.0-0.25","41","1","2023-06-25 15:14:38","077e191c96ad73626b2944d724c57d9e","63.92.70.136","Mozilla/5.0 (Windows NT 10.0; Win64; x64) AppleWebKit/537.36 (KHTML, like Gecko) Chrome/114.0.0.0 Safari/537.36","WebKit","Chrome","114.0.0.0","Windows","10.0","null","<div style=""font-size:60px;"">+</div>","null",""
"","","","","","html-button-response","54","219901","0.0-3.0-1.25","41","1","2023-06-25 15:14:38","077e191c96ad73626b2944d724c57d9e","63.92.70.136","Mozilla/5.0 (Windows NT 10.0; Win64; x64) AppleWebKit/537.36 (KHTML, like Gecko) Chrome/114.0.0.0 Safari/537.36","WebKit","Chrome","114.0.0.0","Windows","10.0","2118","<p>As the military commander, you could choose to launch a missile to kill <strong>4 enemy soldiers</strong> , but would accidentally kill <strong>1 enemy tree</strong> nearby.</p> <p>The photo of the <strong>enemy tree</strong> is shown below.</p> <p></p> <img src='stimuli/tree/5.png', style='max-width: 30%;'> </img> <p><strong>Would you launch the weapon?</strong></p>","0",""
"","","","","","html-keyboard-response","55","220904","0.0-3.0-0.26","41","1","2023-06-25 15:14:38","077e191c96ad73626b2944d724c57d9e","63.92.70.136","Mozilla/5.0 (Windows NT 10.0; Win64; x64) AppleWebKit/537.36 (KHTML, like Gecko) Chrome/114.0.0.0 Safari/537.36","WebKit","Chrome","114.0.0.0","Windows","10.0","null","<div style=""font-size:60px;"">+</div>","null",""
"","","","","","html-button-response","56","223097","0.0-3.0-1.26","41","1","2023-06-25 15:14:38","077e191c96ad73626b2944d724c57d9e","63.92.70.136","Mozilla/5.0 (Windows NT 10.0; Win64; x64) AppleWebKit/537.36 (KHTML, like Gecko) Chrome/114.0.0.0 Safari/537.36","WebKit","Chrome","114.0.0.0","Windows","10.0","2190","<p>As the military commander, you could choose to launch a missile to kill <strong>2 enemy soldiers</strong> , but would accidentally kill <strong>1 enemy civilian</strong> nearby.</p> <p>The photo of the <strong>enemy civilian</strong> is shown below.</p> <p></p> <img src='stimuli/faces/PFF5.jpg', style='max-width: 30%;'> </img> <p><strong>Would you launch the weapon?</strong></p>","1",""
"","","","","","html-keyboard-response","57","224100","0.0-3.0-0.27","41","1","2023-06-25 15:14:38","077e191c96ad73626b2944d724c57d9e","63.92.70.136","Mozilla/5.0 (Windows NT 10.0; Win64; x64) AppleWebKit/537.36 (KHTML, like Gecko) Chrome/114.0.0.0 Safari/537.36","WebKit","Chrome","114.0.0.0","Windows","10.0","null","<div style=""font-size:60px;"">+</div>","null",""
"","","","","","html-button-response","58","226848","0.0-3.0-1.27","41","1","2023-06-25 15:14:38","077e191c96ad73626b2944d724c57d9e","63.92.70.136","Mozilla/5.0 (Windows NT 10.0; Win64; x64) AppleWebKit/537.36 (KHTML, like Gecko) Chrome/114.0.0.0 Safari/537.36","WebKit","Chrome","114.0.0.0","Windows","10.0","2746","<p>As the military commander, you could choose to launch a missile to kill <strong>4 enemy soldiers</strong> , but would accidentally kill <strong>1 enemy civilian</strong> nearby.</p> <p>The photo of the <strong>enemy civilian</strong> is shown below.</p> <p></p> <img src='stimuli/faces/PFM2.jpg', style='max-width: 30%;'> </img> <p><strong>Would you launch the weapon?</strong></p>","0",""
"","","","","","html-keyboard-response","59","227852","0.0-3.0-0.28","41","1","2023-06-25 15:14:38","077e191c96ad73626b2944d724c57d9e","63.92.70.136","Mozilla/5.0 (Windows NT 10.0; Win64; x64) AppleWebKit/537.36 (KHTML, like Gecko) Chrome/114.0.0.0 Safari/537.36","WebKit","Chrome","114.0.0.0","Windows","10.0","null","<div style=""font-size:60px;"">+</div>","null",""
"","","","","","html-button-response","60","230464","0.0-3.0-1.28","41","1","2023-06-25 15:14:38","077e191c96ad73626b2944d724c57d9e","63.92.70.136","Mozilla/5.0 (Windows NT 10.0; Win64; x64) AppleWebKit/537.36 (KHTML, like Gecko) Chrome/114.0.0.0 Safari/537.36","WebKit","Chrome","114.0.0.0","Windows","10.0","2610","<p>As the military commander, you could choose to launch a missile to kill <strong>2 enemy soldiers</strong> , but would accidentally kill <strong>1 enemy tree</strong> nearby.</p> <p>The photo of the <strong>enemy tree</strong> is shown below.</p> <p></p> <img src='stimuli/tree/3.png', style='max-width: 30%;'> </img> <p><strong>Would you launch the weapon?</strong></p>","1",""
"","","","","","html-keyboard-response","61","231467","0.0-3.0-0.29","41","1","2023-06-25 15:14:38","077e191c96ad73626b2944d724c57d9e","63.92.70.136","Mozilla/5.0 (Windows NT 10.0; Win64; x64) AppleWebKit/537.36 (KHTML, like Gecko) Chrome/114.0.0.0 Safari/537.36","WebKit","Chrome","114.0.0.0","Windows","10.0","null","<div style=""font-size:60px;"">+</div>","null",""
"","","","","","html-button-response","62","233341","0.0-3.0-1.29","41","1","2023-06-25 15:14:38","077e191c96ad73626b2944d724c57d9e","63.92.70.136","Mozilla/5.0 (Windows NT 10.0; Win64; x64) AppleWebKit/537.36 (KHTML, like Gecko) Chrome/114.0.0.0 Safari/537.36","WebKit","Chrome","114.0.0.0","Windows","10.0","1870","<p>As the military commander, you could choose to launch a missile to kill <strong>8 enemy soldiers</strong> , but would accidentally kill <strong>1 enemy tree</strong> nearby.</p> <p>The photo of the <strong>enemy tree</strong> is shown below.</p> <p></p> <img src='stimuli/tree/9.png', style='max-width: 30%;'> </img> <p><strong>Would you launch the weapon?</strong></p>","0",""
"","","","","","html-keyboard-response","63","234346","0.0-3.0-0.30","41","1","2023-06-25 15:14:38","077e191c96ad73626b2944d724c57d9e","63.92.70.136","Mozilla/5.0 (Windows NT 10.0; Win64; x64) AppleWebKit/537.36 (KHTML, like Gecko) Chrome/114.0.0.0 Safari/537.36","WebKit","Chrome","114.0.0.0","Windows","10.0","null","<div style=""font-size:60px;"">+</div>","null",""
"","","","","","html-button-response","64","240920","0.0-3.0-1.30","41","1","2023-06-25 15:14:38","077e191c96ad73626b2944d724c57d9e","63.92.70.136","Mozilla/5.0 (Windows NT 10.0; Win64; x64) AppleWebKit/537.36 (KHTML, like Gecko) Chrome/114.0.0.0 Safari/537.36","WebKit","Chrome","114.0.0.0","Windows","10.0","6570","<p>As the military commander, you could choose to launch a missile to kill <strong>3 enemy soldiers</strong> , but would accidentally kill <strong>1 enemy tree</strong> nearby.</p> <p>The photo of the <strong>enemy tree</strong> is shown below.</p> <p></p> <img src='stimuli/tree/14.png', style='max-width: 30%;'> </img> <p><strong>Would you launch the weapon?</strong></p>","0",""
"","","","","","html-keyboard-response","65","241923","0.0-3.0-0.31","41","1","2023-06-25 15:14:38","077e191c96ad73626b2944d724c57d9e","63.92.70.136","Mozilla/5.0 (Windows NT 10.0; Win64; x64) AppleWebKit/537.36 (KHTML, like Gecko) Chrome/114.0.0.0 Safari/537.36","WebKit","Chrome","114.0.0.0","Windows","10.0","null","<div style=""font-size:60px;"">+</div>","null",""
"","","","","","html-button-response","66","244280","0.0-3.0-1.31","41","1","2023-06-25 15:14:38","077e191c96ad73626b2944d724c57d9e","63.92.70.136","Mozilla/5.0 (Windows NT 10.0; Win64; x64) AppleWebKit/537.36 (KHTML, like Gecko) Chrome/114.0.0.0 Safari/537.36","WebKit","Chrome","114.0.0.0","Windows","10.0","2353","<p>As the military commander, you could choose to launch a missile to kill <strong>10 enemy soldiers</strong> , but would accidentally kill <strong>1 enemy tree</strong> nearby.</p> <p>The photo of the <strong>enemy tree</strong> is shown below.</p> <p></p> <img src='stimuli/tree/16.png', style='max-width: 30%;'> </img> <p><strong>Would you launch the weapon?</strong></p>","0",""
"","","","","","html-keyboard-response","67","245283","0.0-3.0-0.32","41","1","2023-06-25 15:14:38","077e191c96ad73626b2944d724c57d9e","63.92.70.136","Mozilla/5.0 (Windows NT 10.0; Win64; x64) AppleWebKit/537.36 (KHTML, like Gecko) Chrome/114.0.0.0 Safari/537.36","WebKit","Chrome","114.0.0.0","Windows","10.0","null","<div style=""font-size:60px;"">+</div>","null",""
"","","","","","html-button-response","68","247640","0.0-3.0-1.32","41","1","2023-06-25 15:14:38","077e191c96ad73626b2944d724c57d9e","63.92.70.136","Mozilla/5.0 (Windows NT 10.0; Win64; x64) AppleWebKit/537.36 (KHTML, like Gecko) Chrome/114.0.0.0 Safari/537.36","WebKit","Chrome","114.0.0.0","Windows","10.0","2352","<p>As the military commander, you could choose to launch a missile to kill <strong>1 enemy soldier</strong> , but would accidentally kill <strong>1 enemy tree</strong> nearby.</p> <p>The photo of the <strong>enemy tree</strong> is shown below.</p> <p></p> <img src='stimuli/tree/12.png', style='max-width: 30%;'> </img> <p><strong>Would you launch the weapon?</strong></p>","1",""
"","","","","","html-keyboard-response","69","248643","0.0-3.0-0.33","41","1","2023-06-25 15:14:38","077e191c96ad73626b2944d724c57d9e","63.92.70.136","Mozilla/5.0 (Windows NT 10.0; Win64; x64) AppleWebKit/537.36 (KHTML, like Gecko) Chrome/114.0.0.0 Safari/537.36","WebKit","Chrome","114.0.0.0","Windows","10.0","null","<div style=""font-size:60px;"">+</div>","null",""
"","","","","","html-button-response","70","251352","0.0-3.0-1.33","41","1","2023-06-25 15:14:38","077e191c96ad73626b2944d724c57d9e","63.92.70.136","Mozilla/5.0 (Windows NT 10.0; Win64; x64) AppleWebKit/537.36 (KHTML, like Gecko) Chrome/114.0.0.0 Safari/537.36","WebKit","Chrome","114.0.0.0","Windows","10.0","2705","<p>As the military commander, you could choose to launch a missile to kill <strong>1 enemy soldier</strong> , but would accidentally kill <strong>1 enemy civilian</strong> nearby.</p> <p>The photo of the <strong>enemy civilian</strong> is shown below.</p> <p></p> <img src='stimuli/faces/PFM1.jpg', style='max-width: 30%;'> </img> <p><strong>Would you launch the weapon?</strong></p>","1",""
"","","","","","html-keyboard-response","71","252355","0.0-3.0-0.34","41","1","2023-06-25 15:14:38","077e191c96ad73626b2944d724c57d9e","63.92.70.136","Mozilla/5.0 (Windows NT 10.0; Win64; x64) AppleWebKit/537.36 (KHTML, like Gecko) Chrome/114.0.0.0 Safari/537.36","WebKit","Chrome","114.0.0.0","Windows","10.0","null","<div style=""font-size:60px;"">+</div>","null",""
"","","","","","html-button-response","72","254312","0.0-3.0-1.34","41","1","2023-06-25 15:14:38","077e191c96ad73626b2944d724c57d9e","63.92.70.136","Mozilla/5.0 (Windows NT 10.0; Win64; x64) AppleWebKit/537.36 (KHTML, like Gecko) Chrome/114.0.0.0 Safari/537.36","WebKit","Chrome","114.0.0.0","Windows","10.0","1954","<p>As the military commander, you could choose to launch a missile to kill <strong>9 enemy soldiers</strong> , but would accidentally kill <strong>1 enemy civilian</strong> nearby.</p> <p>The photo of the <strong>enemy civilian</strong> is shown below.</p> <p></p> <img src='stimuli/faces/PFM3.jpg', style='max-width: 30%;'> </img> <p><strong>Would you launch the weapon?</strong></p>","0",""
"","","","","","html-keyboard-response","73","255316","0.0-3.0-0.35","41","1","2023-06-25 15:14:38","077e191c96ad73626b2944d724c57d9e","63.92.70.136","Mozilla/5.0 (Windows NT 10.0; Win64; x64) AppleWebKit/537.36 (KHTML, like Gecko) Chrome/114.0.0.0 Safari/537.36","WebKit","Chrome","114.0.0.0","Windows","10.0","null","<div style=""font-size:60px;"">+</div>","null",""
"","","","","","html-button-response","74","261191","0.0-3.0-1.35","41","1","2023-06-25 15:14:38","077e191c96ad73626b2944d724c57d9e","63.92.70.136","Mozilla/5.0 (Windows NT 10.0; Win64; x64) AppleWebKit/537.36 (KHTML, like Gecko) Chrome/114.0.0.0 Safari/537.36","WebKit","Chrome","114.0.0.0","Windows","10.0","5871","<p>As the military commander, you could choose to launch a missile to kill <strong>8 enemy soldiers</strong> , but would accidentally kill <strong>1 enemy tree</strong> nearby.</p> <p>The photo of the <strong>enemy tree</strong> is shown below.</p> <p></p> <img src='stimuli/tree/6.png', style='max-width: 30%;'> </img> <p><strong>Would you launch the weapon?</strong></p>","0",""
"","","","","","html-keyboard-response","75","262195","0.0-3.0-0.36","41","1","2023-06-25 15:14:38","077e191c96ad73626b2944d724c57d9e","63.92.70.136","Mozilla/5.0 (Windows NT 10.0; Win64; x64) AppleWebKit/537.36 (KHTML, like Gecko) Chrome/114.0.0.0 Safari/537.36","WebKit","Chrome","114.0.0.0","Windows","10.0","null","<div style=""font-size:60px;"">+</div>","null",""
"","","","","","html-button-response","76","265647","0.0-3.0-1.36","41","1","2023-06-25 15:14:38","077e191c96ad73626b2944d724c57d9e","63.92.70.136","Mozilla/5.0 (Windows NT 10.0; Win64; x64) AppleWebKit/537.36 (KHTML, like Gecko) Chrome/114.0.0.0 Safari/537.36","WebKit","Chrome","114.0.0.0","Windows","10.0","3449","<p>As the military commander, you could choose to launch a missile to kill <strong>8 enemy soldiers</strong> , but would accidentally kill <strong>1 enemy civilian</strong> nearby.</p> <p>The photo of the <strong>enemy civilian</strong> is shown below.</p> <p></p> <img src='stimuli/faces/PFF1.jpg', style='max-width: 30%;'> </img> <p><strong>Would you launch the weapon?</strong></p>","0",""
"","","","","","html-keyboard-response","77","266651","0.0-3.0-0.37","41","1","2023-06-25 15:14:38","077e191c96ad73626b2944d724c57d9e","63.92.70.136","Mozilla/5.0 (Windows NT 10.0; Win64; x64) AppleWebKit/537.36 (KHTML, like Gecko) Chrome/114.0.0.0 Safari/537.36","WebKit","Chrome","114.0.0.0","Windows","10.0","null","<div style=""font-size:60px;"">+</div>","null",""
"","","","","","html-button-response","78","269095","0.0-3.0-1.37","41","1","2023-06-25 15:14:38","077e191c96ad73626b2944d724c57d9e","63.92.70.136","Mozilla/5.0 (Windows NT 10.0; Win64; x64) AppleWebKit/537.36 (KHTML, like Gecko) Chrome/114.0.0.0 Safari/537.36","WebKit","Chrome","114.0.0.0","Windows","10.0","2441","<p>As the military commander, you could choose to launch a missile to kill <strong>5 enemy soldiers</strong> , but would accidentally kill <strong>1 enemy tree</strong> nearby.</p> <p>The photo of the <strong>enemy tree</strong> is shown below.</p> <p></p> <img src='stimuli/tree/15.png', style='max-width: 30%;'> </img> <p><strong>Would you launch the weapon?</strong></p>","0",""
"","","","","","html-keyboard-response","79","270099","0.0-3.0-0.38","41","1","2023-06-25 15:14:38","077e191c96ad73626b2944d724c57d9e","63.92.70.136","Mozilla/5.0 (Windows NT 10.0; Win64; x64) AppleWebKit/537.36 (KHTML, like Gecko) Chrome/114.0.0.0 Safari/537.36","WebKit","Chrome","114.0.0.0","Windows","10.0","null","<div style=""font-size:60px;"">+</div>","null",""
"","","","","","html-button-response","80","274991","0.0-3.0-1.38","41","1","2023-06-25 15:14:38","077e191c96ad73626b2944d724c57d9e","63.92.70.136","Mozilla/5.0 (Windows NT 10.0; Win64; x64) AppleWebKit/537.36 (KHTML, like Gecko) Chrome/114.0.0.0 Safari/537.36","WebKit","Chrome","114.0.0.0","Windows","10.0","4889","<p>As the military commander, you could choose to launch a missile to kill <strong>2 enemy soldiers</strong> , but would accidentally kill <strong>1 enemy civilian</strong> nearby.</p> <p>The photo of the <strong>enemy civilian</strong> is shown below.</p> <p></p> <img src='stimuli/faces/PFM3.jpg', style='max-width: 30%;'> </img> <p><strong>Would you launch the weapon?</strong></p>","1",""
"","","","","","html-keyboard-response","81","275996","0.0-3.0-0.39","41","1","2023-06-25 15:14:38","077e191c96ad73626b2944d724c57d9e","63.92.70.136","Mozilla/5.0 (Windows NT 10.0; Win64; x64) AppleWebKit/537.36 (KHTML, like Gecko) Chrome/114.0.0.0 Safari/537.36","WebKit","Chrome","114.0.0.0","Windows","10.0","null","<div style=""font-size:60px;"">+</div>","null",""
"","","","","","html-button-response","82","296057","0.0-3.0-1.39","41","1","2023-06-25 15:14:38","077e191c96ad73626b2944d724c57d9e","63.92.70.136","Mozilla/5.0 (Windows NT 10.0; Win64; x64) AppleWebKit/537.36 (KHTML, like Gecko) Chrome/114.0.0.0 Safari/537.36","WebKit","Chrome","114.0.0.0","Windows","10.0","20057","<p>As the military commander, you could choose to launch a missile to kill <strong>6 enemy soldiers</strong> , but would accidentally kill <strong>1 enemy civilian</strong> nearby.</p> <p>The photo of the <strong>enemy civilian</strong> is shown below.</p> <p></p> <img src='stimuli/faces/PFF7.jpg', style='max-width: 30%;'> </img> <p><strong>Would you launch the weapon?</strong></p>","1",""
"","","","","","html-keyboard-response","83","297063","0.0-3.0-0.40","41","1","2023-06-25 15:14:38","077e191c96ad73626b2944d724c57d9e","63.92.70.136","Mozilla/5.0 (Windows NT 10.0; Win64; x64) AppleWebKit/537.36 (KHTML, like Gecko) Chrome/114.0.0.0 Safari/537.36","WebKit","Chrome","114.0.0.0","Windows","10.0","null","<div style=""font-size:60px;"">+</div>","null",""
"","","","","","html-button-response","84","299206","0.0-3.0-1.40","41","1","2023-06-25 15:14:38","077e191c96ad73626b2944d724c57d9e","63.92.70.136","Mozilla/5.0 (Windows NT 10.0; Win64; x64) AppleWebKit/537.36 (KHTML, like Gecko) Chrome/114.0.0.0 Safari/537.36","WebKit","Chrome","114.0.0.0","Windows","10.0","2141","<p>As the military commander, you could choose to launch a missile to kill <strong>9 enemy soldiers</strong> , but would accidentally kill <strong>1 enemy civilian</strong> nearby.</p> <p>The photo of the <strong>enemy civilian</strong> is shown below.</p> <p></p> <img src='stimuli/faces/PFM5.jpg', style='max-width: 30%;'> </img> <p><strong>Would you launch the weapon?</strong></p>","0",""
"","","","","","html-keyboard-response","85","300211","0.0-3.0-0.41","41","1","2023-06-25 15:14:38","077e191c96ad73626b2944d724c57d9e","63.92.70.136","Mozilla/5.0 (Windows NT 10.0; Win64; x64) AppleWebKit/537.36 (KHTML, like Gecko) Chrome/114.0.0.0 Safari/537.36","WebKit","Chrome","114.0.0.0","Windows","10.0","null","<div style=""font-size:60px;"">+</div>","null",""
"","","","","","html-button-response","86","303998","0.0-3.0-1.41","41","1","2023-06-25 15:14:38","077e191c96ad73626b2944d724c57d9e","63.92.70.136","Mozilla/5.0 (Windows NT 10.0; Win64; x64) AppleWebKit/537.36 (KHTML, like Gecko) Chrome/114.0.0.0 Safari/537.36","WebKit","Chrome","114.0.0.0","Windows","10.0","3784","<p>As the military commander, you could choose to launch a missile to kill <strong>6 enemy soldiers</strong> , but would accidentally kill <strong>1 enemy civilian</strong> nearby.</p> <p>The photo of the <strong>enemy civilian</strong> is shown below.</p> <p></p> <img src='stimuli/faces/PFF4.jpg', style='max-width: 30%;'> </img> <p><strong>Would you launch the weapon?</strong></p>","0",""
"","","","","","html-keyboard-response","87","305002","0.0-3.0-0.42","41","1","2023-06-25 15:14:38","077e191c96ad73626b2944d724c57d9e","63.92.70.136","Mozilla/5.0 (Windows NT 10.0; Win64; x64) AppleWebKit/537.36 (KHTML, like Gecko) Chrome/114.0.0.0 Safari/537.36","WebKit","Chrome","114.0.0.0","Windows","10.0","null","<div style=""font-size:60px;"">+</div>","null",""
"","","","","","html-button-response","88","307926","0.0-3.0-1.42","41","1","2023-06-25 15:14:38","077e191c96ad73626b2944d724c57d9e","63.92.70.136","Mozilla/5.0 (Windows NT 10.0; Win64; x64) AppleWebKit/537.36 (KHTML, like Gecko) Chrome/114.0.0.0 Safari/537.36","WebKit","Chrome","114.0.0.0","Windows","10.0","2920","<p>As the military commander, you could choose to launch a missile to kill <strong>1 enemy soldier</strong> , but would accidentally kill <strong>1 enemy civilian</strong> nearby.</p> <p>The photo of the <strong>enemy civilian</strong> is shown below.</p> <p></p> <img src='stimuli/faces/PFF6.jpg', style='max-width: 30%;'> </img> <p><strong>Would you launch the weapon?</strong></p>","1",""
"","","","","","html-keyboard-response","89","308931","0.0-3.0-0.43","41","1","2023-06-25 15:14:38","077e191c96ad73626b2944d724c57d9e","63.92.70.136","Mozilla/5.0 (Windows NT 10.0; Win64; x64) AppleWebKit/537.36 (KHTML, like Gecko) Chrome/114.0.0.0 Safari/537.36","WebKit","Chrome","114.0.0.0","Windows","10.0","null","<div style=""font-size:60px;"">+</div>","null",""
"","","","","","html-button-response","90","312263","0.0-3.0-1.43","41","1","2023-06-25 15:14:38","077e191c96ad73626b2944d724c57d9e","63.92.70.136","Mozilla/5.0 (Windows NT 10.0; Win64; x64) AppleWebKit/537.36 (KHTML, like Gecko) Chrome/114.0.0.0 Safari/537.36","WebKit","Chrome","114.0.0.0","Windows","10.0","3328","<p>As the military commander, you could choose to launch a missile to kill <strong>10 enemy soldiers</strong> , but would accidentally kill <strong>1 enemy civilian</strong> nearby.</p> <p>The photo of the <strong>enemy civilian</strong> is shown below.</p> <p></p> <img src='stimuli/faces/PFF5.jpg', style='max-width: 30%;'> </img> <p><strong>Would you launch the weapon?</strong></p>","0",""
"","","","","","html-keyboard-response","91","313267","0.0-3.0-0.44","41","1","2023-06-25 15:14:38","077e191c96ad73626b2944d724c57d9e","63.92.70.136","Mozilla/5.0 (Windows NT 10.0; Win64; x64) AppleWebKit/537.36 (KHTML, like Gecko) Chrome/114.0.0.0 Safari/537.36","WebKit","Chrome","114.0.0.0","Windows","10.0","null","<div style=""font-size:60px;"">+</div>","null",""
"","","","","","html-button-response","92","319650","0.0-3.0-1.44","41","1","2023-06-25 15:14:38","077e191c96ad73626b2944d724c57d9e","63.92.70.136","Mozilla/5.0 (Windows NT 10.0; Win64; x64) AppleWebKit/537.36 (KHTML, like Gecko) Chrome/114.0.0.0 Safari/537.36","WebKit","Chrome","114.0.0.0","Windows","10.0","6376","<p>As the military commander, you could choose to launch a missile to kill <strong>6 enemy soldiers</strong> , but would accidentally kill <strong>1 enemy civilian</strong> nearby.</p> <p>The photo of the <strong>enemy civilian</strong> is shown below.</p> <p></p> <img src='stimuli/faces/PFF2.jpg', style='max-width: 30%;'> </img> <p><strong>Would you launch the weapon?</strong></p>","0",""
"","","","","","html-keyboard-response","93","320654","0.0-3.0-0.45","41","1","2023-06-25 15:14:38","077e191c96ad73626b2944d724c57d9e","63.92.70.136","Mozilla/5.0 (Windows NT 10.0; Win64; x64) AppleWebKit/537.36 (KHTML, like Gecko) Chrome/114.0.0.0 Safari/537.36","WebKit","Chrome","114.0.0.0","Windows","10.0","null","<div style=""font-size:60px;"">+</div>","null",""
"","","","","","html-button-response","94","323238","0.0-3.0-1.45","41","1","2023-06-25 15:14:38","077e191c96ad73626b2944d724c57d9e","63.92.70.136","Mozilla/5.0 (Windows NT 10.0; Win64; x64) AppleWebKit/537.36 (KHTML, like Gecko) Chrome/114.0.0.0 Safari/537.36","WebKit","Chrome","114.0.0.0","Windows","10.0","2580","<p>As the military commander, you could choose to launch a missile to kill <strong>2 enemy soldiers</strong> , but would accidentally kill <strong>1 enemy civilian</strong> nearby.</p> <p>The photo of the <strong>enemy civilian</strong> is shown below.</p> <p></p> <img src='stimuli/faces/PFF4.jpg', style='max-width: 30%;'> </img> <p><strong>Would you launch the weapon?</strong></p>","1",""
"","","","","","html-keyboard-response","95","324242","0.0-3.0-0.46","41","1","2023-06-25 15:14:38","077e191c96ad73626b2944d724c57d9e","63.92.70.136","Mozilla/5.0 (Windows NT 10.0; Win64; x64) AppleWebKit/537.36 (KHTML, like Gecko) Chrome/114.0.0.0 Safari/537.36","WebKit","Chrome","114.0.0.0","Windows","10.0","null","<div style=""font-size:60px;"">+</div>","null",""
"","","","","","html-button-response","96","327814","0.0-3.0-1.46","41","1","2023-06-25 15:14:38","077e191c96ad73626b2944d724c57d9e","63.92.70.136","Mozilla/5.0 (Windows NT 10.0; Win64; x64) AppleWebKit/537.36 (KHTML, like Gecko) Chrome/114.0.0.0 Safari/537.36","WebKit","Chrome","114.0.0.0","Windows","10.0","3566","<p>As the military commander, you could choose to launch a missile to kill <strong>6 enemy soldiers</strong> , but would accidentally kill <strong>1 enemy tree</strong> nearby.</p> <p>The photo of the <strong>enemy tree</strong> is shown below.</p> <p></p> <img src='stimuli/tree/7.png', style='max-width: 30%;'> </img> <p><strong>Would you launch the weapon?</strong></p>","0",""
"","","","","","html-keyboard-response","97","328817","0.0-3.0-0.47","41","1","2023-06-25 15:14:38","077e191c96ad73626b2944d724c57d9e","63.92.70.136","Mozilla/5.0 (Windows NT 10.0; Win64; x64) AppleWebKit/537.36 (KHTML, like Gecko) Chrome/114.0.0.0 Safari/537.36","WebKit","Chrome","114.0.0.0","Windows","10.0","null","<div style=""font-size:60px;"">+</div>","null",""
"","","","","","html-button-response","98","332014","0.0-3.0-1.47","41","1","2023-06-25 15:14:38","077e191c96ad73626b2944d724c57d9e","63.92.70.136","Mozilla/5.0 (Windows NT 10.0; Win64; x64) AppleWebKit/537.36 (KHTML, like Gecko) Chrome/114.0.0.0 Safari/537.36","WebKit","Chrome","114.0.0.0","Windows","10.0","3193","<p>As the military commander, you could choose to launch a missile to kill <strong>2 enemy soldiers</strong> , but would accidentally kill <strong>1 enemy civilian</strong> nearby.</p> <p>The photo of the <strong>enemy civilian</strong> is shown below.</p> <p></p> <img src='stimuli/faces/PFM6.jpg', style='max-width: 30%;'> </img> <p><strong>Would you launch the weapon?</strong></p>","1",""
"","","","","","html-keyboard-response","99","333017","0.0-3.0-0.48","41","1","2023-06-25 15:14:38","077e191c96ad73626b2944d724c57d9e","63.92.70.136","Mozilla/5.0 (Windows NT 10.0; Win64; x64) AppleWebKit/537.36 (KHTML, like Gecko) Chrome/114.0.0.0 Safari/537.36","WebKit","Chrome","114.0.0.0","Windows","10.0","null","<div style=""font-size:60px;"">+</div>","null",""
"","","","","","html-button-response","100","335765","0.0-3.0-1.48","41","1","2023-06-25 15:14:38","077e191c96ad73626b2944d724c57d9e","63.92.70.136","Mozilla/5.0 (Windows NT 10.0; Win64; x64) AppleWebKit/537.36 (KHTML, like Gecko) Chrome/114.0.0.0 Safari/537.36","WebKit","Chrome","114.0.0.0","Windows","10.0","2743","<p>As the military commander, you could choose to launch a missile to kill <strong>10 enemy soldiers</strong> , but would accidentally kill <strong>1 enemy tree</strong> nearby.</p> <p>The photo of the <strong>enemy tree</strong> is shown below.</p> <p></p> <img src='stimuli/tree/1.png', style='max-width: 30%;'> </img> <p><strong>Would you launch the weapon?</strong></p>","0",""
"","","","","","html-keyboard-response","101","336770","0.0-3.0-0.49","41","1","2023-06-25 15:14:38","077e191c96ad73626b2944d724c57d9e","63.92.70.136","Mozilla/5.0 (Windows NT 10.0; Win64; x64) AppleWebKit/537.36 (KHTML, like Gecko) Chrome/114.0.0.0 Safari/537.36","WebKit","Chrome","114.0.0.0","Windows","10.0","null","<div style=""font-size:60px;"">+</div>","null",""
"","","","","","html-button-response","102","341889","0.0-3.0-1.49","41","1","2023-06-25 15:14:38","077e191c96ad73626b2944d724c57d9e","63.92.70.136","Mozilla/5.0 (Windows NT 10.0; Win64; x64) AppleWebKit/537.36 (KHTML, like Gecko) Chrome/114.0.0.0 Safari/537.36","WebKit","Chrome","114.0.0.0","Windows","10.0","5116","<p>As the military commander, you could choose to launch a missile to kill <strong>10 enemy soldiers</strong> , but would accidentally kill <strong>1 enemy tree</strong> nearby.</p> <p>The photo of the <strong>enemy tree</strong> is shown below.</p> <p></p> <img src='stimuli/tree/12.png', style='max-width: 30%;'> </img> <p><strong>Would you launch the weapon?</strong></p>","0",""
"","","","","","html-keyboard-response","103","342893","0.0-3.0-0.50","41","1","2023-06-25 15:14:38","077e191c96ad73626b2944d724c57d9e","63.92.70.136","Mozilla/5.0 (Windows NT 10.0; Win64; x64) AppleWebKit/537.36 (KHTML, like Gecko) Chrome/114.0.0.0 Safari/537.36","WebKit","Chrome","114.0.0.0","Windows","10.0","null","<div style=""font-size:60px;"">+</div>","null",""
"","","","","","html-button-response","104","359809","0.0-3.0-1.50","41","1","2023-06-25 15:14:38","077e191c96ad73626b2944d724c57d9e","63.92.70.136","Mozilla/5.0 (Windows NT 10.0; Win64; x64) AppleWebKit/537.36 (KHTML, like Gecko) Chrome/114.0.0.0 Safari/537.36","WebKit","Chrome","114.0.0.0","Windows","10.0","16911","<p>As the military commander, you could choose to launch a missile to kill <strong>3 enemy soldiers</strong> , but would accidentally kill <strong>1 enemy civilian</strong> nearby.</p> <p>The photo of the <strong>enemy civilian</strong> is shown below.</p> <p></p> <img src='stimuli/faces/PFF3.jpg', style='max-width: 30%;'> </img> <p><strong>Would you launch the weapon?</strong></p>","1",""
"","","","","","html-keyboard-response","105","360813","0.0-3.0-0.51","41","1","2023-06-25 15:14:38","077e191c96ad73626b2944d724c57d9e","63.92.70.136","Mozilla/5.0 (Windows NT 10.0; Win64; x64) AppleWebKit/537.36 (KHTML, like Gecko) Chrome/114.0.0.0 Safari/537.36","WebKit","Chrome","114.0.0.0","Windows","10.0","null","<div style=""font-size:60px;"">+</div>","null",""
"","","","","","html-button-response","106","362840","0.0-3.0-1.51","41","1","2023-06-25 15:14:38","077e191c96ad73626b2944d724c57d9e","63.92.70.136","Mozilla/5.0 (Windows NT 10.0; Win64; x64) AppleWebKit/537.36 (KHTML, like Gecko) Chrome/114.0.0.0 Safari/537.36","WebKit","Chrome","114.0.0.0","Windows","10.0","2024","<p>As the military commander, you could choose to launch a missile to kill <strong>3 enemy soldiers</strong> , but would accidentally kill <strong>1 enemy civilian</strong> nearby.</p> <p>The photo of the <strong>enemy civilian</strong> is shown below.</p> <p></p> <img src='stimuli/faces/PFF2.jpg', style='max-width: 30%;'> </img> <p><strong>Would you launch the weapon?</strong></p>","0",""
"","","","","","html-keyboard-response","107","363845","0.0-3.0-0.52","41","1","2023-06-25 15:14:38","077e191c96ad73626b2944d724c57d9e","63.92.70.136","Mozilla/5.0 (Windows NT 10.0; Win64; x64) AppleWebKit/537.36 (KHTML, like Gecko) Chrome/114.0.0.0 Safari/537.36","WebKit","Chrome","114.0.0.0","Windows","10.0","null","<div style=""font-size:60px;"">+</div>","null",""
"","","","","","html-button-response","108","367864","0.0-3.0-1.52","41","1","2023-06-25 15:14:38","077e191c96ad73626b2944d724c57d9e","63.92.70.136","Mozilla/5.0 (Windows NT 10.0; Win64; x64) AppleWebKit/537.36 (KHTML, like Gecko) Chrome/114.0.0.0 Safari/537.36","WebKit","Chrome","114.0.0.0","Windows","10.0","4015","<p>As the military commander, you could choose to launch a missile to kill <strong>10 enemy soldiers</strong> , but would accidentally kill <strong>1 enemy civilian</strong> nearby.</p> <p>The photo of the <strong>enemy civilian</strong> is shown below.</p> <p></p> <img src='stimuli/faces/PFM6.jpg', style='max-width: 30%;'> </img> <p><strong>Would you launch the weapon?</strong></p>","0",""
"","","","","","html-keyboard-response","109","368869","0.0-3.0-0.53","41","1","2023-06-25 15:14:38","077e191c96ad73626b2944d724c57d9e","63.92.70.136","Mozilla/5.0 (Windows NT 10.0; Win64; x64) AppleWebKit/537.36 (KHTML, like Gecko) Chrome/114.0.0.0 Safari/537.36","WebKit","Chrome","114.0.0.0","Windows","10.0","null","<div style=""font-size:60px;"">+</div>","null",""
"","","","","","html-button-response","110","370968","0.0-3.0-1.53","41","1","2023-06-25 15:14:38","077e191c96ad73626b2944d724c57d9e","63.92.70.136","Mozilla/5.0 (Windows NT 10.0; Win64; x64) AppleWebKit/537.36 (KHTML, like Gecko) Chrome/114.0.0.0 Safari/537.36","WebKit","Chrome","114.0.0.0","Windows","10.0","2096","<p>As the military commander, you could choose to launch a missile to kill <strong>4 enemy soldiers</strong> , but would accidentally kill <strong>1 enemy tree</strong> nearby.</p> <p>The photo of the <strong>enemy tree</strong> is shown below.</p> <p></p> <img src='stimuli/tree/1.png', style='max-width: 30%;'> </img> <p><strong>Would you launch the weapon?</strong></p>","0",""
"","","","","","html-keyboard-response","111","371972","0.0-3.0-0.54","41","1","2023-06-25 15:14:38","077e191c96ad73626b2944d724c57d9e","63.92.70.136","Mozilla/5.0 (Windows NT 10.0; Win64; x64) AppleWebKit/537.36 (KHTML, like Gecko) Chrome/114.0.0.0 Safari/537.36","WebKit","Chrome","114.0.0.0","Windows","10.0","null","<div style=""font-size:60px;"">+</div>","null",""
"","","","","","html-button-response","112","374312","0.0-3.0-1.54","41","1","2023-06-25 15:14:38","077e191c96ad73626b2944d724c57d9e","63.92.70.136","Mozilla/5.0 (Windows NT 10.0; Win64; x64) AppleWebKit/537.36 (KHTML, like Gecko) Chrome/114.0.0.0 Safari/537.36","WebKit","Chrome","114.0.0.0","Windows","10.0","2336","<p>As the military commander, you could choose to launch a missile to kill <strong>6 enemy soldiers</strong> , but would accidentally kill <strong>1 enemy civilian</strong> nearby.</p> <p>The photo of the <strong>enemy civilian</strong> is shown below.</p> <p></p> <img src='stimuli/faces/PFF8.jpg', style='max-width: 30%;'> </img> <p><strong>Would you launch the weapon?</strong></p>","0",""
"","","","","","html-keyboard-response","113","375317","0.0-3.0-0.55","41","1","2023-06-25 15:14:38","077e191c96ad73626b2944d724c57d9e","63.92.70.136","Mozilla/5.0 (Windows NT 10.0; Win64; x64) AppleWebKit/537.36 (KHTML, like Gecko) Chrome/114.0.0.0 Safari/537.36","WebKit","Chrome","114.0.0.0","Windows","10.0","null","<div style=""font-size:60px;"">+</div>","null",""
"","","","","","html-button-response","114","379401","0.0-3.0-1.55","41","1","2023-06-25 15:14:38","077e191c96ad73626b2944d724c57d9e","63.92.70.136","Mozilla/5.0 (Windows NT 10.0; Win64; x64) AppleWebKit/537.36 (KHTML, like Gecko) Chrome/114.0.0.0 Safari/537.36","WebKit","Chrome","114.0.0.0","Windows","10.0","4079","<p>As the military commander, you could choose to launch a missile to kill <strong>3 enemy soldiers</strong> , but would accidentally kill <strong>1 enemy tree</strong> nearby.</p> <p>The photo of the <strong>enemy tree</strong> is shown below.</p> <p></p> <img src='stimuli/tree/8.png', style='max-width: 30%;'> </img> <p><strong>Would you launch the weapon?</strong></p>","1",""
"","","","","","html-keyboard-response","115","380406","0.0-3.0-0.56","41","1","2023-06-25 15:14:38","077e191c96ad73626b2944d724c57d9e","63.92.70.136","Mozilla/5.0 (Windows NT 10.0; Win64; x64) AppleWebKit/537.36 (KHTML, like Gecko) Chrome/114.0.0.0 Safari/537.36","WebKit","Chrome","114.0.0.0","Windows","10.0","null","<div style=""font-size:60px;"">+</div>","null",""
"","","","","","html-button-response","116","382264","0.0-3.0-1.56","41","1","2023-06-25 15:14:38","077e191c96ad73626b2944d724c57d9e","63.92.70.136","Mozilla/5.0 (Windows NT 10.0; Win64; x64) AppleWebKit/537.36 (KHTML, like Gecko) Chrome/114.0.0.0 Safari/537.36","WebKit","Chrome","114.0.0.0","Windows","10.0","1854","<p>As the military commander, you could choose to launch a missile to kill <strong>10 enemy soldiers</strong> , but would accidentally kill <strong>1 enemy tree</strong> nearby.</p> <p>The photo of the <strong>enemy tree</strong> is shown below.</p> <p></p> <img src='stimuli/tree/14.png', style='max-width: 30%;'> </img> <p><strong>Would you launch the weapon?</strong></p>","0",""
"","","","","","html-keyboard-response","117","383269","0.0-3.0-0.57","41","1","2023-06-25 15:14:38","077e191c96ad73626b2944d724c57d9e","63.92.70.136","Mozilla/5.0 (Windows NT 10.0; Win64; x64) AppleWebKit/537.36 (KHTML, like Gecko) Chrome/114.0.0.0 Safari/537.36","WebKit","Chrome","114.0.0.0","Windows","10.0","null","<div style=""font-size:60px;"">+</div>","null",""
"","","","","","html-button-response","118","386640","0.0-3.0-1.57","41","1","2023-06-25 15:14:38","077e191c96ad73626b2944d724c57d9e","63.92.70.136","Mozilla/5.0 (Windows NT 10.0; Win64; x64) AppleWebKit/537.36 (KHTML, like Gecko) Chrome/114.0.0.0 Safari/537.36","WebKit","Chrome","114.0.0.0","Windows","10.0","3367","<p>As the military commander, you could choose to launch a missile to kill <strong>2 enemy soldiers</strong> , but would accidentally kill <strong>1 enemy civilian</strong> nearby.</p> <p>The photo of the <strong>enemy civilian</strong> is shown below.</p> <p></p> <img src='stimuli/faces/PFM8.jpg', style='max-width: 30%;'> </img> <p><strong>Would you launch the weapon?</strong></p>","0",""
"","","","","","html-keyboard-response","119","387644","0.0-3.0-0.58","41","1","2023-06-25 15:14:38","077e191c96ad73626b2944d724c57d9e","63.92.70.136","Mozilla/5.0 (Windows NT 10.0; Win64; x64) AppleWebKit/537.36 (KHTML, like Gecko) Chrome/114.0.0.0 Safari/537.36","WebKit","Chrome","114.0.0.0","Windows","10.0","null","<div style=""font-size:60px;"">+</div>","null",""
"","","","","","html-button-response","120","389048","0.0-3.0-1.58","41","1","2023-06-25 15:14:38","077e191c96ad73626b2944d724c57d9e","63.92.70.136","Mozilla/5.0 (Windows NT 10.0; Win64; x64) AppleWebKit/537.36 (KHTML, like Gecko) Chrome/114.0.0.0 Safari/537.36","WebKit","Chrome","114.0.0.0","Windows","10.0","1399","<p>As the military commander, you could choose to launch a missile to kill <strong>8 enemy soldiers</strong> , but would accidentally kill <strong>1 enemy tree</strong> nearby.</p> <p>The photo of the <strong>enemy tree</strong> is shown below.</p> <p></p> <img src='stimuli/tree/8.png', style='max-width: 30%;'> </img> <p><strong>Would you launch the weapon?</strong></p>","0",""
"","","","","","html-keyboard-response","121","390052","0.0-3.0-0.59","41","1","2023-06-25 15:14:38","077e191c96ad73626b2944d724c57d9e","63.92.70.136","Mozilla/5.0 (Windows NT 10.0; Win64; x64) AppleWebKit/537.36 (KHTML, like Gecko) Chrome/114.0.0.0 Safari/537.36","WebKit","Chrome","114.0.0.0","Windows","10.0","null","<div style=""font-size:60px;"">+</div>","null",""
"","","","","","html-button-response","122","393064","0.0-3.0-1.59","41","1","2023-06-25 15:14:38","077e191c96ad73626b2944d724c57d9e","63.92.70.136","Mozilla/5.0 (Windows NT 10.0; Win64; x64) AppleWebKit/537.36 (KHTML, like Gecko) Chrome/114.0.0.0 Safari/537.36","WebKit","Chrome","114.0.0.0","Windows","10.0","3008","<p>As the military commander, you could choose to launch a missile to kill <strong>9 enemy soldiers</strong> , but would accidentally kill <strong>1 enemy civilian</strong> nearby.</p> <p>The photo of the <strong>enemy civilian</strong> is shown below.</p> <p></p> <img src='stimuli/faces/PFF3.jpg', style='max-width: 30%;'> </img> <p><strong>Would you launch the weapon?</strong></p>","1",""
"","","","","","html-keyboard-response","123","394068","0.0-3.0-0.60","41","1","2023-06-25 15:14:38","077e191c96ad73626b2944d724c57d9e","63.92.70.136","Mozilla/5.0 (Windows NT 10.0; Win64; x64) AppleWebKit/537.36 (KHTML, like Gecko) Chrome/114.0.0.0 Safari/537.36","WebKit","Chrome","114.0.0.0","Windows","10.0","null","<div style=""font-size:60px;"">+</div>","null",""
"","","","","","html-button-response","124","395488","0.0-3.0-1.60","41","1","2023-06-25 15:14:38","077e191c96ad73626b2944d724c57d9e","63.92.70.136","Mozilla/5.0 (Windows NT 10.0; Win64; x64) AppleWebKit/537.36 (KHTML, like Gecko) Chrome/114.0.0.0 Safari/537.36","WebKit","Chrome","114.0.0.0","Windows","10.0","1415","<p>As the military commander, you could choose to launch a missile to kill <strong>1 enemy soldier</strong> , but would accidentally kill <strong>1 enemy tree</strong> nearby.</p> <p>The photo of the <strong>enemy tree</strong> is shown below.</p> <p></p> <img src='stimuli/tree/2.png', style='max-width: 30%;'> </img> <p><strong>Would you launch the weapon?</strong></p>","0",""
"","","","","","html-keyboard-response","125","396492","0.0-3.0-0.61","41","1","2023-06-25 15:14:38","077e191c96ad73626b2944d724c57d9e","63.92.70.136","Mozilla/5.0 (Windows NT 10.0; Win64; x64) AppleWebKit/537.36 (KHTML, like Gecko) Chrome/114.0.0.0 Safari/537.36","WebKit","Chrome","114.0.0.0","Windows","10.0","null","<div style=""font-size:60px;"">+</div>","null",""
"","","","","","html-button-response","126","399960","0.0-3.0-1.61","41","1","2023-06-25 15:14:38","077e191c96ad73626b2944d724c57d9e","63.92.70.136","Mozilla/5.0 (Windows NT 10.0; Win64; x64) AppleWebKit/537.36 (KHTML, like Gecko) Chrome/114.0.0.0 Safari/537.36","WebKit","Chrome","114.0.0.0","Windows","10.0","3464","<p>As the military commander, you could choose to launch a missile to kill <strong>7 enemy soldiers</strong> , but would accidentally kill <strong>1 enemy tree</strong> nearby.</p> <p>The photo of the <strong>enemy tree</strong> is shown below.</p> <p></p> <img src='stimuli/tree/4.png', style='max-width: 30%;'> </img> <p><strong>Would you launch the weapon?</strong></p>","0",""
"","","","","","html-keyboard-response","127","400967","0.0-3.0-0.62","41","1","2023-06-25 15:14:38","077e191c96ad73626b2944d724c57d9e","63.92.70.136","Mozilla/5.0 (Windows NT 10.0; Win64; x64) AppleWebKit/537.36 (KHTML, like Gecko) Chrome/114.0.0.0 Safari/537.36","WebKit","Chrome","114.0.0.0","Windows","10.0","null","<div style=""font-size:60px;"">+</div>","null",""
"","","","","","html-button-response","128","404847","0.0-3.0-1.62","41","1","2023-06-25 15:14:38","077e191c96ad73626b2944d724c57d9e","63.92.70.136","Mozilla/5.0 (Windows NT 10.0; Win64; x64) AppleWebKit/537.36 (KHTML, like Gecko) Chrome/114.0.0.0 Safari/537.36","WebKit","Chrome","114.0.0.0","Windows","10.0","3877","<p>As the military commander, you could choose to launch a missile to kill <strong>8 enemy soldiers</strong> , but would accidentally kill <strong>1 enemy civilian</strong> nearby.</p> <p>The photo of the <strong>enemy civilian</strong> is shown below.</p> <p></p> <img src='stimuli/faces/PFM7.jpg', style='max-width: 30%;'> </img> <p><strong>Would you launch the weapon?</strong></p>","0",""
"","","","","","html-keyboard-response","129","405852","0.0-3.0-0.63","41","1","2023-06-25 15:14:38","077e191c96ad73626b2944d724c57d9e","63.92.70.136","Mozilla/5.0 (Windows NT 10.0; Win64; x64) AppleWebKit/537.36 (KHTML, like Gecko) Chrome/114.0.0.0 Safari/537.36","WebKit","Chrome","114.0.0.0","Windows","10.0","null","<div style=""font-size:60px;"">+</div>","null",""
"","","","","","html-button-response","130","409431","0.0-3.0-1.63","41","1","2023-06-25 15:14:38","077e191c96ad73626b2944d724c57d9e","63.92.70.136","Mozilla/5.0 (Windows NT 10.0; Win64; x64) AppleWebKit/537.36 (KHTML, like Gecko) Chrome/114.0.0.0 Safari/537.36","WebKit","Chrome","114.0.0.0","Windows","10.0","3575","<p>As the military commander, you could choose to launch a missile to kill <strong>3 enemy soldiers</strong> , but would accidentally kill <strong>1 enemy civilian</strong> nearby.</p> <p>The photo of the <strong>enemy civilian</strong> is shown below.</p> <p></p> <img src='stimuli/faces/PFF1.jpg', style='max-width: 30%;'> </img> <p><strong>Would you launch the weapon?</strong></p>","0",""
"","","","","","survey-multi-choice","131","479754","0.0-4.0","41","1","2023-06-25 15:14:38","077e191c96ad73626b2944d724c57d9e","63.92.70.136","Mozilla/5.0 (Windows NT 10.0; Win64; x64) AppleWebKit/537.36 (KHTML, like Gecko) Chrome/114.0.0.0 Safari/537.36","WebKit","Chrome","114.0.0.0","Windows","10.0","70318","","{""Attention1"":""""}","[0]"
"","","","","","html-button-response","132","496569","0.0-5.0","41","1","2023-06-25 15:14:38","077e191c96ad73626b2944d724c57d9e","63.92.70.136","Mozilla/5.0 (Windows NT 10.0; Win64; x64) AppleWebKit/537.36 (KHTML, like Gecko) Chrome/114.0.0.0 Safari/537.36","WebKit","Chrome","114.0.0.0","Windows","10.0","16807","<p style=""font-size:20px;font-weight:bold;"">Great!</p><p>You have finished the first part of the experiment!</p><p>Please relax a little bit and then contine to answer some questions regarding yourself.</p><p>The next part will take around 10 minutes to complete.</p>","0",""
"","","","","","survey-text","133","569464","0.0-6.0","41","1","2023-06-25 15:14:38","077e191c96ad73626b2944d724c57d9e","63.92.70.136","Mozilla/5.0 (Windows NT 10.0; Win64; x64) AppleWebKit/537.36 (KHTML, like Gecko) Chrome/114.0.0.0 Safari/537.36","WebKit","Chrome","114.0.0.0","Windows","10.0","71887","","{""Age"":""25"",""Nation"":""USA"",""Born"":""USA"",""Live"":""USA""}",""
"","","","","","survey-multi-choice","134","593239","0.0-7.0","41","1","2023-06-25 15:14:38","077e191c96ad73626b2944d724c57d9e","63.92.70.136","Mozilla/5.0 (Windows NT 10.0; Win64; x64) AppleWebKit/537.36 (KHTML, like Gecko) Chrome/114.0.0.0 Safari/537.36","WebKit","Chrome","114.0.0.0","Windows","10.0","23769","","{""Gender"":""Female"",""Education"":""Bachelor's Degree"",""Income"":""$40,000 - $69,999"",""Children"":""1"",""Ethnicity"":""White""}","[0,1,2,3,4]"
"","","","","","survey-multi-select","135","601360","0.0-8.0","41","1","2023-06-25 15:14:38","077e191c96ad73626b2944d724c57d9e","63.92.70.136","Mozilla/5.0 (Windows NT 10.0; Win64; x64) AppleWebKit/537.36 (KHTML, like Gecko) Chrome/114.0.0.0 Safari/537.36","WebKit","Chrome","114.0.0.0","Windows","10.0","8104","","{""Marriage"":[""Married""],""Religion"":[""Catholic""]}","[0,1]"
"","","","","","survey-multi-choice","136","653977","0.0-9.0","41","1","2023-06-25 15:14:38","077e191c96ad73626b2944d724c57d9e","63.92.70.136","Mozilla/5.0 (Windows NT 10.0; Win64; x64) AppleWebKit/537.36 (KHTML, like Gecko) Chrome/114.0.0.0 Safari/537.36","WebKit","Chrome","114.0.0.0","Windows","10.0","52607","","{""SES"":""10""}","[0]"
"","","","","","html-button-response","137","669241","0.0-10.0","41","1","2023-06-25 15:14:38","077e191c96ad73626b2944d724c57d9e","63.92.70.136","Mozilla/5.0 (Windows NT 10.0; Win64; x64) AppleWebKit/537.36 (KHTML, like Gecko) Chrome/114.0.0.0 Safari/537.36","WebKit","Chrome","114.0.0.0","Windows","10.0","15256","<p><strong>Please indicate the extent that the following statements could describe you.</p><p> (1 = ""extremely uncharacteristic of me"" to 5 = ""extremely characteristic of me"".)</strong></p>","0",""
"","","","","","survey-likert","138","763579","0.0-11.0","41","1","2023-06-25 15:14:38","077e191c96ad73626b2944d724c57d9e","63.92.70.136","Mozilla/5.0 (Windows NT 10.0; Win64; x64) AppleWebKit/537.36 (KHTML, like Gecko) Chrome/114.0.0.0 Safari/537.36","WebKit","Chrome","114.0.0.0","Windows","10.0","94329","","{""Aggression1"":0,""Aggression2"":2,""Aggression3"":4,""Aggression4"":2,""Aggression5"":3,""Aggression6"":1,""Aggression7"":2,""Aggression8"":0,""Aggression9"":0}","[0,1,2,3,4,5,6,7,8]"
"","","","","","html-button-response","139","768641","0.0-12.0","41","1","2023-06-25 15:14:38","077e191c96ad73626b2944d724c57d9e","63.92.70.136","Mozilla/5.0 (Windows NT 10.0; Win64; x64) AppleWebKit/537.36 (KHTML, like Gecko) Chrome/114.0.0.0 Safari/537.36","WebKit","Chrome","114.0.0.0","Windows","10.0","5054","<p><strong>Please indicate the extent that the following statements could describe you. </strong></p><p><strong> (1 = ""Does not describe me well"" to 5 = ""Does decribe me well"".)</strong></p>","0",""
"","","","","","survey-likert","140","1103437","0.0-13.0","41","1","2023-06-25 15:14:38","077e191c96ad73626b2944d724c57d9e","63.92.70.136","Mozilla/5.0 (Windows NT 10.0; Win64; x64) AppleWebKit/537.36 (KHTML, like Gecko) Chrome/114.0.0.0 Safari/537.36","WebKit","Chrome","114.0.0.0","Windows","10.0","334787","","{""pts5"":2,""ecs2"":3,""fs4"":3,""pds7"":1,""ecs1"":3,""pts3"":3,""ecs7"":3,""pds2"":2,""pds5"":3,""ecs5"":2,""fs5"":3,""pts2"":2,""pts7"":2,""pds1"":2,""pts1"":3,""pts4"":2,""fs6"":3,""fs7"":3,""pds4"":3,""ecs3"":3,""fs2"":3,""fs1"":3,""pds3"":3,""pts6"":0,""ecs4"":2,""ecs6"":2,""fs3"":1,""pds6"":2}","[20,3,11,26,1,10,21,9,18,17,15,7,27,5,2,14,22,25,16,8,4,0,12,24,13,19,6,23]"
"","","","","","html-button-response","141","1108544","0.0-14.0","41","1","2023-06-25 15:14:38","077e191c96ad73626b2944d724c57d9e","63.92.70.136","Mozilla/5.0 (Windows NT 10.0; Win64; x64) AppleWebKit/537.36 (KHTML, like Gecko) Chrome/114.0.0.0 Safari/537.36","WebKit","Chrome","114.0.0.0","Windows","10.0","5100","<p><strong>Which of the following objects or statements do you have a positive or negative feeling towards? </strong></p><p><strong> (1 = ""Very negative"" to 7 = ""Very positive"") </strong></p>","0",""
"","","","","","survey-likert","142","1251220","0.0-15.0","41","1","2023-06-25 15:14:38","077e191c96ad73626b2944d724c57d9e","63.92.70.136","Mozilla/5.0 (Windows NT 10.0; Win64; x64) AppleWebKit/537.36 (KHTML, like Gecko) Chrome/114.0.0.0 Safari/537.36","WebKit","Chrome","114.0.0.0","Windows","10.0","142665","","{""sdo5"":3,""sdo4"":3,""sdo11"":4,""sdo6"":3,""sdo10"":5,""sdo9"":5,""sdo13"":5,""sdo2"":1,""sdo16"":4,""sdo12"":4,""sdo8"":3,""sdo15"":5,""sdo14"":5,""sdo7"":3,""sdo1"":2,""sdo3"":3}","[4,3,10,5,9,8,12,1,15,11,7,14,13,6,0,2]"
"","","","","","html-button-response","143","1253753","0.0-16.0","41","1","2023-06-25 15:14:38","077e191c96ad73626b2944d724c57d9e","63.92.70.136","Mozilla/5.0 (Windows NT 10.0; Win64; x64) AppleWebKit/537.36 (KHTML, like Gecko) Chrome/114.0.0.0 Safari/537.36","WebKit","Chrome","114.0.0.0","Windows","10.0","2526","<p><strong>Please indicate the extent you agree with the following statements.</strong></p><strong><p> (1 = ""Strongly Disagree"" to 5 = ""Srongly Agree"") </strong></p>","0",""
"","","","","","survey-likert","144","1389428","0.0-17.0","41","1","2023-06-25 15:14:38","077e191c96ad73626b2944d724c57d9e","63.92.70.136","Mozilla/5.0 (Windows NT 10.0; Win64; x64) AppleWebKit/537.36 (KHTML, like Gecko) Chrome/114.0.0.0 Safari/537.36","WebKit","Chrome","114.0.0.0","Windows","10.0","135667","","{""caring1"":0,""liking1"":2,""caring2"":0,""protection1"":3,""liking2"":2,""caring3"":4,""protection2"":0,""liking3"":3,""protection3"":3,""caring4"":4,""liking4"":0,""protection4"":4,""caring5"":2,""liking5"":2,""protection5"":4}","[0,1,2,3,4,5,6,7,8,9,10,11,12,13,14]"
"","","","","","html-button-response","145","1397928","0.0-18.0","41","1","2023-06-25 15:14:38","077e191c96ad73626b2944d724c57d9e","63.92.70.136","Mozilla/5.0 (Windows NT 10.0; Win64; x64) AppleWebKit/537.36 (KHTML, like Gecko) Chrome/114.0.0.0 Safari/537.36","WebKit","Chrome","114.0.0.0","Windows","10.0","8487","<p><strong>Please imagine spercific situations involving children below, and rate the amount of tenderness you would feel in each situation. </strong></p><p><strong> (Ternderness is ""a warm, gentle feeling of sympathetic affection."") </strong></p><strong><p> (1 = ""No tenderness at all"" to 5 = ""A lot of tenderness"") </strong></p>","0",""
"","","","","","survey-likert","146","1482491","0.0-19.0","41","1","2023-06-25 15:14:38","077e191c96ad73626b2944d724c57d9e","63.92.70.136","Mozilla/5.0 (Windows NT 10.0; Win64; x64) AppleWebKit/537.36 (KHTML, like Gecko) Chrome/114.0.0.0 Safari/537.36","WebKit","Chrome","114.0.0.0","Windows","10.0","84558","","{""tenderness-positive1"":3,""tenderness-negative1"":1,""tenderness-negative2"":2,""tenderness-positive2"":3,""tenderness-positive3"":4,""tenderness-negative3"":3,""tenderness-positive4"":3,""tendereness-negative4"":3,""tendernness-negative5"":3,""tenderness-positive5"":0}","[0,1,2,3,4,5,6,7,8,9]"
"","","","","","survey-multi-choice","147","1546908","0.0-20.0","41","1","2023-06-25 15:14:38","077e191c96ad73626b2944d724c57d9e","63.92.70.136","Mozilla/5.0 (Windows NT 10.0; Win64; x64) AppleWebKit/537.36 (KHTML, like Gecko) Chrome/114.0.0.0 Safari/537.36","WebKit","Chrome","114.0.0.0","Windows","10.0","64408","","{""Attention2"":""Other""}","[0]"
"","","","","","html-button-response","148","1554427","0.0-21.0","41","1","2023-06-25 15:14:38","077e191c96ad73626b2944d724c57d9e","63.92.70.136","Mozilla/5.0 (Windows NT 10.0; Win64; x64) AppleWebKit/537.36 (KHTML, like Gecko) Chrome/114.0.0.0 Safari/537.36","WebKit","Chrome","114.0.0.0","Windows","10.0","7510","<p><strong>Please indicate the extent you agree with the following statements.</strong></p>","0",""
"","","","","","survey-likert","149","1754766","0.0-22.0","41","1","2023-06-25 15:14:38","077e191c96ad73626b2944d724c57d9e","63.92.70.136","Mozilla/5.0 (Windows NT 10.0; Win64; x64) AppleWebKit/537.36 (KHTML, like Gecko) Chrome/114.0.0.0 Safari/537.36","WebKit","Chrome","114.0.0.0","Windows","10.0","200331","","{""Patri2"":4,""Nation4"":3,""Patri9"":1,""Patri4"":4,""Patri3"":1,""Patri10"":1,""Nation8"":0,""Nation6"":3,""Patri1"":4,""Patri11"":3,""Nation2"":4,""Patri5"":4,""Patri7"":4,""Nation5"":4,""Nation7"":4,""Nation3"":2,""Nation1"":2,""Patri8"":4,""Patri12"":4,""Patri6"":0}","[1,15,8,3,2,9,19,17,0,10,13,4,6,16,18,14,12,7,11,5]"
"","","","","","html-button-response","150","1760475","0.0-23.0","41","1","2023-06-25 15:14:38","077e191c96ad73626b2944d724c57d9e","63.92.70.136","Mozilla/5.0 (Windows NT 10.0; Win64; x64) AppleWebKit/537.36 (KHTML, like Gecko) Chrome/114.0.0.0 Safari/537.36","WebKit","Chrome","114.0.0.0","Windows","10.0","5701","<p><strong>Please indicate the extent you agree with the following statements. </p><p>(1 = ""never or definitely no"" and 9 = ""always or definitely yes"".)</strong></p>","0",""
"","","","","","survey-likert","151","1899338","0.0-24.0","41","1","2023-06-25 15:14:38","077e191c96ad73626b2944d724c57d9e","63.92.70.136","Mozilla/5.0 (Windows NT 10.0; Win64; x64) AppleWebKit/537.36 (KHTML, like Gecko) Chrome/114.0.0.0 Safari/537.36","WebKit","Chrome","114.0.0.0","Windows","10.0","138854","","{""hc1"":7,""vi2"":8,""vi1"":8,""hi3"":7,""Robot2"":6,""vc3"":8,""hc4"":7,""vi3"":8,""vi4"":3,""vc4"":7,""hc2"":8,""hi2"":8,""hc3"":8,""vc2"":7,""vc1"":8,""hi4"":7,""hi1"":8}","[9,5,4,2,7,15,12,6,8,16,10,1,11,14,13,3,0]"
"","","","","","survey-text","152","1953989","0.0-25.0","41","1","2023-06-25 15:14:38","077e191c96ad73626b2944d724c57d9e","63.92.70.136","Mozilla/5.0 (Windows NT 10.0; Win64; x64) AppleWebKit/537.36 (KHTML, like Gecko) Chrome/114.0.0.0 Safari/537.36","WebKit","Chrome","114.0.0.0","Windows","10.0","54633","","{""ID"":""A1EUMT73IXVC6S"",""Comments"":""Good""}",""
"","","","","","html-button-response","153","2030588","0.0-26.0","41","1","2023-06-25 15:14:38","077e191c96ad73626b2944d724c57d9e","63.92.70.136","Mozilla/5.0 (Windows NT 10.0; Win64; x64) AppleWebKit/537.36 (KHTML, like Gecko) Chrome/114.0.0.0 Safari/537.36","WebKit","Chrome","114.0.0.0","Windows","10.0","76592","<p><strong>Congratulations! </strong> Your have finished all the survey. Thank you for your participation!</p><p><strong>Here is your complete token:</strong></p>f41e3a8yspphxc8lnb3l5k53r<p></p><p><strong>Please copy it to the mTurk page.</strong></p>","0",""
