"success","timeout","failed_images","failed_audio","failed_video","trial_type","trial_index","time_elapsed","internal_node_id","run_id","condition","recorded_at","source_code_version","ip","user_agent","device","browser","browser_version","platform","platform_version","rt","stimulus","response","question_order"
"true","false","[]","[]","[]","preload","0","564","0.0-0.0","44","1","2023-06-22 16:49:14","077e191c96ad73626b2944d724c57d9e","208.194.214.233","Mozilla/5.0 (Windows NT 10.0; Win64; x64) AppleWebKit/537.36 (KHTML, like Gecko) Chrome/114.0.0.0 Safari/537.36","WebKit","Chrome","114.0.0.0","Windows","10.0","","","",""
"true","","","","","fullscreen","1","81456","0.0-1.0","44","1","2023-06-22 16:49:14","077e191c96ad73626b2944d724c57d9e","208.194.214.233","Mozilla/5.0 (Windows NT 10.0; Win64; x64) AppleWebKit/537.36 (KHTML, like Gecko) Chrome/114.0.0.0 Safari/537.36","WebKit","Chrome","114.0.0.0","Windows","10.0","","","",""
"","","","","","html-button-response","2","82795","0.0-2.0","44","1","2023-06-22 16:49:14","077e191c96ad73626b2944d724c57d9e","208.194.214.233","Mozilla/5.0 (Windows NT 10.0; Win64; x64) AppleWebKit/537.36 (KHTML, like Gecko) Chrome/114.0.0.0 Safari/537.36","WebKit","Chrome","114.0.0.0","Windows","10.0","1335","<p ><strong>Welcome to the experiment!</strong></p><p ><strong>In the first task, please imagine:</strong></p><p>Your country is involved in a military conflict with another country.</p><p>You are the commander of your army and must make decisions in the conflict.</p><p>Specifically, as the military commander, you must decide whether to launch a missile to strike enemy.</p><p>You will face a series of scenarios. Please read each scenario carefully and make a decision.</p><p>The task will take around 10 minutes to complete.</p><p><strong>Please pay your attention during the experiment.</strong></p>","0",""
"","","","","","html-keyboard-response","3","83798","0.0-3.0-0.0","44","1","2023-06-22 16:49:14","077e191c96ad73626b2944d724c57d9e","208.194.214.233","Mozilla/5.0 (Windows NT 10.0; Win64; x64) AppleWebKit/537.36 (KHTML, like Gecko) Chrome/114.0.0.0 Safari/537.36","WebKit","Chrome","114.0.0.0","Windows","10.0","null","<div style=""font-size:60px;"">+</div>","null",""
"","","","","","html-button-response","4","85185","0.0-3.0-1.0","44","1","2023-06-22 16:49:14","077e191c96ad73626b2944d724c57d9e","208.194.214.233","Mozilla/5.0 (Windows NT 10.0; Win64; x64) AppleWebKit/537.36 (KHTML, like Gecko) Chrome/114.0.0.0 Safari/537.36","WebKit","Chrome","114.0.0.0","Windows","10.0","1385","<p>As the military commander, you could choose to launch a missile to kill <strong>4 enemy soldiers</strong> , but would accidentally kill <strong>1 enemy civilian</strong> nearby.</p> <p>The photo of the <strong>enemy civilian</strong> is shown below.</p> <p></p> <img src='stimuli/faces/PFF1.jpg', style='max-width: 30%;'> </img> <p><strong>Would you launch the weapon?</strong></p>","0",""
"","","","","","html-keyboard-response","5","86188","0.0-3.0-0.1","44","1","2023-06-22 16:49:14","077e191c96ad73626b2944d724c57d9e","208.194.214.233","Mozilla/5.0 (Windows NT 10.0; Win64; x64) AppleWebKit/537.36 (KHTML, like Gecko) Chrome/114.0.0.0 Safari/537.36","WebKit","Chrome","114.0.0.0","Windows","10.0","null","<div style=""font-size:60px;"">+</div>","null",""
"","","","","","html-button-response","6","87777","0.0-3.0-1.1","44","1","2023-06-22 16:49:14","077e191c96ad73626b2944d724c57d9e","208.194.214.233","Mozilla/5.0 (Windows NT 10.0; Win64; x64) AppleWebKit/537.36 (KHTML, like Gecko) Chrome/114.0.0.0 Safari/537.36","WebKit","Chrome","114.0.0.0","Windows","10.0","1587","<p>As the military commander, you could choose to launch a missile to kill <strong>4 enemy soldiers</strong> , but would accidentally kill <strong>1 enemy civilian</strong> nearby.</p> <p>The photo of the <strong>enemy civilian</strong> is shown below.</p> <p></p> <img src='stimuli/faces/PFM5.jpg', style='max-width: 30%;'> </img> <p><strong>Would you launch the weapon?</strong></p>","0",""
"","","","","","html-keyboard-response","7","88780","0.0-3.0-0.2","44","1","2023-06-22 16:49:14","077e191c96ad73626b2944d724c57d9e","208.194.214.233","Mozilla/5.0 (Windows NT 10.0; Win64; x64) AppleWebKit/537.36 (KHTML, like Gecko) Chrome/114.0.0.0 Safari/537.36","WebKit","Chrome","114.0.0.0","Windows","10.0","null","<div style=""font-size:60px;"">+</div>","null",""
"","","","","","html-button-response","8","89571","0.0-3.0-1.2","44","1","2023-06-22 16:49:14","077e191c96ad73626b2944d724c57d9e","208.194.214.233","Mozilla/5.0 (Windows NT 10.0; Win64; x64) AppleWebKit/537.36 (KHTML, like Gecko) Chrome/114.0.0.0 Safari/537.36","WebKit","Chrome","114.0.0.0","Windows","10.0","789","<p>As the military commander, you could choose to launch a missile to kill <strong>10 enemy soldiers</strong> , but would accidentally kill <strong>1 enemy civilian</strong> nearby.</p> <p>The photo of the <strong>enemy civilian</strong> is shown below.</p> <p></p> <img src='stimuli/faces/PFM3.jpg', style='max-width: 30%;'> </img> <p><strong>Would you launch the weapon?</strong></p>","0",""
"","","","","","html-keyboard-response","9","90574","0.0-3.0-0.3","44","1","2023-06-22 16:49:14","077e191c96ad73626b2944d724c57d9e","208.194.214.233","Mozilla/5.0 (Windows NT 10.0; Win64; x64) AppleWebKit/537.36 (KHTML, like Gecko) Chrome/114.0.0.0 Safari/537.36","WebKit","Chrome","114.0.0.0","Windows","10.0","null","<div style=""font-size:60px;"">+</div>","null",""
"","","","","","html-button-response","10","91154","0.0-3.0-1.3","44","1","2023-06-22 16:49:14","077e191c96ad73626b2944d724c57d9e","208.194.214.233","Mozilla/5.0 (Windows NT 10.0; Win64; x64) AppleWebKit/537.36 (KHTML, like Gecko) Chrome/114.0.0.0 Safari/537.36","WebKit","Chrome","114.0.0.0","Windows","10.0","577","<p>As the military commander, you could choose to launch a missile to kill <strong>4 enemy soldiers</strong> , but would accidentally kill <strong>1 enemy tree</strong> nearby.</p> <p>The photo of the <strong>enemy tree</strong> is shown below.</p> <p></p> <img src='stimuli/tree/5.png', style='max-width: 30%;'> </img> <p><strong>Would you launch the weapon?</strong></p>","0",""
"","","","","","html-keyboard-response","11","92157","0.0-3.0-0.4","44","1","2023-06-22 16:49:14","077e191c96ad73626b2944d724c57d9e","208.194.214.233","Mozilla/5.0 (Windows NT 10.0; Win64; x64) AppleWebKit/537.36 (KHTML, like Gecko) Chrome/114.0.0.0 Safari/537.36","WebKit","Chrome","114.0.0.0","Windows","10.0","null","<div style=""font-size:60px;"">+</div>","null",""
"","","","","","html-button-response","12","94009","0.0-3.0-1.4","44","1","2023-06-22 16:49:14","077e191c96ad73626b2944d724c57d9e","208.194.214.233","Mozilla/5.0 (Windows NT 10.0; Win64; x64) AppleWebKit/537.36 (KHTML, like Gecko) Chrome/114.0.0.0 Safari/537.36","WebKit","Chrome","114.0.0.0","Windows","10.0","1850","<p>As the military commander, you could choose to launch a missile to kill <strong>5 enemy soldiers</strong> , but would accidentally kill <strong>1 enemy civilian</strong> nearby.</p> <p>The photo of the <strong>enemy civilian</strong> is shown below.</p> <p></p> <img src='stimuli/faces/PFF8.jpg', style='max-width: 30%;'> </img> <p><strong>Would you launch the weapon?</strong></p>","0",""
"","","","","","html-keyboard-response","13","95011","0.0-3.0-0.5","44","1","2023-06-22 16:49:14","077e191c96ad73626b2944d724c57d9e","208.194.214.233","Mozilla/5.0 (Windows NT 10.0; Win64; x64) AppleWebKit/537.36 (KHTML, like Gecko) Chrome/114.0.0.0 Safari/537.36","WebKit","Chrome","114.0.0.0","Windows","10.0","null","<div style=""font-size:60px;"">+</div>","null",""
"","","","","","html-button-response","14","95090","0.0-3.0-1.5","44","1","2023-06-22 16:49:14","077e191c96ad73626b2944d724c57d9e","208.194.214.233","Mozilla/5.0 (Windows NT 10.0; Win64; x64) AppleWebKit/537.36 (KHTML, like Gecko) Chrome/114.0.0.0 Safari/537.36","WebKit","Chrome","114.0.0.0","Windows","10.0","76","<p>As the military commander, you could choose to launch a missile to kill <strong>5 enemy soldiers</strong> , but would accidentally kill <strong>1 enemy tree</strong> nearby.</p> <p>The photo of the <strong>enemy tree</strong> is shown below.</p> <p></p> <img src='stimuli/tree/6.png', style='max-width: 30%;'> </img> <p><strong>Would you launch the weapon?</strong></p>","0",""
"","","","","","html-keyboard-response","15","96093","0.0-3.0-0.6","44","1","2023-06-22 16:49:14","077e191c96ad73626b2944d724c57d9e","208.194.214.233","Mozilla/5.0 (Windows NT 10.0; Win64; x64) AppleWebKit/537.36 (KHTML, like Gecko) Chrome/114.0.0.0 Safari/537.36","WebKit","Chrome","114.0.0.0","Windows","10.0","null","<div style=""font-size:60px;"">+</div>","null",""
"","","","","","html-button-response","16","97072","0.0-3.0-1.6","44","1","2023-06-22 16:49:14","077e191c96ad73626b2944d724c57d9e","208.194.214.233","Mozilla/5.0 (Windows NT 10.0; Win64; x64) AppleWebKit/537.36 (KHTML, like Gecko) Chrome/114.0.0.0 Safari/537.36","WebKit","Chrome","114.0.0.0","Windows","10.0","978","<p>As the military commander, you could choose to launch a missile to kill <strong>1 enemy soldier</strong> , but would accidentally kill <strong>1 enemy tree</strong> nearby.</p> <p>The photo of the <strong>enemy tree</strong> is shown below.</p> <p></p> <img src='stimuli/tree/10.png', style='max-width: 30%;'> </img> <p><strong>Would you launch the weapon?</strong></p>","0",""
"","","","","","html-keyboard-response","17","98075","0.0-3.0-0.7","44","1","2023-06-22 16:49:14","077e191c96ad73626b2944d724c57d9e","208.194.214.233","Mozilla/5.0 (Windows NT 10.0; Win64; x64) AppleWebKit/537.36 (KHTML, like Gecko) Chrome/114.0.0.0 Safari/537.36","WebKit","Chrome","114.0.0.0","Windows","10.0","null","<div style=""font-size:60px;"">+</div>","null",""
"","","","","","html-button-response","18","98408","0.0-3.0-1.7","44","1","2023-06-22 16:49:14","077e191c96ad73626b2944d724c57d9e","208.194.214.233","Mozilla/5.0 (Windows NT 10.0; Win64; x64) AppleWebKit/537.36 (KHTML, like Gecko) Chrome/114.0.0.0 Safari/537.36","WebKit","Chrome","114.0.0.0","Windows","10.0","331","<p>As the military commander, you could choose to launch a missile to kill <strong>6 enemy soldiers</strong> , but would accidentally kill <strong>1 enemy tree</strong> nearby.</p> <p>The photo of the <strong>enemy tree</strong> is shown below.</p> <p></p> <img src='stimuli/tree/15.png', style='max-width: 30%;'> </img> <p><strong>Would you launch the weapon?</strong></p>","0",""
"","","","","","html-keyboard-response","19","99411","0.0-3.0-0.8","44","1","2023-06-22 16:49:14","077e191c96ad73626b2944d724c57d9e","208.194.214.233","Mozilla/5.0 (Windows NT 10.0; Win64; x64) AppleWebKit/537.36 (KHTML, like Gecko) Chrome/114.0.0.0 Safari/537.36","WebKit","Chrome","114.0.0.0","Windows","10.0","null","<div style=""font-size:60px;"">+</div>","null",""
"","","","","","html-button-response","20","99930","0.0-3.0-1.8","44","1","2023-06-22 16:49:14","077e191c96ad73626b2944d724c57d9e","208.194.214.233","Mozilla/5.0 (Windows NT 10.0; Win64; x64) AppleWebKit/537.36 (KHTML, like Gecko) Chrome/114.0.0.0 Safari/537.36","WebKit","Chrome","114.0.0.0","Windows","10.0","517","<p>As the military commander, you could choose to launch a missile to kill <strong>9 enemy soldiers</strong> , but would accidentally kill <strong>1 enemy tree</strong> nearby.</p> <p>The photo of the <strong>enemy tree</strong> is shown below.</p> <p></p> <img src='stimuli/tree/5.png', style='max-width: 30%;'> </img> <p><strong>Would you launch the weapon?</strong></p>","0",""
"","","","","","html-keyboard-response","21","100933","0.0-3.0-0.9","44","1","2023-06-22 16:49:14","077e191c96ad73626b2944d724c57d9e","208.194.214.233","Mozilla/5.0 (Windows NT 10.0; Win64; x64) AppleWebKit/537.36 (KHTML, like Gecko) Chrome/114.0.0.0 Safari/537.36","WebKit","Chrome","114.0.0.0","Windows","10.0","null","<div style=""font-size:60px;"">+</div>","null",""
"","","","","","html-button-response","22","105994","0.0-3.0-1.9","44","1","2023-06-22 16:49:14","077e191c96ad73626b2944d724c57d9e","208.194.214.233","Mozilla/5.0 (Windows NT 10.0; Win64; x64) AppleWebKit/537.36 (KHTML, like Gecko) Chrome/114.0.0.0 Safari/537.36","WebKit","Chrome","114.0.0.0","Windows","10.0","5058","<p>As the military commander, you could choose to launch a missile to kill <strong>6 enemy soldiers</strong> , but would accidentally kill <strong>1 enemy tree</strong> nearby.</p> <p>The photo of the <strong>enemy tree</strong> is shown below.</p> <p></p> <img src='stimuli/tree/11.png', style='max-width: 30%;'> </img> <p><strong>Would you launch the weapon?</strong></p>","0",""
"","","","","","html-keyboard-response","23","106996","0.0-3.0-0.10","44","1","2023-06-22 16:49:14","077e191c96ad73626b2944d724c57d9e","208.194.214.233","Mozilla/5.0 (Windows NT 10.0; Win64; x64) AppleWebKit/537.36 (KHTML, like Gecko) Chrome/114.0.0.0 Safari/537.36","WebKit","Chrome","114.0.0.0","Windows","10.0","null","<div style=""font-size:60px;"">+</div>","null",""
"","","","","","html-button-response","24","108474","0.0-3.0-1.10","44","1","2023-06-22 16:49:14","077e191c96ad73626b2944d724c57d9e","208.194.214.233","Mozilla/5.0 (Windows NT 10.0; Win64; x64) AppleWebKit/537.36 (KHTML, like Gecko) Chrome/114.0.0.0 Safari/537.36","WebKit","Chrome","114.0.0.0","Windows","10.0","1475","<p>As the military commander, you could choose to launch a missile to kill <strong>4 enemy soldiers</strong> , but would accidentally kill <strong>1 enemy tree</strong> nearby.</p> <p>The photo of the <strong>enemy tree</strong> is shown below.</p> <p></p> <img src='stimuli/tree/9.png', style='max-width: 30%;'> </img> <p><strong>Would you launch the weapon?</strong></p>","0",""
"","","","","","html-keyboard-response","25","109476","0.0-3.0-0.11","44","1","2023-06-22 16:49:14","077e191c96ad73626b2944d724c57d9e","208.194.214.233","Mozilla/5.0 (Windows NT 10.0; Win64; x64) AppleWebKit/537.36 (KHTML, like Gecko) Chrome/114.0.0.0 Safari/537.36","WebKit","Chrome","114.0.0.0","Windows","10.0","null","<div style=""font-size:60px;"">+</div>","null",""
"","","","","","html-button-response","26","110449","0.0-3.0-1.11","44","1","2023-06-22 16:49:14","077e191c96ad73626b2944d724c57d9e","208.194.214.233","Mozilla/5.0 (Windows NT 10.0; Win64; x64) AppleWebKit/537.36 (KHTML, like Gecko) Chrome/114.0.0.0 Safari/537.36","WebKit","Chrome","114.0.0.0","Windows","10.0","971","<p>As the military commander, you could choose to launch a missile to kill <strong>1 enemy soldier</strong> , but would accidentally kill <strong>1 enemy tree</strong> nearby.</p> <p>The photo of the <strong>enemy tree</strong> is shown below.</p> <p></p> <img src='stimuli/tree/14.png', style='max-width: 30%;'> </img> <p><strong>Would you launch the weapon?</strong></p>","0",""
"","","","","","html-keyboard-response","27","111452","0.0-3.0-0.12","44","1","2023-06-22 16:49:14","077e191c96ad73626b2944d724c57d9e","208.194.214.233","Mozilla/5.0 (Windows NT 10.0; Win64; x64) AppleWebKit/537.36 (KHTML, like Gecko) Chrome/114.0.0.0 Safari/537.36","WebKit","Chrome","114.0.0.0","Windows","10.0","null","<div style=""font-size:60px;"">+</div>","null",""
"","","","","","html-button-response","28","112729","0.0-3.0-1.12","44","1","2023-06-22 16:49:14","077e191c96ad73626b2944d724c57d9e","208.194.214.233","Mozilla/5.0 (Windows NT 10.0; Win64; x64) AppleWebKit/537.36 (KHTML, like Gecko) Chrome/114.0.0.0 Safari/537.36","WebKit","Chrome","114.0.0.0","Windows","10.0","1275","<p>As the military commander, you could choose to launch a missile to kill <strong>1 enemy soldier</strong> , but would accidentally kill <strong>1 enemy tree</strong> nearby.</p> <p>The photo of the <strong>enemy tree</strong> is shown below.</p> <p></p> <img src='stimuli/tree/1.png', style='max-width: 30%;'> </img> <p><strong>Would you launch the weapon?</strong></p>","0",""
"","","","","","html-keyboard-response","29","113732","0.0-3.0-0.13","44","1","2023-06-22 16:49:14","077e191c96ad73626b2944d724c57d9e","208.194.214.233","Mozilla/5.0 (Windows NT 10.0; Win64; x64) AppleWebKit/537.36 (KHTML, like Gecko) Chrome/114.0.0.0 Safari/537.36","WebKit","Chrome","114.0.0.0","Windows","10.0","null","<div style=""font-size:60px;"">+</div>","null",""
"","","","","","html-button-response","30","118584","0.0-3.0-1.13","44","1","2023-06-22 16:49:14","077e191c96ad73626b2944d724c57d9e","208.194.214.233","Mozilla/5.0 (Windows NT 10.0; Win64; x64) AppleWebKit/537.36 (KHTML, like Gecko) Chrome/114.0.0.0 Safari/537.36","WebKit","Chrome","114.0.0.0","Windows","10.0","4851","<p>As the military commander, you could choose to launch a missile to kill <strong>8 enemy soldiers</strong> , but would accidentally kill <strong>1 enemy civilian</strong> nearby.</p> <p>The photo of the <strong>enemy civilian</strong> is shown below.</p> <p></p> <img src='stimuli/faces/PFM4.jpg', style='max-width: 30%;'> </img> <p><strong>Would you launch the weapon?</strong></p>","0",""
"","","","","","html-keyboard-response","31","119587","0.0-3.0-0.14","44","1","2023-06-22 16:49:14","077e191c96ad73626b2944d724c57d9e","208.194.214.233","Mozilla/5.0 (Windows NT 10.0; Win64; x64) AppleWebKit/537.36 (KHTML, like Gecko) Chrome/114.0.0.0 Safari/537.36","WebKit","Chrome","114.0.0.0","Windows","10.0","null","<div style=""font-size:60px;"">+</div>","null",""
"","","","","","html-button-response","32","120449","0.0-3.0-1.14","44","1","2023-06-22 16:49:14","077e191c96ad73626b2944d724c57d9e","208.194.214.233","Mozilla/5.0 (Windows NT 10.0; Win64; x64) AppleWebKit/537.36 (KHTML, like Gecko) Chrome/114.0.0.0 Safari/537.36","WebKit","Chrome","114.0.0.0","Windows","10.0","859","<p>As the military commander, you could choose to launch a missile to kill <strong>8 enemy soldiers</strong> , but would accidentally kill <strong>1 enemy civilian</strong> nearby.</p> <p>The photo of the <strong>enemy civilian</strong> is shown below.</p> <p></p> <img src='stimuli/faces/PFM7.jpg', style='max-width: 30%;'> </img> <p><strong>Would you launch the weapon?</strong></p>","0",""
"","","","","","html-keyboard-response","33","121452","0.0-3.0-0.15","44","1","2023-06-22 16:49:14","077e191c96ad73626b2944d724c57d9e","208.194.214.233","Mozilla/5.0 (Windows NT 10.0; Win64; x64) AppleWebKit/537.36 (KHTML, like Gecko) Chrome/114.0.0.0 Safari/537.36","WebKit","Chrome","114.0.0.0","Windows","10.0","null","<div style=""font-size:60px;"">+</div>","null",""
"","","","","","html-button-response","34","122057","0.0-3.0-1.15","44","1","2023-06-22 16:49:14","077e191c96ad73626b2944d724c57d9e","208.194.214.233","Mozilla/5.0 (Windows NT 10.0; Win64; x64) AppleWebKit/537.36 (KHTML, like Gecko) Chrome/114.0.0.0 Safari/537.36","WebKit","Chrome","114.0.0.0","Windows","10.0","603","<p>As the military commander, you could choose to launch a missile to kill <strong>9 enemy soldiers</strong> , but would accidentally kill <strong>1 enemy tree</strong> nearby.</p> <p>The photo of the <strong>enemy tree</strong> is shown below.</p> <p></p> <img src='stimuli/tree/2.png', style='max-width: 30%;'> </img> <p><strong>Would you launch the weapon?</strong></p>","0",""
"","","","","","html-keyboard-response","35","123059","0.0-3.0-0.16","44","1","2023-06-22 16:49:14","077e191c96ad73626b2944d724c57d9e","208.194.214.233","Mozilla/5.0 (Windows NT 10.0; Win64; x64) AppleWebKit/537.36 (KHTML, like Gecko) Chrome/114.0.0.0 Safari/537.36","WebKit","Chrome","114.0.0.0","Windows","10.0","null","<div style=""font-size:60px;"">+</div>","null",""
"","","","","","html-button-response","36","123920","0.0-3.0-1.16","44","1","2023-06-22 16:49:14","077e191c96ad73626b2944d724c57d9e","208.194.214.233","Mozilla/5.0 (Windows NT 10.0; Win64; x64) AppleWebKit/537.36 (KHTML, like Gecko) Chrome/114.0.0.0 Safari/537.36","WebKit","Chrome","114.0.0.0","Windows","10.0","858","<p>As the military commander, you could choose to launch a missile to kill <strong>9 enemy soldiers</strong> , but would accidentally kill <strong>1 enemy civilian</strong> nearby.</p> <p>The photo of the <strong>enemy civilian</strong> is shown below.</p> <p></p> <img src='stimuli/faces/PFM8.jpg', style='max-width: 30%;'> </img> <p><strong>Would you launch the weapon?</strong></p>","0",""
"","","","","","html-keyboard-response","37","124923","0.0-3.0-0.17","44","1","2023-06-22 16:49:14","077e191c96ad73626b2944d724c57d9e","208.194.214.233","Mozilla/5.0 (Windows NT 10.0; Win64; x64) AppleWebKit/537.36 (KHTML, like Gecko) Chrome/114.0.0.0 Safari/537.36","WebKit","Chrome","114.0.0.0","Windows","10.0","null","<div style=""font-size:60px;"">+</div>","null",""
"","","","","","html-button-response","38","128410","0.0-3.0-1.17","44","1","2023-06-22 16:49:14","077e191c96ad73626b2944d724c57d9e","208.194.214.233","Mozilla/5.0 (Windows NT 10.0; Win64; x64) AppleWebKit/537.36 (KHTML, like Gecko) Chrome/114.0.0.0 Safari/537.36","WebKit","Chrome","114.0.0.0","Windows","10.0","3485","<p>As the military commander, you could choose to launch a missile to kill <strong>1 enemy soldier</strong> , but would accidentally kill <strong>1 enemy tree</strong> nearby.</p> <p>The photo of the <strong>enemy tree</strong> is shown below.</p> <p></p> <img src='stimuli/tree/2.png', style='max-width: 30%;'> </img> <p><strong>Would you launch the weapon?</strong></p>","0",""
"","","","","","html-keyboard-response","39","129413","0.0-3.0-0.18","44","1","2023-06-22 16:49:14","077e191c96ad73626b2944d724c57d9e","208.194.214.233","Mozilla/5.0 (Windows NT 10.0; Win64; x64) AppleWebKit/537.36 (KHTML, like Gecko) Chrome/114.0.0.0 Safari/537.36","WebKit","Chrome","114.0.0.0","Windows","10.0","null","<div style=""font-size:60px;"">+</div>","null",""
"","","","","","html-button-response","40","130202","0.0-3.0-1.18","44","1","2023-06-22 16:49:14","077e191c96ad73626b2944d724c57d9e","208.194.214.233","Mozilla/5.0 (Windows NT 10.0; Win64; x64) AppleWebKit/537.36 (KHTML, like Gecko) Chrome/114.0.0.0 Safari/537.36","WebKit","Chrome","114.0.0.0","Windows","10.0","786","<p>As the military commander, you could choose to launch a missile to kill <strong>9 enemy soldiers</strong> , but would accidentally kill <strong>1 enemy tree</strong> nearby.</p> <p>The photo of the <strong>enemy tree</strong> is shown below.</p> <p></p> <img src='stimuli/tree/3.png', style='max-width: 30%;'> </img> <p><strong>Would you launch the weapon?</strong></p>","0",""
"","","","","","html-keyboard-response","41","131206","0.0-3.0-0.19","44","1","2023-06-22 16:49:14","077e191c96ad73626b2944d724c57d9e","208.194.214.233","Mozilla/5.0 (Windows NT 10.0; Win64; x64) AppleWebKit/537.36 (KHTML, like Gecko) Chrome/114.0.0.0 Safari/537.36","WebKit","Chrome","114.0.0.0","Windows","10.0","null","<div style=""font-size:60px;"">+</div>","null",""
"","","","","","html-button-response","42","131783","0.0-3.0-1.19","44","1","2023-06-22 16:49:14","077e191c96ad73626b2944d724c57d9e","208.194.214.233","Mozilla/5.0 (Windows NT 10.0; Win64; x64) AppleWebKit/537.36 (KHTML, like Gecko) Chrome/114.0.0.0 Safari/537.36","WebKit","Chrome","114.0.0.0","Windows","10.0","574","<p>As the military commander, you could choose to launch a missile to kill <strong>2 enemy soldiers</strong> , but would accidentally kill <strong>1 enemy civilian</strong> nearby.</p> <p>The photo of the <strong>enemy civilian</strong> is shown below.</p> <p></p> <img src='stimuli/faces/PFM7.jpg', style='max-width: 30%;'> </img> <p><strong>Would you launch the weapon?</strong></p>","0",""
"","","","","","html-keyboard-response","43","132786","0.0-3.0-0.20","44","1","2023-06-22 16:49:14","077e191c96ad73626b2944d724c57d9e","208.194.214.233","Mozilla/5.0 (Windows NT 10.0; Win64; x64) AppleWebKit/537.36 (KHTML, like Gecko) Chrome/114.0.0.0 Safari/537.36","WebKit","Chrome","114.0.0.0","Windows","10.0","null","<div style=""font-size:60px;"">+</div>","null",""
"","","","","","html-button-response","44","133344","0.0-3.0-1.20","44","1","2023-06-22 16:49:14","077e191c96ad73626b2944d724c57d9e","208.194.214.233","Mozilla/5.0 (Windows NT 10.0; Win64; x64) AppleWebKit/537.36 (KHTML, like Gecko) Chrome/114.0.0.0 Safari/537.36","WebKit","Chrome","114.0.0.0","Windows","10.0","556","<p>As the military commander, you could choose to launch a missile to kill <strong>1 enemy soldier</strong> , but would accidentally kill <strong>1 enemy civilian</strong> nearby.</p> <p>The photo of the <strong>enemy civilian</strong> is shown below.</p> <p></p> <img src='stimuli/faces/PFF6.jpg', style='max-width: 30%;'> </img> <p><strong>Would you launch the weapon?</strong></p>","0",""
"","","","","","html-keyboard-response","45","134348","0.0-3.0-0.21","44","1","2023-06-22 16:49:14","077e191c96ad73626b2944d724c57d9e","208.194.214.233","Mozilla/5.0 (Windows NT 10.0; Win64; x64) AppleWebKit/537.36 (KHTML, like Gecko) Chrome/114.0.0.0 Safari/537.36","WebKit","Chrome","114.0.0.0","Windows","10.0","null","<div style=""font-size:60px;"">+</div>","null",""
"","","","","","html-button-response","46","157073","0.0-3.0-1.21","44","1","2023-06-22 16:49:14","077e191c96ad73626b2944d724c57d9e","208.194.214.233","Mozilla/5.0 (Windows NT 10.0; Win64; x64) AppleWebKit/537.36 (KHTML, like Gecko) Chrome/114.0.0.0 Safari/537.36","WebKit","Chrome","114.0.0.0","Windows","10.0","22723","<p>As the military commander, you could choose to launch a missile to kill <strong>4 enemy soldiers</strong> , but would accidentally kill <strong>1 enemy civilian</strong> nearby.</p> <p>The photo of the <strong>enemy civilian</strong> is shown below.</p> <p></p> <img src='stimuli/faces/PFF5.jpg', style='max-width: 30%;'> </img> <p><strong>Would you launch the weapon?</strong></p>","0",""
"","","","","","html-keyboard-response","47","158076","0.0-3.0-0.22","44","1","2023-06-22 16:49:14","077e191c96ad73626b2944d724c57d9e","208.194.214.233","Mozilla/5.0 (Windows NT 10.0; Win64; x64) AppleWebKit/537.36 (KHTML, like Gecko) Chrome/114.0.0.0 Safari/537.36","WebKit","Chrome","114.0.0.0","Windows","10.0","null","<div style=""font-size:60px;"">+</div>","null",""
"","","","","","html-button-response","48","188224","0.0-3.0-1.22","44","1","2023-06-22 16:49:14","077e191c96ad73626b2944d724c57d9e","208.194.214.233","Mozilla/5.0 (Windows NT 10.0; Win64; x64) AppleWebKit/537.36 (KHTML, like Gecko) Chrome/114.0.0.0 Safari/537.36","WebKit","Chrome","114.0.0.0","Windows","10.0","30145","<p>As the military commander, you could choose to launch a missile to kill <strong>8 enemy soldiers</strong> , but would accidentally kill <strong>1 enemy tree</strong> nearby.</p> <p>The photo of the <strong>enemy tree</strong> is shown below.</p> <p></p> <img src='stimuli/tree/7.png', style='max-width: 30%;'> </img> <p><strong>Would you launch the weapon?</strong></p>","0",""
"","","","","","html-keyboard-response","49","189228","0.0-3.0-0.23","44","1","2023-06-22 16:49:14","077e191c96ad73626b2944d724c57d9e","208.194.214.233","Mozilla/5.0 (Windows NT 10.0; Win64; x64) AppleWebKit/537.36 (KHTML, like Gecko) Chrome/114.0.0.0 Safari/537.36","WebKit","Chrome","114.0.0.0","Windows","10.0","null","<div style=""font-size:60px;"">+</div>","null",""
"","","","","","html-button-response","50","190760","0.0-3.0-1.23","44","1","2023-06-22 16:49:14","077e191c96ad73626b2944d724c57d9e","208.194.214.233","Mozilla/5.0 (Windows NT 10.0; Win64; x64) AppleWebKit/537.36 (KHTML, like Gecko) Chrome/114.0.0.0 Safari/537.36","WebKit","Chrome","114.0.0.0","Windows","10.0","1529","<p>As the military commander, you could choose to launch a missile to kill <strong>8 enemy soldiers</strong> , but would accidentally kill <strong>1 enemy tree</strong> nearby.</p> <p>The photo of the <strong>enemy tree</strong> is shown below.</p> <p></p> <img src='stimuli/tree/14.png', style='max-width: 30%;'> </img> <p><strong>Would you launch the weapon?</strong></p>","0",""
"","","","","","html-keyboard-response","51","191763","0.0-3.0-0.24","44","1","2023-06-22 16:49:14","077e191c96ad73626b2944d724c57d9e","208.194.214.233","Mozilla/5.0 (Windows NT 10.0; Win64; x64) AppleWebKit/537.36 (KHTML, like Gecko) Chrome/114.0.0.0 Safari/537.36","WebKit","Chrome","114.0.0.0","Windows","10.0","null","<div style=""font-size:60px;"">+</div>","null",""
"","","","","","html-button-response","52","193320","0.0-3.0-1.24","44","1","2023-06-22 16:49:14","077e191c96ad73626b2944d724c57d9e","208.194.214.233","Mozilla/5.0 (Windows NT 10.0; Win64; x64) AppleWebKit/537.36 (KHTML, like Gecko) Chrome/114.0.0.0 Safari/537.36","WebKit","Chrome","114.0.0.0","Windows","10.0","1555","<p>As the military commander, you could choose to launch a missile to kill <strong>4 enemy soldiers</strong> , but would accidentally kill <strong>1 enemy civilian</strong> nearby.</p> <p>The photo of the <strong>enemy civilian</strong> is shown below.</p> <p></p> <img src='stimuli/faces/PFM3.jpg', style='max-width: 30%;'> </img> <p><strong>Would you launch the weapon?</strong></p>","0",""
"","","","","","html-keyboard-response","53","194323","0.0-3.0-0.25","44","1","2023-06-22 16:49:14","077e191c96ad73626b2944d724c57d9e","208.194.214.233","Mozilla/5.0 (Windows NT 10.0; Win64; x64) AppleWebKit/537.36 (KHTML, like Gecko) Chrome/114.0.0.0 Safari/537.36","WebKit","Chrome","114.0.0.0","Windows","10.0","null","<div style=""font-size:60px;"">+</div>","null",""
"","","","","","html-button-response","54","194537","0.0-3.0-1.25","44","1","2023-06-22 16:49:14","077e191c96ad73626b2944d724c57d9e","208.194.214.233","Mozilla/5.0 (Windows NT 10.0; Win64; x64) AppleWebKit/537.36 (KHTML, like Gecko) Chrome/114.0.0.0 Safari/537.36","WebKit","Chrome","114.0.0.0","Windows","10.0","211","<p>As the military commander, you could choose to launch a missile to kill <strong>7 enemy soldiers</strong> , but would accidentally kill <strong>1 enemy tree</strong> nearby.</p> <p>The photo of the <strong>enemy tree</strong> is shown below.</p> <p></p> <img src='stimuli/tree/6.png', style='max-width: 30%;'> </img> <p><strong>Would you launch the weapon?</strong></p>","0",""
"","","","","","html-keyboard-response","55","195541","0.0-3.0-0.26","44","1","2023-06-22 16:49:14","077e191c96ad73626b2944d724c57d9e","208.194.214.233","Mozilla/5.0 (Windows NT 10.0; Win64; x64) AppleWebKit/537.36 (KHTML, like Gecko) Chrome/114.0.0.0 Safari/537.36","WebKit","Chrome","114.0.0.0","Windows","10.0","null","<div style=""font-size:60px;"">+</div>","null",""
"","","","","","html-button-response","56","195760","0.0-3.0-1.26","44","1","2023-06-22 16:49:14","077e191c96ad73626b2944d724c57d9e","208.194.214.233","Mozilla/5.0 (Windows NT 10.0; Win64; x64) AppleWebKit/537.36 (KHTML, like Gecko) Chrome/114.0.0.0 Safari/537.36","WebKit","Chrome","114.0.0.0","Windows","10.0","216","<p>As the military commander, you could choose to launch a missile to kill <strong>3 enemy soldiers</strong> , but would accidentally kill <strong>1 enemy tree</strong> nearby.</p> <p>The photo of the <strong>enemy tree</strong> is shown below.</p> <p></p> <img src='stimuli/tree/3.png', style='max-width: 30%;'> </img> <p><strong>Would you launch the weapon?</strong></p>","0",""
"","","","","","html-keyboard-response","57","196763","0.0-3.0-0.27","44","1","2023-06-22 16:49:14","077e191c96ad73626b2944d724c57d9e","208.194.214.233","Mozilla/5.0 (Windows NT 10.0; Win64; x64) AppleWebKit/537.36 (KHTML, like Gecko) Chrome/114.0.0.0 Safari/537.36","WebKit","Chrome","114.0.0.0","Windows","10.0","null","<div style=""font-size:60px;"">+</div>","null",""
"","","","","","html-button-response","58","196993","0.0-3.0-1.27","44","1","2023-06-22 16:49:14","077e191c96ad73626b2944d724c57d9e","208.194.214.233","Mozilla/5.0 (Windows NT 10.0; Win64; x64) AppleWebKit/537.36 (KHTML, like Gecko) Chrome/114.0.0.0 Safari/537.36","WebKit","Chrome","114.0.0.0","Windows","10.0","227","<p>As the military commander, you could choose to launch a missile to kill <strong>1 enemy soldier</strong> , but would accidentally kill <strong>1 enemy civilian</strong> nearby.</p> <p>The photo of the <strong>enemy civilian</strong> is shown below.</p> <p></p> <img src='stimuli/faces/PFF4.jpg', style='max-width: 30%;'> </img> <p><strong>Would you launch the weapon?</strong></p>","0",""
"","","","","","html-keyboard-response","59","197997","0.0-3.0-0.28","44","1","2023-06-22 16:49:14","077e191c96ad73626b2944d724c57d9e","208.194.214.233","Mozilla/5.0 (Windows NT 10.0; Win64; x64) AppleWebKit/537.36 (KHTML, like Gecko) Chrome/114.0.0.0 Safari/537.36","WebKit","Chrome","114.0.0.0","Windows","10.0","null","<div style=""font-size:60px;"">+</div>","null",""
"","","","","","html-button-response","60","198287","0.0-3.0-1.28","44","1","2023-06-22 16:49:14","077e191c96ad73626b2944d724c57d9e","208.194.214.233","Mozilla/5.0 (Windows NT 10.0; Win64; x64) AppleWebKit/537.36 (KHTML, like Gecko) Chrome/114.0.0.0 Safari/537.36","WebKit","Chrome","114.0.0.0","Windows","10.0","287","<p>As the military commander, you could choose to launch a missile to kill <strong>10 enemy soldiers</strong> , but would accidentally kill <strong>1 enemy civilian</strong> nearby.</p> <p>The photo of the <strong>enemy civilian</strong> is shown below.</p> <p></p> <img src='stimuli/faces/PFF1.jpg', style='max-width: 30%;'> </img> <p><strong>Would you launch the weapon?</strong></p>","0",""
"","","","","","html-keyboard-response","61","199291","0.0-3.0-0.29","44","1","2023-06-22 16:49:14","077e191c96ad73626b2944d724c57d9e","208.194.214.233","Mozilla/5.0 (Windows NT 10.0; Win64; x64) AppleWebKit/537.36 (KHTML, like Gecko) Chrome/114.0.0.0 Safari/537.36","WebKit","Chrome","114.0.0.0","Windows","10.0","null","<div style=""font-size:60px;"">+</div>","null",""
"","","","","","html-button-response","62","199447","0.0-3.0-1.29","44","1","2023-06-22 16:49:14","077e191c96ad73626b2944d724c57d9e","208.194.214.233","Mozilla/5.0 (Windows NT 10.0; Win64; x64) AppleWebKit/537.36 (KHTML, like Gecko) Chrome/114.0.0.0 Safari/537.36","WebKit","Chrome","114.0.0.0","Windows","10.0","153","<p>As the military commander, you could choose to launch a missile to kill <strong>1 enemy soldier</strong> , but would accidentally kill <strong>1 enemy tree</strong> nearby.</p> <p>The photo of the <strong>enemy tree</strong> is shown below.</p> <p></p> <img src='stimuli/tree/4.png', style='max-width: 30%;'> </img> <p><strong>Would you launch the weapon?</strong></p>","0",""
"","","","","","html-keyboard-response","63","200450","0.0-3.0-0.30","44","1","2023-06-22 16:49:14","077e191c96ad73626b2944d724c57d9e","208.194.214.233","Mozilla/5.0 (Windows NT 10.0; Win64; x64) AppleWebKit/537.36 (KHTML, like Gecko) Chrome/114.0.0.0 Safari/537.36","WebKit","Chrome","114.0.0.0","Windows","10.0","null","<div style=""font-size:60px;"">+</div>","null",""
"","","","","","html-button-response","64","200689","0.0-3.0-1.30","44","1","2023-06-22 16:49:14","077e191c96ad73626b2944d724c57d9e","208.194.214.233","Mozilla/5.0 (Windows NT 10.0; Win64; x64) AppleWebKit/537.36 (KHTML, like Gecko) Chrome/114.0.0.0 Safari/537.36","WebKit","Chrome","114.0.0.0","Windows","10.0","235","<p>As the military commander, you could choose to launch a missile to kill <strong>1 enemy soldier</strong> , but would accidentally kill <strong>1 enemy civilian</strong> nearby.</p> <p>The photo of the <strong>enemy civilian</strong> is shown below.</p> <p></p> <img src='stimuli/faces/PFF3.jpg', style='max-width: 30%;'> </img> <p><strong>Would you launch the weapon?</strong></p>","0",""
"","","","","","html-keyboard-response","65","201692","0.0-3.0-0.31","44","1","2023-06-22 16:49:14","077e191c96ad73626b2944d724c57d9e","208.194.214.233","Mozilla/5.0 (Windows NT 10.0; Win64; x64) AppleWebKit/537.36 (KHTML, like Gecko) Chrome/114.0.0.0 Safari/537.36","WebKit","Chrome","114.0.0.0","Windows","10.0","null","<div style=""font-size:60px;"">+</div>","null",""
"","","","","","html-button-response","66","202232","0.0-3.0-1.31","44","1","2023-06-22 16:49:14","077e191c96ad73626b2944d724c57d9e","208.194.214.233","Mozilla/5.0 (Windows NT 10.0; Win64; x64) AppleWebKit/537.36 (KHTML, like Gecko) Chrome/114.0.0.0 Safari/537.36","WebKit","Chrome","114.0.0.0","Windows","10.0","537","<p>As the military commander, you could choose to launch a missile to kill <strong>7 enemy soldiers</strong> , but would accidentally kill <strong>1 enemy civilian</strong> nearby.</p> <p>The photo of the <strong>enemy civilian</strong> is shown below.</p> <p></p> <img src='stimuli/faces/PFM6.jpg', style='max-width: 30%;'> </img> <p><strong>Would you launch the weapon?</strong></p>","0",""
"","","","","","html-keyboard-response","67","203236","0.0-3.0-0.32","44","1","2023-06-22 16:49:14","077e191c96ad73626b2944d724c57d9e","208.194.214.233","Mozilla/5.0 (Windows NT 10.0; Win64; x64) AppleWebKit/537.36 (KHTML, like Gecko) Chrome/114.0.0.0 Safari/537.36","WebKit","Chrome","114.0.0.0","Windows","10.0","null","<div style=""font-size:60px;"">+</div>","null",""
"","","","","","html-button-response","68","203982","0.0-3.0-1.32","44","1","2023-06-22 16:49:14","077e191c96ad73626b2944d724c57d9e","208.194.214.233","Mozilla/5.0 (Windows NT 10.0; Win64; x64) AppleWebKit/537.36 (KHTML, like Gecko) Chrome/114.0.0.0 Safari/537.36","WebKit","Chrome","114.0.0.0","Windows","10.0","742","<p>As the military commander, you could choose to launch a missile to kill <strong>5 enemy soldiers</strong> , but would accidentally kill <strong>1 enemy tree</strong> nearby.</p> <p>The photo of the <strong>enemy tree</strong> is shown below.</p> <p></p> <img src='stimuli/tree/13.png', style='max-width: 30%;'> </img> <p><strong>Would you launch the weapon?</strong></p>","0",""
"","","","","","html-keyboard-response","69","204986","0.0-3.0-0.33","44","1","2023-06-22 16:49:14","077e191c96ad73626b2944d724c57d9e","208.194.214.233","Mozilla/5.0 (Windows NT 10.0; Win64; x64) AppleWebKit/537.36 (KHTML, like Gecko) Chrome/114.0.0.0 Safari/537.36","WebKit","Chrome","114.0.0.0","Windows","10.0","null","<div style=""font-size:60px;"">+</div>","null",""
"","","","","","html-button-response","70","205160","0.0-3.0-1.33","44","1","2023-06-22 16:49:14","077e191c96ad73626b2944d724c57d9e","208.194.214.233","Mozilla/5.0 (Windows NT 10.0; Win64; x64) AppleWebKit/537.36 (KHTML, like Gecko) Chrome/114.0.0.0 Safari/537.36","WebKit","Chrome","114.0.0.0","Windows","10.0","172","<p>As the military commander, you could choose to launch a missile to kill <strong>3 enemy soldiers</strong> , but would accidentally kill <strong>1 enemy tree</strong> nearby.</p> <p>The photo of the <strong>enemy tree</strong> is shown below.</p> <p></p> <img src='stimuli/tree/15.png', style='max-width: 30%;'> </img> <p><strong>Would you launch the weapon?</strong></p>","0",""
"","","","","","html-keyboard-response","71","206164","0.0-3.0-0.34","44","1","2023-06-22 16:49:14","077e191c96ad73626b2944d724c57d9e","208.194.214.233","Mozilla/5.0 (Windows NT 10.0; Win64; x64) AppleWebKit/537.36 (KHTML, like Gecko) Chrome/114.0.0.0 Safari/537.36","WebKit","Chrome","114.0.0.0","Windows","10.0","null","<div style=""font-size:60px;"">+</div>","null",""
"","","","","","html-button-response","72","206615","0.0-3.0-1.34","44","1","2023-06-22 16:49:14","077e191c96ad73626b2944d724c57d9e","208.194.214.233","Mozilla/5.0 (Windows NT 10.0; Win64; x64) AppleWebKit/537.36 (KHTML, like Gecko) Chrome/114.0.0.0 Safari/537.36","WebKit","Chrome","114.0.0.0","Windows","10.0","448","<p>As the military commander, you could choose to launch a missile to kill <strong>8 enemy soldiers</strong> , but would accidentally kill <strong>1 enemy tree</strong> nearby.</p> <p>The photo of the <strong>enemy tree</strong> is shown below.</p> <p></p> <img src='stimuli/tree/10.png', style='max-width: 30%;'> </img> <p><strong>Would you launch the weapon?</strong></p>","0",""
"","","","","","html-keyboard-response","73","207620","0.0-3.0-0.35","44","1","2023-06-22 16:49:14","077e191c96ad73626b2944d724c57d9e","208.194.214.233","Mozilla/5.0 (Windows NT 10.0; Win64; x64) AppleWebKit/537.36 (KHTML, like Gecko) Chrome/114.0.0.0 Safari/537.36","WebKit","Chrome","114.0.0.0","Windows","10.0","null","<div style=""font-size:60px;"">+</div>","null",""
"","","","","","html-button-response","74","208536","0.0-3.0-1.35","44","1","2023-06-22 16:49:14","077e191c96ad73626b2944d724c57d9e","208.194.214.233","Mozilla/5.0 (Windows NT 10.0; Win64; x64) AppleWebKit/537.36 (KHTML, like Gecko) Chrome/114.0.0.0 Safari/537.36","WebKit","Chrome","114.0.0.0","Windows","10.0","913","<p>As the military commander, you could choose to launch a missile to kill <strong>3 enemy soldiers</strong> , but would accidentally kill <strong>1 enemy civilian</strong> nearby.</p> <p>The photo of the <strong>enemy civilian</strong> is shown below.</p> <p></p> <img src='stimuli/faces/PFM8.jpg', style='max-width: 30%;'> </img> <p><strong>Would you launch the weapon?</strong></p>","0",""
"","","","","","html-keyboard-response","75","209540","0.0-3.0-0.36","44","1","2023-06-22 16:49:14","077e191c96ad73626b2944d724c57d9e","208.194.214.233","Mozilla/5.0 (Windows NT 10.0; Win64; x64) AppleWebKit/537.36 (KHTML, like Gecko) Chrome/114.0.0.0 Safari/537.36","WebKit","Chrome","114.0.0.0","Windows","10.0","null","<div style=""font-size:60px;"">+</div>","null",""
"","","","","","html-button-response","76","211343","0.0-3.0-1.36","44","1","2023-06-22 16:49:14","077e191c96ad73626b2944d724c57d9e","208.194.214.233","Mozilla/5.0 (Windows NT 10.0; Win64; x64) AppleWebKit/537.36 (KHTML, like Gecko) Chrome/114.0.0.0 Safari/537.36","WebKit","Chrome","114.0.0.0","Windows","10.0","1800","<p>As the military commander, you could choose to launch a missile to kill <strong>8 enemy soldiers</strong> , but would accidentally kill <strong>1 enemy tree</strong> nearby.</p> <p>The photo of the <strong>enemy tree</strong> is shown below.</p> <p></p> <img src='stimuli/tree/8.png', style='max-width: 30%;'> </img> <p><strong>Would you launch the weapon?</strong></p>","0",""
"","","","","","html-keyboard-response","77","212346","0.0-3.0-0.37","44","1","2023-06-22 16:49:14","077e191c96ad73626b2944d724c57d9e","208.194.214.233","Mozilla/5.0 (Windows NT 10.0; Win64; x64) AppleWebKit/537.36 (KHTML, like Gecko) Chrome/114.0.0.0 Safari/537.36","WebKit","Chrome","114.0.0.0","Windows","10.0","null","<div style=""font-size:60px;"">+</div>","null",""
"","","","","","html-button-response","78","218144","0.0-3.0-1.37","44","1","2023-06-22 16:49:14","077e191c96ad73626b2944d724c57d9e","208.194.214.233","Mozilla/5.0 (Windows NT 10.0; Win64; x64) AppleWebKit/537.36 (KHTML, like Gecko) Chrome/114.0.0.0 Safari/537.36","WebKit","Chrome","114.0.0.0","Windows","10.0","5795","<p>As the military commander, you could choose to launch a missile to kill <strong>10 enemy soldiers</strong> , but would accidentally kill <strong>1 enemy tree</strong> nearby.</p> <p>The photo of the <strong>enemy tree</strong> is shown below.</p> <p></p> <img src='stimuli/tree/9.png', style='max-width: 30%;'> </img> <p><strong>Would you launch the weapon?</strong></p>","0",""
"","","","","","html-keyboard-response","79","219148","0.0-3.0-0.38","44","1","2023-06-22 16:49:14","077e191c96ad73626b2944d724c57d9e","208.194.214.233","Mozilla/5.0 (Windows NT 10.0; Win64; x64) AppleWebKit/537.36 (KHTML, like Gecko) Chrome/114.0.0.0 Safari/537.36","WebKit","Chrome","114.0.0.0","Windows","10.0","null","<div style=""font-size:60px;"">+</div>","null",""
"","","","","","html-button-response","80","243293","0.0-3.0-1.38","44","1","2023-06-22 16:49:14","077e191c96ad73626b2944d724c57d9e","208.194.214.233","Mozilla/5.0 (Windows NT 10.0; Win64; x64) AppleWebKit/537.36 (KHTML, like Gecko) Chrome/114.0.0.0 Safari/537.36","WebKit","Chrome","114.0.0.0","Windows","10.0","24141","<p>As the military commander, you could choose to launch a missile to kill <strong>4 enemy soldiers</strong> , but would accidentally kill <strong>1 enemy civilian</strong> nearby.</p> <p>The photo of the <strong>enemy civilian</strong> is shown below.</p> <p></p> <img src='stimuli/faces/PFF7.jpg', style='max-width: 30%;'> </img> <p><strong>Would you launch the weapon?</strong></p>","0",""
"","","","","","html-keyboard-response","81","244297","0.0-3.0-0.39","44","1","2023-06-22 16:49:14","077e191c96ad73626b2944d724c57d9e","208.194.214.233","Mozilla/5.0 (Windows NT 10.0; Win64; x64) AppleWebKit/537.36 (KHTML, like Gecko) Chrome/114.0.0.0 Safari/537.36","WebKit","Chrome","114.0.0.0","Windows","10.0","null","<div style=""font-size:60px;"">+</div>","null",""
"","","","","","html-button-response","82","245952","0.0-3.0-1.39","44","1","2023-06-22 16:49:14","077e191c96ad73626b2944d724c57d9e","208.194.214.233","Mozilla/5.0 (Windows NT 10.0; Win64; x64) AppleWebKit/537.36 (KHTML, like Gecko) Chrome/114.0.0.0 Safari/537.36","WebKit","Chrome","114.0.0.0","Windows","10.0","1651","<p>As the military commander, you could choose to launch a missile to kill <strong>4 enemy soldiers</strong> , but would accidentally kill <strong>1 enemy civilian</strong> nearby.</p> <p>The photo of the <strong>enemy civilian</strong> is shown below.</p> <p></p> <img src='stimuli/faces/PFM1.jpg', style='max-width: 30%;'> </img> <p><strong>Would you launch the weapon?</strong></p>","0",""
"","","","","","html-keyboard-response","83","246957","0.0-3.0-0.40","44","1","2023-06-22 16:49:14","077e191c96ad73626b2944d724c57d9e","208.194.214.233","Mozilla/5.0 (Windows NT 10.0; Win64; x64) AppleWebKit/537.36 (KHTML, like Gecko) Chrome/114.0.0.0 Safari/537.36","WebKit","Chrome","114.0.0.0","Windows","10.0","null","<div style=""font-size:60px;"">+</div>","null",""
"","","","","","html-button-response","84","247805","0.0-3.0-1.40","44","1","2023-06-22 16:49:14","077e191c96ad73626b2944d724c57d9e","208.194.214.233","Mozilla/5.0 (Windows NT 10.0; Win64; x64) AppleWebKit/537.36 (KHTML, like Gecko) Chrome/114.0.0.0 Safari/537.36","WebKit","Chrome","114.0.0.0","Windows","10.0","845","<p>As the military commander, you could choose to launch a missile to kill <strong>6 enemy soldiers</strong> , but would accidentally kill <strong>1 enemy civilian</strong> nearby.</p> <p>The photo of the <strong>enemy civilian</strong> is shown below.</p> <p></p> <img src='stimuli/faces/PFF3.jpg', style='max-width: 30%;'> </img> <p><strong>Would you launch the weapon?</strong></p>","0",""
"","","","","","html-keyboard-response","85","248809","0.0-3.0-0.41","44","1","2023-06-22 16:49:14","077e191c96ad73626b2944d724c57d9e","208.194.214.233","Mozilla/5.0 (Windows NT 10.0; Win64; x64) AppleWebKit/537.36 (KHTML, like Gecko) Chrome/114.0.0.0 Safari/537.36","WebKit","Chrome","114.0.0.0","Windows","10.0","null","<div style=""font-size:60px;"">+</div>","null",""
"","","","","","html-button-response","86","249823","0.0-3.0-1.41","44","1","2023-06-22 16:49:14","077e191c96ad73626b2944d724c57d9e","208.194.214.233","Mozilla/5.0 (Windows NT 10.0; Win64; x64) AppleWebKit/537.36 (KHTML, like Gecko) Chrome/114.0.0.0 Safari/537.36","WebKit","Chrome","114.0.0.0","Windows","10.0","1011","<p>As the military commander, you could choose to launch a missile to kill <strong>9 enemy soldiers</strong> , but would accidentally kill <strong>1 enemy tree</strong> nearby.</p> <p>The photo of the <strong>enemy tree</strong> is shown below.</p> <p></p> <img src='stimuli/tree/13.png', style='max-width: 30%;'> </img> <p><strong>Would you launch the weapon?</strong></p>","0",""
"","","","","","html-keyboard-response","87","250827","0.0-3.0-0.42","44","1","2023-06-22 16:49:14","077e191c96ad73626b2944d724c57d9e","208.194.214.233","Mozilla/5.0 (Windows NT 10.0; Win64; x64) AppleWebKit/537.36 (KHTML, like Gecko) Chrome/114.0.0.0 Safari/537.36","WebKit","Chrome","114.0.0.0","Windows","10.0","null","<div style=""font-size:60px;"">+</div>","null",""
"","","","","","html-button-response","88","251751","0.0-3.0-1.42","44","1","2023-06-22 16:49:14","077e191c96ad73626b2944d724c57d9e","208.194.214.233","Mozilla/5.0 (Windows NT 10.0; Win64; x64) AppleWebKit/537.36 (KHTML, like Gecko) Chrome/114.0.0.0 Safari/537.36","WebKit","Chrome","114.0.0.0","Windows","10.0","921","<p>As the military commander, you could choose to launch a missile to kill <strong>9 enemy soldiers</strong> , but would accidentally kill <strong>1 enemy civilian</strong> nearby.</p> <p>The photo of the <strong>enemy civilian</strong> is shown below.</p> <p></p> <img src='stimuli/faces/PFF7.jpg', style='max-width: 30%;'> </img> <p><strong>Would you launch the weapon?</strong></p>","0",""
"","","","","","html-keyboard-response","89","252755","0.0-3.0-0.43","44","1","2023-06-22 16:49:14","077e191c96ad73626b2944d724c57d9e","208.194.214.233","Mozilla/5.0 (Windows NT 10.0; Win64; x64) AppleWebKit/537.36 (KHTML, like Gecko) Chrome/114.0.0.0 Safari/537.36","WebKit","Chrome","114.0.0.0","Windows","10.0","null","<div style=""font-size:60px;"">+</div>","null",""
"","","","","","html-button-response","90","253941","0.0-3.0-1.43","44","1","2023-06-22 16:49:14","077e191c96ad73626b2944d724c57d9e","208.194.214.233","Mozilla/5.0 (Windows NT 10.0; Win64; x64) AppleWebKit/537.36 (KHTML, like Gecko) Chrome/114.0.0.0 Safari/537.36","WebKit","Chrome","114.0.0.0","Windows","10.0","1183","<p>As the military commander, you could choose to launch a missile to kill <strong>6 enemy soldiers</strong> , but would accidentally kill <strong>1 enemy civilian</strong> nearby.</p> <p>The photo of the <strong>enemy civilian</strong> is shown below.</p> <p></p> <img src='stimuli/faces/PFM2.jpg', style='max-width: 30%;'> </img> <p><strong>Would you launch the weapon?</strong></p>","0",""
"","","","","","html-keyboard-response","91","254946","0.0-3.0-0.44","44","1","2023-06-22 16:49:14","077e191c96ad73626b2944d724c57d9e","208.194.214.233","Mozilla/5.0 (Windows NT 10.0; Win64; x64) AppleWebKit/537.36 (KHTML, like Gecko) Chrome/114.0.0.0 Safari/537.36","WebKit","Chrome","114.0.0.0","Windows","10.0","null","<div style=""font-size:60px;"">+</div>","null",""
"","","","","","html-button-response","92","255982","0.0-3.0-1.44","44","1","2023-06-22 16:49:14","077e191c96ad73626b2944d724c57d9e","208.194.214.233","Mozilla/5.0 (Windows NT 10.0; Win64; x64) AppleWebKit/537.36 (KHTML, like Gecko) Chrome/114.0.0.0 Safari/537.36","WebKit","Chrome","114.0.0.0","Windows","10.0","1033","<p>As the military commander, you could choose to launch a missile to kill <strong>5 enemy soldiers</strong> , but would accidentally kill <strong>1 enemy civilian</strong> nearby.</p> <p>The photo of the <strong>enemy civilian</strong> is shown below.</p> <p></p> <img src='stimuli/faces/PFM6.jpg', style='max-width: 30%;'> </img> <p><strong>Would you launch the weapon?</strong></p>","0",""
"","","","","","html-keyboard-response","93","256986","0.0-3.0-0.45","44","1","2023-06-22 16:49:14","077e191c96ad73626b2944d724c57d9e","208.194.214.233","Mozilla/5.0 (Windows NT 10.0; Win64; x64) AppleWebKit/537.36 (KHTML, like Gecko) Chrome/114.0.0.0 Safari/537.36","WebKit","Chrome","114.0.0.0","Windows","10.0","null","<div style=""font-size:60px;"">+</div>","null",""
"","","","","","html-button-response","94","258158","0.0-3.0-1.45","44","1","2023-06-22 16:49:14","077e191c96ad73626b2944d724c57d9e","208.194.214.233","Mozilla/5.0 (Windows NT 10.0; Win64; x64) AppleWebKit/537.36 (KHTML, like Gecko) Chrome/114.0.0.0 Safari/537.36","WebKit","Chrome","114.0.0.0","Windows","10.0","1167","<p>As the military commander, you could choose to launch a missile to kill <strong>6 enemy soldiers</strong> , but would accidentally kill <strong>1 enemy tree</strong> nearby.</p> <p>The photo of the <strong>enemy tree</strong> is shown below.</p> <p></p> <img src='stimuli/tree/4.png', style='max-width: 30%;'> </img> <p><strong>Would you launch the weapon?</strong></p>","0",""
"","","","","","html-keyboard-response","95","259163","0.0-3.0-0.46","44","1","2023-06-22 16:49:14","077e191c96ad73626b2944d724c57d9e","208.194.214.233","Mozilla/5.0 (Windows NT 10.0; Win64; x64) AppleWebKit/537.36 (KHTML, like Gecko) Chrome/114.0.0.0 Safari/537.36","WebKit","Chrome","114.0.0.0","Windows","10.0","null","<div style=""font-size:60px;"">+</div>","null",""
"","","","","","html-button-response","96","260150","0.0-3.0-1.46","44","1","2023-06-22 16:49:14","077e191c96ad73626b2944d724c57d9e","208.194.214.233","Mozilla/5.0 (Windows NT 10.0; Win64; x64) AppleWebKit/537.36 (KHTML, like Gecko) Chrome/114.0.0.0 Safari/537.36","WebKit","Chrome","114.0.0.0","Windows","10.0","983","<p>As the military commander, you could choose to launch a missile to kill <strong>7 enemy soldiers</strong> , but would accidentally kill <strong>1 enemy civilian</strong> nearby.</p> <p>The photo of the <strong>enemy civilian</strong> is shown below.</p> <p></p> <img src='stimuli/faces/PFF2.jpg', style='max-width: 30%;'> </img> <p><strong>Would you launch the weapon?</strong></p>","0",""
"","","","","","html-keyboard-response","97","261155","0.0-3.0-0.47","44","1","2023-06-22 16:49:14","077e191c96ad73626b2944d724c57d9e","208.194.214.233","Mozilla/5.0 (Windows NT 10.0; Win64; x64) AppleWebKit/537.36 (KHTML, like Gecko) Chrome/114.0.0.0 Safari/537.36","WebKit","Chrome","114.0.0.0","Windows","10.0","null","<div style=""font-size:60px;"">+</div>","null",""
"","","","","","html-button-response","98","261941","0.0-3.0-1.47","44","1","2023-06-22 16:49:14","077e191c96ad73626b2944d724c57d9e","208.194.214.233","Mozilla/5.0 (Windows NT 10.0; Win64; x64) AppleWebKit/537.36 (KHTML, like Gecko) Chrome/114.0.0.0 Safari/537.36","WebKit","Chrome","114.0.0.0","Windows","10.0","781","<p>As the military commander, you could choose to launch a missile to kill <strong>7 enemy soldiers</strong> , but would accidentally kill <strong>1 enemy civilian</strong> nearby.</p> <p>The photo of the <strong>enemy civilian</strong> is shown below.</p> <p></p> <img src='stimuli/faces/PFF8.jpg', style='max-width: 30%;'> </img> <p><strong>Would you launch the weapon?</strong></p>","0",""
"","","","","","html-keyboard-response","99","262945","0.0-3.0-0.48","44","1","2023-06-22 16:49:14","077e191c96ad73626b2944d724c57d9e","208.194.214.233","Mozilla/5.0 (Windows NT 10.0; Win64; x64) AppleWebKit/537.36 (KHTML, like Gecko) Chrome/114.0.0.0 Safari/537.36","WebKit","Chrome","114.0.0.0","Windows","10.0","null","<div style=""font-size:60px;"">+</div>","null",""
"","","","","","html-button-response","100","267030","0.0-3.0-1.48","44","1","2023-06-22 16:49:14","077e191c96ad73626b2944d724c57d9e","208.194.214.233","Mozilla/5.0 (Windows NT 10.0; Win64; x64) AppleWebKit/537.36 (KHTML, like Gecko) Chrome/114.0.0.0 Safari/537.36","WebKit","Chrome","114.0.0.0","Windows","10.0","4081","<p>As the military commander, you could choose to launch a missile to kill <strong>6 enemy soldiers</strong> , but would accidentally kill <strong>1 enemy civilian</strong> nearby.</p> <p>The photo of the <strong>enemy civilian</strong> is shown below.</p> <p></p> <img src='stimuli/faces/PFM1.jpg', style='max-width: 30%;'> </img> <p><strong>Would you launch the weapon?</strong></p>","0",""
"","","","","","html-keyboard-response","101","268034","0.0-3.0-0.49","44","1","2023-06-22 16:49:14","077e191c96ad73626b2944d724c57d9e","208.194.214.233","Mozilla/5.0 (Windows NT 10.0; Win64; x64) AppleWebKit/537.36 (KHTML, like Gecko) Chrome/114.0.0.0 Safari/537.36","WebKit","Chrome","114.0.0.0","Windows","10.0","null","<div style=""font-size:60px;"">+</div>","null",""
"","","","","","html-button-response","102","268773","0.0-3.0-1.49","44","1","2023-06-22 16:49:14","077e191c96ad73626b2944d724c57d9e","208.194.214.233","Mozilla/5.0 (Windows NT 10.0; Win64; x64) AppleWebKit/537.36 (KHTML, like Gecko) Chrome/114.0.0.0 Safari/537.36","WebKit","Chrome","114.0.0.0","Windows","10.0","735","<p>As the military commander, you could choose to launch a missile to kill <strong>5 enemy soldiers</strong> , but would accidentally kill <strong>1 enemy tree</strong> nearby.</p> <p>The photo of the <strong>enemy tree</strong> is shown below.</p> <p></p> <img src='stimuli/tree/16.png', style='max-width: 30%;'> </img> <p><strong>Would you launch the weapon?</strong></p>","0",""
"","","","","","html-keyboard-response","103","269777","0.0-3.0-0.50","44","1","2023-06-22 16:49:14","077e191c96ad73626b2944d724c57d9e","208.194.214.233","Mozilla/5.0 (Windows NT 10.0; Win64; x64) AppleWebKit/537.36 (KHTML, like Gecko) Chrome/114.0.0.0 Safari/537.36","WebKit","Chrome","114.0.0.0","Windows","10.0","null","<div style=""font-size:60px;"">+</div>","null",""
"","","","","","html-button-response","104","270405","0.0-3.0-1.50","44","1","2023-06-22 16:49:14","077e191c96ad73626b2944d724c57d9e","208.194.214.233","Mozilla/5.0 (Windows NT 10.0; Win64; x64) AppleWebKit/537.36 (KHTML, like Gecko) Chrome/114.0.0.0 Safari/537.36","WebKit","Chrome","114.0.0.0","Windows","10.0","625","<p>As the military commander, you could choose to launch a missile to kill <strong>2 enemy soldiers</strong> , but would accidentally kill <strong>1 enemy tree</strong> nearby.</p> <p>The photo of the <strong>enemy tree</strong> is shown below.</p> <p></p> <img src='stimuli/tree/12.png', style='max-width: 30%;'> </img> <p><strong>Would you launch the weapon?</strong></p>","0",""
"","","","","","html-keyboard-response","105","271409","0.0-3.0-0.51","44","1","2023-06-22 16:49:14","077e191c96ad73626b2944d724c57d9e","208.194.214.233","Mozilla/5.0 (Windows NT 10.0; Win64; x64) AppleWebKit/537.36 (KHTML, like Gecko) Chrome/114.0.0.0 Safari/537.36","WebKit","Chrome","114.0.0.0","Windows","10.0","null","<div style=""font-size:60px;"">+</div>","null",""
"","","","","","html-button-response","106","271957","0.0-3.0-1.51","44","1","2023-06-22 16:49:14","077e191c96ad73626b2944d724c57d9e","208.194.214.233","Mozilla/5.0 (Windows NT 10.0; Win64; x64) AppleWebKit/537.36 (KHTML, like Gecko) Chrome/114.0.0.0 Safari/537.36","WebKit","Chrome","114.0.0.0","Windows","10.0","544","<p>As the military commander, you could choose to launch a missile to kill <strong>9 enemy soldiers</strong> , but would accidentally kill <strong>1 enemy civilian</strong> nearby.</p> <p>The photo of the <strong>enemy civilian</strong> is shown below.</p> <p></p> <img src='stimuli/faces/PFF6.jpg', style='max-width: 30%;'> </img> <p><strong>Would you launch the weapon?</strong></p>","0",""
"","","","","","html-keyboard-response","107","272961","0.0-3.0-0.52","44","1","2023-06-22 16:49:14","077e191c96ad73626b2944d724c57d9e","208.194.214.233","Mozilla/5.0 (Windows NT 10.0; Win64; x64) AppleWebKit/537.36 (KHTML, like Gecko) Chrome/114.0.0.0 Safari/537.36","WebKit","Chrome","114.0.0.0","Windows","10.0","null","<div style=""font-size:60px;"">+</div>","null",""
"","","","","","html-button-response","108","273815","0.0-3.0-1.52","44","1","2023-06-22 16:49:14","077e191c96ad73626b2944d724c57d9e","208.194.214.233","Mozilla/5.0 (Windows NT 10.0; Win64; x64) AppleWebKit/537.36 (KHTML, like Gecko) Chrome/114.0.0.0 Safari/537.36","WebKit","Chrome","114.0.0.0","Windows","10.0","851","<p>As the military commander, you could choose to launch a missile to kill <strong>1 enemy soldier</strong> , but would accidentally kill <strong>1 enemy tree</strong> nearby.</p> <p>The photo of the <strong>enemy tree</strong> is shown below.</p> <p></p> <img src='stimuli/tree/7.png', style='max-width: 30%;'> </img> <p><strong>Would you launch the weapon?</strong></p>","1",""
"","","","","","html-keyboard-response","109","274820","0.0-3.0-0.53","44","1","2023-06-22 16:49:14","077e191c96ad73626b2944d724c57d9e","208.194.214.233","Mozilla/5.0 (Windows NT 10.0; Win64; x64) AppleWebKit/537.36 (KHTML, like Gecko) Chrome/114.0.0.0 Safari/537.36","WebKit","Chrome","114.0.0.0","Windows","10.0","null","<div style=""font-size:60px;"">+</div>","null",""
"","","","","","html-button-response","110","275397","0.0-3.0-1.53","44","1","2023-06-22 16:49:14","077e191c96ad73626b2944d724c57d9e","208.194.214.233","Mozilla/5.0 (Windows NT 10.0; Win64; x64) AppleWebKit/537.36 (KHTML, like Gecko) Chrome/114.0.0.0 Safari/537.36","WebKit","Chrome","114.0.0.0","Windows","10.0","574","<p>As the military commander, you could choose to launch a missile to kill <strong>10 enemy soldiers</strong> , but would accidentally kill <strong>1 enemy tree</strong> nearby.</p> <p>The photo of the <strong>enemy tree</strong> is shown below.</p> <p></p> <img src='stimuli/tree/12.png', style='max-width: 30%;'> </img> <p><strong>Would you launch the weapon?</strong></p>","0",""
"","","","","","html-keyboard-response","111","276402","0.0-3.0-0.54","44","1","2023-06-22 16:49:14","077e191c96ad73626b2944d724c57d9e","208.194.214.233","Mozilla/5.0 (Windows NT 10.0; Win64; x64) AppleWebKit/537.36 (KHTML, like Gecko) Chrome/114.0.0.0 Safari/537.36","WebKit","Chrome","114.0.0.0","Windows","10.0","null","<div style=""font-size:60px;"">+</div>","null",""
"","","","","","html-button-response","112","277207","0.0-3.0-1.54","44","1","2023-06-22 16:49:14","077e191c96ad73626b2944d724c57d9e","208.194.214.233","Mozilla/5.0 (Windows NT 10.0; Win64; x64) AppleWebKit/537.36 (KHTML, like Gecko) Chrome/114.0.0.0 Safari/537.36","WebKit","Chrome","114.0.0.0","Windows","10.0","801","<p>As the military commander, you could choose to launch a missile to kill <strong>2 enemy soldiers</strong> , but would accidentally kill <strong>1 enemy civilian</strong> nearby.</p> <p>The photo of the <strong>enemy civilian</strong> is shown below.</p> <p></p> <img src='stimuli/faces/PFM4.jpg', style='max-width: 30%;'> </img> <p><strong>Would you launch the weapon?</strong></p>","0",""
"","","","","","html-keyboard-response","113","278212","0.0-3.0-0.55","44","1","2023-06-22 16:49:14","077e191c96ad73626b2944d724c57d9e","208.194.214.233","Mozilla/5.0 (Windows NT 10.0; Win64; x64) AppleWebKit/537.36 (KHTML, like Gecko) Chrome/114.0.0.0 Safari/537.36","WebKit","Chrome","114.0.0.0","Windows","10.0","null","<div style=""font-size:60px;"">+</div>","null",""
"","","","","","html-button-response","114","278894","0.0-3.0-1.55","44","1","2023-06-22 16:49:14","077e191c96ad73626b2944d724c57d9e","208.194.214.233","Mozilla/5.0 (Windows NT 10.0; Win64; x64) AppleWebKit/537.36 (KHTML, like Gecko) Chrome/114.0.0.0 Safari/537.36","WebKit","Chrome","114.0.0.0","Windows","10.0","678","<p>As the military commander, you could choose to launch a missile to kill <strong>6 enemy soldiers</strong> , but would accidentally kill <strong>1 enemy tree</strong> nearby.</p> <p>The photo of the <strong>enemy tree</strong> is shown below.</p> <p></p> <img src='stimuli/tree/16.png', style='max-width: 30%;'> </img> <p><strong>Would you launch the weapon?</strong></p>","0",""
"","","","","","html-keyboard-response","115","279899","0.0-3.0-0.56","44","1","2023-06-22 16:49:14","077e191c96ad73626b2944d724c57d9e","208.194.214.233","Mozilla/5.0 (Windows NT 10.0; Win64; x64) AppleWebKit/537.36 (KHTML, like Gecko) Chrome/114.0.0.0 Safari/537.36","WebKit","Chrome","114.0.0.0","Windows","10.0","null","<div style=""font-size:60px;"">+</div>","null",""
"","","","","","html-button-response","116","282797","0.0-3.0-1.56","44","1","2023-06-22 16:49:14","077e191c96ad73626b2944d724c57d9e","208.194.214.233","Mozilla/5.0 (Windows NT 10.0; Win64; x64) AppleWebKit/537.36 (KHTML, like Gecko) Chrome/114.0.0.0 Safari/537.36","WebKit","Chrome","114.0.0.0","Windows","10.0","2894","<p>As the military commander, you could choose to launch a missile to kill <strong>9 enemy soldiers</strong> , but would accidentally kill <strong>1 enemy civilian</strong> nearby.</p> <p>The photo of the <strong>enemy civilian</strong> is shown below.</p> <p></p> <img src='stimuli/faces/PFF4.jpg', style='max-width: 30%;'> </img> <p><strong>Would you launch the weapon?</strong></p>","0",""
"","","","","","html-keyboard-response","117","283801","0.0-3.0-0.57","44","1","2023-06-22 16:49:14","077e191c96ad73626b2944d724c57d9e","208.194.214.233","Mozilla/5.0 (Windows NT 10.0; Win64; x64) AppleWebKit/537.36 (KHTML, like Gecko) Chrome/114.0.0.0 Safari/537.36","WebKit","Chrome","114.0.0.0","Windows","10.0","null","<div style=""font-size:60px;"">+</div>","null",""
"","","","","","html-button-response","118","284653","0.0-3.0-1.57","44","1","2023-06-22 16:49:14","077e191c96ad73626b2944d724c57d9e","208.194.214.233","Mozilla/5.0 (Windows NT 10.0; Win64; x64) AppleWebKit/537.36 (KHTML, like Gecko) Chrome/114.0.0.0 Safari/537.36","WebKit","Chrome","114.0.0.0","Windows","10.0","847","<p>As the military commander, you could choose to launch a missile to kill <strong>10 enemy soldiers</strong> , but would accidentally kill <strong>1 enemy civilian</strong> nearby.</p> <p>The photo of the <strong>enemy civilian</strong> is shown below.</p> <p></p> <img src='stimuli/faces/PFM5.jpg', style='max-width: 30%;'> </img> <p><strong>Would you launch the weapon?</strong></p>","0",""
"","","","","","html-keyboard-response","119","285657","0.0-3.0-0.58","44","1","2023-06-22 16:49:14","077e191c96ad73626b2944d724c57d9e","208.194.214.233","Mozilla/5.0 (Windows NT 10.0; Win64; x64) AppleWebKit/537.36 (KHTML, like Gecko) Chrome/114.0.0.0 Safari/537.36","WebKit","Chrome","114.0.0.0","Windows","10.0","null","<div style=""font-size:60px;"">+</div>","null",""
"","","","","","html-button-response","120","286527","0.0-3.0-1.58","44","1","2023-06-22 16:49:14","077e191c96ad73626b2944d724c57d9e","208.194.214.233","Mozilla/5.0 (Windows NT 10.0; Win64; x64) AppleWebKit/537.36 (KHTML, like Gecko) Chrome/114.0.0.0 Safari/537.36","WebKit","Chrome","114.0.0.0","Windows","10.0","866","<p>As the military commander, you could choose to launch a missile to kill <strong>2 enemy soldiers</strong> , but would accidentally kill <strong>1 enemy civilian</strong> nearby.</p> <p>The photo of the <strong>enemy civilian</strong> is shown below.</p> <p></p> <img src='stimuli/faces/PFF2.jpg', style='max-width: 30%;'> </img> <p><strong>Would you launch the weapon?</strong></p>","0",""
"","","","","","html-keyboard-response","121","287533","0.0-3.0-0.59","44","1","2023-06-22 16:49:14","077e191c96ad73626b2944d724c57d9e","208.194.214.233","Mozilla/5.0 (Windows NT 10.0; Win64; x64) AppleWebKit/537.36 (KHTML, like Gecko) Chrome/114.0.0.0 Safari/537.36","WebKit","Chrome","114.0.0.0","Windows","10.0","null","<div style=""font-size:60px;"">+</div>","null",""
"","","","","","html-button-response","122","288887","0.0-3.0-1.59","44","1","2023-06-22 16:49:14","077e191c96ad73626b2944d724c57d9e","208.194.214.233","Mozilla/5.0 (Windows NT 10.0; Win64; x64) AppleWebKit/537.36 (KHTML, like Gecko) Chrome/114.0.0.0 Safari/537.36","WebKit","Chrome","114.0.0.0","Windows","10.0","1351","<p>As the military commander, you could choose to launch a missile to kill <strong>7 enemy soldiers</strong> , but would accidentally kill <strong>1 enemy civilian</strong> nearby.</p> <p>The photo of the <strong>enemy civilian</strong> is shown below.</p> <p></p> <img src='stimuli/faces/PFF5.jpg', style='max-width: 30%;'> </img> <p><strong>Would you launch the weapon?</strong></p>","0",""
"","","","","","html-keyboard-response","123","289891","0.0-3.0-0.60","44","1","2023-06-22 16:49:14","077e191c96ad73626b2944d724c57d9e","208.194.214.233","Mozilla/5.0 (Windows NT 10.0; Win64; x64) AppleWebKit/537.36 (KHTML, like Gecko) Chrome/114.0.0.0 Safari/537.36","WebKit","Chrome","114.0.0.0","Windows","10.0","null","<div style=""font-size:60px;"">+</div>","null",""
"","","","","","html-button-response","124","312589","0.0-3.0-1.60","44","1","2023-06-22 16:49:14","077e191c96ad73626b2944d724c57d9e","208.194.214.233","Mozilla/5.0 (Windows NT 10.0; Win64; x64) AppleWebKit/537.36 (KHTML, like Gecko) Chrome/114.0.0.0 Safari/537.36","WebKit","Chrome","114.0.0.0","Windows","10.0","22694","<p>As the military commander, you could choose to launch a missile to kill <strong>2 enemy soldiers</strong> , but would accidentally kill <strong>1 enemy tree</strong> nearby.</p> <p>The photo of the <strong>enemy tree</strong> is shown below.</p> <p></p> <img src='stimuli/tree/8.png', style='max-width: 30%;'> </img> <p><strong>Would you launch the weapon?</strong></p>","0",""
"","","","","","html-keyboard-response","125","313595","0.0-3.0-0.61","44","1","2023-06-22 16:49:14","077e191c96ad73626b2944d724c57d9e","208.194.214.233","Mozilla/5.0 (Windows NT 10.0; Win64; x64) AppleWebKit/537.36 (KHTML, like Gecko) Chrome/114.0.0.0 Safari/537.36","WebKit","Chrome","114.0.0.0","Windows","10.0","null","<div style=""font-size:60px;"">+</div>","null",""
"","","","","","html-button-response","126","315191","0.0-3.0-1.61","44","1","2023-06-22 16:49:14","077e191c96ad73626b2944d724c57d9e","208.194.214.233","Mozilla/5.0 (Windows NT 10.0; Win64; x64) AppleWebKit/537.36 (KHTML, like Gecko) Chrome/114.0.0.0 Safari/537.36","WebKit","Chrome","114.0.0.0","Windows","10.0","1591","<p>As the military commander, you could choose to launch a missile to kill <strong>6 enemy soldiers</strong> , but would accidentally kill <strong>1 enemy tree</strong> nearby.</p> <p>The photo of the <strong>enemy tree</strong> is shown below.</p> <p></p> <img src='stimuli/tree/1.png', style='max-width: 30%;'> </img> <p><strong>Would you launch the weapon?</strong></p>","0",""
"","","","","","html-keyboard-response","127","316196","0.0-3.0-0.62","44","1","2023-06-22 16:49:14","077e191c96ad73626b2944d724c57d9e","208.194.214.233","Mozilla/5.0 (Windows NT 10.0; Win64; x64) AppleWebKit/537.36 (KHTML, like Gecko) Chrome/114.0.0.0 Safari/537.36","WebKit","Chrome","114.0.0.0","Windows","10.0","null","<div style=""font-size:60px;"">+</div>","null",""
"","","","","","html-button-response","128","317916","0.0-3.0-1.62","44","1","2023-06-22 16:49:14","077e191c96ad73626b2944d724c57d9e","208.194.214.233","Mozilla/5.0 (Windows NT 10.0; Win64; x64) AppleWebKit/537.36 (KHTML, like Gecko) Chrome/114.0.0.0 Safari/537.36","WebKit","Chrome","114.0.0.0","Windows","10.0","1717","<p>As the military commander, you could choose to launch a missile to kill <strong>3 enemy soldiers</strong> , but would accidentally kill <strong>1 enemy civilian</strong> nearby.</p> <p>The photo of the <strong>enemy civilian</strong> is shown below.</p> <p></p> <img src='stimuli/faces/PFM2.jpg', style='max-width: 30%;'> </img> <p><strong>Would you launch the weapon?</strong></p>","0",""
"","","","","","html-keyboard-response","129","318921","0.0-3.0-0.63","44","1","2023-06-22 16:49:14","077e191c96ad73626b2944d724c57d9e","208.194.214.233","Mozilla/5.0 (Windows NT 10.0; Win64; x64) AppleWebKit/537.36 (KHTML, like Gecko) Chrome/114.0.0.0 Safari/537.36","WebKit","Chrome","114.0.0.0","Windows","10.0","null","<div style=""font-size:60px;"">+</div>","null",""
"","","","","","html-button-response","130","319844","0.0-3.0-1.63","44","1","2023-06-22 16:49:14","077e191c96ad73626b2944d724c57d9e","208.194.214.233","Mozilla/5.0 (Windows NT 10.0; Win64; x64) AppleWebKit/537.36 (KHTML, like Gecko) Chrome/114.0.0.0 Safari/537.36","WebKit","Chrome","114.0.0.0","Windows","10.0","919","<p>As the military commander, you could choose to launch a missile to kill <strong>2 enemy soldiers</strong> , but would accidentally kill <strong>1 enemy tree</strong> nearby.</p> <p>The photo of the <strong>enemy tree</strong> is shown below.</p> <p></p> <img src='stimuli/tree/11.png', style='max-width: 30%;'> </img> <p><strong>Would you launch the weapon?</strong></p>","0",""
"","","","","","survey-multi-choice","131","324910","0.0-4.0","44","1","2023-06-22 16:49:14","077e191c96ad73626b2944d724c57d9e","208.194.214.233","Mozilla/5.0 (Windows NT 10.0; Win64; x64) AppleWebKit/537.36 (KHTML, like Gecko) Chrome/114.0.0.0 Safari/537.36","WebKit","Chrome","114.0.0.0","Windows","10.0","5059","","{""Attention1"":""""}","[0]"
"","","","","","html-button-response","132","326326","0.0-5.0","44","1","2023-06-22 16:49:14","077e191c96ad73626b2944d724c57d9e","208.194.214.233","Mozilla/5.0 (Windows NT 10.0; Win64; x64) AppleWebKit/537.36 (KHTML, like Gecko) Chrome/114.0.0.0 Safari/537.36","WebKit","Chrome","114.0.0.0","Windows","10.0","1408","<p style=""font-size:20px;font-weight:bold;"">Great!</p><p>You have finished the first part of the experiment!</p><p>Please relax a little bit and then contine to answer some questions regarding yourself.</p><p>The next part will take around 10 minutes to complete.</p>","0",""
"","","","","","survey-text","133","433161","0.0-6.0","44","1","2023-06-22 16:49:14","077e191c96ad73626b2944d724c57d9e","208.194.214.233","Mozilla/5.0 (Windows NT 10.0; Win64; x64) AppleWebKit/537.36 (KHTML, like Gecko) Chrome/114.0.0.0 Safari/537.36","WebKit","Chrome","114.0.0.0","Windows","10.0","105826","","{""Age"":""30"",""Nation"":""American"",""Born"":""USA"",""Live"":""Alaska""}",""
"","","","","","survey-multi-choice","134","444831","0.0-7.0","44","1","2023-06-22 16:49:14","077e191c96ad73626b2944d724c57d9e","208.194.214.233","Mozilla/5.0 (Windows NT 10.0; Win64; x64) AppleWebKit/537.36 (KHTML, like Gecko) Chrome/114.0.0.0 Safari/537.36","WebKit","Chrome","114.0.0.0","Windows","10.0","11664","","{""Gender"":""Male"",""Education"":""Bachelor's Degree"",""Income"":""$40,000 - $69,999"",""Children"":""1"",""Ethnicity"":""White""}","[0,1,2,3,4]"
"","","","","","survey-multi-select","135","481112","0.0-8.0","44","1","2023-06-22 16:49:14","077e191c96ad73626b2944d724c57d9e","208.194.214.233","Mozilla/5.0 (Windows NT 10.0; Win64; x64) AppleWebKit/537.36 (KHTML, like Gecko) Chrome/114.0.0.0 Safari/537.36","WebKit","Chrome","114.0.0.0","Windows","10.0","36268","","{""Marriage"":[""Married""],""Religion"":[""Christian""]}","[0,1]"
"","","","","","survey-multi-choice","136","488007","0.0-9.0","44","1","2023-06-22 16:49:14","077e191c96ad73626b2944d724c57d9e","208.194.214.233","Mozilla/5.0 (Windows NT 10.0; Win64; x64) AppleWebKit/537.36 (KHTML, like Gecko) Chrome/114.0.0.0 Safari/537.36","WebKit","Chrome","114.0.0.0","Windows","10.0","6886","","{""SES"":""9""}","[0]"
"","","","","","html-button-response","137","490013","0.0-10.0","44","1","2023-06-22 16:49:14","077e191c96ad73626b2944d724c57d9e","208.194.214.233","Mozilla/5.0 (Windows NT 10.0; Win64; x64) AppleWebKit/537.36 (KHTML, like Gecko) Chrome/114.0.0.0 Safari/537.36","WebKit","Chrome","114.0.0.0","Windows","10.0","1999","<p><strong>Please indicate the extent that the following statements could describe you.</p><p> (1 = ""extremely uncharacteristic of me"" to 5 = ""extremely characteristic of me"".)</strong></p>","0",""
"","","","","","survey-likert","138","500113","0.0-11.0","44","1","2023-06-22 16:49:14","077e191c96ad73626b2944d724c57d9e","208.194.214.233","Mozilla/5.0 (Windows NT 10.0; Win64; x64) AppleWebKit/537.36 (KHTML, like Gecko) Chrome/114.0.0.0 Safari/537.36","WebKit","Chrome","114.0.0.0","Windows","10.0","10094","","{""Aggression1"":3,""Aggression2"":4,""Aggression3"":1,""Aggression4"":4,""Aggression5"":3,""Aggression6"":4,""Aggression7"":2,""Aggression8"":4,""Aggression9"":3}","[0,1,2,3,4,5,6,7,8]"
"","","","","","html-button-response","139","501896","0.0-12.0","44","1","2023-06-22 16:49:14","077e191c96ad73626b2944d724c57d9e","208.194.214.233","Mozilla/5.0 (Windows NT 10.0; Win64; x64) AppleWebKit/537.36 (KHTML, like Gecko) Chrome/114.0.0.0 Safari/537.36","WebKit","Chrome","114.0.0.0","Windows","10.0","1775","<p><strong>Please indicate the extent that the following statements could describe you. </strong></p><p><strong> (1 = ""Does not describe me well"" to 5 = ""Does decribe me well"".)</strong></p>","0",""
"","","","","","survey-likert","140","526437","0.0-13.0","44","1","2023-06-22 16:49:14","077e191c96ad73626b2944d724c57d9e","208.194.214.233","Mozilla/5.0 (Windows NT 10.0; Win64; x64) AppleWebKit/537.36 (KHTML, like Gecko) Chrome/114.0.0.0 Safari/537.36","WebKit","Chrome","114.0.0.0","Windows","10.0","24532","","{""pts2"":3,""pds1"":3,""pts1"":4,""fs2"":4,""ecs3"":3,""ecs2"":4,""pds3"":2,""pts5"":4,""pds5"":3,""ecs4"":4,""fs7"":3,""ecs5"":4,""fs3"":2,""ecs7"":4,""ecs6"":2,""pds2"":4,""ecs1"":3,""fs1"":4,""fs6"":2,""pts3"":4,""fs4"":3,""fs5"":4,""pds7"":2,""pts4"":4,""pts7"":3,""pds4"":4,""pts6"":3,""pds6"":2}","[7,5,2,4,8,3,12,20,18,13,25,17,6,21,19,9,1,0,22,10,11,15,26,14,27,16,24,23]"
"","","","","","html-button-response","141","527753","0.0-14.0","44","1","2023-06-22 16:49:14","077e191c96ad73626b2944d724c57d9e","208.194.214.233","Mozilla/5.0 (Windows NT 10.0; Win64; x64) AppleWebKit/537.36 (KHTML, like Gecko) Chrome/114.0.0.0 Safari/537.36","WebKit","Chrome","114.0.0.0","Windows","10.0","1309","<p><strong>Which of the following objects or statements do you have a positive or negative feeling towards? </strong></p><p><strong> (1 = ""Very negative"" to 7 = ""Very positive"") </strong></p>","0",""
"","","","","","survey-likert","142","547682","0.0-15.0","44","1","2023-06-22 16:49:14","077e191c96ad73626b2944d724c57d9e","208.194.214.233","Mozilla/5.0 (Windows NT 10.0; Win64; x64) AppleWebKit/537.36 (KHTML, like Gecko) Chrome/114.0.0.0 Safari/537.36","WebKit","Chrome","114.0.0.0","Windows","10.0","19923","","{""sdo8"":6,""sdo11"":5,""sdo10"":3,""sdo9"":5,""sdo4"":5,""sdo15"":6,""sdo2"":5,""sdo16"":6,""sdo14"":5,""sdo5"":4,""sdo3"":6,""sdo13"":5,""sdo12"":5,""sdo7"":6,""sdo6"":4,""sdo1"":6}","[7,10,9,8,3,14,1,15,13,4,2,12,11,6,5,0]"
"","","","","","html-button-response","143","549005","0.0-16.0","44","1","2023-06-22 16:49:14","077e191c96ad73626b2944d724c57d9e","208.194.214.233","Mozilla/5.0 (Windows NT 10.0; Win64; x64) AppleWebKit/537.36 (KHTML, like Gecko) Chrome/114.0.0.0 Safari/537.36","WebKit","Chrome","114.0.0.0","Windows","10.0","1316","<p><strong>Please indicate the extent you agree with the following statements.</strong></p><strong><p> (1 = ""Strongly Disagree"" to 5 = ""Srongly Agree"") </strong></p>","0",""
"","","","","","survey-likert","144","561303","0.0-17.0","44","1","2023-06-22 16:49:14","077e191c96ad73626b2944d724c57d9e","208.194.214.233","Mozilla/5.0 (Windows NT 10.0; Win64; x64) AppleWebKit/537.36 (KHTML, like Gecko) Chrome/114.0.0.0 Safari/537.36","WebKit","Chrome","114.0.0.0","Windows","10.0","12293","","{""caring1"":4,""liking1"":3,""caring2"":4,""protection1"":2,""liking2"":4,""caring3"":3,""protection2"":3,""liking3"":4,""protection3"":2,""caring4"":4,""liking4"":3,""protection4"":4,""caring5"":3,""liking5"":3,""protection5"":4}","[0,1,2,3,4,5,6,7,8,9,10,11,12,13,14]"
"","","","","","html-button-response","145","563517","0.0-18.0","44","1","2023-06-22 16:49:14","077e191c96ad73626b2944d724c57d9e","208.194.214.233","Mozilla/5.0 (Windows NT 10.0; Win64; x64) AppleWebKit/537.36 (KHTML, like Gecko) Chrome/114.0.0.0 Safari/537.36","WebKit","Chrome","114.0.0.0","Windows","10.0","2207","<p><strong>Please imagine spercific situations involving children below, and rate the amount of tenderness you would feel in each situation. </strong></p><p><strong> (Ternderness is ""a warm, gentle feeling of sympathetic affection."") </strong></p><strong><p> (1 = ""No tenderness at all"" to 5 = ""A lot of tenderness"") </strong></p>","0",""
"","","","","","survey-likert","146","590151","0.0-19.0","44","1","2023-06-22 16:49:14","077e191c96ad73626b2944d724c57d9e","208.194.214.233","Mozilla/5.0 (Windows NT 10.0; Win64; x64) AppleWebKit/537.36 (KHTML, like Gecko) Chrome/114.0.0.0 Safari/537.36","WebKit","Chrome","114.0.0.0","Windows","10.0","26629","","{""tenderness-positive1"":4,""tenderness-negative1"":3,""tenderness-negative2"":4,""tenderness-positive2"":2,""tenderness-positive3"":4,""tenderness-negative3"":3,""tenderness-positive4"":4,""tendereness-negative4"":2,""tendernness-negative5"":4,""tenderness-positive5"":3}","[0,1,2,3,4,5,6,7,8,9]"
"","","","","","survey-multi-choice","147","596266","0.0-20.0","44","1","2023-06-22 16:49:14","077e191c96ad73626b2944d724c57d9e","208.194.214.233","Mozilla/5.0 (Windows NT 10.0; Win64; x64) AppleWebKit/537.36 (KHTML, like Gecko) Chrome/114.0.0.0 Safari/537.36","WebKit","Chrome","114.0.0.0","Windows","10.0","6108","","{""Attention2"":""Other""}","[0]"
"","","","","","html-button-response","148","597634","0.0-21.0","44","1","2023-06-22 16:49:14","077e191c96ad73626b2944d724c57d9e","208.194.214.233","Mozilla/5.0 (Windows NT 10.0; Win64; x64) AppleWebKit/537.36 (KHTML, like Gecko) Chrome/114.0.0.0 Safari/537.36","WebKit","Chrome","114.0.0.0","Windows","10.0","1361","<p><strong>Please indicate the extent you agree with the following statements.</strong></p>","0",""
"","","","","","survey-likert","149","612037","0.0-22.0","44","1","2023-06-22 16:49:14","077e191c96ad73626b2944d724c57d9e","208.194.214.233","Mozilla/5.0 (Windows NT 10.0; Win64; x64) AppleWebKit/537.36 (KHTML, like Gecko) Chrome/114.0.0.0 Safari/537.36","WebKit","Chrome","114.0.0.0","Windows","10.0","14396","","{""Nation3"":4,""Patri1"":2,""Patri2"":4,""Patri12"":4,""Patri6"":2,""Nation5"":4,""Patri7"":2,""Patri5"":2,""Patri8"":2,""Nation1"":4,""Nation4"":3,""Patri11"":4,""Patri9"":3,""Patri10"":4,""Patri3"":2,""Nation6"":4,""Patri4"":3,""Nation8"":3,""Nation7"":2,""Nation2"":3}","[14,0,1,11,5,16,6,4,7,12,15,10,8,9,2,17,3,19,18,13]"
"","","","","","html-button-response","150","613202","0.0-23.0","44","1","2023-06-22 16:49:14","077e191c96ad73626b2944d724c57d9e","208.194.214.233","Mozilla/5.0 (Windows NT 10.0; Win64; x64) AppleWebKit/537.36 (KHTML, like Gecko) Chrome/114.0.0.0 Safari/537.36","WebKit","Chrome","114.0.0.0","Windows","10.0","1158","<p><strong>Please indicate the extent you agree with the following statements. </p><p>(1 = ""never or definitely no"" and 9 = ""always or definitely yes"".)</strong></p>","0",""
"","","","","","survey-likert","151","632939","0.0-24.0","44","1","2023-06-22 16:49:14","077e191c96ad73626b2944d724c57d9e","208.194.214.233","Mozilla/5.0 (Windows NT 10.0; Win64; x64) AppleWebKit/537.36 (KHTML, like Gecko) Chrome/114.0.0.0 Safari/537.36","WebKit","Chrome","114.0.0.0","Windows","10.0","19728","","{""vc2"":8,""Robot2"":6,""hi4"":7,""vi4"":5,""hi2"":8,""hc1"":7,""vi3"":6,""hc4"":8,""vi2"":6,""vc3"":7,""hc3"":7,""hi1"":8,""vc4"":6,""hc2"":8,""hi3"":7,""vi1"":7,""vc1"":7}","[14,7,3,8,1,9,6,12,5,15,11,0,16,10,2,4,13]"
"","","","","","survey-text","152","649506","0.0-25.0","44","1","2023-06-22 16:49:14","077e191c96ad73626b2944d724c57d9e","208.194.214.233","Mozilla/5.0 (Windows NT 10.0; Win64; x64) AppleWebKit/537.36 (KHTML, like Gecko) Chrome/114.0.0.0 Safari/537.36","WebKit","Chrome","114.0.0.0","Windows","10.0","16555","","{""ID"":""A2V15VB9NXX94S"",""Comments"":""good""}",""
"","","","","","html-button-response","153","2880375","0.0-26.0","44","1","2023-06-22 16:49:14","077e191c96ad73626b2944d724c57d9e","208.194.214.233","Mozilla/5.0 (Windows NT 10.0; Win64; x64) AppleWebKit/537.36 (KHTML, like Gecko) Chrome/114.0.0.0 Safari/537.36","WebKit","Chrome","114.0.0.0","Windows","10.0","2230863","<p><strong>Congratulations! </strong> Your have finished all the survey. Thank you for your participation!</p><p><strong>Here is your complete token:</strong></p>9o1b3gluhr8hxcqlsyv4m53ih<p></p><p><strong>Please copy it to the mTurk page.</strong></p>","0",""
