"success","timeout","failed_images","failed_audio","failed_video","trial_type","trial_index","time_elapsed","internal_node_id","run_id","condition","recorded_at","source_code_version","ip","user_agent","device","browser","browser_version","platform","platform_version","rt","stimulus","response","question_order"
"true","false","[]","[]","[]","preload","0","1380","0.0-0.0","46","1","2023-06-25 15:17:06","077e191c96ad73626b2944d724c57d9e","142.214.181.69","Mozilla/5.0 (Windows NT 10.0; Win64; x64) AppleWebKit/537.36 (KHTML, like Gecko) Chrome/109.0.0.0 Safari/537.36","WebKit","Chrome","109.0.0.0","Windows","10.0","","","",""
"true","","","","","fullscreen","1","4026","0.0-1.0","46","1","2023-06-25 15:17:06","077e191c96ad73626b2944d724c57d9e","142.214.181.69","Mozilla/5.0 (Windows NT 10.0; Win64; x64) AppleWebKit/537.36 (KHTML, like Gecko) Chrome/109.0.0.0 Safari/537.36","WebKit","Chrome","109.0.0.0","Windows","10.0","","","",""
"","","","","","html-button-response","2","5724","0.0-2.0","46","1","2023-06-25 15:17:06","077e191c96ad73626b2944d724c57d9e","142.214.181.69","Mozilla/5.0 (Windows NT 10.0; Win64; x64) AppleWebKit/537.36 (KHTML, like Gecko) Chrome/109.0.0.0 Safari/537.36","WebKit","Chrome","109.0.0.0","Windows","10.0","1696","<p ><strong>Welcome to the experiment!</strong></p><p ><strong>In the first task, please imagine:</strong></p><p>Your country is involved in a military conflict with another country.</p><p>You are the commander of your army and must make decisions in the conflict.</p><p>Specifically, as the military commander, you must decide whether to launch a missile to strike enemy.</p><p>You will face a series of scenarios. Please read each scenario carefully and make a decision.</p><p>The task will take around 10 minutes to complete.</p><p><strong>Please pay your attention during the experiment.</strong></p>","0",""
"","","","","","html-keyboard-response","3","6731","0.0-3.0-0.0","46","1","2023-06-25 15:17:06","077e191c96ad73626b2944d724c57d9e","142.214.181.69","Mozilla/5.0 (Windows NT 10.0; Win64; x64) AppleWebKit/537.36 (KHTML, like Gecko) Chrome/109.0.0.0 Safari/537.36","WebKit","Chrome","109.0.0.0","Windows","10.0","null","<div style=""font-size:60px;"">+</div>","null",""
"","","","","","html-button-response","4","10028","0.0-3.0-1.0","46","1","2023-06-25 15:17:06","077e191c96ad73626b2944d724c57d9e","142.214.181.69","Mozilla/5.0 (Windows NT 10.0; Win64; x64) AppleWebKit/537.36 (KHTML, like Gecko) Chrome/109.0.0.0 Safari/537.36","WebKit","Chrome","109.0.0.0","Windows","10.0","3295","<p>As the military commander, you could choose to launch a missile to kill <strong>3 enemy soldiers</strong> , but would accidentally kill <strong>1 enemy tree</strong> nearby.</p> <p>The photo of the <strong>enemy tree</strong> is shown below.</p> <p></p> <img src='stimuli/tree/13.png', style='max-width: 30%;'> </img> <p><strong>Would you launch the weapon?</strong></p>","1",""
"","","","","","html-keyboard-response","5","11035","0.0-3.0-0.1","46","1","2023-06-25 15:17:06","077e191c96ad73626b2944d724c57d9e","142.214.181.69","Mozilla/5.0 (Windows NT 10.0; Win64; x64) AppleWebKit/537.36 (KHTML, like Gecko) Chrome/109.0.0.0 Safari/537.36","WebKit","Chrome","109.0.0.0","Windows","10.0","null","<div style=""font-size:60px;"">+</div>","null",""
"","","","","","html-button-response","6","14426","0.0-3.0-1.1","46","1","2023-06-25 15:17:06","077e191c96ad73626b2944d724c57d9e","142.214.181.69","Mozilla/5.0 (Windows NT 10.0; Win64; x64) AppleWebKit/537.36 (KHTML, like Gecko) Chrome/109.0.0.0 Safari/537.36","WebKit","Chrome","109.0.0.0","Windows","10.0","3389","<p>As the military commander, you could choose to launch a missile to kill <strong>3 enemy soldiers</strong> , but would accidentally kill <strong>1 enemy tree</strong> nearby.</p> <p>The photo of the <strong>enemy tree</strong> is shown below.</p> <p></p> <img src='stimuli/tree/1.png', style='max-width: 30%;'> </img> <p><strong>Would you launch the weapon?</strong></p>","0",""
"","","","","","html-keyboard-response","7","15435","0.0-3.0-0.2","46","1","2023-06-25 15:17:06","077e191c96ad73626b2944d724c57d9e","142.214.181.69","Mozilla/5.0 (Windows NT 10.0; Win64; x64) AppleWebKit/537.36 (KHTML, like Gecko) Chrome/109.0.0.0 Safari/537.36","WebKit","Chrome","109.0.0.0","Windows","10.0","null","<div style=""font-size:60px;"">+</div>","null",""
"","","","","","html-button-response","8","16553","0.0-3.0-1.2","46","1","2023-06-25 15:17:06","077e191c96ad73626b2944d724c57d9e","142.214.181.69","Mozilla/5.0 (Windows NT 10.0; Win64; x64) AppleWebKit/537.36 (KHTML, like Gecko) Chrome/109.0.0.0 Safari/537.36","WebKit","Chrome","109.0.0.0","Windows","10.0","1116","<p>As the military commander, you could choose to launch a missile to kill <strong>2 enemy soldiers</strong> , but would accidentally kill <strong>1 enemy civilian</strong> nearby.</p> <p>The photo of the <strong>enemy civilian</strong> is shown below.</p> <p></p> <img src='stimuli/faces/PFM8.jpg', style='max-width: 30%;'> </img> <p><strong>Would you launch the weapon?</strong></p>","1",""
"","","","","","html-keyboard-response","9","17562","0.0-3.0-0.3","46","1","2023-06-25 15:17:06","077e191c96ad73626b2944d724c57d9e","142.214.181.69","Mozilla/5.0 (Windows NT 10.0; Win64; x64) AppleWebKit/537.36 (KHTML, like Gecko) Chrome/109.0.0.0 Safari/537.36","WebKit","Chrome","109.0.0.0","Windows","10.0","null","<div style=""font-size:60px;"">+</div>","null",""
"","","","","","html-button-response","10","18585","0.0-3.0-1.3","46","1","2023-06-25 15:17:06","077e191c96ad73626b2944d724c57d9e","142.214.181.69","Mozilla/5.0 (Windows NT 10.0; Win64; x64) AppleWebKit/537.36 (KHTML, like Gecko) Chrome/109.0.0.0 Safari/537.36","WebKit","Chrome","109.0.0.0","Windows","10.0","1021","<p>As the military commander, you could choose to launch a missile to kill <strong>2 enemy soldiers</strong> , but would accidentally kill <strong>1 enemy tree</strong> nearby.</p> <p>The photo of the <strong>enemy tree</strong> is shown below.</p> <p></p> <img src='stimuli/tree/2.png', style='max-width: 30%;'> </img> <p><strong>Would you launch the weapon?</strong></p>","1",""
"","","","","","html-keyboard-response","11","19594","0.0-3.0-0.4","46","1","2023-06-25 15:17:06","077e191c96ad73626b2944d724c57d9e","142.214.181.69","Mozilla/5.0 (Windows NT 10.0; Win64; x64) AppleWebKit/537.36 (KHTML, like Gecko) Chrome/109.0.0.0 Safari/537.36","WebKit","Chrome","109.0.0.0","Windows","10.0","null","<div style=""font-size:60px;"">+</div>","null",""
"","","","","","html-button-response","12","20362","0.0-3.0-1.4","46","1","2023-06-25 15:17:06","077e191c96ad73626b2944d724c57d9e","142.214.181.69","Mozilla/5.0 (Windows NT 10.0; Win64; x64) AppleWebKit/537.36 (KHTML, like Gecko) Chrome/109.0.0.0 Safari/537.36","WebKit","Chrome","109.0.0.0","Windows","10.0","766","<p>As the military commander, you could choose to launch a missile to kill <strong>10 enemy soldiers</strong> , but would accidentally kill <strong>1 enemy tree</strong> nearby.</p> <p>The photo of the <strong>enemy tree</strong> is shown below.</p> <p></p> <img src='stimuli/tree/6.png', style='max-width: 30%;'> </img> <p><strong>Would you launch the weapon?</strong></p>","1",""
"","","","","","html-keyboard-response","13","21370","0.0-3.0-0.5","46","1","2023-06-25 15:17:06","077e191c96ad73626b2944d724c57d9e","142.214.181.69","Mozilla/5.0 (Windows NT 10.0; Win64; x64) AppleWebKit/537.36 (KHTML, like Gecko) Chrome/109.0.0.0 Safari/537.36","WebKit","Chrome","109.0.0.0","Windows","10.0","null","<div style=""font-size:60px;"">+</div>","null",""
"","","","","","html-button-response","14","21623","0.0-3.0-1.5","46","1","2023-06-25 15:17:06","077e191c96ad73626b2944d724c57d9e","142.214.181.69","Mozilla/5.0 (Windows NT 10.0; Win64; x64) AppleWebKit/537.36 (KHTML, like Gecko) Chrome/109.0.0.0 Safari/537.36","WebKit","Chrome","109.0.0.0","Windows","10.0","251","<p>As the military commander, you could choose to launch a missile to kill <strong>5 enemy soldiers</strong> , but would accidentally kill <strong>1 enemy civilian</strong> nearby.</p> <p>The photo of the <strong>enemy civilian</strong> is shown below.</p> <p></p> <img src='stimuli/faces/PFF6.jpg', style='max-width: 30%;'> </img> <p><strong>Would you launch the weapon?</strong></p>","0",""
"","","","","","html-keyboard-response","15","22626","0.0-3.0-0.6","46","1","2023-06-25 15:17:06","077e191c96ad73626b2944d724c57d9e","142.214.181.69","Mozilla/5.0 (Windows NT 10.0; Win64; x64) AppleWebKit/537.36 (KHTML, like Gecko) Chrome/109.0.0.0 Safari/537.36","WebKit","Chrome","109.0.0.0","Windows","10.0","null","<div style=""font-size:60px;"">+</div>","null",""
"","","","","","html-button-response","16","24306","0.0-3.0-1.6","46","1","2023-06-25 15:17:06","077e191c96ad73626b2944d724c57d9e","142.214.181.69","Mozilla/5.0 (Windows NT 10.0; Win64; x64) AppleWebKit/537.36 (KHTML, like Gecko) Chrome/109.0.0.0 Safari/537.36","WebKit","Chrome","109.0.0.0","Windows","10.0","1678","<p>As the military commander, you could choose to launch a missile to kill <strong>2 enemy soldiers</strong> , but would accidentally kill <strong>1 enemy civilian</strong> nearby.</p> <p>The photo of the <strong>enemy civilian</strong> is shown below.</p> <p></p> <img src='stimuli/faces/PFF5.jpg', style='max-width: 30%;'> </img> <p><strong>Would you launch the weapon?</strong></p>","1",""
"","","","","","html-keyboard-response","17","25315","0.0-3.0-0.7","46","1","2023-06-25 15:17:06","077e191c96ad73626b2944d724c57d9e","142.214.181.69","Mozilla/5.0 (Windows NT 10.0; Win64; x64) AppleWebKit/537.36 (KHTML, like Gecko) Chrome/109.0.0.0 Safari/537.36","WebKit","Chrome","109.0.0.0","Windows","10.0","null","<div style=""font-size:60px;"">+</div>","null",""
"","","","","","html-button-response","18","26074","0.0-3.0-1.7","46","1","2023-06-25 15:17:06","077e191c96ad73626b2944d724c57d9e","142.214.181.69","Mozilla/5.0 (Windows NT 10.0; Win64; x64) AppleWebKit/537.36 (KHTML, like Gecko) Chrome/109.0.0.0 Safari/537.36","WebKit","Chrome","109.0.0.0","Windows","10.0","757","<p>As the military commander, you could choose to launch a missile to kill <strong>8 enemy soldiers</strong> , but would accidentally kill <strong>1 enemy civilian</strong> nearby.</p> <p>The photo of the <strong>enemy civilian</strong> is shown below.</p> <p></p> <img src='stimuli/faces/PFF3.jpg', style='max-width: 30%;'> </img> <p><strong>Would you launch the weapon?</strong></p>","1",""
"","","","","","html-keyboard-response","19","27082","0.0-3.0-0.8","46","1","2023-06-25 15:17:06","077e191c96ad73626b2944d724c57d9e","142.214.181.69","Mozilla/5.0 (Windows NT 10.0; Win64; x64) AppleWebKit/537.36 (KHTML, like Gecko) Chrome/109.0.0.0 Safari/537.36","WebKit","Chrome","109.0.0.0","Windows","10.0","null","<div style=""font-size:60px;"">+</div>","null",""
"","","","","","html-button-response","20","27758","0.0-3.0-1.8","46","1","2023-06-25 15:17:06","077e191c96ad73626b2944d724c57d9e","142.214.181.69","Mozilla/5.0 (Windows NT 10.0; Win64; x64) AppleWebKit/537.36 (KHTML, like Gecko) Chrome/109.0.0.0 Safari/537.36","WebKit","Chrome","109.0.0.0","Windows","10.0","674","<p>As the military commander, you could choose to launch a missile to kill <strong>5 enemy soldiers</strong> , but would accidentally kill <strong>1 enemy civilian</strong> nearby.</p> <p>The photo of the <strong>enemy civilian</strong> is shown below.</p> <p></p> <img src='stimuli/faces/PFM3.jpg', style='max-width: 30%;'> </img> <p><strong>Would you launch the weapon?</strong></p>","0",""
"","","","","","html-keyboard-response","21","28763","0.0-3.0-0.9","46","1","2023-06-25 15:17:06","077e191c96ad73626b2944d724c57d9e","142.214.181.69","Mozilla/5.0 (Windows NT 10.0; Win64; x64) AppleWebKit/537.36 (KHTML, like Gecko) Chrome/109.0.0.0 Safari/537.36","WebKit","Chrome","109.0.0.0","Windows","10.0","null","<div style=""font-size:60px;"">+</div>","null",""
"","","","","","html-button-response","22","28946","0.0-3.0-1.9","46","1","2023-06-25 15:17:06","077e191c96ad73626b2944d724c57d9e","142.214.181.69","Mozilla/5.0 (Windows NT 10.0; Win64; x64) AppleWebKit/537.36 (KHTML, like Gecko) Chrome/109.0.0.0 Safari/537.36","WebKit","Chrome","109.0.0.0","Windows","10.0","182","<p>As the military commander, you could choose to launch a missile to kill <strong>5 enemy soldiers</strong> , but would accidentally kill <strong>1 enemy civilian</strong> nearby.</p> <p>The photo of the <strong>enemy civilian</strong> is shown below.</p> <p></p> <img src='stimuli/faces/PFF1.jpg', style='max-width: 30%;'> </img> <p><strong>Would you launch the weapon?</strong></p>","1",""
"","","","","","html-keyboard-response","23","29954","0.0-3.0-0.10","46","1","2023-06-25 15:17:06","077e191c96ad73626b2944d724c57d9e","142.214.181.69","Mozilla/5.0 (Windows NT 10.0; Win64; x64) AppleWebKit/537.36 (KHTML, like Gecko) Chrome/109.0.0.0 Safari/537.36","WebKit","Chrome","109.0.0.0","Windows","10.0","null","<div style=""font-size:60px;"">+</div>","null",""
"","","","","","html-button-response","24","30207","0.0-3.0-1.10","46","1","2023-06-25 15:17:06","077e191c96ad73626b2944d724c57d9e","142.214.181.69","Mozilla/5.0 (Windows NT 10.0; Win64; x64) AppleWebKit/537.36 (KHTML, like Gecko) Chrome/109.0.0.0 Safari/537.36","WebKit","Chrome","109.0.0.0","Windows","10.0","251","<p>As the military commander, you could choose to launch a missile to kill <strong>10 enemy soldiers</strong> , but would accidentally kill <strong>1 enemy tree</strong> nearby.</p> <p>The photo of the <strong>enemy tree</strong> is shown below.</p> <p></p> <img src='stimuli/tree/5.png', style='max-width: 30%;'> </img> <p><strong>Would you launch the weapon?</strong></p>","0",""
"","","","","","html-keyboard-response","25","31210","0.0-3.0-0.11","46","1","2023-06-25 15:17:06","077e191c96ad73626b2944d724c57d9e","142.214.181.69","Mozilla/5.0 (Windows NT 10.0; Win64; x64) AppleWebKit/537.36 (KHTML, like Gecko) Chrome/109.0.0.0 Safari/537.36","WebKit","Chrome","109.0.0.0","Windows","10.0","null","<div style=""font-size:60px;"">+</div>","null",""
"","","","","","html-button-response","26","31857","0.0-3.0-1.11","46","1","2023-06-25 15:17:06","077e191c96ad73626b2944d724c57d9e","142.214.181.69","Mozilla/5.0 (Windows NT 10.0; Win64; x64) AppleWebKit/537.36 (KHTML, like Gecko) Chrome/109.0.0.0 Safari/537.36","WebKit","Chrome","109.0.0.0","Windows","10.0","645","<p>As the military commander, you could choose to launch a missile to kill <strong>3 enemy soldiers</strong> , but would accidentally kill <strong>1 enemy tree</strong> nearby.</p> <p>The photo of the <strong>enemy tree</strong> is shown below.</p> <p></p> <img src='stimuli/tree/6.png', style='max-width: 30%;'> </img> <p><strong>Would you launch the weapon?</strong></p>","1",""
"","","","","","html-keyboard-response","27","32866","0.0-3.0-0.12","46","1","2023-06-25 15:17:06","077e191c96ad73626b2944d724c57d9e","142.214.181.69","Mozilla/5.0 (Windows NT 10.0; Win64; x64) AppleWebKit/537.36 (KHTML, like Gecko) Chrome/109.0.0.0 Safari/537.36","WebKit","Chrome","109.0.0.0","Windows","10.0","null","<div style=""font-size:60px;"">+</div>","null",""
"","","","","","html-button-response","28","33998","0.0-3.0-1.12","46","1","2023-06-25 15:17:06","077e191c96ad73626b2944d724c57d9e","142.214.181.69","Mozilla/5.0 (Windows NT 10.0; Win64; x64) AppleWebKit/537.36 (KHTML, like Gecko) Chrome/109.0.0.0 Safari/537.36","WebKit","Chrome","109.0.0.0","Windows","10.0","1129","<p>As the military commander, you could choose to launch a missile to kill <strong>7 enemy soldiers</strong> , but would accidentally kill <strong>1 enemy civilian</strong> nearby.</p> <p>The photo of the <strong>enemy civilian</strong> is shown below.</p> <p></p> <img src='stimuli/faces/PFF6.jpg', style='max-width: 30%;'> </img> <p><strong>Would you launch the weapon?</strong></p>","1",""
"","","","","","html-keyboard-response","29","35002","0.0-3.0-0.13","46","1","2023-06-25 15:17:06","077e191c96ad73626b2944d724c57d9e","142.214.181.69","Mozilla/5.0 (Windows NT 10.0; Win64; x64) AppleWebKit/537.36 (KHTML, like Gecko) Chrome/109.0.0.0 Safari/537.36","WebKit","Chrome","109.0.0.0","Windows","10.0","null","<div style=""font-size:60px;"">+</div>","null",""
"","","","","","html-button-response","30","35706","0.0-3.0-1.13","46","1","2023-06-25 15:17:06","077e191c96ad73626b2944d724c57d9e","142.214.181.69","Mozilla/5.0 (Windows NT 10.0; Win64; x64) AppleWebKit/537.36 (KHTML, like Gecko) Chrome/109.0.0.0 Safari/537.36","WebKit","Chrome","109.0.0.0","Windows","10.0","702","<p>As the military commander, you could choose to launch a missile to kill <strong>10 enemy soldiers</strong> , but would accidentally kill <strong>1 enemy tree</strong> nearby.</p> <p>The photo of the <strong>enemy tree</strong> is shown below.</p> <p></p> <img src='stimuli/tree/14.png', style='max-width: 30%;'> </img> <p><strong>Would you launch the weapon?</strong></p>","0",""
"","","","","","html-keyboard-response","31","36714","0.0-3.0-0.14","46","1","2023-06-25 15:17:06","077e191c96ad73626b2944d724c57d9e","142.214.181.69","Mozilla/5.0 (Windows NT 10.0; Win64; x64) AppleWebKit/537.36 (KHTML, like Gecko) Chrome/109.0.0.0 Safari/537.36","WebKit","Chrome","109.0.0.0","Windows","10.0","null","<div style=""font-size:60px;"">+</div>","null",""
"","","","","","html-button-response","32","37793","0.0-3.0-1.14","46","1","2023-06-25 15:17:06","077e191c96ad73626b2944d724c57d9e","142.214.181.69","Mozilla/5.0 (Windows NT 10.0; Win64; x64) AppleWebKit/537.36 (KHTML, like Gecko) Chrome/109.0.0.0 Safari/537.36","WebKit","Chrome","109.0.0.0","Windows","10.0","1076","<p>As the military commander, you could choose to launch a missile to kill <strong>4 enemy soldiers</strong> , but would accidentally kill <strong>1 enemy civilian</strong> nearby.</p> <p>The photo of the <strong>enemy civilian</strong> is shown below.</p> <p></p> <img src='stimuli/faces/PFF8.jpg', style='max-width: 30%;'> </img> <p><strong>Would you launch the weapon?</strong></p>","1",""
"","","","","","html-keyboard-response","33","38803","0.0-3.0-0.15","46","1","2023-06-25 15:17:06","077e191c96ad73626b2944d724c57d9e","142.214.181.69","Mozilla/5.0 (Windows NT 10.0; Win64; x64) AppleWebKit/537.36 (KHTML, like Gecko) Chrome/109.0.0.0 Safari/537.36","WebKit","Chrome","109.0.0.0","Windows","10.0","null","<div style=""font-size:60px;"">+</div>","null",""
"","","","","","html-button-response","34","39479","0.0-3.0-1.15","46","1","2023-06-25 15:17:06","077e191c96ad73626b2944d724c57d9e","142.214.181.69","Mozilla/5.0 (Windows NT 10.0; Win64; x64) AppleWebKit/537.36 (KHTML, like Gecko) Chrome/109.0.0.0 Safari/537.36","WebKit","Chrome","109.0.0.0","Windows","10.0","674","<p>As the military commander, you could choose to launch a missile to kill <strong>4 enemy soldiers</strong> , but would accidentally kill <strong>1 enemy tree</strong> nearby.</p> <p>The photo of the <strong>enemy tree</strong> is shown below.</p> <p></p> <img src='stimuli/tree/11.png', style='max-width: 30%;'> </img> <p><strong>Would you launch the weapon?</strong></p>","1",""
"","","","","","html-keyboard-response","35","40482","0.0-3.0-0.16","46","1","2023-06-25 15:17:06","077e191c96ad73626b2944d724c57d9e","142.214.181.69","Mozilla/5.0 (Windows NT 10.0; Win64; x64) AppleWebKit/537.36 (KHTML, like Gecko) Chrome/109.0.0.0 Safari/537.36","WebKit","Chrome","109.0.0.0","Windows","10.0","null","<div style=""font-size:60px;"">+</div>","null",""
"","","","","","html-button-response","36","41066","0.0-3.0-1.16","46","1","2023-06-25 15:17:06","077e191c96ad73626b2944d724c57d9e","142.214.181.69","Mozilla/5.0 (Windows NT 10.0; Win64; x64) AppleWebKit/537.36 (KHTML, like Gecko) Chrome/109.0.0.0 Safari/537.36","WebKit","Chrome","109.0.0.0","Windows","10.0","582","<p>As the military commander, you could choose to launch a missile to kill <strong>7 enemy soldiers</strong> , but would accidentally kill <strong>1 enemy tree</strong> nearby.</p> <p>The photo of the <strong>enemy tree</strong> is shown below.</p> <p></p> <img src='stimuli/tree/10.png', style='max-width: 30%;'> </img> <p><strong>Would you launch the weapon?</strong></p>","1",""
"","","","","","html-keyboard-response","37","42074","0.0-3.0-0.17","46","1","2023-06-25 15:17:06","077e191c96ad73626b2944d724c57d9e","142.214.181.69","Mozilla/5.0 (Windows NT 10.0; Win64; x64) AppleWebKit/537.36 (KHTML, like Gecko) Chrome/109.0.0.0 Safari/537.36","WebKit","Chrome","109.0.0.0","Windows","10.0","null","<div style=""font-size:60px;"">+</div>","null",""
"","","","","","html-button-response","38","43590","0.0-3.0-1.17","46","1","2023-06-25 15:17:06","077e191c96ad73626b2944d724c57d9e","142.214.181.69","Mozilla/5.0 (Windows NT 10.0; Win64; x64) AppleWebKit/537.36 (KHTML, like Gecko) Chrome/109.0.0.0 Safari/537.36","WebKit","Chrome","109.0.0.0","Windows","10.0","1514","<p>As the military commander, you could choose to launch a missile to kill <strong>5 enemy soldiers</strong> , but would accidentally kill <strong>1 enemy civilian</strong> nearby.</p> <p>The photo of the <strong>enemy civilian</strong> is shown below.</p> <p></p> <img src='stimuli/faces/PFF3.jpg', style='max-width: 30%;'> </img> <p><strong>Would you launch the weapon?</strong></p>","0",""
"","","","","","html-keyboard-response","39","44594","0.0-3.0-0.18","46","1","2023-06-25 15:17:06","077e191c96ad73626b2944d724c57d9e","142.214.181.69","Mozilla/5.0 (Windows NT 10.0; Win64; x64) AppleWebKit/537.36 (KHTML, like Gecko) Chrome/109.0.0.0 Safari/537.36","WebKit","Chrome","109.0.0.0","Windows","10.0","null","<div style=""font-size:60px;"">+</div>","null",""
"","","","","","html-button-response","40","45084","0.0-3.0-1.18","46","1","2023-06-25 15:17:06","077e191c96ad73626b2944d724c57d9e","142.214.181.69","Mozilla/5.0 (Windows NT 10.0; Win64; x64) AppleWebKit/537.36 (KHTML, like Gecko) Chrome/109.0.0.0 Safari/537.36","WebKit","Chrome","109.0.0.0","Windows","10.0","487","<p>As the military commander, you could choose to launch a missile to kill <strong>7 enemy soldiers</strong> , but would accidentally kill <strong>1 enemy civilian</strong> nearby.</p> <p>The photo of the <strong>enemy civilian</strong> is shown below.</p> <p></p> <img src='stimuli/faces/PFF5.jpg', style='max-width: 30%;'> </img> <p><strong>Would you launch the weapon?</strong></p>","1",""
"","","","","","html-keyboard-response","41","46090","0.0-3.0-0.19","46","1","2023-06-25 15:17:06","077e191c96ad73626b2944d724c57d9e","142.214.181.69","Mozilla/5.0 (Windows NT 10.0; Win64; x64) AppleWebKit/537.36 (KHTML, like Gecko) Chrome/109.0.0.0 Safari/537.36","WebKit","Chrome","109.0.0.0","Windows","10.0","null","<div style=""font-size:60px;"">+</div>","null",""
"","","","","","html-button-response","42","46671","0.0-3.0-1.19","46","1","2023-06-25 15:17:06","077e191c96ad73626b2944d724c57d9e","142.214.181.69","Mozilla/5.0 (Windows NT 10.0; Win64; x64) AppleWebKit/537.36 (KHTML, like Gecko) Chrome/109.0.0.0 Safari/537.36","WebKit","Chrome","109.0.0.0","Windows","10.0","578","<p>As the military commander, you could choose to launch a missile to kill <strong>9 enemy soldiers</strong> , but would accidentally kill <strong>1 enemy civilian</strong> nearby.</p> <p>The photo of the <strong>enemy civilian</strong> is shown below.</p> <p></p> <img src='stimuli/faces/PFM3.jpg', style='max-width: 30%;'> </img> <p><strong>Would you launch the weapon?</strong></p>","1",""
"","","","","","html-keyboard-response","43","47674","0.0-3.0-0.20","46","1","2023-06-25 15:17:06","077e191c96ad73626b2944d724c57d9e","142.214.181.69","Mozilla/5.0 (Windows NT 10.0; Win64; x64) AppleWebKit/537.36 (KHTML, like Gecko) Chrome/109.0.0.0 Safari/537.36","WebKit","Chrome","109.0.0.0","Windows","10.0","null","<div style=""font-size:60px;"">+</div>","null",""
"","","","","","html-button-response","44","50881","0.0-3.0-1.20","46","1","2023-06-25 15:17:06","077e191c96ad73626b2944d724c57d9e","142.214.181.69","Mozilla/5.0 (Windows NT 10.0; Win64; x64) AppleWebKit/537.36 (KHTML, like Gecko) Chrome/109.0.0.0 Safari/537.36","WebKit","Chrome","109.0.0.0","Windows","10.0","3204","<p>As the military commander, you could choose to launch a missile to kill <strong>7 enemy soldiers</strong> , but would accidentally kill <strong>1 enemy tree</strong> nearby.</p> <p>The photo of the <strong>enemy tree</strong> is shown below.</p> <p></p> <img src='stimuli/tree/4.png', style='max-width: 30%;'> </img> <p><strong>Would you launch the weapon?</strong></p>","1",""
"","","","","","html-keyboard-response","45","51890","0.0-3.0-0.21","46","1","2023-06-25 15:17:06","077e191c96ad73626b2944d724c57d9e","142.214.181.69","Mozilla/5.0 (Windows NT 10.0; Win64; x64) AppleWebKit/537.36 (KHTML, like Gecko) Chrome/109.0.0.0 Safari/537.36","WebKit","Chrome","109.0.0.0","Windows","10.0","null","<div style=""font-size:60px;"">+</div>","null",""
"","","","","","html-button-response","46","53853","0.0-3.0-1.21","46","1","2023-06-25 15:17:06","077e191c96ad73626b2944d724c57d9e","142.214.181.69","Mozilla/5.0 (Windows NT 10.0; Win64; x64) AppleWebKit/537.36 (KHTML, like Gecko) Chrome/109.0.0.0 Safari/537.36","WebKit","Chrome","109.0.0.0","Windows","10.0","1960","<p>As the military commander, you could choose to launch a missile to kill <strong>10 enemy soldiers</strong> , but would accidentally kill <strong>1 enemy tree</strong> nearby.</p> <p>The photo of the <strong>enemy tree</strong> is shown below.</p> <p></p> <img src='stimuli/tree/11.png', style='max-width: 30%;'> </img> <p><strong>Would you launch the weapon?</strong></p>","0",""
"","","","","","html-keyboard-response","47","54858","0.0-3.0-0.22","46","1","2023-06-25 15:17:06","077e191c96ad73626b2944d724c57d9e","142.214.181.69","Mozilla/5.0 (Windows NT 10.0; Win64; x64) AppleWebKit/537.36 (KHTML, like Gecko) Chrome/109.0.0.0 Safari/537.36","WebKit","Chrome","109.0.0.0","Windows","10.0","null","<div style=""font-size:60px;"">+</div>","null",""
"","","","","","html-button-response","48","57914","0.0-3.0-1.22","46","1","2023-06-25 15:17:06","077e191c96ad73626b2944d724c57d9e","142.214.181.69","Mozilla/5.0 (Windows NT 10.0; Win64; x64) AppleWebKit/537.36 (KHTML, like Gecko) Chrome/109.0.0.0 Safari/537.36","WebKit","Chrome","109.0.0.0","Windows","10.0","3053","<p>As the military commander, you could choose to launch a missile to kill <strong>5 enemy soldiers</strong> , but would accidentally kill <strong>1 enemy civilian</strong> nearby.</p> <p>The photo of the <strong>enemy civilian</strong> is shown below.</p> <p></p> <img src='stimuli/faces/PFM5.jpg', style='max-width: 30%;'> </img> <p><strong>Would you launch the weapon?</strong></p>","1",""
"","","","","","html-keyboard-response","49","58923","0.0-3.0-0.23","46","1","2023-06-25 15:17:06","077e191c96ad73626b2944d724c57d9e","142.214.181.69","Mozilla/5.0 (Windows NT 10.0; Win64; x64) AppleWebKit/537.36 (KHTML, like Gecko) Chrome/109.0.0.0 Safari/537.36","WebKit","Chrome","109.0.0.0","Windows","10.0","null","<div style=""font-size:60px;"">+</div>","null",""
"","","","","","html-button-response","50","59129","0.0-3.0-1.23","46","1","2023-06-25 15:17:06","077e191c96ad73626b2944d724c57d9e","142.214.181.69","Mozilla/5.0 (Windows NT 10.0; Win64; x64) AppleWebKit/537.36 (KHTML, like Gecko) Chrome/109.0.0.0 Safari/537.36","WebKit","Chrome","109.0.0.0","Windows","10.0","203","<p>As the military commander, you could choose to launch a missile to kill <strong>8 enemy soldiers</strong> , but would accidentally kill <strong>1 enemy tree</strong> nearby.</p> <p>The photo of the <strong>enemy tree</strong> is shown below.</p> <p></p> <img src='stimuli/tree/3.png', style='max-width: 30%;'> </img> <p><strong>Would you launch the weapon?</strong></p>","1",""
"","","","","","html-keyboard-response","51","60138","0.0-3.0-0.24","46","1","2023-06-25 15:17:06","077e191c96ad73626b2944d724c57d9e","142.214.181.69","Mozilla/5.0 (Windows NT 10.0; Win64; x64) AppleWebKit/537.36 (KHTML, like Gecko) Chrome/109.0.0.0 Safari/537.36","WebKit","Chrome","109.0.0.0","Windows","10.0","null","<div style=""font-size:60px;"">+</div>","null",""
"","","","","","html-button-response","52","64466","0.0-3.0-1.24","46","1","2023-06-25 15:17:06","077e191c96ad73626b2944d724c57d9e","142.214.181.69","Mozilla/5.0 (Windows NT 10.0; Win64; x64) AppleWebKit/537.36 (KHTML, like Gecko) Chrome/109.0.0.0 Safari/537.36","WebKit","Chrome","109.0.0.0","Windows","10.0","4325","<p>As the military commander, you could choose to launch a missile to kill <strong>1 enemy soldier</strong> , but would accidentally kill <strong>1 enemy tree</strong> nearby.</p> <p>The photo of the <strong>enemy tree</strong> is shown below.</p> <p></p> <img src='stimuli/tree/5.png', style='max-width: 30%;'> </img> <p><strong>Would you launch the weapon?</strong></p>","0",""
"","","","","","html-keyboard-response","53","65475","0.0-3.0-0.25","46","1","2023-06-25 15:17:06","077e191c96ad73626b2944d724c57d9e","142.214.181.69","Mozilla/5.0 (Windows NT 10.0; Win64; x64) AppleWebKit/537.36 (KHTML, like Gecko) Chrome/109.0.0.0 Safari/537.36","WebKit","Chrome","109.0.0.0","Windows","10.0","null","<div style=""font-size:60px;"">+</div>","null",""
"","","","","","html-button-response","54","67124","0.0-3.0-1.25","46","1","2023-06-25 15:17:06","077e191c96ad73626b2944d724c57d9e","142.214.181.69","Mozilla/5.0 (Windows NT 10.0; Win64; x64) AppleWebKit/537.36 (KHTML, like Gecko) Chrome/109.0.0.0 Safari/537.36","WebKit","Chrome","109.0.0.0","Windows","10.0","1646","<p>As the military commander, you could choose to launch a missile to kill <strong>1 enemy soldier</strong> , but would accidentally kill <strong>1 enemy civilian</strong> nearby.</p> <p>The photo of the <strong>enemy civilian</strong> is shown below.</p> <p></p> <img src='stimuli/faces/PFM1.jpg', style='max-width: 30%;'> </img> <p><strong>Would you launch the weapon?</strong></p>","0",""
"","","","","","html-keyboard-response","55","68131","0.0-3.0-0.26","46","1","2023-06-25 15:17:06","077e191c96ad73626b2944d724c57d9e","142.214.181.69","Mozilla/5.0 (Windows NT 10.0; Win64; x64) AppleWebKit/537.36 (KHTML, like Gecko) Chrome/109.0.0.0 Safari/537.36","WebKit","Chrome","109.0.0.0","Windows","10.0","null","<div style=""font-size:60px;"">+</div>","null",""
"","","","","","html-button-response","56","69838","0.0-3.0-1.26","46","1","2023-06-25 15:17:06","077e191c96ad73626b2944d724c57d9e","142.214.181.69","Mozilla/5.0 (Windows NT 10.0; Win64; x64) AppleWebKit/537.36 (KHTML, like Gecko) Chrome/109.0.0.0 Safari/537.36","WebKit","Chrome","109.0.0.0","Windows","10.0","1705","<p>As the military commander, you could choose to launch a missile to kill <strong>4 enemy soldiers</strong> , but would accidentally kill <strong>1 enemy civilian</strong> nearby.</p> <p>The photo of the <strong>enemy civilian</strong> is shown below.</p> <p></p> <img src='stimuli/faces/PFM4.jpg', style='max-width: 30%;'> </img> <p><strong>Would you launch the weapon?</strong></p>","1",""
"","","","","","html-keyboard-response","57","70842","0.0-3.0-0.27","46","1","2023-06-25 15:17:06","077e191c96ad73626b2944d724c57d9e","142.214.181.69","Mozilla/5.0 (Windows NT 10.0; Win64; x64) AppleWebKit/537.36 (KHTML, like Gecko) Chrome/109.0.0.0 Safari/537.36","WebKit","Chrome","109.0.0.0","Windows","10.0","null","<div style=""font-size:60px;"">+</div>","null",""
"","","","","","html-button-response","58","71003","0.0-3.0-1.27","46","1","2023-06-25 15:17:06","077e191c96ad73626b2944d724c57d9e","142.214.181.69","Mozilla/5.0 (Windows NT 10.0; Win64; x64) AppleWebKit/537.36 (KHTML, like Gecko) Chrome/109.0.0.0 Safari/537.36","WebKit","Chrome","109.0.0.0","Windows","10.0","158","<p>As the military commander, you could choose to launch a missile to kill <strong>2 enemy soldiers</strong> , but would accidentally kill <strong>1 enemy civilian</strong> nearby.</p> <p>The photo of the <strong>enemy civilian</strong> is shown below.</p> <p></p> <img src='stimuli/faces/PFF2.jpg', style='max-width: 30%;'> </img> <p><strong>Would you launch the weapon?</strong></p>","1",""
"","","","","","html-keyboard-response","59","72011","0.0-3.0-0.28","46","1","2023-06-25 15:17:06","077e191c96ad73626b2944d724c57d9e","142.214.181.69","Mozilla/5.0 (Windows NT 10.0; Win64; x64) AppleWebKit/537.36 (KHTML, like Gecko) Chrome/109.0.0.0 Safari/537.36","WebKit","Chrome","109.0.0.0","Windows","10.0","null","<div style=""font-size:60px;"">+</div>","null",""
"","","","","","html-button-response","60","72603","0.0-3.0-1.28","46","1","2023-06-25 15:17:06","077e191c96ad73626b2944d724c57d9e","142.214.181.69","Mozilla/5.0 (Windows NT 10.0; Win64; x64) AppleWebKit/537.36 (KHTML, like Gecko) Chrome/109.0.0.0 Safari/537.36","WebKit","Chrome","109.0.0.0","Windows","10.0","589","<p>As the military commander, you could choose to launch a missile to kill <strong>1 enemy soldier</strong> , but would accidentally kill <strong>1 enemy tree</strong> nearby.</p> <p>The photo of the <strong>enemy tree</strong> is shown below.</p> <p></p> <img src='stimuli/tree/3.png', style='max-width: 30%;'> </img> <p><strong>Would you launch the weapon?</strong></p>","0",""
"","","","","","html-keyboard-response","61","73610","0.0-3.0-0.29","46","1","2023-06-25 15:17:06","077e191c96ad73626b2944d724c57d9e","142.214.181.69","Mozilla/5.0 (Windows NT 10.0; Win64; x64) AppleWebKit/537.36 (KHTML, like Gecko) Chrome/109.0.0.0 Safari/537.36","WebKit","Chrome","109.0.0.0","Windows","10.0","null","<div style=""font-size:60px;"">+</div>","null",""
"","","","","","html-button-response","62","73906","0.0-3.0-1.29","46","1","2023-06-25 15:17:06","077e191c96ad73626b2944d724c57d9e","142.214.181.69","Mozilla/5.0 (Windows NT 10.0; Win64; x64) AppleWebKit/537.36 (KHTML, like Gecko) Chrome/109.0.0.0 Safari/537.36","WebKit","Chrome","109.0.0.0","Windows","10.0","293","<p>As the military commander, you could choose to launch a missile to kill <strong>10 enemy soldiers</strong> , but would accidentally kill <strong>1 enemy tree</strong> nearby.</p> <p>The photo of the <strong>enemy tree</strong> is shown below.</p> <p></p> <img src='stimuli/tree/16.png', style='max-width: 30%;'> </img> <p><strong>Would you launch the weapon?</strong></p>","1",""
"","","","","","html-keyboard-response","63","74916","0.0-3.0-0.30","46","1","2023-06-25 15:17:06","077e191c96ad73626b2944d724c57d9e","142.214.181.69","Mozilla/5.0 (Windows NT 10.0; Win64; x64) AppleWebKit/537.36 (KHTML, like Gecko) Chrome/109.0.0.0 Safari/537.36","WebKit","Chrome","109.0.0.0","Windows","10.0","null","<div style=""font-size:60px;"">+</div>","null",""
"","","","","","html-button-response","64","77326","0.0-3.0-1.30","46","1","2023-06-25 15:17:06","077e191c96ad73626b2944d724c57d9e","142.214.181.69","Mozilla/5.0 (Windows NT 10.0; Win64; x64) AppleWebKit/537.36 (KHTML, like Gecko) Chrome/109.0.0.0 Safari/537.36","WebKit","Chrome","109.0.0.0","Windows","10.0","2407","<p>As the military commander, you could choose to launch a missile to kill <strong>4 enemy soldiers</strong> , but would accidentally kill <strong>1 enemy tree</strong> nearby.</p> <p>The photo of the <strong>enemy tree</strong> is shown below.</p> <p></p> <img src='stimuli/tree/9.png', style='max-width: 30%;'> </img> <p><strong>Would you launch the weapon?</strong></p>","0",""
"","","","","","html-keyboard-response","65","78330","0.0-3.0-0.31","46","1","2023-06-25 15:17:06","077e191c96ad73626b2944d724c57d9e","142.214.181.69","Mozilla/5.0 (Windows NT 10.0; Win64; x64) AppleWebKit/537.36 (KHTML, like Gecko) Chrome/109.0.0.0 Safari/537.36","WebKit","Chrome","109.0.0.0","Windows","10.0","null","<div style=""font-size:60px;"">+</div>","null",""
"","","","","","html-button-response","66","79783","0.0-3.0-1.31","46","1","2023-06-25 15:17:06","077e191c96ad73626b2944d724c57d9e","142.214.181.69","Mozilla/5.0 (Windows NT 10.0; Win64; x64) AppleWebKit/537.36 (KHTML, like Gecko) Chrome/109.0.0.0 Safari/537.36","WebKit","Chrome","109.0.0.0","Windows","10.0","1450","<p>As the military commander, you could choose to launch a missile to kill <strong>3 enemy soldiers</strong> , but would accidentally kill <strong>1 enemy tree</strong> nearby.</p> <p>The photo of the <strong>enemy tree</strong> is shown below.</p> <p></p> <img src='stimuli/tree/12.png', style='max-width: 30%;'> </img> <p><strong>Would you launch the weapon?</strong></p>","1",""
"","","","","","html-keyboard-response","67","80786","0.0-3.0-0.32","46","1","2023-06-25 15:17:06","077e191c96ad73626b2944d724c57d9e","142.214.181.69","Mozilla/5.0 (Windows NT 10.0; Win64; x64) AppleWebKit/537.36 (KHTML, like Gecko) Chrome/109.0.0.0 Safari/537.36","WebKit","Chrome","109.0.0.0","Windows","10.0","null","<div style=""font-size:60px;"">+</div>","null",""
"","","","","","html-button-response","68","82267","0.0-3.0-1.32","46","1","2023-06-25 15:17:06","077e191c96ad73626b2944d724c57d9e","142.214.181.69","Mozilla/5.0 (Windows NT 10.0; Win64; x64) AppleWebKit/537.36 (KHTML, like Gecko) Chrome/109.0.0.0 Safari/537.36","WebKit","Chrome","109.0.0.0","Windows","10.0","1477","<p>As the military commander, you could choose to launch a missile to kill <strong>6 enemy soldiers</strong> , but would accidentally kill <strong>1 enemy tree</strong> nearby.</p> <p>The photo of the <strong>enemy tree</strong> is shown below.</p> <p></p> <img src='stimuli/tree/8.png', style='max-width: 30%;'> </img> <p><strong>Would you launch the weapon?</strong></p>","1",""
"","","","","","html-keyboard-response","69","83275","0.0-3.0-0.33","46","1","2023-06-25 15:17:06","077e191c96ad73626b2944d724c57d9e","142.214.181.69","Mozilla/5.0 (Windows NT 10.0; Win64; x64) AppleWebKit/537.36 (KHTML, like Gecko) Chrome/109.0.0.0 Safari/537.36","WebKit","Chrome","109.0.0.0","Windows","10.0","null","<div style=""font-size:60px;"">+</div>","null",""
"","","","","","html-button-response","70","84961","0.0-3.0-1.33","46","1","2023-06-25 15:17:06","077e191c96ad73626b2944d724c57d9e","142.214.181.69","Mozilla/5.0 (Windows NT 10.0; Win64; x64) AppleWebKit/537.36 (KHTML, like Gecko) Chrome/109.0.0.0 Safari/537.36","WebKit","Chrome","109.0.0.0","Windows","10.0","1683","<p>As the military commander, you could choose to launch a missile to kill <strong>6 enemy soldiers</strong> , but would accidentally kill <strong>1 enemy civilian</strong> nearby.</p> <p>The photo of the <strong>enemy civilian</strong> is shown below.</p> <p></p> <img src='stimuli/faces/PFM2.jpg', style='max-width: 30%;'> </img> <p><strong>Would you launch the weapon?</strong></p>","0",""
"","","","","","html-keyboard-response","71","85970","0.0-3.0-0.34","46","1","2023-06-25 15:17:06","077e191c96ad73626b2944d724c57d9e","142.214.181.69","Mozilla/5.0 (Windows NT 10.0; Win64; x64) AppleWebKit/537.36 (KHTML, like Gecko) Chrome/109.0.0.0 Safari/537.36","WebKit","Chrome","109.0.0.0","Windows","10.0","null","<div style=""font-size:60px;"">+</div>","null",""
"","","","","","html-button-response","72","87202","0.0-3.0-1.34","46","1","2023-06-25 15:17:06","077e191c96ad73626b2944d724c57d9e","142.214.181.69","Mozilla/5.0 (Windows NT 10.0; Win64; x64) AppleWebKit/537.36 (KHTML, like Gecko) Chrome/109.0.0.0 Safari/537.36","WebKit","Chrome","109.0.0.0","Windows","10.0","1229","<p>As the military commander, you could choose to launch a missile to kill <strong>6 enemy soldiers</strong> , but would accidentally kill <strong>1 enemy civilian</strong> nearby.</p> <p>The photo of the <strong>enemy civilian</strong> is shown below.</p> <p></p> <img src='stimuli/faces/PFM4.jpg', style='max-width: 30%;'> </img> <p><strong>Would you launch the weapon?</strong></p>","0",""
"","","","","","html-keyboard-response","73","88211","0.0-3.0-0.35","46","1","2023-06-25 15:17:06","077e191c96ad73626b2944d724c57d9e","142.214.181.69","Mozilla/5.0 (Windows NT 10.0; Win64; x64) AppleWebKit/537.36 (KHTML, like Gecko) Chrome/109.0.0.0 Safari/537.36","WebKit","Chrome","109.0.0.0","Windows","10.0","null","<div style=""font-size:60px;"">+</div>","null",""
"","","","","","html-button-response","74","90142","0.0-3.0-1.35","46","1","2023-06-25 15:17:06","077e191c96ad73626b2944d724c57d9e","142.214.181.69","Mozilla/5.0 (Windows NT 10.0; Win64; x64) AppleWebKit/537.36 (KHTML, like Gecko) Chrome/109.0.0.0 Safari/537.36","WebKit","Chrome","109.0.0.0","Windows","10.0","1928","<p>As the military commander, you could choose to launch a missile to kill <strong>2 enemy soldiers</strong> , but would accidentally kill <strong>1 enemy tree</strong> nearby.</p> <p>The photo of the <strong>enemy tree</strong> is shown below.</p> <p></p> <img src='stimuli/tree/14.png', style='max-width: 30%;'> </img> <p><strong>Would you launch the weapon?</strong></p>","1",""
"","","","","","html-keyboard-response","75","91147","0.0-3.0-0.36","46","1","2023-06-25 15:17:06","077e191c96ad73626b2944d724c57d9e","142.214.181.69","Mozilla/5.0 (Windows NT 10.0; Win64; x64) AppleWebKit/537.36 (KHTML, like Gecko) Chrome/109.0.0.0 Safari/537.36","WebKit","Chrome","109.0.0.0","Windows","10.0","null","<div style=""font-size:60px;"">+</div>","null",""
"","","","","","html-button-response","76","92860","0.0-3.0-1.36","46","1","2023-06-25 15:17:06","077e191c96ad73626b2944d724c57d9e","142.214.181.69","Mozilla/5.0 (Windows NT 10.0; Win64; x64) AppleWebKit/537.36 (KHTML, like Gecko) Chrome/109.0.0.0 Safari/537.36","WebKit","Chrome","109.0.0.0","Windows","10.0","1710","<p>As the military commander, you could choose to launch a missile to kill <strong>3 enemy soldiers</strong> , but would accidentally kill <strong>1 enemy civilian</strong> nearby.</p> <p>The photo of the <strong>enemy civilian</strong> is shown below.</p> <p></p> <img src='stimuli/faces/PFM6.jpg', style='max-width: 30%;'> </img> <p><strong>Would you launch the weapon?</strong></p>","1",""
"","","","","","html-keyboard-response","77","93867","0.0-3.0-0.37","46","1","2023-06-25 15:17:06","077e191c96ad73626b2944d724c57d9e","142.214.181.69","Mozilla/5.0 (Windows NT 10.0; Win64; x64) AppleWebKit/537.36 (KHTML, like Gecko) Chrome/109.0.0.0 Safari/537.36","WebKit","Chrome","109.0.0.0","Windows","10.0","null","<div style=""font-size:60px;"">+</div>","null",""
"","","","","","html-button-response","78","95433","0.0-3.0-1.37","46","1","2023-06-25 15:17:06","077e191c96ad73626b2944d724c57d9e","142.214.181.69","Mozilla/5.0 (Windows NT 10.0; Win64; x64) AppleWebKit/537.36 (KHTML, like Gecko) Chrome/109.0.0.0 Safari/537.36","WebKit","Chrome","109.0.0.0","Windows","10.0","1563","<p>As the military commander, you could choose to launch a missile to kill <strong>8 enemy soldiers</strong> , but would accidentally kill <strong>1 enemy civilian</strong> nearby.</p> <p>The photo of the <strong>enemy civilian</strong> is shown below.</p> <p></p> <img src='stimuli/faces/PFM7.jpg', style='max-width: 30%;'> </img> <p><strong>Would you launch the weapon?</strong></p>","0",""
"","","","","","html-keyboard-response","79","96442","0.0-3.0-0.38","46","1","2023-06-25 15:17:06","077e191c96ad73626b2944d724c57d9e","142.214.181.69","Mozilla/5.0 (Windows NT 10.0; Win64; x64) AppleWebKit/537.36 (KHTML, like Gecko) Chrome/109.0.0.0 Safari/537.36","WebKit","Chrome","109.0.0.0","Windows","10.0","null","<div style=""font-size:60px;"">+</div>","null",""
"","","","","","html-button-response","80","97850","0.0-3.0-1.38","46","1","2023-06-25 15:17:06","077e191c96ad73626b2944d724c57d9e","142.214.181.69","Mozilla/5.0 (Windows NT 10.0; Win64; x64) AppleWebKit/537.36 (KHTML, like Gecko) Chrome/109.0.0.0 Safari/537.36","WebKit","Chrome","109.0.0.0","Windows","10.0","1404","<p>As the military commander, you could choose to launch a missile to kill <strong>7 enemy soldiers</strong> , but would accidentally kill <strong>1 enemy tree</strong> nearby.</p> <p>The photo of the <strong>enemy tree</strong> is shown below.</p> <p></p> <img src='stimuli/tree/13.png', style='max-width: 30%;'> </img> <p><strong>Would you launch the weapon?</strong></p>","1",""
"","","","","","html-keyboard-response","81","98859","0.0-3.0-0.39","46","1","2023-06-25 15:17:06","077e191c96ad73626b2944d724c57d9e","142.214.181.69","Mozilla/5.0 (Windows NT 10.0; Win64; x64) AppleWebKit/537.36 (KHTML, like Gecko) Chrome/109.0.0.0 Safari/537.36","WebKit","Chrome","109.0.0.0","Windows","10.0","null","<div style=""font-size:60px;"">+</div>","null",""
"","","","","","html-button-response","82","100788","0.0-3.0-1.39","46","1","2023-06-25 15:17:06","077e191c96ad73626b2944d724c57d9e","142.214.181.69","Mozilla/5.0 (Windows NT 10.0; Win64; x64) AppleWebKit/537.36 (KHTML, like Gecko) Chrome/109.0.0.0 Safari/537.36","WebKit","Chrome","109.0.0.0","Windows","10.0","1926","<p>As the military commander, you could choose to launch a missile to kill <strong>2 enemy soldiers</strong> , but would accidentally kill <strong>1 enemy tree</strong> nearby.</p> <p>The photo of the <strong>enemy tree</strong> is shown below.</p> <p></p> <img src='stimuli/tree/15.png', style='max-width: 30%;'> </img> <p><strong>Would you launch the weapon?</strong></p>","1",""
"","","","","","html-keyboard-response","83","101796","0.0-3.0-0.40","46","1","2023-06-25 15:17:06","077e191c96ad73626b2944d724c57d9e","142.214.181.69","Mozilla/5.0 (Windows NT 10.0; Win64; x64) AppleWebKit/537.36 (KHTML, like Gecko) Chrome/109.0.0.0 Safari/537.36","WebKit","Chrome","109.0.0.0","Windows","10.0","null","<div style=""font-size:60px;"">+</div>","null",""
"","","","","","html-button-response","84","113832","0.0-3.0-1.40","46","1","2023-06-25 15:17:06","077e191c96ad73626b2944d724c57d9e","142.214.181.69","Mozilla/5.0 (Windows NT 10.0; Win64; x64) AppleWebKit/537.36 (KHTML, like Gecko) Chrome/109.0.0.0 Safari/537.36","WebKit","Chrome","109.0.0.0","Windows","10.0","12032","<p>As the military commander, you could choose to launch a missile to kill <strong>1 enemy soldier</strong> , but would accidentally kill <strong>1 enemy civilian</strong> nearby.</p> <p>The photo of the <strong>enemy civilian</strong> is shown below.</p> <p></p> <img src='stimuli/faces/PFF7.jpg', style='max-width: 30%;'> </img> <p><strong>Would you launch the weapon?</strong></p>","1",""
"","","","","","html-keyboard-response","85","114843","0.0-3.0-0.41","46","1","2023-06-25 15:17:06","077e191c96ad73626b2944d724c57d9e","142.214.181.69","Mozilla/5.0 (Windows NT 10.0; Win64; x64) AppleWebKit/537.36 (KHTML, like Gecko) Chrome/109.0.0.0 Safari/537.36","WebKit","Chrome","109.0.0.0","Windows","10.0","null","<div style=""font-size:60px;"">+</div>","null",""
"","","","","","html-button-response","86","120689","0.0-3.0-1.41","46","1","2023-06-25 15:17:06","077e191c96ad73626b2944d724c57d9e","142.214.181.69","Mozilla/5.0 (Windows NT 10.0; Win64; x64) AppleWebKit/537.36 (KHTML, like Gecko) Chrome/109.0.0.0 Safari/537.36","WebKit","Chrome","109.0.0.0","Windows","10.0","5842","<p>As the military commander, you could choose to launch a missile to kill <strong>10 enemy soldiers</strong> , but would accidentally kill <strong>1 enemy civilian</strong> nearby.</p> <p>The photo of the <strong>enemy civilian</strong> is shown below.</p> <p></p> <img src='stimuli/faces/PFM6.jpg', style='max-width: 30%;'> </img> <p><strong>Would you launch the weapon?</strong></p>","0",""
"","","","","","html-keyboard-response","87","121699","0.0-3.0-0.42","46","1","2023-06-25 15:17:06","077e191c96ad73626b2944d724c57d9e","142.214.181.69","Mozilla/5.0 (Windows NT 10.0; Win64; x64) AppleWebKit/537.36 (KHTML, like Gecko) Chrome/109.0.0.0 Safari/537.36","WebKit","Chrome","109.0.0.0","Windows","10.0","null","<div style=""font-size:60px;"">+</div>","null",""
"","","","","","html-button-response","88","122600","0.0-3.0-1.42","46","1","2023-06-25 15:17:06","077e191c96ad73626b2944d724c57d9e","142.214.181.69","Mozilla/5.0 (Windows NT 10.0; Win64; x64) AppleWebKit/537.36 (KHTML, like Gecko) Chrome/109.0.0.0 Safari/537.36","WebKit","Chrome","109.0.0.0","Windows","10.0","898","<p>As the military commander, you could choose to launch a missile to kill <strong>2 enemy soldiers</strong> , but would accidentally kill <strong>1 enemy tree</strong> nearby.</p> <p>The photo of the <strong>enemy tree</strong> is shown below.</p> <p></p> <img src='stimuli/tree/16.png', style='max-width: 30%;'> </img> <p><strong>Would you launch the weapon?</strong></p>","1",""
"","","","","","html-keyboard-response","89","123611","0.0-3.0-0.43","46","1","2023-06-25 15:17:06","077e191c96ad73626b2944d724c57d9e","142.214.181.69","Mozilla/5.0 (Windows NT 10.0; Win64; x64) AppleWebKit/537.36 (KHTML, like Gecko) Chrome/109.0.0.0 Safari/537.36","WebKit","Chrome","109.0.0.0","Windows","10.0","null","<div style=""font-size:60px;"">+</div>","null",""
"","","","","","html-button-response","90","125138","0.0-3.0-1.43","46","1","2023-06-25 15:17:06","077e191c96ad73626b2944d724c57d9e","142.214.181.69","Mozilla/5.0 (Windows NT 10.0; Win64; x64) AppleWebKit/537.36 (KHTML, like Gecko) Chrome/109.0.0.0 Safari/537.36","WebKit","Chrome","109.0.0.0","Windows","10.0","1524","<p>As the military commander, you could choose to launch a missile to kill <strong>6 enemy soldiers</strong> , but would accidentally kill <strong>1 enemy civilian</strong> nearby.</p> <p>The photo of the <strong>enemy civilian</strong> is shown below.</p> <p></p> <img src='stimuli/faces/PFF4.jpg', style='max-width: 30%;'> </img> <p><strong>Would you launch the weapon?</strong></p>","1",""
"","","","","","html-keyboard-response","91","126147","0.0-3.0-0.44","46","1","2023-06-25 15:17:06","077e191c96ad73626b2944d724c57d9e","142.214.181.69","Mozilla/5.0 (Windows NT 10.0; Win64; x64) AppleWebKit/537.36 (KHTML, like Gecko) Chrome/109.0.0.0 Safari/537.36","WebKit","Chrome","109.0.0.0","Windows","10.0","null","<div style=""font-size:60px;"">+</div>","null",""
"","","","","","html-button-response","92","134195","0.0-3.0-1.44","46","1","2023-06-25 15:17:06","077e191c96ad73626b2944d724c57d9e","142.214.181.69","Mozilla/5.0 (Windows NT 10.0; Win64; x64) AppleWebKit/537.36 (KHTML, like Gecko) Chrome/109.0.0.0 Safari/537.36","WebKit","Chrome","109.0.0.0","Windows","10.0","8045","<p>As the military commander, you could choose to launch a missile to kill <strong>10 enemy soldiers</strong> , but would accidentally kill <strong>1 enemy tree</strong> nearby.</p> <p>The photo of the <strong>enemy tree</strong> is shown below.</p> <p></p> <img src='stimuli/tree/9.png', style='max-width: 30%;'> </img> <p><strong>Would you launch the weapon?</strong></p>","0",""
"","","","","","html-keyboard-response","93","135203","0.0-3.0-0.45","46","1","2023-06-25 15:17:06","077e191c96ad73626b2944d724c57d9e","142.214.181.69","Mozilla/5.0 (Windows NT 10.0; Win64; x64) AppleWebKit/537.36 (KHTML, like Gecko) Chrome/109.0.0.0 Safari/537.36","WebKit","Chrome","109.0.0.0","Windows","10.0","null","<div style=""font-size:60px;"">+</div>","null",""
"","","","","","html-button-response","94","137130","0.0-3.0-1.45","46","1","2023-06-25 15:17:06","077e191c96ad73626b2944d724c57d9e","142.214.181.69","Mozilla/5.0 (Windows NT 10.0; Win64; x64) AppleWebKit/537.36 (KHTML, like Gecko) Chrome/109.0.0.0 Safari/537.36","WebKit","Chrome","109.0.0.0","Windows","10.0","1923","<p>As the military commander, you could choose to launch a missile to kill <strong>9 enemy soldiers</strong> , but would accidentally kill <strong>1 enemy civilian</strong> nearby.</p> <p>The photo of the <strong>enemy civilian</strong> is shown below.</p> <p></p> <img src='stimuli/faces/PFF2.jpg', style='max-width: 30%;'> </img> <p><strong>Would you launch the weapon?</strong></p>","0",""
"","","","","","html-keyboard-response","95","138139","0.0-3.0-0.46","46","1","2023-06-25 15:17:06","077e191c96ad73626b2944d724c57d9e","142.214.181.69","Mozilla/5.0 (Windows NT 10.0; Win64; x64) AppleWebKit/537.36 (KHTML, like Gecko) Chrome/109.0.0.0 Safari/537.36","WebKit","Chrome","109.0.0.0","Windows","10.0","null","<div style=""font-size:60px;"">+</div>","null",""
"","","","","","html-button-response","96","140874","0.0-3.0-1.46","46","1","2023-06-25 15:17:06","077e191c96ad73626b2944d724c57d9e","142.214.181.69","Mozilla/5.0 (Windows NT 10.0; Win64; x64) AppleWebKit/537.36 (KHTML, like Gecko) Chrome/109.0.0.0 Safari/537.36","WebKit","Chrome","109.0.0.0","Windows","10.0","2731","<p>As the military commander, you could choose to launch a missile to kill <strong>6 enemy soldiers</strong> , but would accidentally kill <strong>1 enemy civilian</strong> nearby.</p> <p>The photo of the <strong>enemy civilian</strong> is shown below.</p> <p></p> <img src='stimuli/faces/PFF7.jpg', style='max-width: 30%;'> </img> <p><strong>Would you launch the weapon?</strong></p>","0",""
"","","","","","html-keyboard-response","97","141883","0.0-3.0-0.47","46","1","2023-06-25 15:17:06","077e191c96ad73626b2944d724c57d9e","142.214.181.69","Mozilla/5.0 (Windows NT 10.0; Win64; x64) AppleWebKit/537.36 (KHTML, like Gecko) Chrome/109.0.0.0 Safari/537.36","WebKit","Chrome","109.0.0.0","Windows","10.0","null","<div style=""font-size:60px;"">+</div>","null",""
"","","","","","html-button-response","98","143378","0.0-3.0-1.47","46","1","2023-06-25 15:17:06","077e191c96ad73626b2944d724c57d9e","142.214.181.69","Mozilla/5.0 (Windows NT 10.0; Win64; x64) AppleWebKit/537.36 (KHTML, like Gecko) Chrome/109.0.0.0 Safari/537.36","WebKit","Chrome","109.0.0.0","Windows","10.0","1490","<p>As the military commander, you could choose to launch a missile to kill <strong>9 enemy soldiers</strong> , but would accidentally kill <strong>1 enemy tree</strong> nearby.</p> <p>The photo of the <strong>enemy tree</strong> is shown below.</p> <p></p> <img src='stimuli/tree/12.png', style='max-width: 30%;'> </img> <p><strong>Would you launch the weapon?</strong></p>","1",""
"","","","","","html-keyboard-response","99","144387","0.0-3.0-0.48","46","1","2023-06-25 15:17:06","077e191c96ad73626b2944d724c57d9e","142.214.181.69","Mozilla/5.0 (Windows NT 10.0; Win64; x64) AppleWebKit/537.36 (KHTML, like Gecko) Chrome/109.0.0.0 Safari/537.36","WebKit","Chrome","109.0.0.0","Windows","10.0","null","<div style=""font-size:60px;"">+</div>","null",""
"","","","","","html-button-response","100","145634","0.0-3.0-1.48","46","1","2023-06-25 15:17:06","077e191c96ad73626b2944d724c57d9e","142.214.181.69","Mozilla/5.0 (Windows NT 10.0; Win64; x64) AppleWebKit/537.36 (KHTML, like Gecko) Chrome/109.0.0.0 Safari/537.36","WebKit","Chrome","109.0.0.0","Windows","10.0","1244","<p>As the military commander, you could choose to launch a missile to kill <strong>7 enemy soldiers</strong> , but would accidentally kill <strong>1 enemy civilian</strong> nearby.</p> <p>The photo of the <strong>enemy civilian</strong> is shown below.</p> <p></p> <img src='stimuli/faces/PFF8.jpg', style='max-width: 30%;'> </img> <p><strong>Would you launch the weapon?</strong></p>","1",""
"","","","","","html-keyboard-response","101","146643","0.0-3.0-0.49","46","1","2023-06-25 15:17:06","077e191c96ad73626b2944d724c57d9e","142.214.181.69","Mozilla/5.0 (Windows NT 10.0; Win64; x64) AppleWebKit/537.36 (KHTML, like Gecko) Chrome/109.0.0.0 Safari/537.36","WebKit","Chrome","109.0.0.0","Windows","10.0","null","<div style=""font-size:60px;"">+</div>","null",""
"","","","","","html-button-response","102","147259","0.0-3.0-1.49","46","1","2023-06-25 15:17:06","077e191c96ad73626b2944d724c57d9e","142.214.181.69","Mozilla/5.0 (Windows NT 10.0; Win64; x64) AppleWebKit/537.36 (KHTML, like Gecko) Chrome/109.0.0.0 Safari/537.36","WebKit","Chrome","109.0.0.0","Windows","10.0","614","<p>As the military commander, you could choose to launch a missile to kill <strong>3 enemy soldiers</strong> , but would accidentally kill <strong>1 enemy civilian</strong> nearby.</p> <p>The photo of the <strong>enemy civilian</strong> is shown below.</p> <p></p> <img src='stimuli/faces/PFM7.jpg', style='max-width: 30%;'> </img> <p><strong>Would you launch the weapon?</strong></p>","0",""
"","","","","","html-keyboard-response","103","148267","0.0-3.0-0.50","46","1","2023-06-25 15:17:06","077e191c96ad73626b2944d724c57d9e","142.214.181.69","Mozilla/5.0 (Windows NT 10.0; Win64; x64) AppleWebKit/537.36 (KHTML, like Gecko) Chrome/109.0.0.0 Safari/537.36","WebKit","Chrome","109.0.0.0","Windows","10.0","null","<div style=""font-size:60px;"">+</div>","null",""
"","","","","","html-button-response","104","148641","0.0-3.0-1.50","46","1","2023-06-25 15:17:06","077e191c96ad73626b2944d724c57d9e","142.214.181.69","Mozilla/5.0 (Windows NT 10.0; Win64; x64) AppleWebKit/537.36 (KHTML, like Gecko) Chrome/109.0.0.0 Safari/537.36","WebKit","Chrome","109.0.0.0","Windows","10.0","371","<p>As the military commander, you could choose to launch a missile to kill <strong>3 enemy soldiers</strong> , but would accidentally kill <strong>1 enemy civilian</strong> nearby.</p> <p>The photo of the <strong>enemy civilian</strong> is shown below.</p> <p></p> <img src='stimuli/faces/PFM2.jpg', style='max-width: 30%;'> </img> <p><strong>Would you launch the weapon?</strong></p>","1",""
"","","","","","html-keyboard-response","105","149651","0.0-3.0-0.51","46","1","2023-06-25 15:17:06","077e191c96ad73626b2944d724c57d9e","142.214.181.69","Mozilla/5.0 (Windows NT 10.0; Win64; x64) AppleWebKit/537.36 (KHTML, like Gecko) Chrome/109.0.0.0 Safari/537.36","WebKit","Chrome","109.0.0.0","Windows","10.0","null","<div style=""font-size:60px;"">+</div>","null",""
"","","","","","html-button-response","106","150480","0.0-3.0-1.51","46","1","2023-06-25 15:17:06","077e191c96ad73626b2944d724c57d9e","142.214.181.69","Mozilla/5.0 (Windows NT 10.0; Win64; x64) AppleWebKit/537.36 (KHTML, like Gecko) Chrome/109.0.0.0 Safari/537.36","WebKit","Chrome","109.0.0.0","Windows","10.0","825","<p>As the military commander, you could choose to launch a missile to kill <strong>5 enemy soldiers</strong> , but would accidentally kill <strong>1 enemy civilian</strong> nearby.</p> <p>The photo of the <strong>enemy civilian</strong> is shown below.</p> <p></p> <img src='stimuli/faces/PFF4.jpg', style='max-width: 30%;'> </img> <p><strong>Would you launch the weapon?</strong></p>","1",""
"","","","","","html-keyboard-response","107","151491","0.0-3.0-0.52","46","1","2023-06-25 15:17:06","077e191c96ad73626b2944d724c57d9e","142.214.181.69","Mozilla/5.0 (Windows NT 10.0; Win64; x64) AppleWebKit/537.36 (KHTML, like Gecko) Chrome/109.0.0.0 Safari/537.36","WebKit","Chrome","109.0.0.0","Windows","10.0","null","<div style=""font-size:60px;"">+</div>","null",""
"","","","","","html-button-response","108","152631","0.0-3.0-1.52","46","1","2023-06-25 15:17:06","077e191c96ad73626b2944d724c57d9e","142.214.181.69","Mozilla/5.0 (Windows NT 10.0; Win64; x64) AppleWebKit/537.36 (KHTML, like Gecko) Chrome/109.0.0.0 Safari/537.36","WebKit","Chrome","109.0.0.0","Windows","10.0","1136","<p>As the military commander, you could choose to launch a missile to kill <strong>7 enemy soldiers</strong> , but would accidentally kill <strong>1 enemy civilian</strong> nearby.</p> <p>The photo of the <strong>enemy civilian</strong> is shown below.</p> <p></p> <img src='stimuli/faces/PFM8.jpg', style='max-width: 30%;'> </img> <p><strong>Would you launch the weapon?</strong></p>","0",""
"","","","","","html-keyboard-response","109","153635","0.0-3.0-0.53","46","1","2023-06-25 15:17:06","077e191c96ad73626b2944d724c57d9e","142.214.181.69","Mozilla/5.0 (Windows NT 10.0; Win64; x64) AppleWebKit/537.36 (KHTML, like Gecko) Chrome/109.0.0.0 Safari/537.36","WebKit","Chrome","109.0.0.0","Windows","10.0","null","<div style=""font-size:60px;"">+</div>","null",""
"","","","","","html-button-response","110","153947","0.0-3.0-1.53","46","1","2023-06-25 15:17:06","077e191c96ad73626b2944d724c57d9e","142.214.181.69","Mozilla/5.0 (Windows NT 10.0; Win64; x64) AppleWebKit/537.36 (KHTML, like Gecko) Chrome/109.0.0.0 Safari/537.36","WebKit","Chrome","109.0.0.0","Windows","10.0","309","<p>As the military commander, you could choose to launch a missile to kill <strong>1 enemy soldier</strong> , but would accidentally kill <strong>1 enemy tree</strong> nearby.</p> <p>The photo of the <strong>enemy tree</strong> is shown below.</p> <p></p> <img src='stimuli/tree/8.png', style='max-width: 30%;'> </img> <p><strong>Would you launch the weapon?</strong></p>","1",""
"","","","","","html-keyboard-response","111","154956","0.0-3.0-0.54","46","1","2023-06-25 15:17:06","077e191c96ad73626b2944d724c57d9e","142.214.181.69","Mozilla/5.0 (Windows NT 10.0; Win64; x64) AppleWebKit/537.36 (KHTML, like Gecko) Chrome/109.0.0.0 Safari/537.36","WebKit","Chrome","109.0.0.0","Windows","10.0","null","<div style=""font-size:60px;"">+</div>","null",""
"","","","","","html-button-response","112","156532","0.0-3.0-1.54","46","1","2023-06-25 15:17:06","077e191c96ad73626b2944d724c57d9e","142.214.181.69","Mozilla/5.0 (Windows NT 10.0; Win64; x64) AppleWebKit/537.36 (KHTML, like Gecko) Chrome/109.0.0.0 Safari/537.36","WebKit","Chrome","109.0.0.0","Windows","10.0","1571","<p>As the military commander, you could choose to launch a missile to kill <strong>3 enemy soldiers</strong> , but would accidentally kill <strong>1 enemy tree</strong> nearby.</p> <p>The photo of the <strong>enemy tree</strong> is shown below.</p> <p></p> <img src='stimuli/tree/4.png', style='max-width: 30%;'> </img> <p><strong>Would you launch the weapon?</strong></p>","1",""
"","","","","","html-keyboard-response","113","157540","0.0-3.0-0.55","46","1","2023-06-25 15:17:06","077e191c96ad73626b2944d724c57d9e","142.214.181.69","Mozilla/5.0 (Windows NT 10.0; Win64; x64) AppleWebKit/537.36 (KHTML, like Gecko) Chrome/109.0.0.0 Safari/537.36","WebKit","Chrome","109.0.0.0","Windows","10.0","null","<div style=""font-size:60px;"">+</div>","null",""
"","","","","","html-button-response","114","158585","0.0-3.0-1.55","46","1","2023-06-25 15:17:06","077e191c96ad73626b2944d724c57d9e","142.214.181.69","Mozilla/5.0 (Windows NT 10.0; Win64; x64) AppleWebKit/537.36 (KHTML, like Gecko) Chrome/109.0.0.0 Safari/537.36","WebKit","Chrome","109.0.0.0","Windows","10.0","1041","<p>As the military commander, you could choose to launch a missile to kill <strong>9 enemy soldiers</strong> , but would accidentally kill <strong>1 enemy civilian</strong> nearby.</p> <p>The photo of the <strong>enemy civilian</strong> is shown below.</p> <p></p> <img src='stimuli/faces/PFF1.jpg', style='max-width: 30%;'> </img> <p><strong>Would you launch the weapon?</strong></p>","1",""
"","","","","","html-keyboard-response","115","159595","0.0-3.0-0.56","46","1","2023-06-25 15:17:06","077e191c96ad73626b2944d724c57d9e","142.214.181.69","Mozilla/5.0 (Windows NT 10.0; Win64; x64) AppleWebKit/537.36 (KHTML, like Gecko) Chrome/109.0.0.0 Safari/537.36","WebKit","Chrome","109.0.0.0","Windows","10.0","null","<div style=""font-size:60px;"">+</div>","null",""
"","","","","","html-button-response","116","163226","0.0-3.0-1.56","46","1","2023-06-25 15:17:06","077e191c96ad73626b2944d724c57d9e","142.214.181.69","Mozilla/5.0 (Windows NT 10.0; Win64; x64) AppleWebKit/537.36 (KHTML, like Gecko) Chrome/109.0.0.0 Safari/537.36","WebKit","Chrome","109.0.0.0","Windows","10.0","3628","<p>As the military commander, you could choose to launch a missile to kill <strong>9 enemy soldiers</strong> , but would accidentally kill <strong>1 enemy civilian</strong> nearby.</p> <p>The photo of the <strong>enemy civilian</strong> is shown below.</p> <p></p> <img src='stimuli/faces/PFM1.jpg', style='max-width: 30%;'> </img> <p><strong>Would you launch the weapon?</strong></p>","1",""
"","","","","","html-keyboard-response","117","164235","0.0-3.0-0.57","46","1","2023-06-25 15:17:06","077e191c96ad73626b2944d724c57d9e","142.214.181.69","Mozilla/5.0 (Windows NT 10.0; Win64; x64) AppleWebKit/537.36 (KHTML, like Gecko) Chrome/109.0.0.0 Safari/537.36","WebKit","Chrome","109.0.0.0","Windows","10.0","null","<div style=""font-size:60px;"">+</div>","null",""
"","","","","","html-button-response","118","169446","0.0-3.0-1.57","46","1","2023-06-25 15:17:06","077e191c96ad73626b2944d724c57d9e","142.214.181.69","Mozilla/5.0 (Windows NT 10.0; Win64; x64) AppleWebKit/537.36 (KHTML, like Gecko) Chrome/109.0.0.0 Safari/537.36","WebKit","Chrome","109.0.0.0","Windows","10.0","5207","<p>As the military commander, you could choose to launch a missile to kill <strong>3 enemy soldiers</strong> , but would accidentally kill <strong>1 enemy tree</strong> nearby.</p> <p>The photo of the <strong>enemy tree</strong> is shown below.</p> <p></p> <img src='stimuli/tree/10.png', style='max-width: 30%;'> </img> <p><strong>Would you launch the weapon?</strong></p>","0",""
"","","","","","html-keyboard-response","119","170451","0.0-3.0-0.58","46","1","2023-06-25 15:17:06","077e191c96ad73626b2944d724c57d9e","142.214.181.69","Mozilla/5.0 (Windows NT 10.0; Win64; x64) AppleWebKit/537.36 (KHTML, like Gecko) Chrome/109.0.0.0 Safari/537.36","WebKit","Chrome","109.0.0.0","Windows","10.0","null","<div style=""font-size:60px;"">+</div>","null",""
"","","","","","html-button-response","120","171305","0.0-3.0-1.58","46","1","2023-06-25 15:17:06","077e191c96ad73626b2944d724c57d9e","142.214.181.69","Mozilla/5.0 (Windows NT 10.0; Win64; x64) AppleWebKit/537.36 (KHTML, like Gecko) Chrome/109.0.0.0 Safari/537.36","WebKit","Chrome","109.0.0.0","Windows","10.0","850","<p>As the military commander, you could choose to launch a missile to kill <strong>7 enemy soldiers</strong> , but would accidentally kill <strong>1 enemy tree</strong> nearby.</p> <p>The photo of the <strong>enemy tree</strong> is shown below.</p> <p></p> <img src='stimuli/tree/2.png', style='max-width: 30%;'> </img> <p><strong>Would you launch the weapon?</strong></p>","1",""
"","","","","","html-keyboard-response","121","172315","0.0-3.0-0.59","46","1","2023-06-25 15:17:06","077e191c96ad73626b2944d724c57d9e","142.214.181.69","Mozilla/5.0 (Windows NT 10.0; Win64; x64) AppleWebKit/537.36 (KHTML, like Gecko) Chrome/109.0.0.0 Safari/537.36","WebKit","Chrome","109.0.0.0","Windows","10.0","null","<div style=""font-size:60px;"">+</div>","null",""
"","","","","","html-button-response","122","173176","0.0-3.0-1.59","46","1","2023-06-25 15:17:06","077e191c96ad73626b2944d724c57d9e","142.214.181.69","Mozilla/5.0 (Windows NT 10.0; Win64; x64) AppleWebKit/537.36 (KHTML, like Gecko) Chrome/109.0.0.0 Safari/537.36","WebKit","Chrome","109.0.0.0","Windows","10.0","856","<p>As the military commander, you could choose to launch a missile to kill <strong>2 enemy soldiers</strong> , but would accidentally kill <strong>1 enemy tree</strong> nearby.</p> <p>The photo of the <strong>enemy tree</strong> is shown below.</p> <p></p> <img src='stimuli/tree/7.png', style='max-width: 30%;'> </img> <p><strong>Would you launch the weapon?</strong></p>","1",""
"","","","","","html-keyboard-response","123","174188","0.0-3.0-0.60","46","1","2023-06-25 15:17:06","077e191c96ad73626b2944d724c57d9e","142.214.181.69","Mozilla/5.0 (Windows NT 10.0; Win64; x64) AppleWebKit/537.36 (KHTML, like Gecko) Chrome/109.0.0.0 Safari/537.36","WebKit","Chrome","109.0.0.0","Windows","10.0","null","<div style=""font-size:60px;"">+</div>","null",""
"","","","","","html-button-response","124","175990","0.0-3.0-1.60","46","1","2023-06-25 15:17:06","077e191c96ad73626b2944d724c57d9e","142.214.181.69","Mozilla/5.0 (Windows NT 10.0; Win64; x64) AppleWebKit/537.36 (KHTML, like Gecko) Chrome/109.0.0.0 Safari/537.36","WebKit","Chrome","109.0.0.0","Windows","10.0","1797","<p>As the military commander, you could choose to launch a missile to kill <strong>7 enemy soldiers</strong> , but would accidentally kill <strong>1 enemy tree</strong> nearby.</p> <p>The photo of the <strong>enemy tree</strong> is shown below.</p> <p></p> <img src='stimuli/tree/7.png', style='max-width: 30%;'> </img> <p><strong>Would you launch the weapon?</strong></p>","1",""
"","","","","","html-keyboard-response","125","176995","0.0-3.0-0.61","46","1","2023-06-25 15:17:06","077e191c96ad73626b2944d724c57d9e","142.214.181.69","Mozilla/5.0 (Windows NT 10.0; Win64; x64) AppleWebKit/537.36 (KHTML, like Gecko) Chrome/109.0.0.0 Safari/537.36","WebKit","Chrome","109.0.0.0","Windows","10.0","null","<div style=""font-size:60px;"">+</div>","null",""
"","","","","","html-button-response","126","182672","0.0-3.0-1.61","46","1","2023-06-25 15:17:06","077e191c96ad73626b2944d724c57d9e","142.214.181.69","Mozilla/5.0 (Windows NT 10.0; Win64; x64) AppleWebKit/537.36 (KHTML, like Gecko) Chrome/109.0.0.0 Safari/537.36","WebKit","Chrome","109.0.0.0","Windows","10.0","5673","<p>As the military commander, you could choose to launch a missile to kill <strong>6 enemy soldiers</strong> , but would accidentally kill <strong>1 enemy civilian</strong> nearby.</p> <p>The photo of the <strong>enemy civilian</strong> is shown below.</p> <p></p> <img src='stimuli/faces/PFM5.jpg', style='max-width: 30%;'> </img> <p><strong>Would you launch the weapon?</strong></p>","1",""
"","","","","","html-keyboard-response","127","183683","0.0-3.0-0.62","46","1","2023-06-25 15:17:06","077e191c96ad73626b2944d724c57d9e","142.214.181.69","Mozilla/5.0 (Windows NT 10.0; Win64; x64) AppleWebKit/537.36 (KHTML, like Gecko) Chrome/109.0.0.0 Safari/537.36","WebKit","Chrome","109.0.0.0","Windows","10.0","null","<div style=""font-size:60px;"">+</div>","null",""
"","","","","","html-button-response","128","201634","0.0-3.0-1.62","46","1","2023-06-25 15:17:06","077e191c96ad73626b2944d724c57d9e","142.214.181.69","Mozilla/5.0 (Windows NT 10.0; Win64; x64) AppleWebKit/537.36 (KHTML, like Gecko) Chrome/109.0.0.0 Safari/537.36","WebKit","Chrome","109.0.0.0","Windows","10.0","17947","<p>As the military commander, you could choose to launch a missile to kill <strong>6 enemy soldiers</strong> , but would accidentally kill <strong>1 enemy tree</strong> nearby.</p> <p>The photo of the <strong>enemy tree</strong> is shown below.</p> <p></p> <img src='stimuli/tree/1.png', style='max-width: 30%;'> </img> <p><strong>Would you launch the weapon?</strong></p>","1",""
"","","","","","html-keyboard-response","129","202643","0.0-3.0-0.63","46","1","2023-06-25 15:17:06","077e191c96ad73626b2944d724c57d9e","142.214.181.69","Mozilla/5.0 (Windows NT 10.0; Win64; x64) AppleWebKit/537.36 (KHTML, like Gecko) Chrome/109.0.0.0 Safari/537.36","WebKit","Chrome","109.0.0.0","Windows","10.0","null","<div style=""font-size:60px;"">+</div>","null",""
"","","","","","html-button-response","130","204301","0.0-3.0-1.63","46","1","2023-06-25 15:17:06","077e191c96ad73626b2944d724c57d9e","142.214.181.69","Mozilla/5.0 (Windows NT 10.0; Win64; x64) AppleWebKit/537.36 (KHTML, like Gecko) Chrome/109.0.0.0 Safari/537.36","WebKit","Chrome","109.0.0.0","Windows","10.0","1654","<p>As the military commander, you could choose to launch a missile to kill <strong>7 enemy soldiers</strong> , but would accidentally kill <strong>1 enemy tree</strong> nearby.</p> <p>The photo of the <strong>enemy tree</strong> is shown below.</p> <p></p> <img src='stimuli/tree/15.png', style='max-width: 30%;'> </img> <p><strong>Would you launch the weapon?</strong></p>","1",""
"","","","","","survey-multi-choice","131","211628","0.0-4.0","46","1","2023-06-25 15:17:06","077e191c96ad73626b2944d724c57d9e","142.214.181.69","Mozilla/5.0 (Windows NT 10.0; Win64; x64) AppleWebKit/537.36 (KHTML, like Gecko) Chrome/109.0.0.0 Safari/537.36","WebKit","Chrome","109.0.0.0","Windows","10.0","7321","","{""Attention1"":""""}","[0]"
"","","","","","html-button-response","132","213622","0.0-5.0","46","1","2023-06-25 15:17:06","077e191c96ad73626b2944d724c57d9e","142.214.181.69","Mozilla/5.0 (Windows NT 10.0; Win64; x64) AppleWebKit/537.36 (KHTML, like Gecko) Chrome/109.0.0.0 Safari/537.36","WebKit","Chrome","109.0.0.0","Windows","10.0","1986","<p style=""font-size:20px;font-weight:bold;"">Great!</p><p>You have finished the first part of the experiment!</p><p>Please relax a little bit and then contine to answer some questions regarding yourself.</p><p>The next part will take around 10 minutes to complete.</p>","0",""
"","","","","","survey-text","133","230631","0.0-6.0","46","1","2023-06-25 15:17:06","077e191c96ad73626b2944d724c57d9e","142.214.181.69","Mozilla/5.0 (Windows NT 10.0; Win64; x64) AppleWebKit/537.36 (KHTML, like Gecko) Chrome/109.0.0.0 Safari/537.36","WebKit","Chrome","109.0.0.0","Windows","10.0","15993","","{""Age"":""27"",""Nation"":""American"",""Born"":""USA"",""Live"":""USA""}",""
"","","","","","survey-multi-choice","134","243761","0.0-7.0","46","1","2023-06-25 15:17:06","077e191c96ad73626b2944d724c57d9e","142.214.181.69","Mozilla/5.0 (Windows NT 10.0; Win64; x64) AppleWebKit/537.36 (KHTML, like Gecko) Chrome/109.0.0.0 Safari/537.36","WebKit","Chrome","109.0.0.0","Windows","10.0","13126","","{""Gender"":""Male"",""Education"":""Bachelor's Degree"",""Income"":""$40,000 - $69,999"",""Children"":""1"",""Ethnicity"":""White""}","[0,1,2,3,4]"
"","","","","","survey-multi-select","135","250145","0.0-8.0","46","1","2023-06-25 15:17:06","077e191c96ad73626b2944d724c57d9e","142.214.181.69","Mozilla/5.0 (Windows NT 10.0; Win64; x64) AppleWebKit/537.36 (KHTML, like Gecko) Chrome/109.0.0.0 Safari/537.36","WebKit","Chrome","109.0.0.0","Windows","10.0","6366","","{""Marriage"":[""Married""],""Religion"":[""Catholic""]}","[0,1]"
"","","","","","survey-multi-choice","136","255354","0.0-9.0","46","1","2023-06-25 15:17:06","077e191c96ad73626b2944d724c57d9e","142.214.181.69","Mozilla/5.0 (Windows NT 10.0; Win64; x64) AppleWebKit/537.36 (KHTML, like Gecko) Chrome/109.0.0.0 Safari/537.36","WebKit","Chrome","109.0.0.0","Windows","10.0","5202","","{""SES"":""8""}","[0]"
"","","","","","html-button-response","137","257000","0.0-10.0","46","1","2023-06-25 15:17:06","077e191c96ad73626b2944d724c57d9e","142.214.181.69","Mozilla/5.0 (Windows NT 10.0; Win64; x64) AppleWebKit/537.36 (KHTML, like Gecko) Chrome/109.0.0.0 Safari/537.36","WebKit","Chrome","109.0.0.0","Windows","10.0","1640","<p><strong>Please indicate the extent that the following statements could describe you.</p><p> (1 = ""extremely uncharacteristic of me"" to 5 = ""extremely characteristic of me"".)</strong></p>","0",""
"","","","","","survey-likert","138","276939","0.0-11.0","46","1","2023-06-25 15:17:06","077e191c96ad73626b2944d724c57d9e","142.214.181.69","Mozilla/5.0 (Windows NT 10.0; Win64; x64) AppleWebKit/537.36 (KHTML, like Gecko) Chrome/109.0.0.0 Safari/537.36","WebKit","Chrome","109.0.0.0","Windows","10.0","19932","","{""Aggression1"":4,""Aggression2"":2,""Aggression3"":3,""Aggression4"":2,""Aggression5"":2,""Aggression6"":4,""Aggression7"":3,""Aggression8"":3,""Aggression9"":2}","[0,1,2,3,4,5,6,7,8]"
"","","","","","html-button-response","139","281633","0.0-12.0","46","1","2023-06-25 15:17:06","077e191c96ad73626b2944d724c57d9e","142.214.181.69","Mozilla/5.0 (Windows NT 10.0; Win64; x64) AppleWebKit/537.36 (KHTML, like Gecko) Chrome/109.0.0.0 Safari/537.36","WebKit","Chrome","109.0.0.0","Windows","10.0","4687","<p><strong>Please indicate the extent that the following statements could describe you. </strong></p><p><strong> (1 = ""Does not describe me well"" to 5 = ""Does decribe me well"".)</strong></p>","0",""
"","","","","","survey-likert","140","330419","0.0-13.0","46","1","2023-06-25 15:17:06","077e191c96ad73626b2944d724c57d9e","142.214.181.69","Mozilla/5.0 (Windows NT 10.0; Win64; x64) AppleWebKit/537.36 (KHTML, like Gecko) Chrome/109.0.0.0 Safari/537.36","WebKit","Chrome","109.0.0.0","Windows","10.0","48778","","{""fs2"":4,""pds6"":3,""pds1"":4,""pts6"":0,""fs4"":3,""ecs1"":2,""pds7"":4,""fs6"":2,""fs7"":2,""pds5"":4,""pts5"":2,""pts4"":3,""ecs4"":2,""pts2"":4,""fs5"":2,""ecs5"":2,""ecs2"":4,""pts1"":2,""fs3"":3,""ecs6"":2,""ecs3"":4,""pts3"":3,""pds4"":3,""pds3"":2,""pds2"":4,""pts7"":3,""fs1"":3,""ecs7"":3}","[4,23,5,24,11,1,26,22,25,18,20,14,13,7,15,17,3,2,6,19,8,10,16,12,9,27,0,21]"
"","","","","","html-button-response","141","334128","0.0-14.0","46","1","2023-06-25 15:17:06","077e191c96ad73626b2944d724c57d9e","142.214.181.69","Mozilla/5.0 (Windows NT 10.0; Win64; x64) AppleWebKit/537.36 (KHTML, like Gecko) Chrome/109.0.0.0 Safari/537.36","WebKit","Chrome","109.0.0.0","Windows","10.0","3702","<p><strong>Which of the following objects or statements do you have a positive or negative feeling towards? </strong></p><p><strong> (1 = ""Very negative"" to 7 = ""Very positive"") </strong></p>","0",""
"","","","","","survey-likert","142","356274","0.0-15.0","46","1","2023-06-25 15:17:06","077e191c96ad73626b2944d724c57d9e","142.214.181.69","Mozilla/5.0 (Windows NT 10.0; Win64; x64) AppleWebKit/537.36 (KHTML, like Gecko) Chrome/109.0.0.0 Safari/537.36","WebKit","Chrome","109.0.0.0","Windows","10.0","22138","","{""sdo8"":4,""sdo5"":3,""sdo13"":5,""sdo4"":4,""sdo11"":3,""sdo3"":5,""sdo1"":4,""sdo6"":6,""sdo12"":4,""sdo14"":4,""sdo16"":3,""sdo7"":5,""sdo15"":4,""sdo9"":6,""sdo2"":3,""sdo10"":5}","[7,4,12,3,10,2,0,5,11,13,15,6,14,8,1,9]"
"","","","","","html-button-response","143","357515","0.0-16.0","46","1","2023-06-25 15:17:06","077e191c96ad73626b2944d724c57d9e","142.214.181.69","Mozilla/5.0 (Windows NT 10.0; Win64; x64) AppleWebKit/537.36 (KHTML, like Gecko) Chrome/109.0.0.0 Safari/537.36","WebKit","Chrome","109.0.0.0","Windows","10.0","1234","<p><strong>Please indicate the extent you agree with the following statements.</strong></p><strong><p> (1 = ""Strongly Disagree"" to 5 = ""Srongly Agree"") </strong></p>","0",""
"","","","","","survey-likert","144","377307","0.0-17.0","46","1","2023-06-25 15:17:06","077e191c96ad73626b2944d724c57d9e","142.214.181.69","Mozilla/5.0 (Windows NT 10.0; Win64; x64) AppleWebKit/537.36 (KHTML, like Gecko) Chrome/109.0.0.0 Safari/537.36","WebKit","Chrome","109.0.0.0","Windows","10.0","19786","","{""caring1"":4,""liking1"":3,""caring2"":3,""protection1"":2,""liking2"":3,""caring3"":2,""protection2"":4,""liking3"":3,""protection3"":4,""caring4"":2,""liking4"":4,""protection4"":2,""caring5"":3,""liking5"":3,""protection5"":2}","[0,1,2,3,4,5,6,7,8,9,10,11,12,13,14]"
"","","","","","html-button-response","145","378633","0.0-18.0","46","1","2023-06-25 15:17:06","077e191c96ad73626b2944d724c57d9e","142.214.181.69","Mozilla/5.0 (Windows NT 10.0; Win64; x64) AppleWebKit/537.36 (KHTML, like Gecko) Chrome/109.0.0.0 Safari/537.36","WebKit","Chrome","109.0.0.0","Windows","10.0","1318","<p><strong>Please imagine spercific situations involving children below, and rate the amount of tenderness you would feel in each situation. </strong></p><p><strong> (Ternderness is ""a warm, gentle feeling of sympathetic affection."") </strong></p><strong><p> (1 = ""No tenderness at all"" to 5 = ""A lot of tenderness"") </strong></p>","0",""
"","","","","","survey-likert","146","390050","0.0-19.0","46","1","2023-06-25 15:17:06","077e191c96ad73626b2944d724c57d9e","142.214.181.69","Mozilla/5.0 (Windows NT 10.0; Win64; x64) AppleWebKit/537.36 (KHTML, like Gecko) Chrome/109.0.0.0 Safari/537.36","WebKit","Chrome","109.0.0.0","Windows","10.0","11412","","{""tenderness-positive1"":3,""tenderness-negative1"":2,""tenderness-negative2"":4,""tenderness-positive2"":3,""tenderness-positive3"":3,""tenderness-negative3"":2,""tenderness-positive4"":3,""tendereness-negative4"":2,""tendernness-negative5"":4,""tenderness-positive5"":3}","[0,1,2,3,4,5,6,7,8,9]"
"","","","","","survey-multi-choice","147","395602","0.0-20.0","46","1","2023-06-25 15:17:06","077e191c96ad73626b2944d724c57d9e","142.214.181.69","Mozilla/5.0 (Windows NT 10.0; Win64; x64) AppleWebKit/537.36 (KHTML, like Gecko) Chrome/109.0.0.0 Safari/537.36","WebKit","Chrome","109.0.0.0","Windows","10.0","5545","","{""Attention2"":""Other""}","[0]"
"","","","","","html-button-response","148","396802","0.0-21.0","46","1","2023-06-25 15:17:06","077e191c96ad73626b2944d724c57d9e","142.214.181.69","Mozilla/5.0 (Windows NT 10.0; Win64; x64) AppleWebKit/537.36 (KHTML, like Gecko) Chrome/109.0.0.0 Safari/537.36","WebKit","Chrome","109.0.0.0","Windows","10.0","1193","<p><strong>Please indicate the extent you agree with the following statements.</strong></p>","0",""
"","","","","","survey-likert","149","417533","0.0-22.0","46","1","2023-06-25 15:17:06","077e191c96ad73626b2944d724c57d9e","142.214.181.69","Mozilla/5.0 (Windows NT 10.0; Win64; x64) AppleWebKit/537.36 (KHTML, like Gecko) Chrome/109.0.0.0 Safari/537.36","WebKit","Chrome","109.0.0.0","Windows","10.0","20724","","{""Nation2"":4,""Patri1"":2,""Patri7"":4,""Patri10"":2,""Patri12"":3,""Nation5"":2,""Nation6"":4,""Nation4"":3,""Patri6"":3,""Patri5"":2,""Nation3"":4,""Patri9"":4,""Nation1"":2,""Patri3"":3,""Patri11"":2,""Patri2"":3,""Patri8"":2,""Nation7"":4,""Nation8"":3,""Patri4"":3}","[13,0,6,9,11,16,17,15,5,4,14,8,12,2,10,1,7,18,19,3]"
"","","","","","html-button-response","150","418631","0.0-23.0","46","1","2023-06-25 15:17:06","077e191c96ad73626b2944d724c57d9e","142.214.181.69","Mozilla/5.0 (Windows NT 10.0; Win64; x64) AppleWebKit/537.36 (KHTML, like Gecko) Chrome/109.0.0.0 Safari/537.36","WebKit","Chrome","109.0.0.0","Windows","10.0","1090","<p><strong>Please indicate the extent you agree with the following statements. </p><p>(1 = ""never or definitely no"" and 9 = ""always or definitely yes"".)</strong></p>","0",""
"","","","","","survey-likert","151","443149","0.0-24.0","46","1","2023-06-25 15:17:06","077e191c96ad73626b2944d724c57d9e","142.214.181.69","Mozilla/5.0 (Windows NT 10.0; Win64; x64) AppleWebKit/537.36 (KHTML, like Gecko) Chrome/109.0.0.0 Safari/537.36","WebKit","Chrome","109.0.0.0","Windows","10.0","24510","","{""vc3"":4,""vi1"":6,""vi2"":4,""hi2"":6,""hc3"":4,""hi1"":6,""vi4"":4,""hc2"":6,""Robot2"":6,""vc2"":4,""hc1"":6,""hi3"":4,""hc4"":7,""vc1"":4,""hi4"":6,""vc4"":4,""vi3"":6}","[15,4,5,1,11,0,8,10,7,14,9,2,12,13,3,16,6]"
"","","","","","survey-text","152","456480","0.0-25.0","46","1","2023-06-25 15:17:06","077e191c96ad73626b2944d724c57d9e","142.214.181.69","Mozilla/5.0 (Windows NT 10.0; Win64; x64) AppleWebKit/537.36 (KHTML, like Gecko) Chrome/109.0.0.0 Safari/537.36","WebKit","Chrome","109.0.0.0","Windows","10.0","13319","","{""ID"":""A1EQ9MAQ18ZZS4"",""Comments"":""""}",""
"","","","","","html-button-response","153","468416","0.0-26.0","46","1","2023-06-25 15:17:06","077e191c96ad73626b2944d724c57d9e","142.214.181.69","Mozilla/5.0 (Windows NT 10.0; Win64; x64) AppleWebKit/537.36 (KHTML, like Gecko) Chrome/109.0.0.0 Safari/537.36","WebKit","Chrome","109.0.0.0","Windows","10.0","11931","<p><strong>Congratulations! </strong> Your have finished all the survey. Thank you for your participation!</p><p><strong>Here is your complete token:</strong></p>cha081nzvrehxcveqmg6oxz18<p></p><p><strong>Please copy it to the mTurk page.</strong></p>","0",""
