"success","timeout","failed_images","failed_audio","failed_video","trial_type","trial_index","time_elapsed","internal_node_id","run_id","condition","recorded_at","source_code_version","ip","user_agent","device","browser","browser_version","platform","platform_version","rt","stimulus","response","question_order"
"true","false","[]","[]","[]","preload","0","3660","0.0-0.0","56","1","2023-06-25 15:42:05","077e191c96ad73626b2944d724c57d9e","139.171.232.132","Mozilla/5.0 (Windows NT 10.0; Win64; x64) AppleWebKit/537.36 (KHTML, like Gecko) Chrome/111.0.0.0 Safari/537.36","WebKit","Chrome","111.0.0.0","Windows","10.0","","","",""
"true","","","","","fullscreen","1","9165","0.0-1.0","56","1","2023-06-25 15:42:05","077e191c96ad73626b2944d724c57d9e","139.171.232.132","Mozilla/5.0 (Windows NT 10.0; Win64; x64) AppleWebKit/537.36 (KHTML, like Gecko) Chrome/111.0.0.0 Safari/537.36","WebKit","Chrome","111.0.0.0","Windows","10.0","","","",""
"","","","","","html-button-response","2","13963","0.0-2.0","56","1","2023-06-25 15:42:05","077e191c96ad73626b2944d724c57d9e","139.171.232.132","Mozilla/5.0 (Windows NT 10.0; Win64; x64) AppleWebKit/537.36 (KHTML, like Gecko) Chrome/111.0.0.0 Safari/537.36","WebKit","Chrome","111.0.0.0","Windows","10.0","4791","<p ><strong>Welcome to the experiment!</strong></p><p ><strong>In the first task, please imagine:</strong></p><p>Your country is involved in a military conflict with another country.</p><p>You are the commander of your army and must make decisions in the conflict.</p><p>Specifically, as the military commander, you must decide whether to launch a missile to strike enemy.</p><p>You will face a series of scenarios. Please read each scenario carefully and make a decision.</p><p>The task will take around 10 minutes to complete.</p><p><strong>Please pay your attention during the experiment.</strong></p>","0",""
"","","","","","html-keyboard-response","3","14973","0.0-3.0-0.0","56","1","2023-06-25 15:42:05","077e191c96ad73626b2944d724c57d9e","139.171.232.132","Mozilla/5.0 (Windows NT 10.0; Win64; x64) AppleWebKit/537.36 (KHTML, like Gecko) Chrome/111.0.0.0 Safari/537.36","WebKit","Chrome","111.0.0.0","Windows","10.0","null","<div style=""font-size:60px;"">+</div>","null",""
"","","","","","html-button-response","4","17424","0.0-3.0-1.0","56","1","2023-06-25 15:42:05","077e191c96ad73626b2944d724c57d9e","139.171.232.132","Mozilla/5.0 (Windows NT 10.0; Win64; x64) AppleWebKit/537.36 (KHTML, like Gecko) Chrome/111.0.0.0 Safari/537.36","WebKit","Chrome","111.0.0.0","Windows","10.0","2445","<p>As the military commander, you could choose to launch a missile to kill <strong>6 enemy soldiers</strong> , but would accidentally kill <strong>1 enemy tree</strong> nearby.</p> <p>The photo of the <strong>enemy tree</strong> is shown below.</p> <p></p> <img src='stimuli/tree/14.png', style='max-width: 30%;'> </img> <p><strong>Would you launch the weapon?</strong></p>","0",""
"","","","","","html-keyboard-response","5","18440","0.0-3.0-0.1","56","1","2023-06-25 15:42:05","077e191c96ad73626b2944d724c57d9e","139.171.232.132","Mozilla/5.0 (Windows NT 10.0; Win64; x64) AppleWebKit/537.36 (KHTML, like Gecko) Chrome/111.0.0.0 Safari/537.36","WebKit","Chrome","111.0.0.0","Windows","10.0","null","<div style=""font-size:60px;"">+</div>","null",""
"","","","","","html-button-response","6","20586","0.0-3.0-1.1","56","1","2023-06-25 15:42:05","077e191c96ad73626b2944d724c57d9e","139.171.232.132","Mozilla/5.0 (Windows NT 10.0; Win64; x64) AppleWebKit/537.36 (KHTML, like Gecko) Chrome/111.0.0.0 Safari/537.36","WebKit","Chrome","111.0.0.0","Windows","10.0","2139","<p>As the military commander, you could choose to launch a missile to kill <strong>9 enemy soldiers</strong> , but would accidentally kill <strong>1 enemy civilian</strong> nearby.</p> <p>The photo of the <strong>enemy civilian</strong> is shown below.</p> <p></p> <img src='stimuli/faces/PFM5.jpg', style='max-width: 30%;'> </img> <p><strong>Would you launch the weapon?</strong></p>","0",""
"","","","","","html-keyboard-response","7","21588","0.0-3.0-0.2","56","1","2023-06-25 15:42:05","077e191c96ad73626b2944d724c57d9e","139.171.232.132","Mozilla/5.0 (Windows NT 10.0; Win64; x64) AppleWebKit/537.36 (KHTML, like Gecko) Chrome/111.0.0.0 Safari/537.36","WebKit","Chrome","111.0.0.0","Windows","10.0","null","<div style=""font-size:60px;"">+</div>","null",""
"","","","","","html-button-response","8","21705","0.0-3.0-1.2","56","1","2023-06-25 15:42:05","077e191c96ad73626b2944d724c57d9e","139.171.232.132","Mozilla/5.0 (Windows NT 10.0; Win64; x64) AppleWebKit/537.36 (KHTML, like Gecko) Chrome/111.0.0.0 Safari/537.36","WebKit","Chrome","111.0.0.0","Windows","10.0","113","<p>As the military commander, you could choose to launch a missile to kill <strong>7 enemy soldiers</strong> , but would accidentally kill <strong>1 enemy tree</strong> nearby.</p> <p>The photo of the <strong>enemy tree</strong> is shown below.</p> <p></p> <img src='stimuli/tree/16.png', style='max-width: 30%;'> </img> <p><strong>Would you launch the weapon?</strong></p>","0",""
"","","","","","html-keyboard-response","9","22707","0.0-3.0-0.3","56","1","2023-06-25 15:42:05","077e191c96ad73626b2944d724c57d9e","139.171.232.132","Mozilla/5.0 (Windows NT 10.0; Win64; x64) AppleWebKit/537.36 (KHTML, like Gecko) Chrome/111.0.0.0 Safari/537.36","WebKit","Chrome","111.0.0.0","Windows","10.0","null","<div style=""font-size:60px;"">+</div>","null",""
"","","","","","html-button-response","10","24114","0.0-3.0-1.3","56","1","2023-06-25 15:42:05","077e191c96ad73626b2944d724c57d9e","139.171.232.132","Mozilla/5.0 (Windows NT 10.0; Win64; x64) AppleWebKit/537.36 (KHTML, like Gecko) Chrome/111.0.0.0 Safari/537.36","WebKit","Chrome","111.0.0.0","Windows","10.0","1401","<p>As the military commander, you could choose to launch a missile to kill <strong>5 enemy soldiers</strong> , but would accidentally kill <strong>1 enemy civilian</strong> nearby.</p> <p>The photo of the <strong>enemy civilian</strong> is shown below.</p> <p></p> <img src='stimuli/faces/PFM7.jpg', style='max-width: 30%;'> </img> <p><strong>Would you launch the weapon?</strong></p>","0",""
"","","","","","html-keyboard-response","11","25119","0.0-3.0-0.4","56","1","2023-06-25 15:42:05","077e191c96ad73626b2944d724c57d9e","139.171.232.132","Mozilla/5.0 (Windows NT 10.0; Win64; x64) AppleWebKit/537.36 (KHTML, like Gecko) Chrome/111.0.0.0 Safari/537.36","WebKit","Chrome","111.0.0.0","Windows","10.0","null","<div style=""font-size:60px;"">+</div>","null",""
"","","","","","html-button-response","12","32155","0.0-3.0-1.4","56","1","2023-06-25 15:42:05","077e191c96ad73626b2944d724c57d9e","139.171.232.132","Mozilla/5.0 (Windows NT 10.0; Win64; x64) AppleWebKit/537.36 (KHTML, like Gecko) Chrome/111.0.0.0 Safari/537.36","WebKit","Chrome","111.0.0.0","Windows","10.0","7030","<p>As the military commander, you could choose to launch a missile to kill <strong>9 enemy soldiers</strong> , but would accidentally kill <strong>1 enemy tree</strong> nearby.</p> <p>The photo of the <strong>enemy tree</strong> is shown below.</p> <p></p> <img src='stimuli/tree/13.png', style='max-width: 30%;'> </img> <p><strong>Would you launch the weapon?</strong></p>","0",""
"","","","","","html-keyboard-response","13","33159","0.0-3.0-0.5","56","1","2023-06-25 15:42:05","077e191c96ad73626b2944d724c57d9e","139.171.232.132","Mozilla/5.0 (Windows NT 10.0; Win64; x64) AppleWebKit/537.36 (KHTML, like Gecko) Chrome/111.0.0.0 Safari/537.36","WebKit","Chrome","111.0.0.0","Windows","10.0","null","<div style=""font-size:60px;"">+</div>","null",""
"","","","","","html-button-response","14","33392","0.0-3.0-1.5","56","1","2023-06-25 15:42:05","077e191c96ad73626b2944d724c57d9e","139.171.232.132","Mozilla/5.0 (Windows NT 10.0; Win64; x64) AppleWebKit/537.36 (KHTML, like Gecko) Chrome/111.0.0.0 Safari/537.36","WebKit","Chrome","111.0.0.0","Windows","10.0","226","<p>As the military commander, you could choose to launch a missile to kill <strong>9 enemy soldiers</strong> , but would accidentally kill <strong>1 enemy tree</strong> nearby.</p> <p>The photo of the <strong>enemy tree</strong> is shown below.</p> <p></p> <img src='stimuli/tree/15.png', style='max-width: 30%;'> </img> <p><strong>Would you launch the weapon?</strong></p>","0",""
"","","","","","html-keyboard-response","15","34410","0.0-3.0-0.6","56","1","2023-06-25 15:42:05","077e191c96ad73626b2944d724c57d9e","139.171.232.132","Mozilla/5.0 (Windows NT 10.0; Win64; x64) AppleWebKit/537.36 (KHTML, like Gecko) Chrome/111.0.0.0 Safari/537.36","WebKit","Chrome","111.0.0.0","Windows","10.0","null","<div style=""font-size:60px;"">+</div>","null",""
"","","","","","html-button-response","16","34627","0.0-3.0-1.6","56","1","2023-06-25 15:42:05","077e191c96ad73626b2944d724c57d9e","139.171.232.132","Mozilla/5.0 (Windows NT 10.0; Win64; x64) AppleWebKit/537.36 (KHTML, like Gecko) Chrome/111.0.0.0 Safari/537.36","WebKit","Chrome","111.0.0.0","Windows","10.0","211","<p>As the military commander, you could choose to launch a missile to kill <strong>2 enemy soldiers</strong> , but would accidentally kill <strong>1 enemy civilian</strong> nearby.</p> <p>The photo of the <strong>enemy civilian</strong> is shown below.</p> <p></p> <img src='stimuli/faces/PFF1.jpg', style='max-width: 30%;'> </img> <p><strong>Would you launch the weapon?</strong></p>","0",""
"","","","","","html-keyboard-response","17","35642","0.0-3.0-0.7","56","1","2023-06-25 15:42:05","077e191c96ad73626b2944d724c57d9e","139.171.232.132","Mozilla/5.0 (Windows NT 10.0; Win64; x64) AppleWebKit/537.36 (KHTML, like Gecko) Chrome/111.0.0.0 Safari/537.36","WebKit","Chrome","111.0.0.0","Windows","10.0","null","<div style=""font-size:60px;"">+</div>","null",""
"","","","","","html-button-response","18","35815","0.0-3.0-1.7","56","1","2023-06-25 15:42:05","077e191c96ad73626b2944d724c57d9e","139.171.232.132","Mozilla/5.0 (Windows NT 10.0; Win64; x64) AppleWebKit/537.36 (KHTML, like Gecko) Chrome/111.0.0.0 Safari/537.36","WebKit","Chrome","111.0.0.0","Windows","10.0","165","<p>As the military commander, you could choose to launch a missile to kill <strong>10 enemy soldiers</strong> , but would accidentally kill <strong>1 enemy tree</strong> nearby.</p> <p>The photo of the <strong>enemy tree</strong> is shown below.</p> <p></p> <img src='stimuli/tree/9.png', style='max-width: 30%;'> </img> <p><strong>Would you launch the weapon?</strong></p>","0",""
"","","","","","html-keyboard-response","19","36826","0.0-3.0-0.8","56","1","2023-06-25 15:42:05","077e191c96ad73626b2944d724c57d9e","139.171.232.132","Mozilla/5.0 (Windows NT 10.0; Win64; x64) AppleWebKit/537.36 (KHTML, like Gecko) Chrome/111.0.0.0 Safari/537.36","WebKit","Chrome","111.0.0.0","Windows","10.0","null","<div style=""font-size:60px;"">+</div>","null",""
"","","","","","html-button-response","20","37121","0.0-3.0-1.8","56","1","2023-06-25 15:42:05","077e191c96ad73626b2944d724c57d9e","139.171.232.132","Mozilla/5.0 (Windows NT 10.0; Win64; x64) AppleWebKit/537.36 (KHTML, like Gecko) Chrome/111.0.0.0 Safari/537.36","WebKit","Chrome","111.0.0.0","Windows","10.0","280","<p>As the military commander, you could choose to launch a missile to kill <strong>1 enemy soldier</strong> , but would accidentally kill <strong>1 enemy civilian</strong> nearby.</p> <p>The photo of the <strong>enemy civilian</strong> is shown below.</p> <p></p> <img src='stimuli/faces/PFF7.jpg', style='max-width: 30%;'> </img> <p><strong>Would you launch the weapon?</strong></p>","0",""
"","","","","","html-keyboard-response","21","38130","0.0-3.0-0.9","56","1","2023-06-25 15:42:05","077e191c96ad73626b2944d724c57d9e","139.171.232.132","Mozilla/5.0 (Windows NT 10.0; Win64; x64) AppleWebKit/537.36 (KHTML, like Gecko) Chrome/111.0.0.0 Safari/537.36","WebKit","Chrome","111.0.0.0","Windows","10.0","null","<div style=""font-size:60px;"">+</div>","null",""
"","","","","","html-button-response","22","38322","0.0-3.0-1.9","56","1","2023-06-25 15:42:05","077e191c96ad73626b2944d724c57d9e","139.171.232.132","Mozilla/5.0 (Windows NT 10.0; Win64; x64) AppleWebKit/537.36 (KHTML, like Gecko) Chrome/111.0.0.0 Safari/537.36","WebKit","Chrome","111.0.0.0","Windows","10.0","189","<p>As the military commander, you could choose to launch a missile to kill <strong>10 enemy soldiers</strong> , but would accidentally kill <strong>1 enemy tree</strong> nearby.</p> <p>The photo of the <strong>enemy tree</strong> is shown below.</p> <p></p> <img src='stimuli/tree/12.png', style='max-width: 30%;'> </img> <p><strong>Would you launch the weapon?</strong></p>","0",""
"","","","","","html-keyboard-response","23","39325","0.0-3.0-0.10","56","1","2023-06-25 15:42:05","077e191c96ad73626b2944d724c57d9e","139.171.232.132","Mozilla/5.0 (Windows NT 10.0; Win64; x64) AppleWebKit/537.36 (KHTML, like Gecko) Chrome/111.0.0.0 Safari/537.36","WebKit","Chrome","111.0.0.0","Windows","10.0","null","<div style=""font-size:60px;"">+</div>","null",""
"","","","","","html-button-response","24","39511","0.0-3.0-1.10","56","1","2023-06-25 15:42:05","077e191c96ad73626b2944d724c57d9e","139.171.232.132","Mozilla/5.0 (Windows NT 10.0; Win64; x64) AppleWebKit/537.36 (KHTML, like Gecko) Chrome/111.0.0.0 Safari/537.36","WebKit","Chrome","111.0.0.0","Windows","10.0","179","<p>As the military commander, you could choose to launch a missile to kill <strong>4 enemy soldiers</strong> , but would accidentally kill <strong>1 enemy civilian</strong> nearby.</p> <p>The photo of the <strong>enemy civilian</strong> is shown below.</p> <p></p> <img src='stimuli/faces/PFF3.jpg', style='max-width: 30%;'> </img> <p><strong>Would you launch the weapon?</strong></p>","0",""
"","","","","","html-keyboard-response","25","40517","0.0-3.0-0.11","56","1","2023-06-25 15:42:05","077e191c96ad73626b2944d724c57d9e","139.171.232.132","Mozilla/5.0 (Windows NT 10.0; Win64; x64) AppleWebKit/537.36 (KHTML, like Gecko) Chrome/111.0.0.0 Safari/537.36","WebKit","Chrome","111.0.0.0","Windows","10.0","null","<div style=""font-size:60px;"">+</div>","null",""
"","","","","","html-button-response","26","40623","0.0-3.0-1.11","56","1","2023-06-25 15:42:05","077e191c96ad73626b2944d724c57d9e","139.171.232.132","Mozilla/5.0 (Windows NT 10.0; Win64; x64) AppleWebKit/537.36 (KHTML, like Gecko) Chrome/111.0.0.0 Safari/537.36","WebKit","Chrome","111.0.0.0","Windows","10.0","100","<p>As the military commander, you could choose to launch a missile to kill <strong>2 enemy soldiers</strong> , but would accidentally kill <strong>1 enemy tree</strong> nearby.</p> <p>The photo of the <strong>enemy tree</strong> is shown below.</p> <p></p> <img src='stimuli/tree/11.png', style='max-width: 30%;'> </img> <p><strong>Would you launch the weapon?</strong></p>","0",""
"","","","","","html-keyboard-response","27","41638","0.0-3.0-0.12","56","1","2023-06-25 15:42:05","077e191c96ad73626b2944d724c57d9e","139.171.232.132","Mozilla/5.0 (Windows NT 10.0; Win64; x64) AppleWebKit/537.36 (KHTML, like Gecko) Chrome/111.0.0.0 Safari/537.36","WebKit","Chrome","111.0.0.0","Windows","10.0","null","<div style=""font-size:60px;"">+</div>","null",""
"","","","","","html-button-response","28","41774","0.0-3.0-1.12","56","1","2023-06-25 15:42:05","077e191c96ad73626b2944d724c57d9e","139.171.232.132","Mozilla/5.0 (Windows NT 10.0; Win64; x64) AppleWebKit/537.36 (KHTML, like Gecko) Chrome/111.0.0.0 Safari/537.36","WebKit","Chrome","111.0.0.0","Windows","10.0","128","<p>As the military commander, you could choose to launch a missile to kill <strong>8 enemy soldiers</strong> , but would accidentally kill <strong>1 enemy civilian</strong> nearby.</p> <p>The photo of the <strong>enemy civilian</strong> is shown below.</p> <p></p> <img src='stimuli/faces/PFM4.jpg', style='max-width: 30%;'> </img> <p><strong>Would you launch the weapon?</strong></p>","0",""
"","","","","","html-keyboard-response","29","42778","0.0-3.0-0.13","56","1","2023-06-25 15:42:05","077e191c96ad73626b2944d724c57d9e","139.171.232.132","Mozilla/5.0 (Windows NT 10.0; Win64; x64) AppleWebKit/537.36 (KHTML, like Gecko) Chrome/111.0.0.0 Safari/537.36","WebKit","Chrome","111.0.0.0","Windows","10.0","null","<div style=""font-size:60px;"">+</div>","null",""
"","","","","","html-button-response","30","43014","0.0-3.0-1.13","56","1","2023-06-25 15:42:05","077e191c96ad73626b2944d724c57d9e","139.171.232.132","Mozilla/5.0 (Windows NT 10.0; Win64; x64) AppleWebKit/537.36 (KHTML, like Gecko) Chrome/111.0.0.0 Safari/537.36","WebKit","Chrome","111.0.0.0","Windows","10.0","228","<p>As the military commander, you could choose to launch a missile to kill <strong>9 enemy soldiers</strong> , but would accidentally kill <strong>1 enemy tree</strong> nearby.</p> <p>The photo of the <strong>enemy tree</strong> is shown below.</p> <p></p> <img src='stimuli/tree/8.png', style='max-width: 30%;'> </img> <p><strong>Would you launch the weapon?</strong></p>","0",""
"","","","","","html-keyboard-response","31","44033","0.0-3.0-0.14","56","1","2023-06-25 15:42:05","077e191c96ad73626b2944d724c57d9e","139.171.232.132","Mozilla/5.0 (Windows NT 10.0; Win64; x64) AppleWebKit/537.36 (KHTML, like Gecko) Chrome/111.0.0.0 Safari/537.36","WebKit","Chrome","111.0.0.0","Windows","10.0","null","<div style=""font-size:60px;"">+</div>","null",""
"","","","","","html-button-response","32","44191","0.0-3.0-1.14","56","1","2023-06-25 15:42:05","077e191c96ad73626b2944d724c57d9e","139.171.232.132","Mozilla/5.0 (Windows NT 10.0; Win64; x64) AppleWebKit/537.36 (KHTML, like Gecko) Chrome/111.0.0.0 Safari/537.36","WebKit","Chrome","111.0.0.0","Windows","10.0","152","<p>As the military commander, you could choose to launch a missile to kill <strong>1 enemy soldier</strong> , but would accidentally kill <strong>1 enemy civilian</strong> nearby.</p> <p>The photo of the <strong>enemy civilian</strong> is shown below.</p> <p></p> <img src='stimuli/faces/PFM6.jpg', style='max-width: 30%;'> </img> <p><strong>Would you launch the weapon?</strong></p>","0",""
"","","","","","html-keyboard-response","33","45197","0.0-3.0-0.15","56","1","2023-06-25 15:42:05","077e191c96ad73626b2944d724c57d9e","139.171.232.132","Mozilla/5.0 (Windows NT 10.0; Win64; x64) AppleWebKit/537.36 (KHTML, like Gecko) Chrome/111.0.0.0 Safari/537.36","WebKit","Chrome","111.0.0.0","Windows","10.0","null","<div style=""font-size:60px;"">+</div>","null",""
"","","","","","html-button-response","34","45459","0.0-3.0-1.15","56","1","2023-06-25 15:42:05","077e191c96ad73626b2944d724c57d9e","139.171.232.132","Mozilla/5.0 (Windows NT 10.0; Win64; x64) AppleWebKit/537.36 (KHTML, like Gecko) Chrome/111.0.0.0 Safari/537.36","WebKit","Chrome","111.0.0.0","Windows","10.0","257","<p>As the military commander, you could choose to launch a missile to kill <strong>10 enemy soldiers</strong> , but would accidentally kill <strong>1 enemy civilian</strong> nearby.</p> <p>The photo of the <strong>enemy civilian</strong> is shown below.</p> <p></p> <img src='stimuli/faces/PFF5.jpg', style='max-width: 30%;'> </img> <p><strong>Would you launch the weapon?</strong></p>","0",""
"","","","","","html-keyboard-response","35","46467","0.0-3.0-0.16","56","1","2023-06-25 15:42:05","077e191c96ad73626b2944d724c57d9e","139.171.232.132","Mozilla/5.0 (Windows NT 10.0; Win64; x64) AppleWebKit/537.36 (KHTML, like Gecko) Chrome/111.0.0.0 Safari/537.36","WebKit","Chrome","111.0.0.0","Windows","10.0","null","<div style=""font-size:60px;"">+</div>","null",""
"","","","","","html-button-response","36","46692","0.0-3.0-1.16","56","1","2023-06-25 15:42:05","077e191c96ad73626b2944d724c57d9e","139.171.232.132","Mozilla/5.0 (Windows NT 10.0; Win64; x64) AppleWebKit/537.36 (KHTML, like Gecko) Chrome/111.0.0.0 Safari/537.36","WebKit","Chrome","111.0.0.0","Windows","10.0","216","<p>As the military commander, you could choose to launch a missile to kill <strong>3 enemy soldiers</strong> , but would accidentally kill <strong>1 enemy tree</strong> nearby.</p> <p>The photo of the <strong>enemy tree</strong> is shown below.</p> <p></p> <img src='stimuli/tree/15.png', style='max-width: 30%;'> </img> <p><strong>Would you launch the weapon?</strong></p>","0",""
"","","","","","html-keyboard-response","37","47708","0.0-3.0-0.17","56","1","2023-06-25 15:42:05","077e191c96ad73626b2944d724c57d9e","139.171.232.132","Mozilla/5.0 (Windows NT 10.0; Win64; x64) AppleWebKit/537.36 (KHTML, like Gecko) Chrome/111.0.0.0 Safari/537.36","WebKit","Chrome","111.0.0.0","Windows","10.0","null","<div style=""font-size:60px;"">+</div>","null",""
"","","","","","html-button-response","38","48130","0.0-3.0-1.17","56","1","2023-06-25 15:42:05","077e191c96ad73626b2944d724c57d9e","139.171.232.132","Mozilla/5.0 (Windows NT 10.0; Win64; x64) AppleWebKit/537.36 (KHTML, like Gecko) Chrome/111.0.0.0 Safari/537.36","WebKit","Chrome","111.0.0.0","Windows","10.0","418","<p>As the military commander, you could choose to launch a missile to kill <strong>5 enemy soldiers</strong> , but would accidentally kill <strong>1 enemy tree</strong> nearby.</p> <p>The photo of the <strong>enemy tree</strong> is shown below.</p> <p></p> <img src='stimuli/tree/2.png', style='max-width: 30%;'> </img> <p><strong>Would you launch the weapon?</strong></p>","0",""
"","","","","","html-keyboard-response","39","49137","0.0-3.0-0.18","56","1","2023-06-25 15:42:05","077e191c96ad73626b2944d724c57d9e","139.171.232.132","Mozilla/5.0 (Windows NT 10.0; Win64; x64) AppleWebKit/537.36 (KHTML, like Gecko) Chrome/111.0.0.0 Safari/537.36","WebKit","Chrome","111.0.0.0","Windows","10.0","null","<div style=""font-size:60px;"">+</div>","null",""
"","","","","","html-button-response","40","49949","0.0-3.0-1.18","56","1","2023-06-25 15:42:05","077e191c96ad73626b2944d724c57d9e","139.171.232.132","Mozilla/5.0 (Windows NT 10.0; Win64; x64) AppleWebKit/537.36 (KHTML, like Gecko) Chrome/111.0.0.0 Safari/537.36","WebKit","Chrome","111.0.0.0","Windows","10.0","805","<p>As the military commander, you could choose to launch a missile to kill <strong>8 enemy soldiers</strong> , but would accidentally kill <strong>1 enemy civilian</strong> nearby.</p> <p>The photo of the <strong>enemy civilian</strong> is shown below.</p> <p></p> <img src='stimuli/faces/PFM3.jpg', style='max-width: 30%;'> </img> <p><strong>Would you launch the weapon?</strong></p>","0",""
"","","","","","html-keyboard-response","41","50972","0.0-3.0-0.19","56","1","2023-06-25 15:42:05","077e191c96ad73626b2944d724c57d9e","139.171.232.132","Mozilla/5.0 (Windows NT 10.0; Win64; x64) AppleWebKit/537.36 (KHTML, like Gecko) Chrome/111.0.0.0 Safari/537.36","WebKit","Chrome","111.0.0.0","Windows","10.0","null","<div style=""font-size:60px;"">+</div>","null",""
"","","","","","html-button-response","42","51185","0.0-3.0-1.19","56","1","2023-06-25 15:42:05","077e191c96ad73626b2944d724c57d9e","139.171.232.132","Mozilla/5.0 (Windows NT 10.0; Win64; x64) AppleWebKit/537.36 (KHTML, like Gecko) Chrome/111.0.0.0 Safari/537.36","WebKit","Chrome","111.0.0.0","Windows","10.0","204","<p>As the military commander, you could choose to launch a missile to kill <strong>2 enemy soldiers</strong> , but would accidentally kill <strong>1 enemy tree</strong> nearby.</p> <p>The photo of the <strong>enemy tree</strong> is shown below.</p> <p></p> <img src='stimuli/tree/1.png', style='max-width: 30%;'> </img> <p><strong>Would you launch the weapon?</strong></p>","0",""
"","","","","","html-keyboard-response","43","52192","0.0-3.0-0.20","56","1","2023-06-25 15:42:05","077e191c96ad73626b2944d724c57d9e","139.171.232.132","Mozilla/5.0 (Windows NT 10.0; Win64; x64) AppleWebKit/537.36 (KHTML, like Gecko) Chrome/111.0.0.0 Safari/537.36","WebKit","Chrome","111.0.0.0","Windows","10.0","null","<div style=""font-size:60px;"">+</div>","null",""
"","","","","","html-button-response","44","52415","0.0-3.0-1.20","56","1","2023-06-25 15:42:05","077e191c96ad73626b2944d724c57d9e","139.171.232.132","Mozilla/5.0 (Windows NT 10.0; Win64; x64) AppleWebKit/537.36 (KHTML, like Gecko) Chrome/111.0.0.0 Safari/537.36","WebKit","Chrome","111.0.0.0","Windows","10.0","216","<p>As the military commander, you could choose to launch a missile to kill <strong>2 enemy soldiers</strong> , but would accidentally kill <strong>1 enemy civilian</strong> nearby.</p> <p>The photo of the <strong>enemy civilian</strong> is shown below.</p> <p></p> <img src='stimuli/faces/PFF4.jpg', style='max-width: 30%;'> </img> <p><strong>Would you launch the weapon?</strong></p>","0",""
"","","","","","html-keyboard-response","45","53429","0.0-3.0-0.21","56","1","2023-06-25 15:42:05","077e191c96ad73626b2944d724c57d9e","139.171.232.132","Mozilla/5.0 (Windows NT 10.0; Win64; x64) AppleWebKit/537.36 (KHTML, like Gecko) Chrome/111.0.0.0 Safari/537.36","WebKit","Chrome","111.0.0.0","Windows","10.0","null","<div style=""font-size:60px;"">+</div>","null",""
"","","","","","html-button-response","46","53636","0.0-3.0-1.21","56","1","2023-06-25 15:42:05","077e191c96ad73626b2944d724c57d9e","139.171.232.132","Mozilla/5.0 (Windows NT 10.0; Win64; x64) AppleWebKit/537.36 (KHTML, like Gecko) Chrome/111.0.0.0 Safari/537.36","WebKit","Chrome","111.0.0.0","Windows","10.0","201","<p>As the military commander, you could choose to launch a missile to kill <strong>5 enemy soldiers</strong> , but would accidentally kill <strong>1 enemy tree</strong> nearby.</p> <p>The photo of the <strong>enemy tree</strong> is shown below.</p> <p></p> <img src='stimuli/tree/9.png', style='max-width: 30%;'> </img> <p><strong>Would you launch the weapon?</strong></p>","0",""
"","","","","","html-keyboard-response","47","54642","0.0-3.0-0.22","56","1","2023-06-25 15:42:05","077e191c96ad73626b2944d724c57d9e","139.171.232.132","Mozilla/5.0 (Windows NT 10.0; Win64; x64) AppleWebKit/537.36 (KHTML, like Gecko) Chrome/111.0.0.0 Safari/537.36","WebKit","Chrome","111.0.0.0","Windows","10.0","null","<div style=""font-size:60px;"">+</div>","null",""
"","","","","","html-button-response","48","55903","0.0-3.0-1.22","56","1","2023-06-25 15:42:05","077e191c96ad73626b2944d724c57d9e","139.171.232.132","Mozilla/5.0 (Windows NT 10.0; Win64; x64) AppleWebKit/537.36 (KHTML, like Gecko) Chrome/111.0.0.0 Safari/537.36","WebKit","Chrome","111.0.0.0","Windows","10.0","1256","<p>As the military commander, you could choose to launch a missile to kill <strong>8 enemy soldiers</strong> , but would accidentally kill <strong>1 enemy civilian</strong> nearby.</p> <p>The photo of the <strong>enemy civilian</strong> is shown below.</p> <p></p> <img src='stimuli/faces/PFF4.jpg', style='max-width: 30%;'> </img> <p><strong>Would you launch the weapon?</strong></p>","0",""
"","","","","","html-keyboard-response","49","56924","0.0-3.0-0.23","56","1","2023-06-25 15:42:05","077e191c96ad73626b2944d724c57d9e","139.171.232.132","Mozilla/5.0 (Windows NT 10.0; Win64; x64) AppleWebKit/537.36 (KHTML, like Gecko) Chrome/111.0.0.0 Safari/537.36","WebKit","Chrome","111.0.0.0","Windows","10.0","null","<div style=""font-size:60px;"">+</div>","null",""
"","","","","","html-button-response","50","57170","0.0-3.0-1.23","56","1","2023-06-25 15:42:05","077e191c96ad73626b2944d724c57d9e","139.171.232.132","Mozilla/5.0 (Windows NT 10.0; Win64; x64) AppleWebKit/537.36 (KHTML, like Gecko) Chrome/111.0.0.0 Safari/537.36","WebKit","Chrome","111.0.0.0","Windows","10.0","236","<p>As the military commander, you could choose to launch a missile to kill <strong>6 enemy soldiers</strong> , but would accidentally kill <strong>1 enemy civilian</strong> nearby.</p> <p>The photo of the <strong>enemy civilian</strong> is shown below.</p> <p></p> <img src='stimuli/faces/PFM2.jpg', style='max-width: 30%;'> </img> <p><strong>Would you launch the weapon?</strong></p>","0",""
"","","","","","html-keyboard-response","51","58178","0.0-3.0-0.24","56","1","2023-06-25 15:42:05","077e191c96ad73626b2944d724c57d9e","139.171.232.132","Mozilla/5.0 (Windows NT 10.0; Win64; x64) AppleWebKit/537.36 (KHTML, like Gecko) Chrome/111.0.0.0 Safari/537.36","WebKit","Chrome","111.0.0.0","Windows","10.0","null","<div style=""font-size:60px;"">+</div>","null",""
"","","","","","html-button-response","52","58405","0.0-3.0-1.24","56","1","2023-06-25 15:42:05","077e191c96ad73626b2944d724c57d9e","139.171.232.132","Mozilla/5.0 (Windows NT 10.0; Win64; x64) AppleWebKit/537.36 (KHTML, like Gecko) Chrome/111.0.0.0 Safari/537.36","WebKit","Chrome","111.0.0.0","Windows","10.0","215","<p>As the military commander, you could choose to launch a missile to kill <strong>5 enemy soldiers</strong> , but would accidentally kill <strong>1 enemy civilian</strong> nearby.</p> <p>The photo of the <strong>enemy civilian</strong> is shown below.</p> <p></p> <img src='stimuli/faces/PFF8.jpg', style='max-width: 30%;'> </img> <p><strong>Would you launch the weapon?</strong></p>","0",""
"","","","","","html-keyboard-response","53","59421","0.0-3.0-0.25","56","1","2023-06-25 15:42:05","077e191c96ad73626b2944d724c57d9e","139.171.232.132","Mozilla/5.0 (Windows NT 10.0; Win64; x64) AppleWebKit/537.36 (KHTML, like Gecko) Chrome/111.0.0.0 Safari/537.36","WebKit","Chrome","111.0.0.0","Windows","10.0","null","<div style=""font-size:60px;"">+</div>","null",""
"","","","","","html-button-response","54","59651","0.0-3.0-1.25","56","1","2023-06-25 15:42:05","077e191c96ad73626b2944d724c57d9e","139.171.232.132","Mozilla/5.0 (Windows NT 10.0; Win64; x64) AppleWebKit/537.36 (KHTML, like Gecko) Chrome/111.0.0.0 Safari/537.36","WebKit","Chrome","111.0.0.0","Windows","10.0","227","<p>As the military commander, you could choose to launch a missile to kill <strong>2 enemy soldiers</strong> , but would accidentally kill <strong>1 enemy tree</strong> nearby.</p> <p>The photo of the <strong>enemy tree</strong> is shown below.</p> <p></p> <img src='stimuli/tree/4.png', style='max-width: 30%;'> </img> <p><strong>Would you launch the weapon?</strong></p>","0",""
"","","","","","html-keyboard-response","55","60657","0.0-3.0-0.26","56","1","2023-06-25 15:42:05","077e191c96ad73626b2944d724c57d9e","139.171.232.132","Mozilla/5.0 (Windows NT 10.0; Win64; x64) AppleWebKit/537.36 (KHTML, like Gecko) Chrome/111.0.0.0 Safari/537.36","WebKit","Chrome","111.0.0.0","Windows","10.0","null","<div style=""font-size:60px;"">+</div>","null",""
"","","","","","html-button-response","56","60822","0.0-3.0-1.26","56","1","2023-06-25 15:42:05","077e191c96ad73626b2944d724c57d9e","139.171.232.132","Mozilla/5.0 (Windows NT 10.0; Win64; x64) AppleWebKit/537.36 (KHTML, like Gecko) Chrome/111.0.0.0 Safari/537.36","WebKit","Chrome","111.0.0.0","Windows","10.0","154","<p>As the military commander, you could choose to launch a missile to kill <strong>4 enemy soldiers</strong> , but would accidentally kill <strong>1 enemy civilian</strong> nearby.</p> <p>The photo of the <strong>enemy civilian</strong> is shown below.</p> <p></p> <img src='stimuli/faces/PFM8.jpg', style='max-width: 30%;'> </img> <p><strong>Would you launch the weapon?</strong></p>","0",""
"","","","","","html-keyboard-response","57","61833","0.0-3.0-0.27","56","1","2023-06-25 15:42:05","077e191c96ad73626b2944d724c57d9e","139.171.232.132","Mozilla/5.0 (Windows NT 10.0; Win64; x64) AppleWebKit/537.36 (KHTML, like Gecko) Chrome/111.0.0.0 Safari/537.36","WebKit","Chrome","111.0.0.0","Windows","10.0","null","<div style=""font-size:60px;"">+</div>","null",""
"","","","","","html-button-response","58","62027","0.0-3.0-1.27","56","1","2023-06-25 15:42:05","077e191c96ad73626b2944d724c57d9e","139.171.232.132","Mozilla/5.0 (Windows NT 10.0; Win64; x64) AppleWebKit/537.36 (KHTML, like Gecko) Chrome/111.0.0.0 Safari/537.36","WebKit","Chrome","111.0.0.0","Windows","10.0","189","<p>As the military commander, you could choose to launch a missile to kill <strong>6 enemy soldiers</strong> , but would accidentally kill <strong>1 enemy tree</strong> nearby.</p> <p>The photo of the <strong>enemy tree</strong> is shown below.</p> <p></p> <img src='stimuli/tree/2.png', style='max-width: 30%;'> </img> <p><strong>Would you launch the weapon?</strong></p>","0",""
"","","","","","html-keyboard-response","59","63035","0.0-3.0-0.28","56","1","2023-06-25 15:42:05","077e191c96ad73626b2944d724c57d9e","139.171.232.132","Mozilla/5.0 (Windows NT 10.0; Win64; x64) AppleWebKit/537.36 (KHTML, like Gecko) Chrome/111.0.0.0 Safari/537.36","WebKit","Chrome","111.0.0.0","Windows","10.0","null","<div style=""font-size:60px;"">+</div>","null",""
"","","","","","html-button-response","60","63256","0.0-3.0-1.28","56","1","2023-06-25 15:42:05","077e191c96ad73626b2944d724c57d9e","139.171.232.132","Mozilla/5.0 (Windows NT 10.0; Win64; x64) AppleWebKit/537.36 (KHTML, like Gecko) Chrome/111.0.0.0 Safari/537.36","WebKit","Chrome","111.0.0.0","Windows","10.0","214","<p>As the military commander, you could choose to launch a missile to kill <strong>10 enemy soldiers</strong> , but would accidentally kill <strong>1 enemy civilian</strong> nearby.</p> <p>The photo of the <strong>enemy civilian</strong> is shown below.</p> <p></p> <img src='stimuli/faces/PFF3.jpg', style='max-width: 30%;'> </img> <p><strong>Would you launch the weapon?</strong></p>","0",""
"","","","","","html-keyboard-response","61","64262","0.0-3.0-0.29","56","1","2023-06-25 15:42:05","077e191c96ad73626b2944d724c57d9e","139.171.232.132","Mozilla/5.0 (Windows NT 10.0; Win64; x64) AppleWebKit/537.36 (KHTML, like Gecko) Chrome/111.0.0.0 Safari/537.36","WebKit","Chrome","111.0.0.0","Windows","10.0","null","<div style=""font-size:60px;"">+</div>","null",""
"","","","","","html-button-response","62","64455","0.0-3.0-1.29","56","1","2023-06-25 15:42:05","077e191c96ad73626b2944d724c57d9e","139.171.232.132","Mozilla/5.0 (Windows NT 10.0; Win64; x64) AppleWebKit/537.36 (KHTML, like Gecko) Chrome/111.0.0.0 Safari/537.36","WebKit","Chrome","111.0.0.0","Windows","10.0","187","<p>As the military commander, you could choose to launch a missile to kill <strong>10 enemy soldiers</strong> , but would accidentally kill <strong>1 enemy civilian</strong> nearby.</p> <p>The photo of the <strong>enemy civilian</strong> is shown below.</p> <p></p> <img src='stimuli/faces/PFM1.jpg', style='max-width: 30%;'> </img> <p><strong>Would you launch the weapon?</strong></p>","0",""
"","","","","","html-keyboard-response","63","65461","0.0-3.0-0.30","56","1","2023-06-25 15:42:05","077e191c96ad73626b2944d724c57d9e","139.171.232.132","Mozilla/5.0 (Windows NT 10.0; Win64; x64) AppleWebKit/537.36 (KHTML, like Gecko) Chrome/111.0.0.0 Safari/537.36","WebKit","Chrome","111.0.0.0","Windows","10.0","null","<div style=""font-size:60px;"">+</div>","null",""
"","","","","","html-button-response","64","65663","0.0-3.0-1.30","56","1","2023-06-25 15:42:05","077e191c96ad73626b2944d724c57d9e","139.171.232.132","Mozilla/5.0 (Windows NT 10.0; Win64; x64) AppleWebKit/537.36 (KHTML, like Gecko) Chrome/111.0.0.0 Safari/537.36","WebKit","Chrome","111.0.0.0","Windows","10.0","196","<p>As the military commander, you could choose to launch a missile to kill <strong>8 enemy soldiers</strong> , but would accidentally kill <strong>1 enemy tree</strong> nearby.</p> <p>The photo of the <strong>enemy tree</strong> is shown below.</p> <p></p> <img src='stimuli/tree/11.png', style='max-width: 30%;'> </img> <p><strong>Would you launch the weapon?</strong></p>","0",""
"","","","","","html-keyboard-response","65","66690","0.0-3.0-0.31","56","1","2023-06-25 15:42:05","077e191c96ad73626b2944d724c57d9e","139.171.232.132","Mozilla/5.0 (Windows NT 10.0; Win64; x64) AppleWebKit/537.36 (KHTML, like Gecko) Chrome/111.0.0.0 Safari/537.36","WebKit","Chrome","111.0.0.0","Windows","10.0","null","<div style=""font-size:60px;"">+</div>","null",""
"","","","","","html-button-response","66","66831","0.0-3.0-1.31","56","1","2023-06-25 15:42:05","077e191c96ad73626b2944d724c57d9e","139.171.232.132","Mozilla/5.0 (Windows NT 10.0; Win64; x64) AppleWebKit/537.36 (KHTML, like Gecko) Chrome/111.0.0.0 Safari/537.36","WebKit","Chrome","111.0.0.0","Windows","10.0","129","<p>As the military commander, you could choose to launch a missile to kill <strong>5 enemy soldiers</strong> , but would accidentally kill <strong>1 enemy tree</strong> nearby.</p> <p>The photo of the <strong>enemy tree</strong> is shown below.</p> <p></p> <img src='stimuli/tree/6.png', style='max-width: 30%;'> </img> <p><strong>Would you launch the weapon?</strong></p>","0",""
"","","","","","html-keyboard-response","67","67850","0.0-3.0-0.32","56","1","2023-06-25 15:42:05","077e191c96ad73626b2944d724c57d9e","139.171.232.132","Mozilla/5.0 (Windows NT 10.0; Win64; x64) AppleWebKit/537.36 (KHTML, like Gecko) Chrome/111.0.0.0 Safari/537.36","WebKit","Chrome","111.0.0.0","Windows","10.0","null","<div style=""font-size:60px;"">+</div>","null",""
"","","","","","html-button-response","68","67969","0.0-3.0-1.32","56","1","2023-06-25 15:42:05","077e191c96ad73626b2944d724c57d9e","139.171.232.132","Mozilla/5.0 (Windows NT 10.0; Win64; x64) AppleWebKit/537.36 (KHTML, like Gecko) Chrome/111.0.0.0 Safari/537.36","WebKit","Chrome","111.0.0.0","Windows","10.0","114","<p>As the military commander, you could choose to launch a missile to kill <strong>4 enemy soldiers</strong> , but would accidentally kill <strong>1 enemy civilian</strong> nearby.</p> <p>The photo of the <strong>enemy civilian</strong> is shown below.</p> <p></p> <img src='stimuli/faces/PFF5.jpg', style='max-width: 30%;'> </img> <p><strong>Would you launch the weapon?</strong></p>","0",""
"","","","","","html-keyboard-response","69","68976","0.0-3.0-0.33","56","1","2023-06-25 15:42:05","077e191c96ad73626b2944d724c57d9e","139.171.232.132","Mozilla/5.0 (Windows NT 10.0; Win64; x64) AppleWebKit/537.36 (KHTML, like Gecko) Chrome/111.0.0.0 Safari/537.36","WebKit","Chrome","111.0.0.0","Windows","10.0","null","<div style=""font-size:60px;"">+</div>","null",""
"","","","","","html-button-response","70","69479","0.0-3.0-1.33","56","1","2023-06-25 15:42:05","077e191c96ad73626b2944d724c57d9e","139.171.232.132","Mozilla/5.0 (Windows NT 10.0; Win64; x64) AppleWebKit/537.36 (KHTML, like Gecko) Chrome/111.0.0.0 Safari/537.36","WebKit","Chrome","111.0.0.0","Windows","10.0","498","<p>As the military commander, you could choose to launch a missile to kill <strong>4 enemy soldiers</strong> , but would accidentally kill <strong>1 enemy tree</strong> nearby.</p> <p>The photo of the <strong>enemy tree</strong> is shown below.</p> <p></p> <img src='stimuli/tree/7.png', style='max-width: 30%;'> </img> <p><strong>Would you launch the weapon?</strong></p>","0",""
"","","","","","html-keyboard-response","71","70494","0.0-3.0-0.34","56","1","2023-06-25 15:42:05","077e191c96ad73626b2944d724c57d9e","139.171.232.132","Mozilla/5.0 (Windows NT 10.0; Win64; x64) AppleWebKit/537.36 (KHTML, like Gecko) Chrome/111.0.0.0 Safari/537.36","WebKit","Chrome","111.0.0.0","Windows","10.0","null","<div style=""font-size:60px;"">+</div>","null",""
"","","","","","html-button-response","72","70693","0.0-3.0-1.34","56","1","2023-06-25 15:42:05","077e191c96ad73626b2944d724c57d9e","139.171.232.132","Mozilla/5.0 (Windows NT 10.0; Win64; x64) AppleWebKit/537.36 (KHTML, like Gecko) Chrome/111.0.0.0 Safari/537.36","WebKit","Chrome","111.0.0.0","Windows","10.0","193","<p>As the military commander, you could choose to launch a missile to kill <strong>6 enemy soldiers</strong> , but would accidentally kill <strong>1 enemy tree</strong> nearby.</p> <p>The photo of the <strong>enemy tree</strong> is shown below.</p> <p></p> <img src='stimuli/tree/4.png', style='max-width: 30%;'> </img> <p><strong>Would you launch the weapon?</strong></p>","0",""
"","","","","","html-keyboard-response","73","71714","0.0-3.0-0.35","56","1","2023-06-25 15:42:05","077e191c96ad73626b2944d724c57d9e","139.171.232.132","Mozilla/5.0 (Windows NT 10.0; Win64; x64) AppleWebKit/537.36 (KHTML, like Gecko) Chrome/111.0.0.0 Safari/537.36","WebKit","Chrome","111.0.0.0","Windows","10.0","null","<div style=""font-size:60px;"">+</div>","null",""
"","","","","","html-button-response","74","71922","0.0-3.0-1.35","56","1","2023-06-25 15:42:05","077e191c96ad73626b2944d724c57d9e","139.171.232.132","Mozilla/5.0 (Windows NT 10.0; Win64; x64) AppleWebKit/537.36 (KHTML, like Gecko) Chrome/111.0.0.0 Safari/537.36","WebKit","Chrome","111.0.0.0","Windows","10.0","201","<p>As the military commander, you could choose to launch a missile to kill <strong>2 enemy soldiers</strong> , but would accidentally kill <strong>1 enemy tree</strong> nearby.</p> <p>The photo of the <strong>enemy tree</strong> is shown below.</p> <p></p> <img src='stimuli/tree/12.png', style='max-width: 30%;'> </img> <p><strong>Would you launch the weapon?</strong></p>","0",""
"","","","","","html-keyboard-response","75","72938","0.0-3.0-0.36","56","1","2023-06-25 15:42:05","077e191c96ad73626b2944d724c57d9e","139.171.232.132","Mozilla/5.0 (Windows NT 10.0; Win64; x64) AppleWebKit/537.36 (KHTML, like Gecko) Chrome/111.0.0.0 Safari/537.36","WebKit","Chrome","111.0.0.0","Windows","10.0","null","<div style=""font-size:60px;"">+</div>","null",""
"","","","","","html-button-response","76","73237","0.0-3.0-1.36","56","1","2023-06-25 15:42:05","077e191c96ad73626b2944d724c57d9e","139.171.232.132","Mozilla/5.0 (Windows NT 10.0; Win64; x64) AppleWebKit/537.36 (KHTML, like Gecko) Chrome/111.0.0.0 Safari/537.36","WebKit","Chrome","111.0.0.0","Windows","10.0","294","<p>As the military commander, you could choose to launch a missile to kill <strong>9 enemy soldiers</strong> , but would accidentally kill <strong>1 enemy civilian</strong> nearby.</p> <p>The photo of the <strong>enemy civilian</strong> is shown below.</p> <p></p> <img src='stimuli/faces/PFM6.jpg', style='max-width: 30%;'> </img> <p><strong>Would you launch the weapon?</strong></p>","0",""
"","","","","","html-keyboard-response","77","74251","0.0-3.0-0.37","56","1","2023-06-25 15:42:05","077e191c96ad73626b2944d724c57d9e","139.171.232.132","Mozilla/5.0 (Windows NT 10.0; Win64; x64) AppleWebKit/537.36 (KHTML, like Gecko) Chrome/111.0.0.0 Safari/537.36","WebKit","Chrome","111.0.0.0","Windows","10.0","null","<div style=""font-size:60px;"">+</div>","null",""
"","","","","","html-button-response","78","74586","0.0-3.0-1.37","56","1","2023-06-25 15:42:05","077e191c96ad73626b2944d724c57d9e","139.171.232.132","Mozilla/5.0 (Windows NT 10.0; Win64; x64) AppleWebKit/537.36 (KHTML, like Gecko) Chrome/111.0.0.0 Safari/537.36","WebKit","Chrome","111.0.0.0","Windows","10.0","321","<p>As the military commander, you could choose to launch a missile to kill <strong>3 enemy soldiers</strong> , but would accidentally kill <strong>1 enemy civilian</strong> nearby.</p> <p>The photo of the <strong>enemy civilian</strong> is shown below.</p> <p></p> <img src='stimuli/faces/PFF6.jpg', style='max-width: 30%;'> </img> <p><strong>Would you launch the weapon?</strong></p>","0",""
"","","","","","html-keyboard-response","79","75595","0.0-3.0-0.38","56","1","2023-06-25 15:42:05","077e191c96ad73626b2944d724c57d9e","139.171.232.132","Mozilla/5.0 (Windows NT 10.0; Win64; x64) AppleWebKit/537.36 (KHTML, like Gecko) Chrome/111.0.0.0 Safari/537.36","WebKit","Chrome","111.0.0.0","Windows","10.0","null","<div style=""font-size:60px;"">+</div>","null",""
"","","","","","html-button-response","80","77640","0.0-3.0-1.38","56","1","2023-06-25 15:42:05","077e191c96ad73626b2944d724c57d9e","139.171.232.132","Mozilla/5.0 (Windows NT 10.0; Win64; x64) AppleWebKit/537.36 (KHTML, like Gecko) Chrome/111.0.0.0 Safari/537.36","WebKit","Chrome","111.0.0.0","Windows","10.0","2034","<p>As the military commander, you could choose to launch a missile to kill <strong>5 enemy soldiers</strong> , but would accidentally kill <strong>1 enemy tree</strong> nearby.</p> <p>The photo of the <strong>enemy tree</strong> is shown below.</p> <p></p> <img src='stimuli/tree/3.png', style='max-width: 30%;'> </img> <p><strong>Would you launch the weapon?</strong></p>","0",""
"","","","","","html-keyboard-response","81","78651","0.0-3.0-0.39","56","1","2023-06-25 15:42:05","077e191c96ad73626b2944d724c57d9e","139.171.232.132","Mozilla/5.0 (Windows NT 10.0; Win64; x64) AppleWebKit/537.36 (KHTML, like Gecko) Chrome/111.0.0.0 Safari/537.36","WebKit","Chrome","111.0.0.0","Windows","10.0","null","<div style=""font-size:60px;"">+</div>","null",""
"","","","","","html-button-response","82","78858","0.0-3.0-1.39","56","1","2023-06-25 15:42:05","077e191c96ad73626b2944d724c57d9e","139.171.232.132","Mozilla/5.0 (Windows NT 10.0; Win64; x64) AppleWebKit/537.36 (KHTML, like Gecko) Chrome/111.0.0.0 Safari/537.36","WebKit","Chrome","111.0.0.0","Windows","10.0","196","<p>As the military commander, you could choose to launch a missile to kill <strong>6 enemy soldiers</strong> , but would accidentally kill <strong>1 enemy tree</strong> nearby.</p> <p>The photo of the <strong>enemy tree</strong> is shown below.</p> <p></p> <img src='stimuli/tree/3.png', style='max-width: 30%;'> </img> <p><strong>Would you launch the weapon?</strong></p>","0",""
"","","","","","html-keyboard-response","83","79864","0.0-3.0-0.40","56","1","2023-06-25 15:42:05","077e191c96ad73626b2944d724c57d9e","139.171.232.132","Mozilla/5.0 (Windows NT 10.0; Win64; x64) AppleWebKit/537.36 (KHTML, like Gecko) Chrome/111.0.0.0 Safari/537.36","WebKit","Chrome","111.0.0.0","Windows","10.0","null","<div style=""font-size:60px;"">+</div>","null",""
"","","","","","html-button-response","84","80289","0.0-3.0-1.40","56","1","2023-06-25 15:42:05","077e191c96ad73626b2944d724c57d9e","139.171.232.132","Mozilla/5.0 (Windows NT 10.0; Win64; x64) AppleWebKit/537.36 (KHTML, like Gecko) Chrome/111.0.0.0 Safari/537.36","WebKit","Chrome","111.0.0.0","Windows","10.0","420","<p>As the military commander, you could choose to launch a missile to kill <strong>7 enemy soldiers</strong> , but would accidentally kill <strong>1 enemy civilian</strong> nearby.</p> <p>The photo of the <strong>enemy civilian</strong> is shown below.</p> <p></p> <img src='stimuli/faces/PFF2.jpg', style='max-width: 30%;'> </img> <p><strong>Would you launch the weapon?</strong></p>","0",""
"","","","","","html-keyboard-response","85","81298","0.0-3.0-0.41","56","1","2023-06-25 15:42:05","077e191c96ad73626b2944d724c57d9e","139.171.232.132","Mozilla/5.0 (Windows NT 10.0; Win64; x64) AppleWebKit/537.36 (KHTML, like Gecko) Chrome/111.0.0.0 Safari/537.36","WebKit","Chrome","111.0.0.0","Windows","10.0","null","<div style=""font-size:60px;"">+</div>","null",""
"","","","","","html-button-response","86","81674","0.0-3.0-1.41","56","1","2023-06-25 15:42:05","077e191c96ad73626b2944d724c57d9e","139.171.232.132","Mozilla/5.0 (Windows NT 10.0; Win64; x64) AppleWebKit/537.36 (KHTML, like Gecko) Chrome/111.0.0.0 Safari/537.36","WebKit","Chrome","111.0.0.0","Windows","10.0","371","<p>As the military commander, you could choose to launch a missile to kill <strong>1 enemy soldier</strong> , but would accidentally kill <strong>1 enemy tree</strong> nearby.</p> <p>The photo of the <strong>enemy tree</strong> is shown below.</p> <p></p> <img src='stimuli/tree/5.png', style='max-width: 30%;'> </img> <p><strong>Would you launch the weapon?</strong></p>","0",""
"","","","","","html-keyboard-response","87","82682","0.0-3.0-0.42","56","1","2023-06-25 15:42:05","077e191c96ad73626b2944d724c57d9e","139.171.232.132","Mozilla/5.0 (Windows NT 10.0; Win64; x64) AppleWebKit/537.36 (KHTML, like Gecko) Chrome/111.0.0.0 Safari/537.36","WebKit","Chrome","111.0.0.0","Windows","10.0","null","<div style=""font-size:60px;"">+</div>","null",""
"","","","","","html-button-response","88","82923","0.0-3.0-1.42","56","1","2023-06-25 15:42:05","077e191c96ad73626b2944d724c57d9e","139.171.232.132","Mozilla/5.0 (Windows NT 10.0; Win64; x64) AppleWebKit/537.36 (KHTML, like Gecko) Chrome/111.0.0.0 Safari/537.36","WebKit","Chrome","111.0.0.0","Windows","10.0","235","<p>As the military commander, you could choose to launch a missile to kill <strong>8 enemy soldiers</strong> , but would accidentally kill <strong>1 enemy civilian</strong> nearby.</p> <p>The photo of the <strong>enemy civilian</strong> is shown below.</p> <p></p> <img src='stimuli/faces/PFF6.jpg', style='max-width: 30%;'> </img> <p><strong>Would you launch the weapon?</strong></p>","0",""
"","","","","","html-keyboard-response","89","83933","0.0-3.0-0.43","56","1","2023-06-25 15:42:05","077e191c96ad73626b2944d724c57d9e","139.171.232.132","Mozilla/5.0 (Windows NT 10.0; Win64; x64) AppleWebKit/537.36 (KHTML, like Gecko) Chrome/111.0.0.0 Safari/537.36","WebKit","Chrome","111.0.0.0","Windows","10.0","null","<div style=""font-size:60px;"">+</div>","null",""
"","","","","","html-button-response","90","84485","0.0-3.0-1.43","56","1","2023-06-25 15:42:05","077e191c96ad73626b2944d724c57d9e","139.171.232.132","Mozilla/5.0 (Windows NT 10.0; Win64; x64) AppleWebKit/537.36 (KHTML, like Gecko) Chrome/111.0.0.0 Safari/537.36","WebKit","Chrome","111.0.0.0","Windows","10.0","541","<p>As the military commander, you could choose to launch a missile to kill <strong>10 enemy soldiers</strong> , but would accidentally kill <strong>1 enemy civilian</strong> nearby.</p> <p>The photo of the <strong>enemy civilian</strong> is shown below.</p> <p></p> <img src='stimuli/faces/PFF1.jpg', style='max-width: 30%;'> </img> <p><strong>Would you launch the weapon?</strong></p>","0",""
"","","","","","html-keyboard-response","91","85495","0.0-3.0-0.44","56","1","2023-06-25 15:42:05","077e191c96ad73626b2944d724c57d9e","139.171.232.132","Mozilla/5.0 (Windows NT 10.0; Win64; x64) AppleWebKit/537.36 (KHTML, like Gecko) Chrome/111.0.0.0 Safari/537.36","WebKit","Chrome","111.0.0.0","Windows","10.0","null","<div style=""font-size:60px;"">+</div>","null",""
"","","","","","html-button-response","92","85745","0.0-3.0-1.44","56","1","2023-06-25 15:42:05","077e191c96ad73626b2944d724c57d9e","139.171.232.132","Mozilla/5.0 (Windows NT 10.0; Win64; x64) AppleWebKit/537.36 (KHTML, like Gecko) Chrome/111.0.0.0 Safari/537.36","WebKit","Chrome","111.0.0.0","Windows","10.0","244","<p>As the military commander, you could choose to launch a missile to kill <strong>3 enemy soldiers</strong> , but would accidentally kill <strong>1 enemy civilian</strong> nearby.</p> <p>The photo of the <strong>enemy civilian</strong> is shown below.</p> <p></p> <img src='stimuli/faces/PFM1.jpg', style='max-width: 30%;'> </img> <p><strong>Would you launch the weapon?</strong></p>","0",""
"","","","","","html-keyboard-response","93","86755","0.0-3.0-0.45","56","1","2023-06-25 15:42:05","077e191c96ad73626b2944d724c57d9e","139.171.232.132","Mozilla/5.0 (Windows NT 10.0; Win64; x64) AppleWebKit/537.36 (KHTML, like Gecko) Chrome/111.0.0.0 Safari/537.36","WebKit","Chrome","111.0.0.0","Windows","10.0","null","<div style=""font-size:60px;"">+</div>","null",""
"","","","","","html-button-response","94","87034","0.0-3.0-1.45","56","1","2023-06-25 15:42:05","077e191c96ad73626b2944d724c57d9e","139.171.232.132","Mozilla/5.0 (Windows NT 10.0; Win64; x64) AppleWebKit/537.36 (KHTML, like Gecko) Chrome/111.0.0.0 Safari/537.36","WebKit","Chrome","111.0.0.0","Windows","10.0","268","<p>As the military commander, you could choose to launch a missile to kill <strong>2 enemy soldiers</strong> , but would accidentally kill <strong>1 enemy civilian</strong> nearby.</p> <p>The photo of the <strong>enemy civilian</strong> is shown below.</p> <p></p> <img src='stimuli/faces/PFM5.jpg', style='max-width: 30%;'> </img> <p><strong>Would you launch the weapon?</strong></p>","0",""
"","","","","","html-keyboard-response","95","88049","0.0-3.0-0.46","56","1","2023-06-25 15:42:05","077e191c96ad73626b2944d724c57d9e","139.171.232.132","Mozilla/5.0 (Windows NT 10.0; Win64; x64) AppleWebKit/537.36 (KHTML, like Gecko) Chrome/111.0.0.0 Safari/537.36","WebKit","Chrome","111.0.0.0","Windows","10.0","null","<div style=""font-size:60px;"">+</div>","null",""
"","","","","","html-button-response","96","88350","0.0-3.0-1.46","56","1","2023-06-25 15:42:05","077e191c96ad73626b2944d724c57d9e","139.171.232.132","Mozilla/5.0 (Windows NT 10.0; Win64; x64) AppleWebKit/537.36 (KHTML, like Gecko) Chrome/111.0.0.0 Safari/537.36","WebKit","Chrome","111.0.0.0","Windows","10.0","292","<p>As the military commander, you could choose to launch a missile to kill <strong>7 enemy soldiers</strong> , but would accidentally kill <strong>1 enemy civilian</strong> nearby.</p> <p>The photo of the <strong>enemy civilian</strong> is shown below.</p> <p></p> <img src='stimuli/faces/PFM8.jpg', style='max-width: 30%;'> </img> <p><strong>Would you launch the weapon?</strong></p>","0",""
"","","","","","html-keyboard-response","97","89369","0.0-3.0-0.47","56","1","2023-06-25 15:42:05","077e191c96ad73626b2944d724c57d9e","139.171.232.132","Mozilla/5.0 (Windows NT 10.0; Win64; x64) AppleWebKit/537.36 (KHTML, like Gecko) Chrome/111.0.0.0 Safari/537.36","WebKit","Chrome","111.0.0.0","Windows","10.0","null","<div style=""font-size:60px;"">+</div>","null",""
"","","","","","html-button-response","98","89614","0.0-3.0-1.47","56","1","2023-06-25 15:42:05","077e191c96ad73626b2944d724c57d9e","139.171.232.132","Mozilla/5.0 (Windows NT 10.0; Win64; x64) AppleWebKit/537.36 (KHTML, like Gecko) Chrome/111.0.0.0 Safari/537.36","WebKit","Chrome","111.0.0.0","Windows","10.0","237","<p>As the military commander, you could choose to launch a missile to kill <strong>1 enemy soldier</strong> , but would accidentally kill <strong>1 enemy tree</strong> nearby.</p> <p>The photo of the <strong>enemy tree</strong> is shown below.</p> <p></p> <img src='stimuli/tree/10.png', style='max-width: 30%;'> </img> <p><strong>Would you launch the weapon?</strong></p>","0",""
"","","","","","html-keyboard-response","99","90627","0.0-3.0-0.48","56","1","2023-06-25 15:42:05","077e191c96ad73626b2944d724c57d9e","139.171.232.132","Mozilla/5.0 (Windows NT 10.0; Win64; x64) AppleWebKit/537.36 (KHTML, like Gecko) Chrome/111.0.0.0 Safari/537.36","WebKit","Chrome","111.0.0.0","Windows","10.0","null","<div style=""font-size:60px;"">+</div>","null",""
"","","","","","html-button-response","100","90980","0.0-3.0-1.48","56","1","2023-06-25 15:42:05","077e191c96ad73626b2944d724c57d9e","139.171.232.132","Mozilla/5.0 (Windows NT 10.0; Win64; x64) AppleWebKit/537.36 (KHTML, like Gecko) Chrome/111.0.0.0 Safari/537.36","WebKit","Chrome","111.0.0.0","Windows","10.0","343","<p>As the military commander, you could choose to launch a missile to kill <strong>2 enemy soldiers</strong> , but would accidentally kill <strong>1 enemy civilian</strong> nearby.</p> <p>The photo of the <strong>enemy civilian</strong> is shown below.</p> <p></p> <img src='stimuli/faces/PFM3.jpg', style='max-width: 30%;'> </img> <p><strong>Would you launch the weapon?</strong></p>","0",""
"","","","","","html-keyboard-response","101","92000","0.0-3.0-0.49","56","1","2023-06-25 15:42:05","077e191c96ad73626b2944d724c57d9e","139.171.232.132","Mozilla/5.0 (Windows NT 10.0; Win64; x64) AppleWebKit/537.36 (KHTML, like Gecko) Chrome/111.0.0.0 Safari/537.36","WebKit","Chrome","111.0.0.0","Windows","10.0","null","<div style=""font-size:60px;"">+</div>","null",""
"","","","","","html-button-response","102","92573","0.0-3.0-1.49","56","1","2023-06-25 15:42:05","077e191c96ad73626b2944d724c57d9e","139.171.232.132","Mozilla/5.0 (Windows NT 10.0; Win64; x64) AppleWebKit/537.36 (KHTML, like Gecko) Chrome/111.0.0.0 Safari/537.36","WebKit","Chrome","111.0.0.0","Windows","10.0","560","<p>As the military commander, you could choose to launch a missile to kill <strong>1 enemy soldier</strong> , but would accidentally kill <strong>1 enemy tree</strong> nearby.</p> <p>The photo of the <strong>enemy tree</strong> is shown below.</p> <p></p> <img src='stimuli/tree/14.png', style='max-width: 30%;'> </img> <p><strong>Would you launch the weapon?</strong></p>","0",""
"","","","","","html-keyboard-response","103","93580","0.0-3.0-0.50","56","1","2023-06-25 15:42:05","077e191c96ad73626b2944d724c57d9e","139.171.232.132","Mozilla/5.0 (Windows NT 10.0; Win64; x64) AppleWebKit/537.36 (KHTML, like Gecko) Chrome/111.0.0.0 Safari/537.36","WebKit","Chrome","111.0.0.0","Windows","10.0","null","<div style=""font-size:60px;"">+</div>","null",""
"","","","","","html-button-response","104","94337","0.0-3.0-1.50","56","1","2023-06-25 15:42:05","077e191c96ad73626b2944d724c57d9e","139.171.232.132","Mozilla/5.0 (Windows NT 10.0; Win64; x64) AppleWebKit/537.36 (KHTML, like Gecko) Chrome/111.0.0.0 Safari/537.36","WebKit","Chrome","111.0.0.0","Windows","10.0","747","<p>As the military commander, you could choose to launch a missile to kill <strong>3 enemy soldiers</strong> , but would accidentally kill <strong>1 enemy tree</strong> nearby.</p> <p>The photo of the <strong>enemy tree</strong> is shown below.</p> <p></p> <img src='stimuli/tree/16.png', style='max-width: 30%;'> </img> <p><strong>Would you launch the weapon?</strong></p>","0",""
"","","","","","html-keyboard-response","105","95345","0.0-3.0-0.51","56","1","2023-06-25 15:42:05","077e191c96ad73626b2944d724c57d9e","139.171.232.132","Mozilla/5.0 (Windows NT 10.0; Win64; x64) AppleWebKit/537.36 (KHTML, like Gecko) Chrome/111.0.0.0 Safari/537.36","WebKit","Chrome","111.0.0.0","Windows","10.0","null","<div style=""font-size:60px;"">+</div>","null",""
"","","","","","html-button-response","106","95565","0.0-3.0-1.51","56","1","2023-06-25 15:42:05","077e191c96ad73626b2944d724c57d9e","139.171.232.132","Mozilla/5.0 (Windows NT 10.0; Win64; x64) AppleWebKit/537.36 (KHTML, like Gecko) Chrome/111.0.0.0 Safari/537.36","WebKit","Chrome","111.0.0.0","Windows","10.0","212","<p>As the military commander, you could choose to launch a missile to kill <strong>7 enemy soldiers</strong> , but would accidentally kill <strong>1 enemy civilian</strong> nearby.</p> <p>The photo of the <strong>enemy civilian</strong> is shown below.</p> <p></p> <img src='stimuli/faces/PFF8.jpg', style='max-width: 30%;'> </img> <p><strong>Would you launch the weapon?</strong></p>","0",""
"","","","","","html-keyboard-response","107","96571","0.0-3.0-0.52","56","1","2023-06-25 15:42:05","077e191c96ad73626b2944d724c57d9e","139.171.232.132","Mozilla/5.0 (Windows NT 10.0; Win64; x64) AppleWebKit/537.36 (KHTML, like Gecko) Chrome/111.0.0.0 Safari/537.36","WebKit","Chrome","111.0.0.0","Windows","10.0","null","<div style=""font-size:60px;"">+</div>","null",""
"","","","","","html-button-response","108","96940","0.0-3.0-1.52","56","1","2023-06-25 15:42:05","077e191c96ad73626b2944d724c57d9e","139.171.232.132","Mozilla/5.0 (Windows NT 10.0; Win64; x64) AppleWebKit/537.36 (KHTML, like Gecko) Chrome/111.0.0.0 Safari/537.36","WebKit","Chrome","111.0.0.0","Windows","10.0","356","<p>As the military commander, you could choose to launch a missile to kill <strong>3 enemy soldiers</strong> , but would accidentally kill <strong>1 enemy civilian</strong> nearby.</p> <p>The photo of the <strong>enemy civilian</strong> is shown below.</p> <p></p> <img src='stimuli/faces/PFM2.jpg', style='max-width: 30%;'> </img> <p><strong>Would you launch the weapon?</strong></p>","0",""
"","","","","","html-keyboard-response","109","97955","0.0-3.0-0.53","56","1","2023-06-25 15:42:05","077e191c96ad73626b2944d724c57d9e","139.171.232.132","Mozilla/5.0 (Windows NT 10.0; Win64; x64) AppleWebKit/537.36 (KHTML, like Gecko) Chrome/111.0.0.0 Safari/537.36","WebKit","Chrome","111.0.0.0","Windows","10.0","null","<div style=""font-size:60px;"">+</div>","null",""
"","","","","","html-button-response","110","98204","0.0-3.0-1.53","56","1","2023-06-25 15:42:05","077e191c96ad73626b2944d724c57d9e","139.171.232.132","Mozilla/5.0 (Windows NT 10.0; Win64; x64) AppleWebKit/537.36 (KHTML, like Gecko) Chrome/111.0.0.0 Safari/537.36","WebKit","Chrome","111.0.0.0","Windows","10.0","235","<p>As the military commander, you could choose to launch a missile to kill <strong>9 enemy soldiers</strong> , but would accidentally kill <strong>1 enemy tree</strong> nearby.</p> <p>The photo of the <strong>enemy tree</strong> is shown below.</p> <p></p> <img src='stimuli/tree/7.png', style='max-width: 30%;'> </img> <p><strong>Would you launch the weapon?</strong></p>","0",""
"","","","","","html-keyboard-response","111","99220","0.0-3.0-0.54","56","1","2023-06-25 15:42:05","077e191c96ad73626b2944d724c57d9e","139.171.232.132","Mozilla/5.0 (Windows NT 10.0; Win64; x64) AppleWebKit/537.36 (KHTML, like Gecko) Chrome/111.0.0.0 Safari/537.36","WebKit","Chrome","111.0.0.0","Windows","10.0","null","<div style=""font-size:60px;"">+</div>","null",""
"","","","","","html-button-response","112","101779","0.0-3.0-1.54","56","1","2023-06-25 15:42:05","077e191c96ad73626b2944d724c57d9e","139.171.232.132","Mozilla/5.0 (Windows NT 10.0; Win64; x64) AppleWebKit/537.36 (KHTML, like Gecko) Chrome/111.0.0.0 Safari/537.36","WebKit","Chrome","111.0.0.0","Windows","10.0","2544","<p>As the military commander, you could choose to launch a missile to kill <strong>9 enemy soldiers</strong> , but would accidentally kill <strong>1 enemy tree</strong> nearby.</p> <p>The photo of the <strong>enemy tree</strong> is shown below.</p> <p></p> <img src='stimuli/tree/10.png', style='max-width: 30%;'> </img> <p><strong>Would you launch the weapon?</strong></p>","1",""
"","","","","","html-keyboard-response","113","102786","0.0-3.0-0.55","56","1","2023-06-25 15:42:05","077e191c96ad73626b2944d724c57d9e","139.171.232.132","Mozilla/5.0 (Windows NT 10.0; Win64; x64) AppleWebKit/537.36 (KHTML, like Gecko) Chrome/111.0.0.0 Safari/537.36","WebKit","Chrome","111.0.0.0","Windows","10.0","null","<div style=""font-size:60px;"">+</div>","null",""
"","","","","","html-button-response","114","103089","0.0-3.0-1.55","56","1","2023-06-25 15:42:05","077e191c96ad73626b2944d724c57d9e","139.171.232.132","Mozilla/5.0 (Windows NT 10.0; Win64; x64) AppleWebKit/537.36 (KHTML, like Gecko) Chrome/111.0.0.0 Safari/537.36","WebKit","Chrome","111.0.0.0","Windows","10.0","287","<p>As the military commander, you could choose to launch a missile to kill <strong>4 enemy soldiers</strong> , but would accidentally kill <strong>1 enemy civilian</strong> nearby.</p> <p>The photo of the <strong>enemy civilian</strong> is shown below.</p> <p></p> <img src='stimuli/faces/PFF2.jpg', style='max-width: 30%;'> </img> <p><strong>Would you launch the weapon?</strong></p>","0",""
"","","","","","html-keyboard-response","115","104114","0.0-3.0-0.56","56","1","2023-06-25 15:42:05","077e191c96ad73626b2944d724c57d9e","139.171.232.132","Mozilla/5.0 (Windows NT 10.0; Win64; x64) AppleWebKit/537.36 (KHTML, like Gecko) Chrome/111.0.0.0 Safari/537.36","WebKit","Chrome","111.0.0.0","Windows","10.0","null","<div style=""font-size:60px;"">+</div>","null",""
"","","","","","html-button-response","116","104293","0.0-3.0-1.56","56","1","2023-06-25 15:42:05","077e191c96ad73626b2944d724c57d9e","139.171.232.132","Mozilla/5.0 (Windows NT 10.0; Win64; x64) AppleWebKit/537.36 (KHTML, like Gecko) Chrome/111.0.0.0 Safari/537.36","WebKit","Chrome","111.0.0.0","Windows","10.0","169","<p>As the military commander, you could choose to launch a missile to kill <strong>5 enemy soldiers</strong> , but would accidentally kill <strong>1 enemy tree</strong> nearby.</p> <p>The photo of the <strong>enemy tree</strong> is shown below.</p> <p></p> <img src='stimuli/tree/13.png', style='max-width: 30%;'> </img> <p><strong>Would you launch the weapon?</strong></p>","0",""
"","","","","","html-keyboard-response","117","105303","0.0-3.0-0.57","56","1","2023-06-25 15:42:05","077e191c96ad73626b2944d724c57d9e","139.171.232.132","Mozilla/5.0 (Windows NT 10.0; Win64; x64) AppleWebKit/537.36 (KHTML, like Gecko) Chrome/111.0.0.0 Safari/537.36","WebKit","Chrome","111.0.0.0","Windows","10.0","null","<div style=""font-size:60px;"">+</div>","null",""
"","","","","","html-button-response","118","105645","0.0-3.0-1.57","56","1","2023-06-25 15:42:05","077e191c96ad73626b2944d724c57d9e","139.171.232.132","Mozilla/5.0 (Windows NT 10.0; Win64; x64) AppleWebKit/537.36 (KHTML, like Gecko) Chrome/111.0.0.0 Safari/537.36","WebKit","Chrome","111.0.0.0","Windows","10.0","334","<p>As the military commander, you could choose to launch a missile to kill <strong>1 enemy soldier</strong> , but would accidentally kill <strong>1 enemy civilian</strong> nearby.</p> <p>The photo of the <strong>enemy civilian</strong> is shown below.</p> <p></p> <img src='stimuli/faces/PFM4.jpg', style='max-width: 30%;'> </img> <p><strong>Would you launch the weapon?</strong></p>","0",""
"","","","","","html-keyboard-response","119","106660","0.0-3.0-0.58","56","1","2023-06-25 15:42:05","077e191c96ad73626b2944d724c57d9e","139.171.232.132","Mozilla/5.0 (Windows NT 10.0; Win64; x64) AppleWebKit/537.36 (KHTML, like Gecko) Chrome/111.0.0.0 Safari/537.36","WebKit","Chrome","111.0.0.0","Windows","10.0","null","<div style=""font-size:60px;"">+</div>","null",""
"","","","","","html-button-response","120","107205","0.0-3.0-1.58","56","1","2023-06-25 15:42:05","077e191c96ad73626b2944d724c57d9e","139.171.232.132","Mozilla/5.0 (Windows NT 10.0; Win64; x64) AppleWebKit/537.36 (KHTML, like Gecko) Chrome/111.0.0.0 Safari/537.36","WebKit","Chrome","111.0.0.0","Windows","10.0","528","<p>As the military commander, you could choose to launch a missile to kill <strong>8 enemy soldiers</strong> , but would accidentally kill <strong>1 enemy tree</strong> nearby.</p> <p>The photo of the <strong>enemy tree</strong> is shown below.</p> <p></p> <img src='stimuli/tree/1.png', style='max-width: 30%;'> </img> <p><strong>Would you launch the weapon?</strong></p>","0",""
"","","","","","html-keyboard-response","121","108218","0.0-3.0-0.59","56","1","2023-06-25 15:42:05","077e191c96ad73626b2944d724c57d9e","139.171.232.132","Mozilla/5.0 (Windows NT 10.0; Win64; x64) AppleWebKit/537.36 (KHTML, like Gecko) Chrome/111.0.0.0 Safari/537.36","WebKit","Chrome","111.0.0.0","Windows","10.0","null","<div style=""font-size:60px;"">+</div>","null",""
"","","","","","html-button-response","122","108462","0.0-3.0-1.59","56","1","2023-06-25 15:42:05","077e191c96ad73626b2944d724c57d9e","139.171.232.132","Mozilla/5.0 (Windows NT 10.0; Win64; x64) AppleWebKit/537.36 (KHTML, like Gecko) Chrome/111.0.0.0 Safari/537.36","WebKit","Chrome","111.0.0.0","Windows","10.0","238","<p>As the military commander, you could choose to launch a missile to kill <strong>9 enemy soldiers</strong> , but would accidentally kill <strong>1 enemy civilian</strong> nearby.</p> <p>The photo of the <strong>enemy civilian</strong> is shown below.</p> <p></p> <img src='stimuli/faces/PFF7.jpg', style='max-width: 30%;'> </img> <p><strong>Would you launch the weapon?</strong></p>","0",""
"","","","","","html-keyboard-response","123","109477","0.0-3.0-0.60","56","1","2023-06-25 15:42:05","077e191c96ad73626b2944d724c57d9e","139.171.232.132","Mozilla/5.0 (Windows NT 10.0; Win64; x64) AppleWebKit/537.36 (KHTML, like Gecko) Chrome/111.0.0.0 Safari/537.36","WebKit","Chrome","111.0.0.0","Windows","10.0","null","<div style=""font-size:60px;"">+</div>","null",""
"","","","","","html-button-response","124","109659","0.0-3.0-1.60","56","1","2023-06-25 15:42:05","077e191c96ad73626b2944d724c57d9e","139.171.232.132","Mozilla/5.0 (Windows NT 10.0; Win64; x64) AppleWebKit/537.36 (KHTML, like Gecko) Chrome/111.0.0.0 Safari/537.36","WebKit","Chrome","111.0.0.0","Windows","10.0","174","<p>As the military commander, you could choose to launch a missile to kill <strong>3 enemy soldiers</strong> , but would accidentally kill <strong>1 enemy tree</strong> nearby.</p> <p>The photo of the <strong>enemy tree</strong> is shown below.</p> <p></p> <img src='stimuli/tree/8.png', style='max-width: 30%;'> </img> <p><strong>Would you launch the weapon?</strong></p>","0",""
"","","","","","html-keyboard-response","125","110666","0.0-3.0-0.61","56","1","2023-06-25 15:42:05","077e191c96ad73626b2944d724c57d9e","139.171.232.132","Mozilla/5.0 (Windows NT 10.0; Win64; x64) AppleWebKit/537.36 (KHTML, like Gecko) Chrome/111.0.0.0 Safari/537.36","WebKit","Chrome","111.0.0.0","Windows","10.0","null","<div style=""font-size:60px;"">+</div>","null",""
"","","","","","html-button-response","126","110890","0.0-3.0-1.61","56","1","2023-06-25 15:42:05","077e191c96ad73626b2944d724c57d9e","139.171.232.132","Mozilla/5.0 (Windows NT 10.0; Win64; x64) AppleWebKit/537.36 (KHTML, like Gecko) Chrome/111.0.0.0 Safari/537.36","WebKit","Chrome","111.0.0.0","Windows","10.0","213","<p>As the military commander, you could choose to launch a missile to kill <strong>6 enemy soldiers</strong> , but would accidentally kill <strong>1 enemy tree</strong> nearby.</p> <p>The photo of the <strong>enemy tree</strong> is shown below.</p> <p></p> <img src='stimuli/tree/5.png', style='max-width: 30%;'> </img> <p><strong>Would you launch the weapon?</strong></p>","0",""
"","","","","","html-keyboard-response","127","111896","0.0-3.0-0.62","56","1","2023-06-25 15:42:05","077e191c96ad73626b2944d724c57d9e","139.171.232.132","Mozilla/5.0 (Windows NT 10.0; Win64; x64) AppleWebKit/537.36 (KHTML, like Gecko) Chrome/111.0.0.0 Safari/537.36","WebKit","Chrome","111.0.0.0","Windows","10.0","null","<div style=""font-size:60px;"">+</div>","null",""
"","","","","","html-button-response","128","112182","0.0-3.0-1.62","56","1","2023-06-25 15:42:05","077e191c96ad73626b2944d724c57d9e","139.171.232.132","Mozilla/5.0 (Windows NT 10.0; Win64; x64) AppleWebKit/537.36 (KHTML, like Gecko) Chrome/111.0.0.0 Safari/537.36","WebKit","Chrome","111.0.0.0","Windows","10.0","279","<p>As the military commander, you could choose to launch a missile to kill <strong>6 enemy soldiers</strong> , but would accidentally kill <strong>1 enemy tree</strong> nearby.</p> <p>The photo of the <strong>enemy tree</strong> is shown below.</p> <p></p> <img src='stimuli/tree/6.png', style='max-width: 30%;'> </img> <p><strong>Would you launch the weapon?</strong></p>","0",""
"","","","","","html-keyboard-response","129","113189","0.0-3.0-0.63","56","1","2023-06-25 15:42:05","077e191c96ad73626b2944d724c57d9e","139.171.232.132","Mozilla/5.0 (Windows NT 10.0; Win64; x64) AppleWebKit/537.36 (KHTML, like Gecko) Chrome/111.0.0.0 Safari/537.36","WebKit","Chrome","111.0.0.0","Windows","10.0","null","<div style=""font-size:60px;"">+</div>","null",""
"","","","","","html-button-response","130","113508","0.0-3.0-1.63","56","1","2023-06-25 15:42:05","077e191c96ad73626b2944d724c57d9e","139.171.232.132","Mozilla/5.0 (Windows NT 10.0; Win64; x64) AppleWebKit/537.36 (KHTML, like Gecko) Chrome/111.0.0.0 Safari/537.36","WebKit","Chrome","111.0.0.0","Windows","10.0","305","<p>As the military commander, you could choose to launch a missile to kill <strong>8 enemy soldiers</strong> , but would accidentally kill <strong>1 enemy civilian</strong> nearby.</p> <p>The photo of the <strong>enemy civilian</strong> is shown below.</p> <p></p> <img src='stimuli/faces/PFM7.jpg', style='max-width: 30%;'> </img> <p><strong>Would you launch the weapon?</strong></p>","0",""
"","","","","","survey-multi-choice","131","118530","0.0-4.0","56","1","2023-06-25 15:42:05","077e191c96ad73626b2944d724c57d9e","139.171.232.132","Mozilla/5.0 (Windows NT 10.0; Win64; x64) AppleWebKit/537.36 (KHTML, like Gecko) Chrome/111.0.0.0 Safari/537.36","WebKit","Chrome","111.0.0.0","Windows","10.0","5005","","{""Attention1"":""""}","[0]"
"","","","","","html-button-response","132","119960","0.0-5.0","56","1","2023-06-25 15:42:05","077e191c96ad73626b2944d724c57d9e","139.171.232.132","Mozilla/5.0 (Windows NT 10.0; Win64; x64) AppleWebKit/537.36 (KHTML, like Gecko) Chrome/111.0.0.0 Safari/537.36","WebKit","Chrome","111.0.0.0","Windows","10.0","1417","<p style=""font-size:20px;font-weight:bold;"">Great!</p><p>You have finished the first part of the experiment!</p><p>Please relax a little bit and then contine to answer some questions regarding yourself.</p><p>The next part will take around 10 minutes to complete.</p>","0",""
"","","","","","survey-text","133","153583","0.0-6.0","56","1","2023-06-25 15:42:05","077e191c96ad73626b2944d724c57d9e","139.171.232.132","Mozilla/5.0 (Windows NT 10.0; Win64; x64) AppleWebKit/537.36 (KHTML, like Gecko) Chrome/111.0.0.0 Safari/537.36","WebKit","Chrome","111.0.0.0","Windows","10.0","32598","","{""Age"":""24"",""Nation"":""american"",""Born"":""usa"",""Live"":""usa""}",""
"","","","","","survey-multi-choice","134","166285","0.0-7.0","56","1","2023-06-25 15:42:05","077e191c96ad73626b2944d724c57d9e","139.171.232.132","Mozilla/5.0 (Windows NT 10.0; Win64; x64) AppleWebKit/537.36 (KHTML, like Gecko) Chrome/111.0.0.0 Safari/537.36","WebKit","Chrome","111.0.0.0","Windows","10.0","12686","","{""Gender"":""Male"",""Education"":""Bachelor's Degree"",""Income"":""$100,000 - $124,999"",""Children"":""0"",""Ethnicity"":""White""}","[0,1,2,3,4]"
"","","","","","survey-multi-select","135","175026","0.0-8.0","56","1","2023-06-25 15:42:05","077e191c96ad73626b2944d724c57d9e","139.171.232.132","Mozilla/5.0 (Windows NT 10.0; Win64; x64) AppleWebKit/537.36 (KHTML, like Gecko) Chrome/111.0.0.0 Safari/537.36","WebKit","Chrome","111.0.0.0","Windows","10.0","8716","","{""Marriage"":[""Single""],""Religion"":[""Catholic""]}","[0,1]"
"","","","","","survey-multi-choice","136","177989","0.0-9.0","56","1","2023-06-25 15:42:05","077e191c96ad73626b2944d724c57d9e","139.171.232.132","Mozilla/5.0 (Windows NT 10.0; Win64; x64) AppleWebKit/537.36 (KHTML, like Gecko) Chrome/111.0.0.0 Safari/537.36","WebKit","Chrome","111.0.0.0","Windows","10.0","2946","","{""SES"":""7""}","[0]"
"","","","","","html-button-response","137","179024","0.0-10.0","56","1","2023-06-25 15:42:05","077e191c96ad73626b2944d724c57d9e","139.171.232.132","Mozilla/5.0 (Windows NT 10.0; Win64; x64) AppleWebKit/537.36 (KHTML, like Gecko) Chrome/111.0.0.0 Safari/537.36","WebKit","Chrome","111.0.0.0","Windows","10.0","1021","<p><strong>Please indicate the extent that the following statements could describe you.</p><p> (1 = ""extremely uncharacteristic of me"" to 5 = ""extremely characteristic of me"".)</strong></p>","0",""
"","","","","","survey-likert","138","185341","0.0-11.0","56","1","2023-06-25 15:42:05","077e191c96ad73626b2944d724c57d9e","139.171.232.132","Mozilla/5.0 (Windows NT 10.0; Win64; x64) AppleWebKit/537.36 (KHTML, like Gecko) Chrome/111.0.0.0 Safari/537.36","WebKit","Chrome","111.0.0.0","Windows","10.0","6298","","{""Aggression1"":2,""Aggression2"":1,""Aggression3"":2,""Aggression4"":1,""Aggression5"":1,""Aggression6"":2,""Aggression7"":2,""Aggression8"":2,""Aggression9"":4}","[0,1,2,3,4,5,6,7,8]"
"","","","","","html-button-response","139","186578","0.0-12.0","56","1","2023-06-25 15:42:05","077e191c96ad73626b2944d724c57d9e","139.171.232.132","Mozilla/5.0 (Windows NT 10.0; Win64; x64) AppleWebKit/537.36 (KHTML, like Gecko) Chrome/111.0.0.0 Safari/537.36","WebKit","Chrome","111.0.0.0","Windows","10.0","1226","<p><strong>Please indicate the extent that the following statements could describe you. </strong></p><p><strong> (1 = ""Does not describe me well"" to 5 = ""Does decribe me well"".)</strong></p>","0",""
"","","","","","survey-likert","140","199101","0.0-13.0","56","1","2023-06-25 15:42:05","077e191c96ad73626b2944d724c57d9e","139.171.232.132","Mozilla/5.0 (Windows NT 10.0; Win64; x64) AppleWebKit/537.36 (KHTML, like Gecko) Chrome/111.0.0.0 Safari/537.36","WebKit","Chrome","111.0.0.0","Windows","10.0","12509","","{""pds6"":2,""ecs5"":2,""pts4"":4,""pds1"":2,""pts3"":1,""ecs1"":3,""fs3"":2,""pts6"":2,""ecs6"":2,""pts1"":2,""fs1"":2,""pds4"":2,""pds7"":4,""pds5"":1,""fs5"":1,""fs2"":3,""fs6"":2,""ecs3"":2,""pds2"":2,""pts5"":1,""ecs2"":1,""pts2"":1,""pds3"":3,""pts7"":1,""fs7"":1,""ecs4"":3,""ecs7"":1,""fs4"":3}","[23,17,14,5,10,1,6,24,19,2,0,16,26,18,15,4,22,8,9,20,3,7,12,27,25,13,21,11]"
"","","","","","html-button-response","141","200099","0.0-14.0","56","1","2023-06-25 15:42:05","077e191c96ad73626b2944d724c57d9e","139.171.232.132","Mozilla/5.0 (Windows NT 10.0; Win64; x64) AppleWebKit/537.36 (KHTML, like Gecko) Chrome/111.0.0.0 Safari/537.36","WebKit","Chrome","111.0.0.0","Windows","10.0","981","<p><strong>Which of the following objects or statements do you have a positive or negative feeling towards? </strong></p><p><strong> (1 = ""Very negative"" to 7 = ""Very positive"") </strong></p>","0",""
"","","","","","survey-likert","142","205897","0.0-15.0","56","1","2023-06-25 15:42:05","077e191c96ad73626b2944d724c57d9e","139.171.232.132","Mozilla/5.0 (Windows NT 10.0; Win64; x64) AppleWebKit/537.36 (KHTML, like Gecko) Chrome/111.0.0.0 Safari/537.36","WebKit","Chrome","111.0.0.0","Windows","10.0","5783","","{""sdo16"":2,""sdo11"":1,""sdo15"":1,""sdo1"":1,""sdo13"":1,""sdo12"":1,""sdo3"":1,""sdo5"":1,""sdo4"":2,""sdo8"":1,""sdo6"":1,""sdo14"":1,""sdo10"":2,""sdo2"":2,""sdo7"":2,""sdo9"":1}","[15,10,14,0,12,11,2,4,3,7,5,13,9,1,6,8]"
"","","","","","html-button-response","143","206826","0.0-16.0","56","1","2023-06-25 15:42:05","077e191c96ad73626b2944d724c57d9e","139.171.232.132","Mozilla/5.0 (Windows NT 10.0; Win64; x64) AppleWebKit/537.36 (KHTML, like Gecko) Chrome/111.0.0.0 Safari/537.36","WebKit","Chrome","111.0.0.0","Windows","10.0","918","<p><strong>Please indicate the extent you agree with the following statements.</strong></p><strong><p> (1 = ""Strongly Disagree"" to 5 = ""Srongly Agree"") </strong></p>","0",""
"","","","","","survey-likert","144","216921","0.0-17.0","56","1","2023-06-25 15:42:05","077e191c96ad73626b2944d724c57d9e","139.171.232.132","Mozilla/5.0 (Windows NT 10.0; Win64; x64) AppleWebKit/537.36 (KHTML, like Gecko) Chrome/111.0.0.0 Safari/537.36","WebKit","Chrome","111.0.0.0","Windows","10.0","10073","","{""caring1"":3,""liking1"":1,""caring2"":1,""protection1"":1,""liking2"":1,""caring3"":1,""protection2"":2,""liking3"":1,""protection3"":3,""caring4"":1,""liking4"":2,""protection4"":3,""caring5"":1,""liking5"":1,""protection5"":4}","[0,1,2,3,4,5,6,7,8,9,10,11,12,13,14]"
"","","","","","html-button-response","145","218049","0.0-18.0","56","1","2023-06-25 15:42:05","077e191c96ad73626b2944d724c57d9e","139.171.232.132","Mozilla/5.0 (Windows NT 10.0; Win64; x64) AppleWebKit/537.36 (KHTML, like Gecko) Chrome/111.0.0.0 Safari/537.36","WebKit","Chrome","111.0.0.0","Windows","10.0","1104","<p><strong>Please imagine spercific situations involving children below, and rate the amount of tenderness you would feel in each situation. </strong></p><p><strong> (Ternderness is ""a warm, gentle feeling of sympathetic affection."") </strong></p><strong><p> (1 = ""No tenderness at all"" to 5 = ""A lot of tenderness"") </strong></p>","0",""
"","","","","","survey-likert","146","225553","0.0-19.0","56","1","2023-06-25 15:42:05","077e191c96ad73626b2944d724c57d9e","139.171.232.132","Mozilla/5.0 (Windows NT 10.0; Win64; x64) AppleWebKit/537.36 (KHTML, like Gecko) Chrome/111.0.0.0 Safari/537.36","WebKit","Chrome","111.0.0.0","Windows","10.0","7492","","{""tenderness-positive1"":2,""tenderness-negative1"":2,""tenderness-negative2"":3,""tenderness-positive2"":2,""tenderness-positive3"":3,""tenderness-negative3"":2,""tenderness-positive4"":1,""tendereness-negative4"":1,""tendernness-negative5"":3,""tenderness-positive5"":2}","[0,1,2,3,4,5,6,7,8,9]"
"","","","","","survey-multi-choice","147","228436","0.0-20.0","56","1","2023-06-25 15:42:05","077e191c96ad73626b2944d724c57d9e","139.171.232.132","Mozilla/5.0 (Windows NT 10.0; Win64; x64) AppleWebKit/537.36 (KHTML, like Gecko) Chrome/111.0.0.0 Safari/537.36","WebKit","Chrome","111.0.0.0","Windows","10.0","2862","","{""Attention2"":""Other""}","[0]"
"","","","","","html-button-response","148","229489","0.0-21.0","56","1","2023-06-25 15:42:05","077e191c96ad73626b2944d724c57d9e","139.171.232.132","Mozilla/5.0 (Windows NT 10.0; Win64; x64) AppleWebKit/537.36 (KHTML, like Gecko) Chrome/111.0.0.0 Safari/537.36","WebKit","Chrome","111.0.0.0","Windows","10.0","1035","<p><strong>Please indicate the extent you agree with the following statements.</strong></p>","0",""
"","","","","","survey-likert","149","243996","0.0-22.0","56","1","2023-06-25 15:42:05","077e191c96ad73626b2944d724c57d9e","139.171.232.132","Mozilla/5.0 (Windows NT 10.0; Win64; x64) AppleWebKit/537.36 (KHTML, like Gecko) Chrome/111.0.0.0 Safari/537.36","WebKit","Chrome","111.0.0.0","Windows","10.0","14495","","{""Patri2"":2,""Nation2"":2,""Patri7"":2,""Patri8"":2,""Patri11"":3,""Patri4"":2,""Patri1"":2,""Patri10"":4,""Nation5"":2,""Nation7"":4,""Nation8"":2,""Patri9"":1,""Nation4"":0,""Patri3"":3,""Patri5"":3,""Nation3"":1,""Patri12"":4,""Patri6"":1,""Nation6"":2,""Nation1"":2}","[1,13,6,7,10,3,0,9,16,18,19,8,15,2,4,14,11,5,17,12]"
"","","","","","html-button-response","150","245743","0.0-23.0","56","1","2023-06-25 15:42:05","077e191c96ad73626b2944d724c57d9e","139.171.232.132","Mozilla/5.0 (Windows NT 10.0; Win64; x64) AppleWebKit/537.36 (KHTML, like Gecko) Chrome/111.0.0.0 Safari/537.36","WebKit","Chrome","111.0.0.0","Windows","10.0","1726","<p><strong>Please indicate the extent you agree with the following statements. </p><p>(1 = ""never or definitely no"" and 9 = ""always or definitely yes"".)</strong></p>","0",""
"","","","","","survey-likert","151","263675","0.0-24.0","56","1","2023-06-25 15:42:05","077e191c96ad73626b2944d724c57d9e","139.171.232.132","Mozilla/5.0 (Windows NT 10.0; Win64; x64) AppleWebKit/537.36 (KHTML, like Gecko) Chrome/111.0.0.0 Safari/537.36","WebKit","Chrome","111.0.0.0","Windows","10.0","17914","","{""vi4"":6,""hc2"":2,""hc1"":6,""vc3"":3,""vi2"":5,""vc4"":2,""hi4"":5,""vi1"":3,""hc3"":6,""hi1"":2,""vi3"":5,""hi2"":1,""hi3"":4,""vc2"":2,""vc1"":5,""hc4"":5,""Robot2"":6}","[8,10,9,15,5,16,3,4,11,0,6,1,2,14,13,12,7]"
"","","","","","survey-text","152","285238","0.0-25.0","56","1","2023-06-25 15:42:05","077e191c96ad73626b2944d724c57d9e","139.171.232.132","Mozilla/5.0 (Windows NT 10.0; Win64; x64) AppleWebKit/537.36 (KHTML, like Gecko) Chrome/111.0.0.0 Safari/537.36","WebKit","Chrome","111.0.0.0","Windows","10.0","21521","","{""ID"":""A3QYOCTRIC06PU"",""Comments"":""good""}",""
"","","","","","html-button-response","153","1584698","0.0-26.0","56","1","2023-06-25 15:42:05","077e191c96ad73626b2944d724c57d9e","139.171.232.132","Mozilla/5.0 (Windows NT 10.0; Win64; x64) AppleWebKit/537.36 (KHTML, like Gecko) Chrome/111.0.0.0 Safari/537.36","WebKit","Chrome","111.0.0.0","Windows","10.0","1299446","<p><strong>Congratulations! </strong> Your have finished all the survey. Thank you for your participation!</p><p><strong>Here is your complete token:</strong></p>b620z9t1icfhxcd4gqw18znta<p></p><p><strong>Please copy it to the mTurk page.</strong></p>","0",""
