"success","timeout","failed_images","failed_audio","failed_video","trial_type","trial_index","time_elapsed","internal_node_id","run_id","condition","recorded_at","source_code_version","ip","user_agent","device","browser","browser_version","platform","platform_version","rt","stimulus","response","question_order"
"true","false","[]","[]","[]","preload","0","5570","0.0-0.0","57","1","2023-06-25 15:42:20","077e191c96ad73626b2944d724c57d9e","192.126.189.181","Mozilla/5.0 (Windows NT 10.0; Win64; x64) AppleWebKit/537.36 (KHTML, like Gecko) Chrome/114.0.0.0 Safari/537.36","WebKit","Chrome","114.0.0.0","Windows","10.0","","","",""
"true","","","","","fullscreen","1","11091","0.0-1.0","57","1","2023-06-25 15:42:20","077e191c96ad73626b2944d724c57d9e","192.126.189.181","Mozilla/5.0 (Windows NT 10.0; Win64; x64) AppleWebKit/537.36 (KHTML, like Gecko) Chrome/114.0.0.0 Safari/537.36","WebKit","Chrome","114.0.0.0","Windows","10.0","","","",""
"","","","","","html-button-response","2","14136","0.0-2.0","57","1","2023-06-25 15:42:20","077e191c96ad73626b2944d724c57d9e","192.126.189.181","Mozilla/5.0 (Windows NT 10.0; Win64; x64) AppleWebKit/537.36 (KHTML, like Gecko) Chrome/114.0.0.0 Safari/537.36","WebKit","Chrome","114.0.0.0","Windows","10.0","3043","<p ><strong>Welcome to the experiment!</strong></p><p ><strong>In the first task, please imagine:</strong></p><p>Your country is involved in a military conflict with another country.</p><p>You are the commander of your army and must make decisions in the conflict.</p><p>Specifically, as the military commander, you must decide whether to launch a missile to strike enemy.</p><p>You will face a series of scenarios. Please read each scenario carefully and make a decision.</p><p>The task will take around 10 minutes to complete.</p><p><strong>Please pay your attention during the experiment.</strong></p>","0",""
"","","","","","html-keyboard-response","3","15138","0.0-3.0-0.0","57","1","2023-06-25 15:42:20","077e191c96ad73626b2944d724c57d9e","192.126.189.181","Mozilla/5.0 (Windows NT 10.0; Win64; x64) AppleWebKit/537.36 (KHTML, like Gecko) Chrome/114.0.0.0 Safari/537.36","WebKit","Chrome","114.0.0.0","Windows","10.0","null","<div style=""font-size:60px;"">+</div>","null",""
"","","","","","html-button-response","4","16536","0.0-3.0-1.0","57","1","2023-06-25 15:42:20","077e191c96ad73626b2944d724c57d9e","192.126.189.181","Mozilla/5.0 (Windows NT 10.0; Win64; x64) AppleWebKit/537.36 (KHTML, like Gecko) Chrome/114.0.0.0 Safari/537.36","WebKit","Chrome","114.0.0.0","Windows","10.0","1396","<p>As the military commander, you could choose to launch a missile to kill <strong>5 enemy soldiers</strong> , but would accidentally kill <strong>1 enemy civilian</strong> nearby.</p> <p>The photo of the <strong>enemy civilian</strong> is shown below.</p> <p></p> <img src='stimuli/faces/PFF3.jpg', style='max-width: 30%;'> </img> <p><strong>Would you launch the weapon?</strong></p>","0",""
"","","","","","html-keyboard-response","5","17539","0.0-3.0-0.1","57","1","2023-06-25 15:42:20","077e191c96ad73626b2944d724c57d9e","192.126.189.181","Mozilla/5.0 (Windows NT 10.0; Win64; x64) AppleWebKit/537.36 (KHTML, like Gecko) Chrome/114.0.0.0 Safari/537.36","WebKit","Chrome","114.0.0.0","Windows","10.0","null","<div style=""font-size:60px;"">+</div>","null",""
"","","","","","html-button-response","6","17783","0.0-3.0-1.1","57","1","2023-06-25 15:42:20","077e191c96ad73626b2944d724c57d9e","192.126.189.181","Mozilla/5.0 (Windows NT 10.0; Win64; x64) AppleWebKit/537.36 (KHTML, like Gecko) Chrome/114.0.0.0 Safari/537.36","WebKit","Chrome","114.0.0.0","Windows","10.0","242","<p>As the military commander, you could choose to launch a missile to kill <strong>7 enemy soldiers</strong> , but would accidentally kill <strong>1 enemy tree</strong> nearby.</p> <p>The photo of the <strong>enemy tree</strong> is shown below.</p> <p></p> <img src='stimuli/tree/2.png', style='max-width: 30%;'> </img> <p><strong>Would you launch the weapon?</strong></p>","0",""
"","","","","","html-keyboard-response","7","18786","0.0-3.0-0.2","57","1","2023-06-25 15:42:20","077e191c96ad73626b2944d724c57d9e","192.126.189.181","Mozilla/5.0 (Windows NT 10.0; Win64; x64) AppleWebKit/537.36 (KHTML, like Gecko) Chrome/114.0.0.0 Safari/537.36","WebKit","Chrome","114.0.0.0","Windows","10.0","null","<div style=""font-size:60px;"">+</div>","null",""
"","","","","","html-button-response","8","18872","0.0-3.0-1.2","57","1","2023-06-25 15:42:20","077e191c96ad73626b2944d724c57d9e","192.126.189.181","Mozilla/5.0 (Windows NT 10.0; Win64; x64) AppleWebKit/537.36 (KHTML, like Gecko) Chrome/114.0.0.0 Safari/537.36","WebKit","Chrome","114.0.0.0","Windows","10.0","84","<p>As the military commander, you could choose to launch a missile to kill <strong>2 enemy soldiers</strong> , but would accidentally kill <strong>1 enemy tree</strong> nearby.</p> <p>The photo of the <strong>enemy tree</strong> is shown below.</p> <p></p> <img src='stimuli/tree/12.png', style='max-width: 30%;'> </img> <p><strong>Would you launch the weapon?</strong></p>","0",""
"","","","","","html-keyboard-response","9","19875","0.0-3.0-0.3","57","1","2023-06-25 15:42:20","077e191c96ad73626b2944d724c57d9e","192.126.189.181","Mozilla/5.0 (Windows NT 10.0; Win64; x64) AppleWebKit/537.36 (KHTML, like Gecko) Chrome/114.0.0.0 Safari/537.36","WebKit","Chrome","114.0.0.0","Windows","10.0","null","<div style=""font-size:60px;"">+</div>","null",""
"","","","","","html-button-response","10","20200","0.0-3.0-1.3","57","1","2023-06-25 15:42:20","077e191c96ad73626b2944d724c57d9e","192.126.189.181","Mozilla/5.0 (Windows NT 10.0; Win64; x64) AppleWebKit/537.36 (KHTML, like Gecko) Chrome/114.0.0.0 Safari/537.36","WebKit","Chrome","114.0.0.0","Windows","10.0","322","<p>As the military commander, you could choose to launch a missile to kill <strong>7 enemy soldiers</strong> , but would accidentally kill <strong>1 enemy tree</strong> nearby.</p> <p>The photo of the <strong>enemy tree</strong> is shown below.</p> <p></p> <img src='stimuli/tree/9.png', style='max-width: 30%;'> </img> <p><strong>Would you launch the weapon?</strong></p>","0",""
"","","","","","html-keyboard-response","11","21202","0.0-3.0-0.4","57","1","2023-06-25 15:42:20","077e191c96ad73626b2944d724c57d9e","192.126.189.181","Mozilla/5.0 (Windows NT 10.0; Win64; x64) AppleWebKit/537.36 (KHTML, like Gecko) Chrome/114.0.0.0 Safari/537.36","WebKit","Chrome","114.0.0.0","Windows","10.0","null","<div style=""font-size:60px;"">+</div>","null",""
"","","","","","html-button-response","12","21327","0.0-3.0-1.4","57","1","2023-06-25 15:42:20","077e191c96ad73626b2944d724c57d9e","192.126.189.181","Mozilla/5.0 (Windows NT 10.0; Win64; x64) AppleWebKit/537.36 (KHTML, like Gecko) Chrome/114.0.0.0 Safari/537.36","WebKit","Chrome","114.0.0.0","Windows","10.0","123","<p>As the military commander, you could choose to launch a missile to kill <strong>5 enemy soldiers</strong> , but would accidentally kill <strong>1 enemy tree</strong> nearby.</p> <p>The photo of the <strong>enemy tree</strong> is shown below.</p> <p></p> <img src='stimuli/tree/11.png', style='max-width: 30%;'> </img> <p><strong>Would you launch the weapon?</strong></p>","0",""
"","","","","","html-keyboard-response","13","22330","0.0-3.0-0.5","57","1","2023-06-25 15:42:20","077e191c96ad73626b2944d724c57d9e","192.126.189.181","Mozilla/5.0 (Windows NT 10.0; Win64; x64) AppleWebKit/537.36 (KHTML, like Gecko) Chrome/114.0.0.0 Safari/537.36","WebKit","Chrome","114.0.0.0","Windows","10.0","null","<div style=""font-size:60px;"">+</div>","null",""
"","","","","","html-button-response","14","22457","0.0-3.0-1.5","57","1","2023-06-25 15:42:20","077e191c96ad73626b2944d724c57d9e","192.126.189.181","Mozilla/5.0 (Windows NT 10.0; Win64; x64) AppleWebKit/537.36 (KHTML, like Gecko) Chrome/114.0.0.0 Safari/537.36","WebKit","Chrome","114.0.0.0","Windows","10.0","125","<p>As the military commander, you could choose to launch a missile to kill <strong>9 enemy soldiers</strong> , but would accidentally kill <strong>1 enemy civilian</strong> nearby.</p> <p>The photo of the <strong>enemy civilian</strong> is shown below.</p> <p></p> <img src='stimuli/faces/PFM6.jpg', style='max-width: 30%;'> </img> <p><strong>Would you launch the weapon?</strong></p>","0",""
"","","","","","html-keyboard-response","15","23460","0.0-3.0-0.6","57","1","2023-06-25 15:42:20","077e191c96ad73626b2944d724c57d9e","192.126.189.181","Mozilla/5.0 (Windows NT 10.0; Win64; x64) AppleWebKit/537.36 (KHTML, like Gecko) Chrome/114.0.0.0 Safari/537.36","WebKit","Chrome","114.0.0.0","Windows","10.0","null","<div style=""font-size:60px;"">+</div>","null",""
"","","","","","html-button-response","16","23655","0.0-3.0-1.6","57","1","2023-06-25 15:42:20","077e191c96ad73626b2944d724c57d9e","192.126.189.181","Mozilla/5.0 (Windows NT 10.0; Win64; x64) AppleWebKit/537.36 (KHTML, like Gecko) Chrome/114.0.0.0 Safari/537.36","WebKit","Chrome","114.0.0.0","Windows","10.0","193","<p>As the military commander, you could choose to launch a missile to kill <strong>6 enemy soldiers</strong> , but would accidentally kill <strong>1 enemy civilian</strong> nearby.</p> <p>The photo of the <strong>enemy civilian</strong> is shown below.</p> <p></p> <img src='stimuli/faces/PFM4.jpg', style='max-width: 30%;'> </img> <p><strong>Would you launch the weapon?</strong></p>","0",""
"","","","","","html-keyboard-response","17","24658","0.0-3.0-0.7","57","1","2023-06-25 15:42:20","077e191c96ad73626b2944d724c57d9e","192.126.189.181","Mozilla/5.0 (Windows NT 10.0; Win64; x64) AppleWebKit/537.36 (KHTML, like Gecko) Chrome/114.0.0.0 Safari/537.36","WebKit","Chrome","114.0.0.0","Windows","10.0","null","<div style=""font-size:60px;"">+</div>","null",""
"","","","","","html-button-response","18","24832","0.0-3.0-1.7","57","1","2023-06-25 15:42:20","077e191c96ad73626b2944d724c57d9e","192.126.189.181","Mozilla/5.0 (Windows NT 10.0; Win64; x64) AppleWebKit/537.36 (KHTML, like Gecko) Chrome/114.0.0.0 Safari/537.36","WebKit","Chrome","114.0.0.0","Windows","10.0","172","<p>As the military commander, you could choose to launch a missile to kill <strong>9 enemy soldiers</strong> , but would accidentally kill <strong>1 enemy tree</strong> nearby.</p> <p>The photo of the <strong>enemy tree</strong> is shown below.</p> <p></p> <img src='stimuli/tree/13.png', style='max-width: 30%;'> </img> <p><strong>Would you launch the weapon?</strong></p>","0",""
"","","","","","html-keyboard-response","19","25835","0.0-3.0-0.8","57","1","2023-06-25 15:42:20","077e191c96ad73626b2944d724c57d9e","192.126.189.181","Mozilla/5.0 (Windows NT 10.0; Win64; x64) AppleWebKit/537.36 (KHTML, like Gecko) Chrome/114.0.0.0 Safari/537.36","WebKit","Chrome","114.0.0.0","Windows","10.0","null","<div style=""font-size:60px;"">+</div>","null",""
"","","","","","html-button-response","20","26055","0.0-3.0-1.8","57","1","2023-06-25 15:42:20","077e191c96ad73626b2944d724c57d9e","192.126.189.181","Mozilla/5.0 (Windows NT 10.0; Win64; x64) AppleWebKit/537.36 (KHTML, like Gecko) Chrome/114.0.0.0 Safari/537.36","WebKit","Chrome","114.0.0.0","Windows","10.0","218","<p>As the military commander, you could choose to launch a missile to kill <strong>7 enemy soldiers</strong> , but would accidentally kill <strong>1 enemy civilian</strong> nearby.</p> <p>The photo of the <strong>enemy civilian</strong> is shown below.</p> <p></p> <img src='stimuli/faces/PFF2.jpg', style='max-width: 30%;'> </img> <p><strong>Would you launch the weapon?</strong></p>","0",""
"","","","","","html-keyboard-response","21","27058","0.0-3.0-0.9","57","1","2023-06-25 15:42:20","077e191c96ad73626b2944d724c57d9e","192.126.189.181","Mozilla/5.0 (Windows NT 10.0; Win64; x64) AppleWebKit/537.36 (KHTML, like Gecko) Chrome/114.0.0.0 Safari/537.36","WebKit","Chrome","114.0.0.0","Windows","10.0","null","<div style=""font-size:60px;"">+</div>","null",""
"","","","","","html-button-response","22","27160","0.0-3.0-1.9","57","1","2023-06-25 15:42:20","077e191c96ad73626b2944d724c57d9e","192.126.189.181","Mozilla/5.0 (Windows NT 10.0; Win64; x64) AppleWebKit/537.36 (KHTML, like Gecko) Chrome/114.0.0.0 Safari/537.36","WebKit","Chrome","114.0.0.0","Windows","10.0","99","<p>As the military commander, you could choose to launch a missile to kill <strong>8 enemy soldiers</strong> , but would accidentally kill <strong>1 enemy civilian</strong> nearby.</p> <p>The photo of the <strong>enemy civilian</strong> is shown below.</p> <p></p> <img src='stimuli/faces/PFM3.jpg', style='max-width: 30%;'> </img> <p><strong>Would you launch the weapon?</strong></p>","0",""
"","","","","","html-keyboard-response","23","28162","0.0-3.0-0.10","57","1","2023-06-25 15:42:20","077e191c96ad73626b2944d724c57d9e","192.126.189.181","Mozilla/5.0 (Windows NT 10.0; Win64; x64) AppleWebKit/537.36 (KHTML, like Gecko) Chrome/114.0.0.0 Safari/537.36","WebKit","Chrome","114.0.0.0","Windows","10.0","null","<div style=""font-size:60px;"">+</div>","null",""
"","","","","","html-button-response","24","28347","0.0-3.0-1.10","57","1","2023-06-25 15:42:20","077e191c96ad73626b2944d724c57d9e","192.126.189.181","Mozilla/5.0 (Windows NT 10.0; Win64; x64) AppleWebKit/537.36 (KHTML, like Gecko) Chrome/114.0.0.0 Safari/537.36","WebKit","Chrome","114.0.0.0","Windows","10.0","182","<p>As the military commander, you could choose to launch a missile to kill <strong>2 enemy soldiers</strong> , but would accidentally kill <strong>1 enemy civilian</strong> nearby.</p> <p>The photo of the <strong>enemy civilian</strong> is shown below.</p> <p></p> <img src='stimuli/faces/PFF2.jpg', style='max-width: 30%;'> </img> <p><strong>Would you launch the weapon?</strong></p>","0",""
"","","","","","html-keyboard-response","25","29350","0.0-3.0-0.11","57","1","2023-06-25 15:42:20","077e191c96ad73626b2944d724c57d9e","192.126.189.181","Mozilla/5.0 (Windows NT 10.0; Win64; x64) AppleWebKit/537.36 (KHTML, like Gecko) Chrome/114.0.0.0 Safari/537.36","WebKit","Chrome","114.0.0.0","Windows","10.0","null","<div style=""font-size:60px;"">+</div>","null",""
"","","","","","html-button-response","26","29639","0.0-3.0-1.11","57","1","2023-06-25 15:42:20","077e191c96ad73626b2944d724c57d9e","192.126.189.181","Mozilla/5.0 (Windows NT 10.0; Win64; x64) AppleWebKit/537.36 (KHTML, like Gecko) Chrome/114.0.0.0 Safari/537.36","WebKit","Chrome","114.0.0.0","Windows","10.0","287","<p>As the military commander, you could choose to launch a missile to kill <strong>4 enemy soldiers</strong> , but would accidentally kill <strong>1 enemy civilian</strong> nearby.</p> <p>The photo of the <strong>enemy civilian</strong> is shown below.</p> <p></p> <img src='stimuli/faces/PFF4.jpg', style='max-width: 30%;'> </img> <p><strong>Would you launch the weapon?</strong></p>","0",""
"","","","","","html-keyboard-response","27","30642","0.0-3.0-0.12","57","1","2023-06-25 15:42:20","077e191c96ad73626b2944d724c57d9e","192.126.189.181","Mozilla/5.0 (Windows NT 10.0; Win64; x64) AppleWebKit/537.36 (KHTML, like Gecko) Chrome/114.0.0.0 Safari/537.36","WebKit","Chrome","114.0.0.0","Windows","10.0","null","<div style=""font-size:60px;"">+</div>","null",""
"","","","","","html-button-response","28","30816","0.0-3.0-1.12","57","1","2023-06-25 15:42:20","077e191c96ad73626b2944d724c57d9e","192.126.189.181","Mozilla/5.0 (Windows NT 10.0; Win64; x64) AppleWebKit/537.36 (KHTML, like Gecko) Chrome/114.0.0.0 Safari/537.36","WebKit","Chrome","114.0.0.0","Windows","10.0","172","<p>As the military commander, you could choose to launch a missile to kill <strong>5 enemy soldiers</strong> , but would accidentally kill <strong>1 enemy civilian</strong> nearby.</p> <p>The photo of the <strong>enemy civilian</strong> is shown below.</p> <p></p> <img src='stimuli/faces/PFF6.jpg', style='max-width: 30%;'> </img> <p><strong>Would you launch the weapon?</strong></p>","0",""
"","","","","","html-keyboard-response","29","31820","0.0-3.0-0.13","57","1","2023-06-25 15:42:20","077e191c96ad73626b2944d724c57d9e","192.126.189.181","Mozilla/5.0 (Windows NT 10.0; Win64; x64) AppleWebKit/537.36 (KHTML, like Gecko) Chrome/114.0.0.0 Safari/537.36","WebKit","Chrome","114.0.0.0","Windows","10.0","null","<div style=""font-size:60px;"">+</div>","null",""
"","","","","","html-button-response","30","32081","0.0-3.0-1.13","57","1","2023-06-25 15:42:20","077e191c96ad73626b2944d724c57d9e","192.126.189.181","Mozilla/5.0 (Windows NT 10.0; Win64; x64) AppleWebKit/537.36 (KHTML, like Gecko) Chrome/114.0.0.0 Safari/537.36","WebKit","Chrome","114.0.0.0","Windows","10.0","258","<p>As the military commander, you could choose to launch a missile to kill <strong>3 enemy soldiers</strong> , but would accidentally kill <strong>1 enemy tree</strong> nearby.</p> <p>The photo of the <strong>enemy tree</strong> is shown below.</p> <p></p> <img src='stimuli/tree/7.png', style='max-width: 30%;'> </img> <p><strong>Would you launch the weapon?</strong></p>","0",""
"","","","","","html-keyboard-response","31","33083","0.0-3.0-0.14","57","1","2023-06-25 15:42:20","077e191c96ad73626b2944d724c57d9e","192.126.189.181","Mozilla/5.0 (Windows NT 10.0; Win64; x64) AppleWebKit/537.36 (KHTML, like Gecko) Chrome/114.0.0.0 Safari/537.36","WebKit","Chrome","114.0.0.0","Windows","10.0","null","<div style=""font-size:60px;"">+</div>","null",""
"","","","","","html-button-response","32","33280","0.0-3.0-1.14","57","1","2023-06-25 15:42:20","077e191c96ad73626b2944d724c57d9e","192.126.189.181","Mozilla/5.0 (Windows NT 10.0; Win64; x64) AppleWebKit/537.36 (KHTML, like Gecko) Chrome/114.0.0.0 Safari/537.36","WebKit","Chrome","114.0.0.0","Windows","10.0","194","<p>As the military commander, you could choose to launch a missile to kill <strong>5 enemy soldiers</strong> , but would accidentally kill <strong>1 enemy civilian</strong> nearby.</p> <p>The photo of the <strong>enemy civilian</strong> is shown below.</p> <p></p> <img src='stimuli/faces/PFM2.jpg', style='max-width: 30%;'> </img> <p><strong>Would you launch the weapon?</strong></p>","0",""
"","","","","","html-keyboard-response","33","34283","0.0-3.0-0.15","57","1","2023-06-25 15:42:20","077e191c96ad73626b2944d724c57d9e","192.126.189.181","Mozilla/5.0 (Windows NT 10.0; Win64; x64) AppleWebKit/537.36 (KHTML, like Gecko) Chrome/114.0.0.0 Safari/537.36","WebKit","Chrome","114.0.0.0","Windows","10.0","null","<div style=""font-size:60px;"">+</div>","null",""
"","","","","","html-button-response","34","34857","0.0-3.0-1.15","57","1","2023-06-25 15:42:20","077e191c96ad73626b2944d724c57d9e","192.126.189.181","Mozilla/5.0 (Windows NT 10.0; Win64; x64) AppleWebKit/537.36 (KHTML, like Gecko) Chrome/114.0.0.0 Safari/537.36","WebKit","Chrome","114.0.0.0","Windows","10.0","570","<p>As the military commander, you could choose to launch a missile to kill <strong>7 enemy soldiers</strong> , but would accidentally kill <strong>1 enemy tree</strong> nearby.</p> <p>The photo of the <strong>enemy tree</strong> is shown below.</p> <p></p> <img src='stimuli/tree/11.png', style='max-width: 30%;'> </img> <p><strong>Would you launch the weapon?</strong></p>","0",""
"","","","","","html-keyboard-response","35","35860","0.0-3.0-0.16","57","1","2023-06-25 15:42:20","077e191c96ad73626b2944d724c57d9e","192.126.189.181","Mozilla/5.0 (Windows NT 10.0; Win64; x64) AppleWebKit/537.36 (KHTML, like Gecko) Chrome/114.0.0.0 Safari/537.36","WebKit","Chrome","114.0.0.0","Windows","10.0","null","<div style=""font-size:60px;"">+</div>","null",""
"","","","","","html-button-response","36","36113","0.0-3.0-1.16","57","1","2023-06-25 15:42:20","077e191c96ad73626b2944d724c57d9e","192.126.189.181","Mozilla/5.0 (Windows NT 10.0; Win64; x64) AppleWebKit/537.36 (KHTML, like Gecko) Chrome/114.0.0.0 Safari/537.36","WebKit","Chrome","114.0.0.0","Windows","10.0","250","<p>As the military commander, you could choose to launch a missile to kill <strong>7 enemy soldiers</strong> , but would accidentally kill <strong>1 enemy tree</strong> nearby.</p> <p>The photo of the <strong>enemy tree</strong> is shown below.</p> <p></p> <img src='stimuli/tree/8.png', style='max-width: 30%;'> </img> <p><strong>Would you launch the weapon?</strong></p>","0",""
"","","","","","html-keyboard-response","37","37116","0.0-3.0-0.17","57","1","2023-06-25 15:42:20","077e191c96ad73626b2944d724c57d9e","192.126.189.181","Mozilla/5.0 (Windows NT 10.0; Win64; x64) AppleWebKit/537.36 (KHTML, like Gecko) Chrome/114.0.0.0 Safari/537.36","WebKit","Chrome","114.0.0.0","Windows","10.0","null","<div style=""font-size:60px;"">+</div>","null",""
"","","","","","html-button-response","38","37350","0.0-3.0-1.17","57","1","2023-06-25 15:42:20","077e191c96ad73626b2944d724c57d9e","192.126.189.181","Mozilla/5.0 (Windows NT 10.0; Win64; x64) AppleWebKit/537.36 (KHTML, like Gecko) Chrome/114.0.0.0 Safari/537.36","WebKit","Chrome","114.0.0.0","Windows","10.0","232","<p>As the military commander, you could choose to launch a missile to kill <strong>2 enemy soldiers</strong> , but would accidentally kill <strong>1 enemy civilian</strong> nearby.</p> <p>The photo of the <strong>enemy civilian</strong> is shown below.</p> <p></p> <img src='stimuli/faces/PFF1.jpg', style='max-width: 30%;'> </img> <p><strong>Would you launch the weapon?</strong></p>","0",""
"","","","","","html-keyboard-response","39","38354","0.0-3.0-0.18","57","1","2023-06-25 15:42:20","077e191c96ad73626b2944d724c57d9e","192.126.189.181","Mozilla/5.0 (Windows NT 10.0; Win64; x64) AppleWebKit/537.36 (KHTML, like Gecko) Chrome/114.0.0.0 Safari/537.36","WebKit","Chrome","114.0.0.0","Windows","10.0","null","<div style=""font-size:60px;"">+</div>","null",""
"","","","","","html-button-response","40","38528","0.0-3.0-1.18","57","1","2023-06-25 15:42:20","077e191c96ad73626b2944d724c57d9e","192.126.189.181","Mozilla/5.0 (Windows NT 10.0; Win64; x64) AppleWebKit/537.36 (KHTML, like Gecko) Chrome/114.0.0.0 Safari/537.36","WebKit","Chrome","114.0.0.0","Windows","10.0","172","<p>As the military commander, you could choose to launch a missile to kill <strong>2 enemy soldiers</strong> , but would accidentally kill <strong>1 enemy tree</strong> nearby.</p> <p>The photo of the <strong>enemy tree</strong> is shown below.</p> <p></p> <img src='stimuli/tree/2.png', style='max-width: 30%;'> </img> <p><strong>Would you launch the weapon?</strong></p>","0",""
"","","","","","html-keyboard-response","41","39531","0.0-3.0-0.19","57","1","2023-06-25 15:42:20","077e191c96ad73626b2944d724c57d9e","192.126.189.181","Mozilla/5.0 (Windows NT 10.0; Win64; x64) AppleWebKit/537.36 (KHTML, like Gecko) Chrome/114.0.0.0 Safari/537.36","WebKit","Chrome","114.0.0.0","Windows","10.0","null","<div style=""font-size:60px;"">+</div>","null",""
"","","","","","html-button-response","42","40439","0.0-3.0-1.19","57","1","2023-06-25 15:42:20","077e191c96ad73626b2944d724c57d9e","192.126.189.181","Mozilla/5.0 (Windows NT 10.0; Win64; x64) AppleWebKit/537.36 (KHTML, like Gecko) Chrome/114.0.0.0 Safari/537.36","WebKit","Chrome","114.0.0.0","Windows","10.0","905","<p>As the military commander, you could choose to launch a missile to kill <strong>8 enemy soldiers</strong> , but would accidentally kill <strong>1 enemy civilian</strong> nearby.</p> <p>The photo of the <strong>enemy civilian</strong> is shown below.</p> <p></p> <img src='stimuli/faces/PFF3.jpg', style='max-width: 30%;'> </img> <p><strong>Would you launch the weapon?</strong></p>","0",""
"","","","","","html-keyboard-response","43","41442","0.0-3.0-0.20","57","1","2023-06-25 15:42:20","077e191c96ad73626b2944d724c57d9e","192.126.189.181","Mozilla/5.0 (Windows NT 10.0; Win64; x64) AppleWebKit/537.36 (KHTML, like Gecko) Chrome/114.0.0.0 Safari/537.36","WebKit","Chrome","114.0.0.0","Windows","10.0","null","<div style=""font-size:60px;"">+</div>","null",""
"","","","","","html-button-response","44","41608","0.0-3.0-1.20","57","1","2023-06-25 15:42:20","077e191c96ad73626b2944d724c57d9e","192.126.189.181","Mozilla/5.0 (Windows NT 10.0; Win64; x64) AppleWebKit/537.36 (KHTML, like Gecko) Chrome/114.0.0.0 Safari/537.36","WebKit","Chrome","114.0.0.0","Windows","10.0","163","<p>As the military commander, you could choose to launch a missile to kill <strong>4 enemy soldiers</strong> , but would accidentally kill <strong>1 enemy tree</strong> nearby.</p> <p>The photo of the <strong>enemy tree</strong> is shown below.</p> <p></p> <img src='stimuli/tree/9.png', style='max-width: 30%;'> </img> <p><strong>Would you launch the weapon?</strong></p>","0",""
"","","","","","html-keyboard-response","45","42610","0.0-3.0-0.21","57","1","2023-06-25 15:42:20","077e191c96ad73626b2944d724c57d9e","192.126.189.181","Mozilla/5.0 (Windows NT 10.0; Win64; x64) AppleWebKit/537.36 (KHTML, like Gecko) Chrome/114.0.0.0 Safari/537.36","WebKit","Chrome","114.0.0.0","Windows","10.0","null","<div style=""font-size:60px;"">+</div>","null",""
"","","","","","html-button-response","46","42889","0.0-3.0-1.21","57","1","2023-06-25 15:42:20","077e191c96ad73626b2944d724c57d9e","192.126.189.181","Mozilla/5.0 (Windows NT 10.0; Win64; x64) AppleWebKit/537.36 (KHTML, like Gecko) Chrome/114.0.0.0 Safari/537.36","WebKit","Chrome","114.0.0.0","Windows","10.0","276","<p>As the military commander, you could choose to launch a missile to kill <strong>4 enemy soldiers</strong> , but would accidentally kill <strong>1 enemy civilian</strong> nearby.</p> <p>The photo of the <strong>enemy civilian</strong> is shown below.</p> <p></p> <img src='stimuli/faces/PFF8.jpg', style='max-width: 30%;'> </img> <p><strong>Would you launch the weapon?</strong></p>","0",""
"","","","","","html-keyboard-response","47","43892","0.0-3.0-0.22","57","1","2023-06-25 15:42:20","077e191c96ad73626b2944d724c57d9e","192.126.189.181","Mozilla/5.0 (Windows NT 10.0; Win64; x64) AppleWebKit/537.36 (KHTML, like Gecko) Chrome/114.0.0.0 Safari/537.36","WebKit","Chrome","114.0.0.0","Windows","10.0","null","<div style=""font-size:60px;"">+</div>","null",""
"","","","","","html-button-response","48","44097","0.0-3.0-1.22","57","1","2023-06-25 15:42:20","077e191c96ad73626b2944d724c57d9e","192.126.189.181","Mozilla/5.0 (Windows NT 10.0; Win64; x64) AppleWebKit/537.36 (KHTML, like Gecko) Chrome/114.0.0.0 Safari/537.36","WebKit","Chrome","114.0.0.0","Windows","10.0","202","<p>As the military commander, you could choose to launch a missile to kill <strong>6 enemy soldiers</strong> , but would accidentally kill <strong>1 enemy tree</strong> nearby.</p> <p>The photo of the <strong>enemy tree</strong> is shown below.</p> <p></p> <img src='stimuli/tree/15.png', style='max-width: 30%;'> </img> <p><strong>Would you launch the weapon?</strong></p>","0",""
"","","","","","html-keyboard-response","49","45101","0.0-3.0-0.23","57","1","2023-06-25 15:42:20","077e191c96ad73626b2944d724c57d9e","192.126.189.181","Mozilla/5.0 (Windows NT 10.0; Win64; x64) AppleWebKit/537.36 (KHTML, like Gecko) Chrome/114.0.0.0 Safari/537.36","WebKit","Chrome","114.0.0.0","Windows","10.0","null","<div style=""font-size:60px;"">+</div>","null",""
"","","","","","html-button-response","50","45256","0.0-3.0-1.23","57","1","2023-06-25 15:42:20","077e191c96ad73626b2944d724c57d9e","192.126.189.181","Mozilla/5.0 (Windows NT 10.0; Win64; x64) AppleWebKit/537.36 (KHTML, like Gecko) Chrome/114.0.0.0 Safari/537.36","WebKit","Chrome","114.0.0.0","Windows","10.0","153","<p>As the military commander, you could choose to launch a missile to kill <strong>3 enemy soldiers</strong> , but would accidentally kill <strong>1 enemy tree</strong> nearby.</p> <p>The photo of the <strong>enemy tree</strong> is shown below.</p> <p></p> <img src='stimuli/tree/14.png', style='max-width: 30%;'> </img> <p><strong>Would you launch the weapon?</strong></p>","0",""
"","","","","","html-keyboard-response","51","46259","0.0-3.0-0.24","57","1","2023-06-25 15:42:20","077e191c96ad73626b2944d724c57d9e","192.126.189.181","Mozilla/5.0 (Windows NT 10.0; Win64; x64) AppleWebKit/537.36 (KHTML, like Gecko) Chrome/114.0.0.0 Safari/537.36","WebKit","Chrome","114.0.0.0","Windows","10.0","null","<div style=""font-size:60px;"">+</div>","null",""
"","","","","","html-button-response","52","46430","0.0-3.0-1.24","57","1","2023-06-25 15:42:20","077e191c96ad73626b2944d724c57d9e","192.126.189.181","Mozilla/5.0 (Windows NT 10.0; Win64; x64) AppleWebKit/537.36 (KHTML, like Gecko) Chrome/114.0.0.0 Safari/537.36","WebKit","Chrome","114.0.0.0","Windows","10.0","169","<p>As the military commander, you could choose to launch a missile to kill <strong>5 enemy soldiers</strong> , but would accidentally kill <strong>1 enemy tree</strong> nearby.</p> <p>The photo of the <strong>enemy tree</strong> is shown below.</p> <p></p> <img src='stimuli/tree/4.png', style='max-width: 30%;'> </img> <p><strong>Would you launch the weapon?</strong></p>","0",""
"","","","","","html-keyboard-response","53","47434","0.0-3.0-0.25","57","1","2023-06-25 15:42:20","077e191c96ad73626b2944d724c57d9e","192.126.189.181","Mozilla/5.0 (Windows NT 10.0; Win64; x64) AppleWebKit/537.36 (KHTML, like Gecko) Chrome/114.0.0.0 Safari/537.36","WebKit","Chrome","114.0.0.0","Windows","10.0","null","<div style=""font-size:60px;"">+</div>","null",""
"","","","","","html-button-response","54","47681","0.0-3.0-1.25","57","1","2023-06-25 15:42:20","077e191c96ad73626b2944d724c57d9e","192.126.189.181","Mozilla/5.0 (Windows NT 10.0; Win64; x64) AppleWebKit/537.36 (KHTML, like Gecko) Chrome/114.0.0.0 Safari/537.36","WebKit","Chrome","114.0.0.0","Windows","10.0","244","<p>As the military commander, you could choose to launch a missile to kill <strong>6 enemy soldiers</strong> , but would accidentally kill <strong>1 enemy civilian</strong> nearby.</p> <p>The photo of the <strong>enemy civilian</strong> is shown below.</p> <p></p> <img src='stimuli/faces/PFF5.jpg', style='max-width: 30%;'> </img> <p><strong>Would you launch the weapon?</strong></p>","0",""
"","","","","","html-keyboard-response","55","48685","0.0-3.0-0.26","57","1","2023-06-25 15:42:20","077e191c96ad73626b2944d724c57d9e","192.126.189.181","Mozilla/5.0 (Windows NT 10.0; Win64; x64) AppleWebKit/537.36 (KHTML, like Gecko) Chrome/114.0.0.0 Safari/537.36","WebKit","Chrome","114.0.0.0","Windows","10.0","null","<div style=""font-size:60px;"">+</div>","null",""
"","","","","","html-button-response","56","48849","0.0-3.0-1.26","57","1","2023-06-25 15:42:20","077e191c96ad73626b2944d724c57d9e","192.126.189.181","Mozilla/5.0 (Windows NT 10.0; Win64; x64) AppleWebKit/537.36 (KHTML, like Gecko) Chrome/114.0.0.0 Safari/537.36","WebKit","Chrome","114.0.0.0","Windows","10.0","160","<p>As the military commander, you could choose to launch a missile to kill <strong>6 enemy soldiers</strong> , but would accidentally kill <strong>1 enemy tree</strong> nearby.</p> <p>The photo of the <strong>enemy tree</strong> is shown below.</p> <p></p> <img src='stimuli/tree/12.png', style='max-width: 30%;'> </img> <p><strong>Would you launch the weapon?</strong></p>","0",""
"","","","","","html-keyboard-response","57","49852","0.0-3.0-0.27","57","1","2023-06-25 15:42:20","077e191c96ad73626b2944d724c57d9e","192.126.189.181","Mozilla/5.0 (Windows NT 10.0; Win64; x64) AppleWebKit/537.36 (KHTML, like Gecko) Chrome/114.0.0.0 Safari/537.36","WebKit","Chrome","114.0.0.0","Windows","10.0","null","<div style=""font-size:60px;"">+</div>","null",""
"","","","","","html-button-response","58","50144","0.0-3.0-1.27","57","1","2023-06-25 15:42:20","077e191c96ad73626b2944d724c57d9e","192.126.189.181","Mozilla/5.0 (Windows NT 10.0; Win64; x64) AppleWebKit/537.36 (KHTML, like Gecko) Chrome/114.0.0.0 Safari/537.36","WebKit","Chrome","114.0.0.0","Windows","10.0","289","<p>As the military commander, you could choose to launch a missile to kill <strong>4 enemy soldiers</strong> , but would accidentally kill <strong>1 enemy civilian</strong> nearby.</p> <p>The photo of the <strong>enemy civilian</strong> is shown below.</p> <p></p> <img src='stimuli/faces/PFM3.jpg', style='max-width: 30%;'> </img> <p><strong>Would you launch the weapon?</strong></p>","0",""
"","","","","","html-keyboard-response","59","51148","0.0-3.0-0.28","57","1","2023-06-25 15:42:20","077e191c96ad73626b2944d724c57d9e","192.126.189.181","Mozilla/5.0 (Windows NT 10.0; Win64; x64) AppleWebKit/537.36 (KHTML, like Gecko) Chrome/114.0.0.0 Safari/537.36","WebKit","Chrome","114.0.0.0","Windows","10.0","null","<div style=""font-size:60px;"">+</div>","null",""
"","","","","","html-button-response","60","51497","0.0-3.0-1.28","57","1","2023-06-25 15:42:20","077e191c96ad73626b2944d724c57d9e","192.126.189.181","Mozilla/5.0 (Windows NT 10.0; Win64; x64) AppleWebKit/537.36 (KHTML, like Gecko) Chrome/114.0.0.0 Safari/537.36","WebKit","Chrome","114.0.0.0","Windows","10.0","347","<p>As the military commander, you could choose to launch a missile to kill <strong>10 enemy soldiers</strong> , but would accidentally kill <strong>1 enemy civilian</strong> nearby.</p> <p>The photo of the <strong>enemy civilian</strong> is shown below.</p> <p></p> <img src='stimuli/faces/PFF6.jpg', style='max-width: 30%;'> </img> <p><strong>Would you launch the weapon?</strong></p>","0",""
"","","","","","html-keyboard-response","61","52501","0.0-3.0-0.29","57","1","2023-06-25 15:42:20","077e191c96ad73626b2944d724c57d9e","192.126.189.181","Mozilla/5.0 (Windows NT 10.0; Win64; x64) AppleWebKit/537.36 (KHTML, like Gecko) Chrome/114.0.0.0 Safari/537.36","WebKit","Chrome","114.0.0.0","Windows","10.0","null","<div style=""font-size:60px;"">+</div>","null",""
"","","","","","html-button-response","62","52647","0.0-3.0-1.29","57","1","2023-06-25 15:42:20","077e191c96ad73626b2944d724c57d9e","192.126.189.181","Mozilla/5.0 (Windows NT 10.0; Win64; x64) AppleWebKit/537.36 (KHTML, like Gecko) Chrome/114.0.0.0 Safari/537.36","WebKit","Chrome","114.0.0.0","Windows","10.0","143","<p>As the military commander, you could choose to launch a missile to kill <strong>9 enemy soldiers</strong> , but would accidentally kill <strong>1 enemy civilian</strong> nearby.</p> <p>The photo of the <strong>enemy civilian</strong> is shown below.</p> <p></p> <img src='stimuli/faces/PFF4.jpg', style='max-width: 30%;'> </img> <p><strong>Would you launch the weapon?</strong></p>","0",""
"","","","","","html-keyboard-response","63","53650","0.0-3.0-0.30","57","1","2023-06-25 15:42:20","077e191c96ad73626b2944d724c57d9e","192.126.189.181","Mozilla/5.0 (Windows NT 10.0; Win64; x64) AppleWebKit/537.36 (KHTML, like Gecko) Chrome/114.0.0.0 Safari/537.36","WebKit","Chrome","114.0.0.0","Windows","10.0","null","<div style=""font-size:60px;"">+</div>","null",""
"","","","","","html-button-response","64","53910","0.0-3.0-1.30","57","1","2023-06-25 15:42:20","077e191c96ad73626b2944d724c57d9e","192.126.189.181","Mozilla/5.0 (Windows NT 10.0; Win64; x64) AppleWebKit/537.36 (KHTML, like Gecko) Chrome/114.0.0.0 Safari/537.36","WebKit","Chrome","114.0.0.0","Windows","10.0","257","<p>As the military commander, you could choose to launch a missile to kill <strong>3 enemy soldiers</strong> , but would accidentally kill <strong>1 enemy tree</strong> nearby.</p> <p>The photo of the <strong>enemy tree</strong> is shown below.</p> <p></p> <img src='stimuli/tree/8.png', style='max-width: 30%;'> </img> <p><strong>Would you launch the weapon?</strong></p>","0",""
"","","","","","html-keyboard-response","65","54914","0.0-3.0-0.31","57","1","2023-06-25 15:42:20","077e191c96ad73626b2944d724c57d9e","192.126.189.181","Mozilla/5.0 (Windows NT 10.0; Win64; x64) AppleWebKit/537.36 (KHTML, like Gecko) Chrome/114.0.0.0 Safari/537.36","WebKit","Chrome","114.0.0.0","Windows","10.0","null","<div style=""font-size:60px;"">+</div>","null",""
"","","","","","html-button-response","66","55103","0.0-3.0-1.31","57","1","2023-06-25 15:42:20","077e191c96ad73626b2944d724c57d9e","192.126.189.181","Mozilla/5.0 (Windows NT 10.0; Win64; x64) AppleWebKit/537.36 (KHTML, like Gecko) Chrome/114.0.0.0 Safari/537.36","WebKit","Chrome","114.0.0.0","Windows","10.0","187","<p>As the military commander, you could choose to launch a missile to kill <strong>2 enemy soldiers</strong> , but would accidentally kill <strong>1 enemy civilian</strong> nearby.</p> <p>The photo of the <strong>enemy civilian</strong> is shown below.</p> <p></p> <img src='stimuli/faces/PFM1.jpg', style='max-width: 30%;'> </img> <p><strong>Would you launch the weapon?</strong></p>","0",""
"","","","","","html-keyboard-response","67","56107","0.0-3.0-0.32","57","1","2023-06-25 15:42:20","077e191c96ad73626b2944d724c57d9e","192.126.189.181","Mozilla/5.0 (Windows NT 10.0; Win64; x64) AppleWebKit/537.36 (KHTML, like Gecko) Chrome/114.0.0.0 Safari/537.36","WebKit","Chrome","114.0.0.0","Windows","10.0","null","<div style=""font-size:60px;"">+</div>","null",""
"","","","","","html-button-response","68","56360","0.0-3.0-1.32","57","1","2023-06-25 15:42:20","077e191c96ad73626b2944d724c57d9e","192.126.189.181","Mozilla/5.0 (Windows NT 10.0; Win64; x64) AppleWebKit/537.36 (KHTML, like Gecko) Chrome/114.0.0.0 Safari/537.36","WebKit","Chrome","114.0.0.0","Windows","10.0","251","<p>As the military commander, you could choose to launch a missile to kill <strong>1 enemy soldier</strong> , but would accidentally kill <strong>1 enemy civilian</strong> nearby.</p> <p>The photo of the <strong>enemy civilian</strong> is shown below.</p> <p></p> <img src='stimuli/faces/PFM5.jpg', style='max-width: 30%;'> </img> <p><strong>Would you launch the weapon?</strong></p>","0",""
"","","","","","html-keyboard-response","69","57364","0.0-3.0-0.33","57","1","2023-06-25 15:42:20","077e191c96ad73626b2944d724c57d9e","192.126.189.181","Mozilla/5.0 (Windows NT 10.0; Win64; x64) AppleWebKit/537.36 (KHTML, like Gecko) Chrome/114.0.0.0 Safari/537.36","WebKit","Chrome","114.0.0.0","Windows","10.0","null","<div style=""font-size:60px;"">+</div>","null",""
"","","","","","html-button-response","70","57666","0.0-3.0-1.33","57","1","2023-06-25 15:42:20","077e191c96ad73626b2944d724c57d9e","192.126.189.181","Mozilla/5.0 (Windows NT 10.0; Win64; x64) AppleWebKit/537.36 (KHTML, like Gecko) Chrome/114.0.0.0 Safari/537.36","WebKit","Chrome","114.0.0.0","Windows","10.0","298","<p>As the military commander, you could choose to launch a missile to kill <strong>9 enemy soldiers</strong> , but would accidentally kill <strong>1 enemy tree</strong> nearby.</p> <p>The photo of the <strong>enemy tree</strong> is shown below.</p> <p></p> <img src='stimuli/tree/10.png', style='max-width: 30%;'> </img> <p><strong>Would you launch the weapon?</strong></p>","0",""
"","","","","","html-keyboard-response","71","58670","0.0-3.0-0.34","57","1","2023-06-25 15:42:20","077e191c96ad73626b2944d724c57d9e","192.126.189.181","Mozilla/5.0 (Windows NT 10.0; Win64; x64) AppleWebKit/537.36 (KHTML, like Gecko) Chrome/114.0.0.0 Safari/537.36","WebKit","Chrome","114.0.0.0","Windows","10.0","null","<div style=""font-size:60px;"">+</div>","null",""
"","","","","","html-button-response","72","59018","0.0-3.0-1.34","57","1","2023-06-25 15:42:20","077e191c96ad73626b2944d724c57d9e","192.126.189.181","Mozilla/5.0 (Windows NT 10.0; Win64; x64) AppleWebKit/537.36 (KHTML, like Gecko) Chrome/114.0.0.0 Safari/537.36","WebKit","Chrome","114.0.0.0","Windows","10.0","345","<p>As the military commander, you could choose to launch a missile to kill <strong>1 enemy soldier</strong> , but would accidentally kill <strong>1 enemy tree</strong> nearby.</p> <p>The photo of the <strong>enemy tree</strong> is shown below.</p> <p></p> <img src='stimuli/tree/6.png', style='max-width: 30%;'> </img> <p><strong>Would you launch the weapon?</strong></p>","0",""
"","","","","","html-keyboard-response","73","60022","0.0-3.0-0.35","57","1","2023-06-25 15:42:20","077e191c96ad73626b2944d724c57d9e","192.126.189.181","Mozilla/5.0 (Windows NT 10.0; Win64; x64) AppleWebKit/537.36 (KHTML, like Gecko) Chrome/114.0.0.0 Safari/537.36","WebKit","Chrome","114.0.0.0","Windows","10.0","null","<div style=""font-size:60px;"">+</div>","null",""
"","","","","","html-button-response","74","60523","0.0-3.0-1.35","57","1","2023-06-25 15:42:20","077e191c96ad73626b2944d724c57d9e","192.126.189.181","Mozilla/5.0 (Windows NT 10.0; Win64; x64) AppleWebKit/537.36 (KHTML, like Gecko) Chrome/114.0.0.0 Safari/537.36","WebKit","Chrome","114.0.0.0","Windows","10.0","498","<p>As the military commander, you could choose to launch a missile to kill <strong>9 enemy soldiers</strong> , but would accidentally kill <strong>1 enemy civilian</strong> nearby.</p> <p>The photo of the <strong>enemy civilian</strong> is shown below.</p> <p></p> <img src='stimuli/faces/PFM7.jpg', style='max-width: 30%;'> </img> <p><strong>Would you launch the weapon?</strong></p>","0",""
"","","","","","html-keyboard-response","75","61526","0.0-3.0-0.36","57","1","2023-06-25 15:42:20","077e191c96ad73626b2944d724c57d9e","192.126.189.181","Mozilla/5.0 (Windows NT 10.0; Win64; x64) AppleWebKit/537.36 (KHTML, like Gecko) Chrome/114.0.0.0 Safari/537.36","WebKit","Chrome","114.0.0.0","Windows","10.0","null","<div style=""font-size:60px;"">+</div>","null",""
"","","","","","html-button-response","76","62106","0.0-3.0-1.36","57","1","2023-06-25 15:42:20","077e191c96ad73626b2944d724c57d9e","192.126.189.181","Mozilla/5.0 (Windows NT 10.0; Win64; x64) AppleWebKit/537.36 (KHTML, like Gecko) Chrome/114.0.0.0 Safari/537.36","WebKit","Chrome","114.0.0.0","Windows","10.0","577","<p>As the military commander, you could choose to launch a missile to kill <strong>6 enemy soldiers</strong> , but would accidentally kill <strong>1 enemy civilian</strong> nearby.</p> <p>The photo of the <strong>enemy civilian</strong> is shown below.</p> <p></p> <img src='stimuli/faces/PFM8.jpg', style='max-width: 30%;'> </img> <p><strong>Would you launch the weapon?</strong></p>","0",""
"","","","","","html-keyboard-response","77","63110","0.0-3.0-0.37","57","1","2023-06-25 15:42:20","077e191c96ad73626b2944d724c57d9e","192.126.189.181","Mozilla/5.0 (Windows NT 10.0; Win64; x64) AppleWebKit/537.36 (KHTML, like Gecko) Chrome/114.0.0.0 Safari/537.36","WebKit","Chrome","114.0.0.0","Windows","10.0","null","<div style=""font-size:60px;"">+</div>","null",""
"","","","","","html-button-response","78","63281","0.0-3.0-1.37","57","1","2023-06-25 15:42:20","077e191c96ad73626b2944d724c57d9e","192.126.189.181","Mozilla/5.0 (Windows NT 10.0; Win64; x64) AppleWebKit/537.36 (KHTML, like Gecko) Chrome/114.0.0.0 Safari/537.36","WebKit","Chrome","114.0.0.0","Windows","10.0","168","<p>As the military commander, you could choose to launch a missile to kill <strong>8 enemy soldiers</strong> , but would accidentally kill <strong>1 enemy civilian</strong> nearby.</p> <p>The photo of the <strong>enemy civilian</strong> is shown below.</p> <p></p> <img src='stimuli/faces/PFM1.jpg', style='max-width: 30%;'> </img> <p><strong>Would you launch the weapon?</strong></p>","0",""
"","","","","","html-keyboard-response","79","64285","0.0-3.0-0.38","57","1","2023-06-25 15:42:20","077e191c96ad73626b2944d724c57d9e","192.126.189.181","Mozilla/5.0 (Windows NT 10.0; Win64; x64) AppleWebKit/537.36 (KHTML, like Gecko) Chrome/114.0.0.0 Safari/537.36","WebKit","Chrome","114.0.0.0","Windows","10.0","null","<div style=""font-size:60px;"">+</div>","null",""
"","","","","","html-button-response","80","64450","0.0-3.0-1.38","57","1","2023-06-25 15:42:20","077e191c96ad73626b2944d724c57d9e","192.126.189.181","Mozilla/5.0 (Windows NT 10.0; Win64; x64) AppleWebKit/537.36 (KHTML, like Gecko) Chrome/114.0.0.0 Safari/537.36","WebKit","Chrome","114.0.0.0","Windows","10.0","160","<p>As the military commander, you could choose to launch a missile to kill <strong>5 enemy soldiers</strong> , but would accidentally kill <strong>1 enemy tree</strong> nearby.</p> <p>The photo of the <strong>enemy tree</strong> is shown below.</p> <p></p> <img src='stimuli/tree/1.png', style='max-width: 30%;'> </img> <p><strong>Would you launch the weapon?</strong></p>","0",""
"","","","","","html-keyboard-response","81","65454","0.0-3.0-0.39","57","1","2023-06-25 15:42:20","077e191c96ad73626b2944d724c57d9e","192.126.189.181","Mozilla/5.0 (Windows NT 10.0; Win64; x64) AppleWebKit/537.36 (KHTML, like Gecko) Chrome/114.0.0.0 Safari/537.36","WebKit","Chrome","114.0.0.0","Windows","10.0","null","<div style=""font-size:60px;"">+</div>","null",""
"","","","","","html-button-response","82","65851","0.0-3.0-1.39","57","1","2023-06-25 15:42:20","077e191c96ad73626b2944d724c57d9e","192.126.189.181","Mozilla/5.0 (Windows NT 10.0; Win64; x64) AppleWebKit/537.36 (KHTML, like Gecko) Chrome/114.0.0.0 Safari/537.36","WebKit","Chrome","114.0.0.0","Windows","10.0","393","<p>As the military commander, you could choose to launch a missile to kill <strong>8 enemy soldiers</strong> , but would accidentally kill <strong>1 enemy tree</strong> nearby.</p> <p>The photo of the <strong>enemy tree</strong> is shown below.</p> <p></p> <img src='stimuli/tree/1.png', style='max-width: 30%;'> </img> <p><strong>Would you launch the weapon?</strong></p>","0",""
"","","","","","html-keyboard-response","83","66856","0.0-3.0-0.40","57","1","2023-06-25 15:42:20","077e191c96ad73626b2944d724c57d9e","192.126.189.181","Mozilla/5.0 (Windows NT 10.0; Win64; x64) AppleWebKit/537.36 (KHTML, like Gecko) Chrome/114.0.0.0 Safari/537.36","WebKit","Chrome","114.0.0.0","Windows","10.0","null","<div style=""font-size:60px;"">+</div>","null",""
"","","","","","html-button-response","84","67130","0.0-3.0-1.40","57","1","2023-06-25 15:42:20","077e191c96ad73626b2944d724c57d9e","192.126.189.181","Mozilla/5.0 (Windows NT 10.0; Win64; x64) AppleWebKit/537.36 (KHTML, like Gecko) Chrome/114.0.0.0 Safari/537.36","WebKit","Chrome","114.0.0.0","Windows","10.0","270","<p>As the military commander, you could choose to launch a missile to kill <strong>3 enemy soldiers</strong> , but would accidentally kill <strong>1 enemy tree</strong> nearby.</p> <p>The photo of the <strong>enemy tree</strong> is shown below.</p> <p></p> <img src='stimuli/tree/3.png', style='max-width: 30%;'> </img> <p><strong>Would you launch the weapon?</strong></p>","0",""
"","","","","","html-keyboard-response","85","68134","0.0-3.0-0.41","57","1","2023-06-25 15:42:20","077e191c96ad73626b2944d724c57d9e","192.126.189.181","Mozilla/5.0 (Windows NT 10.0; Win64; x64) AppleWebKit/537.36 (KHTML, like Gecko) Chrome/114.0.0.0 Safari/537.36","WebKit","Chrome","114.0.0.0","Windows","10.0","null","<div style=""font-size:60px;"">+</div>","null",""
"","","","","","html-button-response","86","68361","0.0-3.0-1.41","57","1","2023-06-25 15:42:20","077e191c96ad73626b2944d724c57d9e","192.126.189.181","Mozilla/5.0 (Windows NT 10.0; Win64; x64) AppleWebKit/537.36 (KHTML, like Gecko) Chrome/114.0.0.0 Safari/537.36","WebKit","Chrome","114.0.0.0","Windows","10.0","224","<p>As the military commander, you could choose to launch a missile to kill <strong>2 enemy soldiers</strong> , but would accidentally kill <strong>1 enemy tree</strong> nearby.</p> <p>The photo of the <strong>enemy tree</strong> is shown below.</p> <p></p> <img src='stimuli/tree/10.png', style='max-width: 30%;'> </img> <p><strong>Would you launch the weapon?</strong></p>","0",""
"","","","","","html-keyboard-response","87","69365","0.0-3.0-0.42","57","1","2023-06-25 15:42:20","077e191c96ad73626b2944d724c57d9e","192.126.189.181","Mozilla/5.0 (Windows NT 10.0; Win64; x64) AppleWebKit/537.36 (KHTML, like Gecko) Chrome/114.0.0.0 Safari/537.36","WebKit","Chrome","114.0.0.0","Windows","10.0","null","<div style=""font-size:60px;"">+</div>","null",""
"","","","","","html-button-response","88","69633","0.0-3.0-1.42","57","1","2023-06-25 15:42:20","077e191c96ad73626b2944d724c57d9e","192.126.189.181","Mozilla/5.0 (Windows NT 10.0; Win64; x64) AppleWebKit/537.36 (KHTML, like Gecko) Chrome/114.0.0.0 Safari/537.36","WebKit","Chrome","114.0.0.0","Windows","10.0","265","<p>As the military commander, you could choose to launch a missile to kill <strong>5 enemy soldiers</strong> , but would accidentally kill <strong>1 enemy tree</strong> nearby.</p> <p>The photo of the <strong>enemy tree</strong> is shown below.</p> <p></p> <img src='stimuli/tree/16.png', style='max-width: 30%;'> </img> <p><strong>Would you launch the weapon?</strong></p>","0",""
"","","","","","html-keyboard-response","89","70637","0.0-3.0-0.43","57","1","2023-06-25 15:42:20","077e191c96ad73626b2944d724c57d9e","192.126.189.181","Mozilla/5.0 (Windows NT 10.0; Win64; x64) AppleWebKit/537.36 (KHTML, like Gecko) Chrome/114.0.0.0 Safari/537.36","WebKit","Chrome","114.0.0.0","Windows","10.0","null","<div style=""font-size:60px;"">+</div>","null",""
"","","","","","html-button-response","90","70970","0.0-3.0-1.43","57","1","2023-06-25 15:42:20","077e191c96ad73626b2944d724c57d9e","192.126.189.181","Mozilla/5.0 (Windows NT 10.0; Win64; x64) AppleWebKit/537.36 (KHTML, like Gecko) Chrome/114.0.0.0 Safari/537.36","WebKit","Chrome","114.0.0.0","Windows","10.0","329","<p>As the military commander, you could choose to launch a missile to kill <strong>4 enemy soldiers</strong> , but would accidentally kill <strong>1 enemy civilian</strong> nearby.</p> <p>The photo of the <strong>enemy civilian</strong> is shown below.</p> <p></p> <img src='stimuli/faces/PFF7.jpg', style='max-width: 30%;'> </img> <p><strong>Would you launch the weapon?</strong></p>","0",""
"","","","","","html-keyboard-response","91","71975","0.0-3.0-0.44","57","1","2023-06-25 15:42:20","077e191c96ad73626b2944d724c57d9e","192.126.189.181","Mozilla/5.0 (Windows NT 10.0; Win64; x64) AppleWebKit/537.36 (KHTML, like Gecko) Chrome/114.0.0.0 Safari/537.36","WebKit","Chrome","114.0.0.0","Windows","10.0","null","<div style=""font-size:60px;"">+</div>","null",""
"","","","","","html-button-response","92","72240","0.0-3.0-1.44","57","1","2023-06-25 15:42:20","077e191c96ad73626b2944d724c57d9e","192.126.189.181","Mozilla/5.0 (Windows NT 10.0; Win64; x64) AppleWebKit/537.36 (KHTML, like Gecko) Chrome/114.0.0.0 Safari/537.36","WebKit","Chrome","114.0.0.0","Windows","10.0","262","<p>As the military commander, you could choose to launch a missile to kill <strong>10 enemy soldiers</strong> , but would accidentally kill <strong>1 enemy civilian</strong> nearby.</p> <p>The photo of the <strong>enemy civilian</strong> is shown below.</p> <p></p> <img src='stimuli/faces/PFF1.jpg', style='max-width: 30%;'> </img> <p><strong>Would you launch the weapon?</strong></p>","0",""
"","","","","","html-keyboard-response","93","73244","0.0-3.0-0.45","57","1","2023-06-25 15:42:20","077e191c96ad73626b2944d724c57d9e","192.126.189.181","Mozilla/5.0 (Windows NT 10.0; Win64; x64) AppleWebKit/537.36 (KHTML, like Gecko) Chrome/114.0.0.0 Safari/537.36","WebKit","Chrome","114.0.0.0","Windows","10.0","null","<div style=""font-size:60px;"">+</div>","null",""
"","","","","","html-button-response","94","73545","0.0-3.0-1.45","57","1","2023-06-25 15:42:20","077e191c96ad73626b2944d724c57d9e","192.126.189.181","Mozilla/5.0 (Windows NT 10.0; Win64; x64) AppleWebKit/537.36 (KHTML, like Gecko) Chrome/114.0.0.0 Safari/537.36","WebKit","Chrome","114.0.0.0","Windows","10.0","297","<p>As the military commander, you could choose to launch a missile to kill <strong>4 enemy soldiers</strong> , but would accidentally kill <strong>1 enemy tree</strong> nearby.</p> <p>The photo of the <strong>enemy tree</strong> is shown below.</p> <p></p> <img src='stimuli/tree/13.png', style='max-width: 30%;'> </img> <p><strong>Would you launch the weapon?</strong></p>","0",""
"","","","","","html-keyboard-response","95","74549","0.0-3.0-0.46","57","1","2023-06-25 15:42:20","077e191c96ad73626b2944d724c57d9e","192.126.189.181","Mozilla/5.0 (Windows NT 10.0; Win64; x64) AppleWebKit/537.36 (KHTML, like Gecko) Chrome/114.0.0.0 Safari/537.36","WebKit","Chrome","114.0.0.0","Windows","10.0","null","<div style=""font-size:60px;"">+</div>","null",""
"","","","","","html-button-response","96","74889","0.0-3.0-1.46","57","1","2023-06-25 15:42:20","077e191c96ad73626b2944d724c57d9e","192.126.189.181","Mozilla/5.0 (Windows NT 10.0; Win64; x64) AppleWebKit/537.36 (KHTML, like Gecko) Chrome/114.0.0.0 Safari/537.36","WebKit","Chrome","114.0.0.0","Windows","10.0","337","<p>As the military commander, you could choose to launch a missile to kill <strong>3 enemy soldiers</strong> , but would accidentally kill <strong>1 enemy civilian</strong> nearby.</p> <p>The photo of the <strong>enemy civilian</strong> is shown below.</p> <p></p> <img src='stimuli/faces/PFM6.jpg', style='max-width: 30%;'> </img> <p><strong>Would you launch the weapon?</strong></p>","0",""
"","","","","","html-keyboard-response","97","75894","0.0-3.0-0.47","57","1","2023-06-25 15:42:20","077e191c96ad73626b2944d724c57d9e","192.126.189.181","Mozilla/5.0 (Windows NT 10.0; Win64; x64) AppleWebKit/537.36 (KHTML, like Gecko) Chrome/114.0.0.0 Safari/537.36","WebKit","Chrome","114.0.0.0","Windows","10.0","null","<div style=""font-size:60px;"">+</div>","null",""
"","","","","","html-button-response","98","76186","0.0-3.0-1.47","57","1","2023-06-25 15:42:20","077e191c96ad73626b2944d724c57d9e","192.126.189.181","Mozilla/5.0 (Windows NT 10.0; Win64; x64) AppleWebKit/537.36 (KHTML, like Gecko) Chrome/114.0.0.0 Safari/537.36","WebKit","Chrome","114.0.0.0","Windows","10.0","289","<p>As the military commander, you could choose to launch a missile to kill <strong>10 enemy soldiers</strong> , but would accidentally kill <strong>1 enemy civilian</strong> nearby.</p> <p>The photo of the <strong>enemy civilian</strong> is shown below.</p> <p></p> <img src='stimuli/faces/PFM2.jpg', style='max-width: 30%;'> </img> <p><strong>Would you launch the weapon?</strong></p>","0",""
"","","","","","html-keyboard-response","99","77191","0.0-3.0-0.48","57","1","2023-06-25 15:42:20","077e191c96ad73626b2944d724c57d9e","192.126.189.181","Mozilla/5.0 (Windows NT 10.0; Win64; x64) AppleWebKit/537.36 (KHTML, like Gecko) Chrome/114.0.0.0 Safari/537.36","WebKit","Chrome","114.0.0.0","Windows","10.0","null","<div style=""font-size:60px;"">+</div>","null",""
"","","","","","html-button-response","100","77608","0.0-3.0-1.48","57","1","2023-06-25 15:42:20","077e191c96ad73626b2944d724c57d9e","192.126.189.181","Mozilla/5.0 (Windows NT 10.0; Win64; x64) AppleWebKit/537.36 (KHTML, like Gecko) Chrome/114.0.0.0 Safari/537.36","WebKit","Chrome","114.0.0.0","Windows","10.0","414","<p>As the military commander, you could choose to launch a missile to kill <strong>8 enemy soldiers</strong> , but would accidentally kill <strong>1 enemy tree</strong> nearby.</p> <p>The photo of the <strong>enemy tree</strong> is shown below.</p> <p></p> <img src='stimuli/tree/4.png', style='max-width: 30%;'> </img> <p><strong>Would you launch the weapon?</strong></p>","0",""
"","","","","","html-keyboard-response","101","78612","0.0-3.0-0.49","57","1","2023-06-25 15:42:20","077e191c96ad73626b2944d724c57d9e","192.126.189.181","Mozilla/5.0 (Windows NT 10.0; Win64; x64) AppleWebKit/537.36 (KHTML, like Gecko) Chrome/114.0.0.0 Safari/537.36","WebKit","Chrome","114.0.0.0","Windows","10.0","null","<div style=""font-size:60px;"">+</div>","null",""
"","","","","","html-button-response","102","78794","0.0-3.0-1.49","57","1","2023-06-25 15:42:20","077e191c96ad73626b2944d724c57d9e","192.126.189.181","Mozilla/5.0 (Windows NT 10.0; Win64; x64) AppleWebKit/537.36 (KHTML, like Gecko) Chrome/114.0.0.0 Safari/537.36","WebKit","Chrome","114.0.0.0","Windows","10.0","179","<p>As the military commander, you could choose to launch a missile to kill <strong>10 enemy soldiers</strong> , but would accidentally kill <strong>1 enemy tree</strong> nearby.</p> <p>The photo of the <strong>enemy tree</strong> is shown below.</p> <p></p> <img src='stimuli/tree/14.png', style='max-width: 30%;'> </img> <p><strong>Would you launch the weapon?</strong></p>","0",""
"","","","","","html-keyboard-response","103","79798","0.0-3.0-0.50","57","1","2023-06-25 15:42:20","077e191c96ad73626b2944d724c57d9e","192.126.189.181","Mozilla/5.0 (Windows NT 10.0; Win64; x64) AppleWebKit/537.36 (KHTML, like Gecko) Chrome/114.0.0.0 Safari/537.36","WebKit","Chrome","114.0.0.0","Windows","10.0","null","<div style=""font-size:60px;"">+</div>","null",""
"","","","","","html-button-response","104","79977","0.0-3.0-1.50","57","1","2023-06-25 15:42:20","077e191c96ad73626b2944d724c57d9e","192.126.189.181","Mozilla/5.0 (Windows NT 10.0; Win64; x64) AppleWebKit/537.36 (KHTML, like Gecko) Chrome/114.0.0.0 Safari/537.36","WebKit","Chrome","114.0.0.0","Windows","10.0","175","<p>As the military commander, you could choose to launch a missile to kill <strong>10 enemy soldiers</strong> , but would accidentally kill <strong>1 enemy tree</strong> nearby.</p> <p>The photo of the <strong>enemy tree</strong> is shown below.</p> <p></p> <img src='stimuli/tree/3.png', style='max-width: 30%;'> </img> <p><strong>Would you launch the weapon?</strong></p>","0",""
"","","","","","html-keyboard-response","105","80981","0.0-3.0-0.51","57","1","2023-06-25 15:42:20","077e191c96ad73626b2944d724c57d9e","192.126.189.181","Mozilla/5.0 (Windows NT 10.0; Win64; x64) AppleWebKit/537.36 (KHTML, like Gecko) Chrome/114.0.0.0 Safari/537.36","WebKit","Chrome","114.0.0.0","Windows","10.0","null","<div style=""font-size:60px;"">+</div>","null",""
"","","","","","html-button-response","106","81386","0.0-3.0-1.51","57","1","2023-06-25 15:42:20","077e191c96ad73626b2944d724c57d9e","192.126.189.181","Mozilla/5.0 (Windows NT 10.0; Win64; x64) AppleWebKit/537.36 (KHTML, like Gecko) Chrome/114.0.0.0 Safari/537.36","WebKit","Chrome","114.0.0.0","Windows","10.0","402","<p>As the military commander, you could choose to launch a missile to kill <strong>4 enemy soldiers</strong> , but would accidentally kill <strong>1 enemy civilian</strong> nearby.</p> <p>The photo of the <strong>enemy civilian</strong> is shown below.</p> <p></p> <img src='stimuli/faces/PFM7.jpg', style='max-width: 30%;'> </img> <p><strong>Would you launch the weapon?</strong></p>","0",""
"","","","","","html-keyboard-response","107","82390","0.0-3.0-0.52","57","1","2023-06-25 15:42:20","077e191c96ad73626b2944d724c57d9e","192.126.189.181","Mozilla/5.0 (Windows NT 10.0; Win64; x64) AppleWebKit/537.36 (KHTML, like Gecko) Chrome/114.0.0.0 Safari/537.36","WebKit","Chrome","114.0.0.0","Windows","10.0","null","<div style=""font-size:60px;"">+</div>","null",""
"","","","","","html-button-response","108","82657","0.0-3.0-1.52","57","1","2023-06-25 15:42:20","077e191c96ad73626b2944d724c57d9e","192.126.189.181","Mozilla/5.0 (Windows NT 10.0; Win64; x64) AppleWebKit/537.36 (KHTML, like Gecko) Chrome/114.0.0.0 Safari/537.36","WebKit","Chrome","114.0.0.0","Windows","10.0","262","<p>As the military commander, you could choose to launch a missile to kill <strong>7 enemy soldiers</strong> , but would accidentally kill <strong>1 enemy civilian</strong> nearby.</p> <p>The photo of the <strong>enemy civilian</strong> is shown below.</p> <p></p> <img src='stimuli/faces/PFF7.jpg', style='max-width: 30%;'> </img> <p><strong>Would you launch the weapon?</strong></p>","0",""
"","","","","","html-keyboard-response","109","83660","0.0-3.0-0.53","57","1","2023-06-25 15:42:20","077e191c96ad73626b2944d724c57d9e","192.126.189.181","Mozilla/5.0 (Windows NT 10.0; Win64; x64) AppleWebKit/537.36 (KHTML, like Gecko) Chrome/114.0.0.0 Safari/537.36","WebKit","Chrome","114.0.0.0","Windows","10.0","null","<div style=""font-size:60px;"">+</div>","null",""
"","","","","","html-button-response","110","86234","0.0-3.0-1.53","57","1","2023-06-25 15:42:20","077e191c96ad73626b2944d724c57d9e","192.126.189.181","Mozilla/5.0 (Windows NT 10.0; Win64; x64) AppleWebKit/537.36 (KHTML, like Gecko) Chrome/114.0.0.0 Safari/537.36","WebKit","Chrome","114.0.0.0","Windows","10.0","2570","<p>As the military commander, you could choose to launch a missile to kill <strong>9 enemy soldiers</strong> , but would accidentally kill <strong>1 enemy tree</strong> nearby.</p> <p>The photo of the <strong>enemy tree</strong> is shown below.</p> <p></p> <img src='stimuli/tree/16.png', style='max-width: 30%;'> </img> <p><strong>Would you launch the weapon?</strong></p>","0",""
"","","","","","html-keyboard-response","111","87239","0.0-3.0-0.54","57","1","2023-06-25 15:42:20","077e191c96ad73626b2944d724c57d9e","192.126.189.181","Mozilla/5.0 (Windows NT 10.0; Win64; x64) AppleWebKit/537.36 (KHTML, like Gecko) Chrome/114.0.0.0 Safari/537.36","WebKit","Chrome","114.0.0.0","Windows","10.0","null","<div style=""font-size:60px;"">+</div>","null",""
"","","","","","html-button-response","112","87535","0.0-3.0-1.54","57","1","2023-06-25 15:42:20","077e191c96ad73626b2944d724c57d9e","192.126.189.181","Mozilla/5.0 (Windows NT 10.0; Win64; x64) AppleWebKit/537.36 (KHTML, like Gecko) Chrome/114.0.0.0 Safari/537.36","WebKit","Chrome","114.0.0.0","Windows","10.0","292","<p>As the military commander, you could choose to launch a missile to kill <strong>9 enemy soldiers</strong> , but would accidentally kill <strong>1 enemy civilian</strong> nearby.</p> <p>The photo of the <strong>enemy civilian</strong> is shown below.</p> <p></p> <img src='stimuli/faces/PFF8.jpg', style='max-width: 30%;'> </img> <p><strong>Would you launch the weapon?</strong></p>","0",""
"","","","","","html-keyboard-response","113","88539","0.0-3.0-0.55","57","1","2023-06-25 15:42:20","077e191c96ad73626b2944d724c57d9e","192.126.189.181","Mozilla/5.0 (Windows NT 10.0; Win64; x64) AppleWebKit/537.36 (KHTML, like Gecko) Chrome/114.0.0.0 Safari/537.36","WebKit","Chrome","114.0.0.0","Windows","10.0","null","<div style=""font-size:60px;"">+</div>","null",""
"","","","","","html-button-response","114","88746","0.0-3.0-1.55","57","1","2023-06-25 15:42:20","077e191c96ad73626b2944d724c57d9e","192.126.189.181","Mozilla/5.0 (Windows NT 10.0; Win64; x64) AppleWebKit/537.36 (KHTML, like Gecko) Chrome/114.0.0.0 Safari/537.36","WebKit","Chrome","114.0.0.0","Windows","10.0","203","<p>As the military commander, you could choose to launch a missile to kill <strong>1 enemy soldier</strong> , but would accidentally kill <strong>1 enemy civilian</strong> nearby.</p> <p>The photo of the <strong>enemy civilian</strong> is shown below.</p> <p></p> <img src='stimuli/faces/PFM4.jpg', style='max-width: 30%;'> </img> <p><strong>Would you launch the weapon?</strong></p>","0",""
"","","","","","html-keyboard-response","115","89751","0.0-3.0-0.56","57","1","2023-06-25 15:42:20","077e191c96ad73626b2944d724c57d9e","192.126.189.181","Mozilla/5.0 (Windows NT 10.0; Win64; x64) AppleWebKit/537.36 (KHTML, like Gecko) Chrome/114.0.0.0 Safari/537.36","WebKit","Chrome","114.0.0.0","Windows","10.0","null","<div style=""font-size:60px;"">+</div>","null",""
"","","","","","html-button-response","116","90048","0.0-3.0-1.56","57","1","2023-06-25 15:42:20","077e191c96ad73626b2944d724c57d9e","192.126.189.181","Mozilla/5.0 (Windows NT 10.0; Win64; x64) AppleWebKit/537.36 (KHTML, like Gecko) Chrome/114.0.0.0 Safari/537.36","WebKit","Chrome","114.0.0.0","Windows","10.0","293","<p>As the military commander, you could choose to launch a missile to kill <strong>7 enemy soldiers</strong> , but would accidentally kill <strong>1 enemy tree</strong> nearby.</p> <p>The photo of the <strong>enemy tree</strong> is shown below.</p> <p></p> <img src='stimuli/tree/7.png', style='max-width: 30%;'> </img> <p><strong>Would you launch the weapon?</strong></p>","0",""
"","","","","","html-keyboard-response","117","91052","0.0-3.0-0.57","57","1","2023-06-25 15:42:20","077e191c96ad73626b2944d724c57d9e","192.126.189.181","Mozilla/5.0 (Windows NT 10.0; Win64; x64) AppleWebKit/537.36 (KHTML, like Gecko) Chrome/114.0.0.0 Safari/537.36","WebKit","Chrome","114.0.0.0","Windows","10.0","null","<div style=""font-size:60px;"">+</div>","null",""
"","","","","","html-button-response","118","91339","0.0-3.0-1.57","57","1","2023-06-25 15:42:20","077e191c96ad73626b2944d724c57d9e","192.126.189.181","Mozilla/5.0 (Windows NT 10.0; Win64; x64) AppleWebKit/537.36 (KHTML, like Gecko) Chrome/114.0.0.0 Safari/537.36","WebKit","Chrome","114.0.0.0","Windows","10.0","284","<p>As the military commander, you could choose to launch a missile to kill <strong>9 enemy soldiers</strong> , but would accidentally kill <strong>1 enemy tree</strong> nearby.</p> <p>The photo of the <strong>enemy tree</strong> is shown below.</p> <p></p> <img src='stimuli/tree/6.png', style='max-width: 30%;'> </img> <p><strong>Would you launch the weapon?</strong></p>","0",""
"","","","","","html-keyboard-response","119","92344","0.0-3.0-0.58","57","1","2023-06-25 15:42:20","077e191c96ad73626b2944d724c57d9e","192.126.189.181","Mozilla/5.0 (Windows NT 10.0; Win64; x64) AppleWebKit/537.36 (KHTML, like Gecko) Chrome/114.0.0.0 Safari/537.36","WebKit","Chrome","114.0.0.0","Windows","10.0","null","<div style=""font-size:60px;"">+</div>","null",""
"","","","","","html-button-response","120","92648","0.0-3.0-1.58","57","1","2023-06-25 15:42:20","077e191c96ad73626b2944d724c57d9e","192.126.189.181","Mozilla/5.0 (Windows NT 10.0; Win64; x64) AppleWebKit/537.36 (KHTML, like Gecko) Chrome/114.0.0.0 Safari/537.36","WebKit","Chrome","114.0.0.0","Windows","10.0","300","<p>As the military commander, you could choose to launch a missile to kill <strong>10 enemy soldiers</strong> , but would accidentally kill <strong>1 enemy civilian</strong> nearby.</p> <p>The photo of the <strong>enemy civilian</strong> is shown below.</p> <p></p> <img src='stimuli/faces/PFM5.jpg', style='max-width: 30%;'> </img> <p><strong>Would you launch the weapon?</strong></p>","0",""
"","","","","","html-keyboard-response","121","93651","0.0-3.0-0.59","57","1","2023-06-25 15:42:20","077e191c96ad73626b2944d724c57d9e","192.126.189.181","Mozilla/5.0 (Windows NT 10.0; Win64; x64) AppleWebKit/537.36 (KHTML, like Gecko) Chrome/114.0.0.0 Safari/537.36","WebKit","Chrome","114.0.0.0","Windows","10.0","null","<div style=""font-size:60px;"">+</div>","null",""
"","","","","","html-button-response","122","93874","0.0-3.0-1.59","57","1","2023-06-25 15:42:20","077e191c96ad73626b2944d724c57d9e","192.126.189.181","Mozilla/5.0 (Windows NT 10.0; Win64; x64) AppleWebKit/537.36 (KHTML, like Gecko) Chrome/114.0.0.0 Safari/537.36","WebKit","Chrome","114.0.0.0","Windows","10.0","219","<p>As the military commander, you could choose to launch a missile to kill <strong>9 enemy soldiers</strong> , but would accidentally kill <strong>1 enemy tree</strong> nearby.</p> <p>The photo of the <strong>enemy tree</strong> is shown below.</p> <p></p> <img src='stimuli/tree/5.png', style='max-width: 30%;'> </img> <p><strong>Would you launch the weapon?</strong></p>","0",""
"","","","","","html-keyboard-response","123","94881","0.0-3.0-0.60","57","1","2023-06-25 15:42:20","077e191c96ad73626b2944d724c57d9e","192.126.189.181","Mozilla/5.0 (Windows NT 10.0; Win64; x64) AppleWebKit/537.36 (KHTML, like Gecko) Chrome/114.0.0.0 Safari/537.36","WebKit","Chrome","114.0.0.0","Windows","10.0","null","<div style=""font-size:60px;"">+</div>","null",""
"","","","","","html-button-response","124","95113","0.0-3.0-1.60","57","1","2023-06-25 15:42:20","077e191c96ad73626b2944d724c57d9e","192.126.189.181","Mozilla/5.0 (Windows NT 10.0; Win64; x64) AppleWebKit/537.36 (KHTML, like Gecko) Chrome/114.0.0.0 Safari/537.36","WebKit","Chrome","114.0.0.0","Windows","10.0","225","<p>As the military commander, you could choose to launch a missile to kill <strong>4 enemy soldiers</strong> , but would accidentally kill <strong>1 enemy civilian</strong> nearby.</p> <p>The photo of the <strong>enemy civilian</strong> is shown below.</p> <p></p> <img src='stimuli/faces/PFF5.jpg', style='max-width: 30%;'> </img> <p><strong>Would you launch the weapon?</strong></p>","0",""
"","","","","","html-keyboard-response","125","96117","0.0-3.0-0.61","57","1","2023-06-25 15:42:20","077e191c96ad73626b2944d724c57d9e","192.126.189.181","Mozilla/5.0 (Windows NT 10.0; Win64; x64) AppleWebKit/537.36 (KHTML, like Gecko) Chrome/114.0.0.0 Safari/537.36","WebKit","Chrome","114.0.0.0","Windows","10.0","null","<div style=""font-size:60px;"">+</div>","null",""
"","","","","","html-button-response","126","96354","0.0-3.0-1.61","57","1","2023-06-25 15:42:20","077e191c96ad73626b2944d724c57d9e","192.126.189.181","Mozilla/5.0 (Windows NT 10.0; Win64; x64) AppleWebKit/537.36 (KHTML, like Gecko) Chrome/114.0.0.0 Safari/537.36","WebKit","Chrome","114.0.0.0","Windows","10.0","233","<p>As the military commander, you could choose to launch a missile to kill <strong>2 enemy soldiers</strong> , but would accidentally kill <strong>1 enemy civilian</strong> nearby.</p> <p>The photo of the <strong>enemy civilian</strong> is shown below.</p> <p></p> <img src='stimuli/faces/PFM8.jpg', style='max-width: 30%;'> </img> <p><strong>Would you launch the weapon?</strong></p>","0",""
"","","","","","html-keyboard-response","127","97359","0.0-3.0-0.62","57","1","2023-06-25 15:42:20","077e191c96ad73626b2944d724c57d9e","192.126.189.181","Mozilla/5.0 (Windows NT 10.0; Win64; x64) AppleWebKit/537.36 (KHTML, like Gecko) Chrome/114.0.0.0 Safari/537.36","WebKit","Chrome","114.0.0.0","Windows","10.0","null","<div style=""font-size:60px;"">+</div>","null",""
"","","","","","html-button-response","128","97696","0.0-3.0-1.62","57","1","2023-06-25 15:42:20","077e191c96ad73626b2944d724c57d9e","192.126.189.181","Mozilla/5.0 (Windows NT 10.0; Win64; x64) AppleWebKit/537.36 (KHTML, like Gecko) Chrome/114.0.0.0 Safari/537.36","WebKit","Chrome","114.0.0.0","Windows","10.0","334","<p>As the military commander, you could choose to launch a missile to kill <strong>2 enemy soldiers</strong> , but would accidentally kill <strong>1 enemy tree</strong> nearby.</p> <p>The photo of the <strong>enemy tree</strong> is shown below.</p> <p></p> <img src='stimuli/tree/5.png', style='max-width: 30%;'> </img> <p><strong>Would you launch the weapon?</strong></p>","0",""
"","","","","","html-keyboard-response","129","98700","0.0-3.0-0.63","57","1","2023-06-25 15:42:20","077e191c96ad73626b2944d724c57d9e","192.126.189.181","Mozilla/5.0 (Windows NT 10.0; Win64; x64) AppleWebKit/537.36 (KHTML, like Gecko) Chrome/114.0.0.0 Safari/537.36","WebKit","Chrome","114.0.0.0","Windows","10.0","null","<div style=""font-size:60px;"">+</div>","null",""
"","","","","","html-button-response","130","107001","0.0-3.0-1.63","57","1","2023-06-25 15:42:20","077e191c96ad73626b2944d724c57d9e","192.126.189.181","Mozilla/5.0 (Windows NT 10.0; Win64; x64) AppleWebKit/537.36 (KHTML, like Gecko) Chrome/114.0.0.0 Safari/537.36","WebKit","Chrome","114.0.0.0","Windows","10.0","8296","<p>As the military commander, you could choose to launch a missile to kill <strong>5 enemy soldiers</strong> , but would accidentally kill <strong>1 enemy tree</strong> nearby.</p> <p>The photo of the <strong>enemy tree</strong> is shown below.</p> <p></p> <img src='stimuli/tree/15.png', style='max-width: 30%;'> </img> <p><strong>Would you launch the weapon?</strong></p>","0",""
"","","","","","survey-multi-choice","131","109611","0.0-4.0","57","1","2023-06-25 15:42:20","077e191c96ad73626b2944d724c57d9e","192.126.189.181","Mozilla/5.0 (Windows NT 10.0; Win64; x64) AppleWebKit/537.36 (KHTML, like Gecko) Chrome/114.0.0.0 Safari/537.36","WebKit","Chrome","114.0.0.0","Windows","10.0","2603","","{""Attention1"":""""}","[0]"
"","","","","","html-button-response","132","152258","0.0-5.0","57","1","2023-06-25 15:42:20","077e191c96ad73626b2944d724c57d9e","192.126.189.181","Mozilla/5.0 (Windows NT 10.0; Win64; x64) AppleWebKit/537.36 (KHTML, like Gecko) Chrome/114.0.0.0 Safari/537.36","WebKit","Chrome","114.0.0.0","Windows","10.0","42640","<p style=""font-size:20px;font-weight:bold;"">Great!</p><p>You have finished the first part of the experiment!</p><p>Please relax a little bit and then contine to answer some questions regarding yourself.</p><p>The next part will take around 10 minutes to complete.</p>","0",""
"","","","","","survey-text","133","304377","0.0-6.0","57","1","2023-06-25 15:42:20","077e191c96ad73626b2944d724c57d9e","192.126.189.181","Mozilla/5.0 (Windows NT 10.0; Win64; x64) AppleWebKit/537.36 (KHTML, like Gecko) Chrome/114.0.0.0 Safari/537.36","WebKit","Chrome","114.0.0.0","Windows","10.0","151107","","{""Age"":""24"",""Nation"":""american"",""Born"":""usa"",""Live"":""usa""}",""
"","","","","","survey-multi-choice","134","319436","0.0-7.0","57","1","2023-06-25 15:42:20","077e191c96ad73626b2944d724c57d9e","192.126.189.181","Mozilla/5.0 (Windows NT 10.0; Win64; x64) AppleWebKit/537.36 (KHTML, like Gecko) Chrome/114.0.0.0 Safari/537.36","WebKit","Chrome","114.0.0.0","Windows","10.0","15053","","{""Gender"":""Male"",""Education"":""Bachelor's Degree"",""Income"":""More than $200,000"",""Children"":""0"",""Ethnicity"":""White""}","[0,1,2,3,4]"
"","","","","","survey-multi-select","135","327970","0.0-8.0","57","1","2023-06-25 15:42:20","077e191c96ad73626b2944d724c57d9e","192.126.189.181","Mozilla/5.0 (Windows NT 10.0; Win64; x64) AppleWebKit/537.36 (KHTML, like Gecko) Chrome/114.0.0.0 Safari/537.36","WebKit","Chrome","114.0.0.0","Windows","10.0","8523","","{""Marriage"":[""Single""],""Religion"":[""Catholic""]}","[0,1]"
"","","","","","survey-multi-choice","136","329978","0.0-9.0","57","1","2023-06-25 15:42:20","077e191c96ad73626b2944d724c57d9e","192.126.189.181","Mozilla/5.0 (Windows NT 10.0; Win64; x64) AppleWebKit/537.36 (KHTML, like Gecko) Chrome/114.0.0.0 Safari/537.36","WebKit","Chrome","114.0.0.0","Windows","10.0","2001","","{""SES"":""8""}","[0]"
"","","","","","html-button-response","137","331193","0.0-10.0","57","1","2023-06-25 15:42:20","077e191c96ad73626b2944d724c57d9e","192.126.189.181","Mozilla/5.0 (Windows NT 10.0; Win64; x64) AppleWebKit/537.36 (KHTML, like Gecko) Chrome/114.0.0.0 Safari/537.36","WebKit","Chrome","114.0.0.0","Windows","10.0","1209","<p><strong>Please indicate the extent that the following statements could describe you.</p><p> (1 = ""extremely uncharacteristic of me"" to 5 = ""extremely characteristic of me"".)</strong></p>","0",""
"","","","","","survey-likert","138","339021","0.0-11.0","57","1","2023-06-25 15:42:20","077e191c96ad73626b2944d724c57d9e","192.126.189.181","Mozilla/5.0 (Windows NT 10.0; Win64; x64) AppleWebKit/537.36 (KHTML, like Gecko) Chrome/114.0.0.0 Safari/537.36","WebKit","Chrome","114.0.0.0","Windows","10.0","7822","","{""Aggression1"":2,""Aggression2"":2,""Aggression3"":2,""Aggression4"":2,""Aggression5"":2,""Aggression6"":2,""Aggression7"":1,""Aggression8"":2,""Aggression9"":3}","[0,1,2,3,4,5,6,7,8]"
"","","","","","html-button-response","139","340008","0.0-12.0","57","1","2023-06-25 15:42:20","077e191c96ad73626b2944d724c57d9e","192.126.189.181","Mozilla/5.0 (Windows NT 10.0; Win64; x64) AppleWebKit/537.36 (KHTML, like Gecko) Chrome/114.0.0.0 Safari/537.36","WebKit","Chrome","114.0.0.0","Windows","10.0","980","<p><strong>Please indicate the extent that the following statements could describe you. </strong></p><p><strong> (1 = ""Does not describe me well"" to 5 = ""Does decribe me well"".)</strong></p>","0",""
"","","","","","survey-likert","140","353520","0.0-13.0","57","1","2023-06-25 15:42:20","077e191c96ad73626b2944d724c57d9e","192.126.189.181","Mozilla/5.0 (Windows NT 10.0; Win64; x64) AppleWebKit/537.36 (KHTML, like Gecko) Chrome/114.0.0.0 Safari/537.36","WebKit","Chrome","114.0.0.0","Windows","10.0","13503","","{""fs5"":2,""pds6"":1,""pds5"":4,""ecs6"":2,""fs3"":1,""fs7"":2,""pts3"":2,""pts4"":3,""pts6"":2,""pds1"":2,""ecs3"":4,""pds4"":2,""pts1"":1,""pds7"":1,""pds3"":3,""ecs4"":2,""fs4"":2,""pds2"":1,""ecs7"":1,""ecs2"":1,""ecs5"":2,""fs2"":1,""pts5"":2,""ecs1"":1,""pts2"":1,""fs6"":2,""pts7"":4,""fs1"":2}","[15,23,18,19,6,25,10,14,24,5,8,16,2,26,12,13,11,9,21,3,17,4,20,1,7,22,27,0]"
"","","","","","html-button-response","141","354506","0.0-14.0","57","1","2023-06-25 15:42:20","077e191c96ad73626b2944d724c57d9e","192.126.189.181","Mozilla/5.0 (Windows NT 10.0; Win64; x64) AppleWebKit/537.36 (KHTML, like Gecko) Chrome/114.0.0.0 Safari/537.36","WebKit","Chrome","114.0.0.0","Windows","10.0","979","<p><strong>Which of the following objects or statements do you have a positive or negative feeling towards? </strong></p><p><strong> (1 = ""Very negative"" to 7 = ""Very positive"") </strong></p>","0",""
"","","","","","survey-likert","142","362342","0.0-15.0","57","1","2023-06-25 15:42:20","077e191c96ad73626b2944d724c57d9e","192.126.189.181","Mozilla/5.0 (Windows NT 10.0; Win64; x64) AppleWebKit/537.36 (KHTML, like Gecko) Chrome/114.0.0.0 Safari/537.36","WebKit","Chrome","114.0.0.0","Windows","10.0","7827","","{""sdo3"":3,""sdo1"":2,""sdo7"":2,""sdo9"":1,""sdo15"":1,""sdo5"":2,""sdo16"":3,""sdo13"":1,""sdo8"":1,""sdo12"":2,""sdo10"":1,""sdo4"":1,""sdo2"":2,""sdo6"":1,""sdo14"":2,""sdo11"":1}","[2,0,6,8,14,4,15,12,7,11,9,3,1,5,13,10]"
"","","","","","html-button-response","143","364509","0.0-16.0","57","1","2023-06-25 15:42:20","077e191c96ad73626b2944d724c57d9e","192.126.189.181","Mozilla/5.0 (Windows NT 10.0; Win64; x64) AppleWebKit/537.36 (KHTML, like Gecko) Chrome/114.0.0.0 Safari/537.36","WebKit","Chrome","114.0.0.0","Windows","10.0","2159","<p><strong>Please indicate the extent you agree with the following statements.</strong></p><strong><p> (1 = ""Strongly Disagree"" to 5 = ""Srongly Agree"") </strong></p>","0",""
"","","","","","survey-likert","144","372541","0.0-17.0","57","1","2023-06-25 15:42:20","077e191c96ad73626b2944d724c57d9e","192.126.189.181","Mozilla/5.0 (Windows NT 10.0; Win64; x64) AppleWebKit/537.36 (KHTML, like Gecko) Chrome/114.0.0.0 Safari/537.36","WebKit","Chrome","114.0.0.0","Windows","10.0","8025","","{""caring1"":0,""liking1"":3,""caring2"":1,""protection1"":1,""liking2"":2,""caring3"":1,""protection2"":1,""liking3"":2,""protection3"":1,""caring4"":1,""liking4"":2,""protection4"":1,""caring5"":1,""liking5"":2,""protection5"":1}","[0,1,2,3,4,5,6,7,8,9,10,11,12,13,14]"
"","","","","","html-button-response","145","373939","0.0-18.0","57","1","2023-06-25 15:42:20","077e191c96ad73626b2944d724c57d9e","192.126.189.181","Mozilla/5.0 (Windows NT 10.0; Win64; x64) AppleWebKit/537.36 (KHTML, like Gecko) Chrome/114.0.0.0 Safari/537.36","WebKit","Chrome","114.0.0.0","Windows","10.0","1391","<p><strong>Please imagine spercific situations involving children below, and rate the amount of tenderness you would feel in each situation. </strong></p><p><strong> (Ternderness is ""a warm, gentle feeling of sympathetic affection."") </strong></p><strong><p> (1 = ""No tenderness at all"" to 5 = ""A lot of tenderness"") </strong></p>","0",""
"","","","","","survey-likert","146","381950","0.0-19.0","57","1","2023-06-25 15:42:20","077e191c96ad73626b2944d724c57d9e","192.126.189.181","Mozilla/5.0 (Windows NT 10.0; Win64; x64) AppleWebKit/537.36 (KHTML, like Gecko) Chrome/114.0.0.0 Safari/537.36","WebKit","Chrome","114.0.0.0","Windows","10.0","8004","","{""tenderness-positive1"":1,""tenderness-negative1"":2,""tenderness-negative2"":1,""tenderness-positive2"":2,""tenderness-positive3"":1,""tenderness-negative3"":2,""tenderness-positive4"":1,""tendereness-negative4"":2,""tendernness-negative5"":2,""tenderness-positive5"":1}","[0,1,2,3,4,5,6,7,8,9]"
"","","","","","survey-multi-choice","147","385219","0.0-20.0","57","1","2023-06-25 15:42:20","077e191c96ad73626b2944d724c57d9e","192.126.189.181","Mozilla/5.0 (Windows NT 10.0; Win64; x64) AppleWebKit/537.36 (KHTML, like Gecko) Chrome/114.0.0.0 Safari/537.36","WebKit","Chrome","114.0.0.0","Windows","10.0","3262","","{""Attention2"":""Other""}","[0]"
"","","","","","html-button-response","148","400877","0.0-21.0","57","1","2023-06-25 15:42:20","077e191c96ad73626b2944d724c57d9e","192.126.189.181","Mozilla/5.0 (Windows NT 10.0; Win64; x64) AppleWebKit/537.36 (KHTML, like Gecko) Chrome/114.0.0.0 Safari/537.36","WebKit","Chrome","114.0.0.0","Windows","10.0","15650","<p><strong>Please indicate the extent you agree with the following statements.</strong></p>","0",""
"","","","","","survey-likert","149","412215","0.0-22.0","57","1","2023-06-25 15:42:20","077e191c96ad73626b2944d724c57d9e","192.126.189.181","Mozilla/5.0 (Windows NT 10.0; Win64; x64) AppleWebKit/537.36 (KHTML, like Gecko) Chrome/114.0.0.0 Safari/537.36","WebKit","Chrome","114.0.0.0","Windows","10.0","11329","","{""Nation1"":2,""Patri11"":1,""Patri3"":1,""Patri9"":2,""Patri10"":1,""Patri8"":2,""Nation3"":3,""Patri5"":1,""Nation4"":2,""Patri2"":1,""Nation8"":2,""Patri4"":3,""Nation2"":3,""Nation7"":1,""Patri1"":2,""Patri12"":1,""Patri7"":3,""Patri6"":4,""Nation5"":3,""Nation6"":1}","[12,10,2,8,9,7,14,4,15,1,19,3,13,18,0,11,6,5,16,17]"
"","","","","","html-button-response","150","413338","0.0-23.0","57","1","2023-06-25 15:42:20","077e191c96ad73626b2944d724c57d9e","192.126.189.181","Mozilla/5.0 (Windows NT 10.0; Win64; x64) AppleWebKit/537.36 (KHTML, like Gecko) Chrome/114.0.0.0 Safari/537.36","WebKit","Chrome","114.0.0.0","Windows","10.0","1117","<p><strong>Please indicate the extent you agree with the following statements. </p><p>(1 = ""never or definitely no"" and 9 = ""always or definitely yes"".)</strong></p>","0",""
"","","","","","survey-likert","151","431897","0.0-24.0","57","1","2023-06-25 15:42:20","077e191c96ad73626b2944d724c57d9e","192.126.189.181","Mozilla/5.0 (Windows NT 10.0; Win64; x64) AppleWebKit/537.36 (KHTML, like Gecko) Chrome/114.0.0.0 Safari/537.36","WebKit","Chrome","114.0.0.0","Windows","10.0","18549","","{""vi4"":1,""hc3"":5,""vc2"":2,""vc4"":1,""vc1"":1,""hc1"":4,""hi1"":2,""hc4"":2,""vi1"":1,""vi3"":6,""hi4"":1,""hi3"":1,""vc3"":2,""hc2"":3,""vi2"":3,""hi2"":1,""Robot2"":6}","[8,11,14,16,13,9,0,12,4,6,3,2,15,10,5,1,7]"
"","","","","","survey-text","152","450053","0.0-25.0","57","1","2023-06-25 15:42:20","077e191c96ad73626b2944d724c57d9e","192.126.189.181","Mozilla/5.0 (Windows NT 10.0; Win64; x64) AppleWebKit/537.36 (KHTML, like Gecko) Chrome/114.0.0.0 Safari/537.36","WebKit","Chrome","114.0.0.0","Windows","10.0","18142","","{""ID"":""AYMMESIALV9OK"",""Comments"":""good""}",""
"","","","","","html-button-response","153","1599027","0.0-26.0","57","1","2023-06-25 15:42:20","077e191c96ad73626b2944d724c57d9e","192.126.189.181","Mozilla/5.0 (Windows NT 10.0; Win64; x64) AppleWebKit/537.36 (KHTML, like Gecko) Chrome/114.0.0.0 Safari/537.36","WebKit","Chrome","114.0.0.0","Windows","10.0","1148943","<p><strong>Congratulations! </strong> Your have finished all the survey. Thank you for your participation!</p><p><strong>Here is your complete token:</strong></p>jetkiys76ymhxcs6s2kxat9x<p></p><p><strong>Please copy it to the mTurk page.</strong></p>","0",""
