"success","timeout","failed_images","failed_audio","failed_video","trial_type","trial_index","time_elapsed","internal_node_id","run_id","condition","recorded_at","source_code_version","ip","user_agent","device","browser","browser_version","platform","platform_version","rt","stimulus","response","question_order"
"true","false","[]","[]","[]","preload","0","1425","0.0-0.0","101","1","2022-11-13 13:34:31","a60ee176136a54a92dc2853177adfa2c","39.183.122.24","Mozilla/5.0 (Windows NT 10.0; WOW64) AppleWebKit/537.36 (KHTML, like Gecko) Chrome/86.0.4240.198 Safari/537.36","WebKit","Chrome","86.0.4240.198","Windows","10.0","","","",""
"true","","","","","fullscreen","1","16759","0.0-1.0","101","1","2022-11-13 13:34:31","a60ee176136a54a92dc2853177adfa2c","39.183.122.24","Mozilla/5.0 (Windows NT 10.0; WOW64) AppleWebKit/537.36 (KHTML, like Gecko) Chrome/86.0.4240.198 Safari/537.36","WebKit","Chrome","86.0.4240.198","Windows","10.0","","","",""
"","","","","","html-button-response","2","29335","0.0-2.0","101","1","2022-11-13 13:34:31","a60ee176136a54a92dc2853177adfa2c","39.183.122.24","Mozilla/5.0 (Windows NT 10.0; WOW64) AppleWebKit/537.36 (KHTML, like Gecko) Chrome/86.0.4240.198 Safari/537.36","WebKit","Chrome","86.0.4240.198","Windows","10.0","12571","<p style=""font-size:20px;font-weight:bold;"">实验知情同意书</p><p style=""text-align:left;""><strong>实验名称：</strong>社会冲突研究</p><p style=""text-align:left;""><strong>主要研究者：</strong>韩晓春副教授（北京师范大学心理学部）</p><p style=""text-align:left;""><strong>联系方式：</strong>发送邮件至xiaochun.han@bnu.edu.cn</p><p style=""text-align:left;""><strong>研究目的：</strong>研究旨在了解人类面对群体冲突时的决策方式，以及相关的心理学特质。实验调查大约需要20分钟。</p><p style=""text-align:left;""><strong>实验流程：</strong>实验包含两部分。第一部分呈现一系列群体冲突场景，请你决定如何对这些冲突进行反应，大约需要10分钟完成。第二部分包含一系列人口统计学信息收集和心理学问卷，大约需要10分钟完成。</p><p style=""text-align:left;""><strong>参加及退出规则：</strong>参加本实验完全取决于您的个人意愿。在参与过程中，您可以随时退出，并且不用承担任何后果。</p><p style=""text-align:left;""><strong>隐私：</strong>本实验完全匿名进行，不会收集您的姓名或其他能够识别您身份的信息。实验中收集的作答仅用作科学研究使用，可能会在学术期刊/书籍上发表，或者用于教学，您的数据未来可能会和其他研究者或实验室分享，但您的个人身份不会被识别。</p><p style=""text-align:left;""><strong>实验报酬：</strong>实验完成后，您将获得15元人民币报酬，以感谢您的时间和努力。调查问卷中包含几道题目用以测验您作答时的认真度。只有完成全部实验，并且正确回答认真度测验的被试才能获得实验报酬。实验报酬将通过支付宝转账发放。</p><p style=""text-align:left;font-size:20px;""><strong>如果您同意以上实验知情同意书的内容，请点击'同意并且开始实验'按钮；否则请关闭浏览器界面，退出实验。</strong></p>","0",""
"","","","","","html-button-response","3","37423","0.0-3.0","101","1","2022-11-13 13:34:31","a60ee176136a54a92dc2853177adfa2c","39.183.122.24","Mozilla/5.0 (Windows NT 10.0; WOW64) AppleWebKit/537.36 (KHTML, like Gecko) Chrome/86.0.4240.198 Safari/537.36","WebKit","Chrome","86.0.4240.198","Windows","10.0","8085","<p ><strong>实验任务一：</strong></p><p>请想象你的国家与另一个国家发生了军事冲突。</p><p>你是国家军队的指挥官，你将如何在冲突中进行决策。</p><p>具体来说，作为军队指挥官，请你决定是否发射导弹进行打击。</p><p>接下来，你会面对一系列场景，请仔细阅读每个场景，然后进行决策。</p><p>这部分实验任务大约需要10分钟。</p><p><strong>实验过程中，请集中注意力。</strong></p>","0",""
"","","","","","html-keyboard-response","4","38425","0.0-4.0-0.0","101","1","2022-11-13 13:34:31","a60ee176136a54a92dc2853177adfa2c","39.183.122.24","Mozilla/5.0 (Windows NT 10.0; WOW64) AppleWebKit/537.36 (KHTML, like Gecko) Chrome/86.0.4240.198 Safari/537.36","WebKit","Chrome","86.0.4240.198","Windows","10.0","null","<div style=""font-size:60px;"">+</div>","null",""
"","","","","","html-button-response","5","47735","0.0-4.0-1.0","101","1","2022-11-13 13:34:31","a60ee176136a54a92dc2853177adfa2c","39.183.122.24","Mozilla/5.0 (Windows NT 10.0; WOW64) AppleWebKit/537.36 (KHTML, like Gecko) Chrome/86.0.4240.198 Safari/537.36","WebKit","Chrome","86.0.4240.198","Windows","10.0","9306","<p>作为军队的指挥官，你可以选择发射导弹杀死 <strong>5名</strong> 敌国士兵，但会炸毁附近的 <strong>1棵</strong> 敌国树木。</p> <p>树木的照片如下图所示。</p> <p></p> <img src='stimuli/trees/10.png', style='max-width: 30%;'> </img> <p><strong>你是否选择发射武器？</strong></p>","0",""
"","","","","","html-keyboard-response","6","48738","0.0-4.0-0.1","101","1","2022-11-13 13:34:31","a60ee176136a54a92dc2853177adfa2c","39.183.122.24","Mozilla/5.0 (Windows NT 10.0; WOW64) AppleWebKit/537.36 (KHTML, like Gecko) Chrome/86.0.4240.198 Safari/537.36","WebKit","Chrome","86.0.4240.198","Windows","10.0","null","<div style=""font-size:60px;"">+</div>","null",""
"","","","","","html-button-response","7","53847","0.0-4.0-1.1","101","1","2022-11-13 13:34:31","a60ee176136a54a92dc2853177adfa2c","39.183.122.24","Mozilla/5.0 (Windows NT 10.0; WOW64) AppleWebKit/537.36 (KHTML, like Gecko) Chrome/86.0.4240.198 Safari/537.36","WebKit","Chrome","86.0.4240.198","Windows","10.0","5107","<p>作为军队的指挥官，你可以选择发射导弹杀死 <strong>8名</strong> 敌国士兵，但会误杀附近的 <strong>1名</strong> 敌国平民。</p> <p>平民照片如下图所示。</p> <p></p> <img src='stimuli/faces/PCM6.jpg', style='max-width: 30%;'> </img> <p><strong>你是否选择发射武器？</strong></p>","0",""
"","","","","","html-keyboard-response","8","54848","0.0-4.0-0.2","101","1","2022-11-13 13:34:31","a60ee176136a54a92dc2853177adfa2c","39.183.122.24","Mozilla/5.0 (Windows NT 10.0; WOW64) AppleWebKit/537.36 (KHTML, like Gecko) Chrome/86.0.4240.198 Safari/537.36","WebKit","Chrome","86.0.4240.198","Windows","10.0","null","<div style=""font-size:60px;"">+</div>","null",""
"","","","","","html-button-response","9","59599","0.0-4.0-1.2","101","1","2022-11-13 13:34:31","a60ee176136a54a92dc2853177adfa2c","39.183.122.24","Mozilla/5.0 (Windows NT 10.0; WOW64) AppleWebKit/537.36 (KHTML, like Gecko) Chrome/86.0.4240.198 Safari/537.36","WebKit","Chrome","86.0.4240.198","Windows","10.0","4746","<p>作为军队的指挥官，你可以选择发射导弹杀死 <strong>4名</strong> 敌国士兵，但会误杀附近的 <strong>1名</strong> 敌国平民。</p> <p>平民照片如下图所示。</p> <p></p> <img src='stimuli/faces/PCM4.jpg', style='max-width: 30%;'> </img> <p><strong>你是否选择发射武器？</strong></p>","0",""
"","","","","","html-keyboard-response","10","60601","0.0-4.0-0.3","101","1","2022-11-13 13:34:31","a60ee176136a54a92dc2853177adfa2c","39.183.122.24","Mozilla/5.0 (Windows NT 10.0; WOW64) AppleWebKit/537.36 (KHTML, like Gecko) Chrome/86.0.4240.198 Safari/537.36","WebKit","Chrome","86.0.4240.198","Windows","10.0","null","<div style=""font-size:60px;"">+</div>","null",""
"","","","","","html-button-response","11","67119","0.0-4.0-1.3","101","1","2022-11-13 13:34:31","a60ee176136a54a92dc2853177adfa2c","39.183.122.24","Mozilla/5.0 (Windows NT 10.0; WOW64) AppleWebKit/537.36 (KHTML, like Gecko) Chrome/86.0.4240.198 Safari/537.36","WebKit","Chrome","86.0.4240.198","Windows","10.0","6513","<p>作为军队的指挥官，你可以选择发射导弹杀死 <strong>5名</strong> 敌国士兵，但会炸毁附近的 <strong>1棵</strong> 敌国树木。</p> <p>树木的照片如下图所示。</p> <p></p> <img src='stimuli/trees/3.png', style='max-width: 30%;'> </img> <p><strong>你是否选择发射武器？</strong></p>","0",""
"","","","","","html-keyboard-response","12","68121","0.0-4.0-0.4","101","1","2022-11-13 13:34:31","a60ee176136a54a92dc2853177adfa2c","39.183.122.24","Mozilla/5.0 (Windows NT 10.0; WOW64) AppleWebKit/537.36 (KHTML, like Gecko) Chrome/86.0.4240.198 Safari/537.36","WebKit","Chrome","86.0.4240.198","Windows","10.0","null","<div style=""font-size:60px;"">+</div>","null",""
"","","","","","html-button-response","13","73287","0.0-4.0-1.4","101","1","2022-11-13 13:34:31","a60ee176136a54a92dc2853177adfa2c","39.183.122.24","Mozilla/5.0 (Windows NT 10.0; WOW64) AppleWebKit/537.36 (KHTML, like Gecko) Chrome/86.0.4240.198 Safari/537.36","WebKit","Chrome","86.0.4240.198","Windows","10.0","5161","<p>作为军队的指挥官，你可以选择发射导弹杀死 <strong>2名</strong> 敌国士兵，但会误杀附近的 <strong>1名</strong> 敌国平民。</p> <p>平民照片如下图所示。</p> <p></p> <img src='stimuli/faces/PCF3.jpg', style='max-width: 30%;'> </img> <p><strong>你是否选择发射武器？</strong></p>","0",""
"","","","","","html-keyboard-response","14","74289","0.0-4.0-0.5","101","1","2022-11-13 13:34:31","a60ee176136a54a92dc2853177adfa2c","39.183.122.24","Mozilla/5.0 (Windows NT 10.0; WOW64) AppleWebKit/537.36 (KHTML, like Gecko) Chrome/86.0.4240.198 Safari/537.36","WebKit","Chrome","86.0.4240.198","Windows","10.0","null","<div style=""font-size:60px;"">+</div>","null",""
"","","","","","html-button-response","15","78863","0.0-4.0-1.5","101","1","2022-11-13 13:34:31","a60ee176136a54a92dc2853177adfa2c","39.183.122.24","Mozilla/5.0 (Windows NT 10.0; WOW64) AppleWebKit/537.36 (KHTML, like Gecko) Chrome/86.0.4240.198 Safari/537.36","WebKit","Chrome","86.0.4240.198","Windows","10.0","4569","<p>作为军队的指挥官，你可以选择发射导弹杀死 <strong>5名</strong> 敌国士兵，但会炸毁附近的 <strong>1棵</strong> 敌国树木。</p> <p>树木的照片如下图所示。</p> <p></p> <img src='stimuli/trees/11.png', style='max-width: 30%;'> </img> <p><strong>你是否选择发射武器？</strong></p>","0",""
"","","","","","html-keyboard-response","16","79889","0.0-4.0-0.6","101","1","2022-11-13 13:34:31","a60ee176136a54a92dc2853177adfa2c","39.183.122.24","Mozilla/5.0 (Windows NT 10.0; WOW64) AppleWebKit/537.36 (KHTML, like Gecko) Chrome/86.0.4240.198 Safari/537.36","WebKit","Chrome","86.0.4240.198","Windows","10.0","null","<div style=""font-size:60px;"">+</div>","null",""
"","","","","","html-button-response","17","84343","0.0-4.0-1.6","101","1","2022-11-13 13:34:31","a60ee176136a54a92dc2853177adfa2c","39.183.122.24","Mozilla/5.0 (Windows NT 10.0; WOW64) AppleWebKit/537.36 (KHTML, like Gecko) Chrome/86.0.4240.198 Safari/537.36","WebKit","Chrome","86.0.4240.198","Windows","10.0","4449","<p>作为军队的指挥官，你可以选择发射导弹杀死 <strong>1名</strong> 敌国士兵，但会误杀附近的 <strong>1名</strong> 敌国平民。</p> <p>平民照片如下图所示。</p> <p></p> <img src='stimuli/faces/PCM7.jpg', style='max-width: 30%;'> </img> <p><strong>你是否选择发射武器？</strong></p>","1",""
"","","","","","html-keyboard-response","18","85346","0.0-4.0-0.7","101","1","2022-11-13 13:34:31","a60ee176136a54a92dc2853177adfa2c","39.183.122.24","Mozilla/5.0 (Windows NT 10.0; WOW64) AppleWebKit/537.36 (KHTML, like Gecko) Chrome/86.0.4240.198 Safari/537.36","WebKit","Chrome","86.0.4240.198","Windows","10.0","null","<div style=""font-size:60px;"">+</div>","null",""
"","","","","","html-button-response","19","88775","0.0-4.0-1.7","101","1","2022-11-13 13:34:31","a60ee176136a54a92dc2853177adfa2c","39.183.122.24","Mozilla/5.0 (Windows NT 10.0; WOW64) AppleWebKit/537.36 (KHTML, like Gecko) Chrome/86.0.4240.198 Safari/537.36","WebKit","Chrome","86.0.4240.198","Windows","10.0","3424","<p>作为军队的指挥官，你可以选择发射导弹杀死 <strong>1名</strong> 敌国士兵，但会误杀附近的 <strong>1名</strong> 敌国平民。</p> <p>平民照片如下图所示。</p> <p></p> <img src='stimuli/faces/PCF2.jpg', style='max-width: 30%;'> </img> <p><strong>你是否选择发射武器？</strong></p>","0",""
"","","","","","html-keyboard-response","20","89776","0.0-4.0-0.8","101","1","2022-11-13 13:34:31","a60ee176136a54a92dc2853177adfa2c","39.183.122.24","Mozilla/5.0 (Windows NT 10.0; WOW64) AppleWebKit/537.36 (KHTML, like Gecko) Chrome/86.0.4240.198 Safari/537.36","WebKit","Chrome","86.0.4240.198","Windows","10.0","null","<div style=""font-size:60px;"">+</div>","null",""
"","","","","","html-button-response","21","95192","0.0-4.0-1.8","101","1","2022-11-13 13:34:31","a60ee176136a54a92dc2853177adfa2c","39.183.122.24","Mozilla/5.0 (Windows NT 10.0; WOW64) AppleWebKit/537.36 (KHTML, like Gecko) Chrome/86.0.4240.198 Safari/537.36","WebKit","Chrome","86.0.4240.198","Windows","10.0","5411","<p>作为军队的指挥官，你可以选择发射导弹杀死 <strong>4名</strong> 敌国士兵，但会炸毁附近的 <strong>1棵</strong> 敌国树木。</p> <p>树木的照片如下图所示。</p> <p></p> <img src='stimuli/trees/13.png', style='max-width: 30%;'> </img> <p><strong>你是否选择发射武器？</strong></p>","0",""
"","","","","","html-keyboard-response","22","96196","0.0-4.0-0.9","101","1","2022-11-13 13:34:31","a60ee176136a54a92dc2853177adfa2c","39.183.122.24","Mozilla/5.0 (Windows NT 10.0; WOW64) AppleWebKit/537.36 (KHTML, like Gecko) Chrome/86.0.4240.198 Safari/537.36","WebKit","Chrome","86.0.4240.198","Windows","10.0","null","<div style=""font-size:60px;"">+</div>","null",""
"","","","","","html-button-response","23","99135","0.0-4.0-1.9","101","1","2022-11-13 13:34:31","a60ee176136a54a92dc2853177adfa2c","39.183.122.24","Mozilla/5.0 (Windows NT 10.0; WOW64) AppleWebKit/537.36 (KHTML, like Gecko) Chrome/86.0.4240.198 Safari/537.36","WebKit","Chrome","86.0.4240.198","Windows","10.0","2934","<p>作为军队的指挥官，你可以选择发射导弹杀死 <strong>8名</strong> 敌国士兵，但会误杀附近的 <strong>1名</strong> 敌国平民。</p> <p>平民照片如下图所示。</p> <p></p> <img src='stimuli/faces/PCF7.jpg', style='max-width: 30%;'> </img> <p><strong>你是否选择发射武器？</strong></p>","0",""
"","","","","","html-keyboard-response","24","100137","0.0-4.0-0.10","101","1","2022-11-13 13:34:31","a60ee176136a54a92dc2853177adfa2c","39.183.122.24","Mozilla/5.0 (Windows NT 10.0; WOW64) AppleWebKit/537.36 (KHTML, like Gecko) Chrome/86.0.4240.198 Safari/537.36","WebKit","Chrome","86.0.4240.198","Windows","10.0","null","<div style=""font-size:60px;"">+</div>","null",""
"","","","","","html-button-response","25","126670","0.0-4.0-1.10","101","1","2022-11-13 13:34:31","a60ee176136a54a92dc2853177adfa2c","39.183.122.24","Mozilla/5.0 (Windows NT 10.0; WOW64) AppleWebKit/537.36 (KHTML, like Gecko) Chrome/86.0.4240.198 Safari/537.36","WebKit","Chrome","86.0.4240.198","Windows","10.0","26531","<p>作为军队的指挥官，你可以选择发射导弹杀死 <strong>8名</strong> 敌国士兵，但会误杀附近的 <strong>1名</strong> 敌国平民。</p> <p>平民照片如下图所示。</p> <p></p> <img src='stimuli/faces/PCF8.jpg', style='max-width: 30%;'> </img> <p><strong>你是否选择发射武器？</strong></p>","0",""
"","","","","","html-keyboard-response","26","127674","0.0-4.0-0.11","101","1","2022-11-13 13:34:31","a60ee176136a54a92dc2853177adfa2c","39.183.122.24","Mozilla/5.0 (Windows NT 10.0; WOW64) AppleWebKit/537.36 (KHTML, like Gecko) Chrome/86.0.4240.198 Safari/537.36","WebKit","Chrome","86.0.4240.198","Windows","10.0","null","<div style=""font-size:60px;"">+</div>","null",""
"","","","","","html-button-response","27","133222","0.0-4.0-1.11","101","1","2022-11-13 13:34:31","a60ee176136a54a92dc2853177adfa2c","39.183.122.24","Mozilla/5.0 (Windows NT 10.0; WOW64) AppleWebKit/537.36 (KHTML, like Gecko) Chrome/86.0.4240.198 Safari/537.36","WebKit","Chrome","86.0.4240.198","Windows","10.0","5544","<p>作为军队的指挥官，你可以选择发射导弹杀死 <strong>2名</strong> 敌国士兵，但会误杀附近的 <strong>1名</strong> 敌国平民。</p> <p>平民照片如下图所示。</p> <p></p> <img src='stimuli/faces/PCF5.jpg', style='max-width: 30%;'> </img> <p><strong>你是否选择发射武器？</strong></p>","0",""
"","","","","","html-keyboard-response","28","134225","0.0-4.0-0.12","101","1","2022-11-13 13:34:31","a60ee176136a54a92dc2853177adfa2c","39.183.122.24","Mozilla/5.0 (Windows NT 10.0; WOW64) AppleWebKit/537.36 (KHTML, like Gecko) Chrome/86.0.4240.198 Safari/537.36","WebKit","Chrome","86.0.4240.198","Windows","10.0","null","<div style=""font-size:60px;"">+</div>","null",""
"","","","","","html-button-response","29","137495","0.0-4.0-1.12","101","1","2022-11-13 13:34:31","a60ee176136a54a92dc2853177adfa2c","39.183.122.24","Mozilla/5.0 (Windows NT 10.0; WOW64) AppleWebKit/537.36 (KHTML, like Gecko) Chrome/86.0.4240.198 Safari/537.36","WebKit","Chrome","86.0.4240.198","Windows","10.0","3268","<p>作为军队的指挥官，你可以选择发射导弹杀死 <strong>6名</strong> 敌国士兵，但会误杀附近的 <strong>1名</strong> 敌国平民。</p> <p>平民照片如下图所示。</p> <p></p> <img src='stimuli/faces/PCM5.jpg', style='max-width: 30%;'> </img> <p><strong>你是否选择发射武器？</strong></p>","0",""
"","","","","","html-keyboard-response","30","138496","0.0-4.0-0.13","101","1","2022-11-13 13:34:31","a60ee176136a54a92dc2853177adfa2c","39.183.122.24","Mozilla/5.0 (Windows NT 10.0; WOW64) AppleWebKit/537.36 (KHTML, like Gecko) Chrome/86.0.4240.198 Safari/537.36","WebKit","Chrome","86.0.4240.198","Windows","10.0","null","<div style=""font-size:60px;"">+</div>","null",""
"","","","","","html-button-response","31","144398","0.0-4.0-1.13","101","1","2022-11-13 13:34:31","a60ee176136a54a92dc2853177adfa2c","39.183.122.24","Mozilla/5.0 (Windows NT 10.0; WOW64) AppleWebKit/537.36 (KHTML, like Gecko) Chrome/86.0.4240.198 Safari/537.36","WebKit","Chrome","86.0.4240.198","Windows","10.0","5899","<p>作为军队的指挥官，你可以选择发射导弹杀死 <strong>4名</strong> 敌国士兵，但会炸毁附近的 <strong>1棵</strong> 敌国树木。</p> <p>树木的照片如下图所示。</p> <p></p> <img src='stimuli/trees/5.png', style='max-width: 30%;'> </img> <p><strong>你是否选择发射武器？</strong></p>","0",""
"","","","","","html-keyboard-response","32","145402","0.0-4.0-0.14","101","1","2022-11-13 13:34:31","a60ee176136a54a92dc2853177adfa2c","39.183.122.24","Mozilla/5.0 (Windows NT 10.0; WOW64) AppleWebKit/537.36 (KHTML, like Gecko) Chrome/86.0.4240.198 Safari/537.36","WebKit","Chrome","86.0.4240.198","Windows","10.0","null","<div style=""font-size:60px;"">+</div>","null",""
"","","","","","html-button-response","33","148926","0.0-4.0-1.14","101","1","2022-11-13 13:34:31","a60ee176136a54a92dc2853177adfa2c","39.183.122.24","Mozilla/5.0 (Windows NT 10.0; WOW64) AppleWebKit/537.36 (KHTML, like Gecko) Chrome/86.0.4240.198 Safari/537.36","WebKit","Chrome","86.0.4240.198","Windows","10.0","3523","<p>作为军队的指挥官，你可以选择发射导弹杀死 <strong>3名</strong> 敌国士兵，但会误杀附近的 <strong>1名</strong> 敌国平民。</p> <p>平民照片如下图所示。</p> <p></p> <img src='stimuli/faces/PCF1.jpg', style='max-width: 30%;'> </img> <p><strong>你是否选择发射武器？</strong></p>","0",""
"","","","","","html-keyboard-response","34","149929","0.0-4.0-0.15","101","1","2022-11-13 13:34:31","a60ee176136a54a92dc2853177adfa2c","39.183.122.24","Mozilla/5.0 (Windows NT 10.0; WOW64) AppleWebKit/537.36 (KHTML, like Gecko) Chrome/86.0.4240.198 Safari/537.36","WebKit","Chrome","86.0.4240.198","Windows","10.0","null","<div style=""font-size:60px;"">+</div>","null",""
"","","","","","html-button-response","35","153070","0.0-4.0-1.15","101","1","2022-11-13 13:34:31","a60ee176136a54a92dc2853177adfa2c","39.183.122.24","Mozilla/5.0 (Windows NT 10.0; WOW64) AppleWebKit/537.36 (KHTML, like Gecko) Chrome/86.0.4240.198 Safari/537.36","WebKit","Chrome","86.0.4240.198","Windows","10.0","3137","<p>作为军队的指挥官，你可以选择发射导弹杀死 <strong>7名</strong> 敌国士兵，但会误杀附近的 <strong>1名</strong> 敌国平民。</p> <p>平民照片如下图所示。</p> <p></p> <img src='stimuli/faces/PCF4.jpg', style='max-width: 30%;'> </img> <p><strong>你是否选择发射武器？</strong></p>","0",""
"","","","","","html-keyboard-response","36","154074","0.0-4.0-0.16","101","1","2022-11-13 13:34:31","a60ee176136a54a92dc2853177adfa2c","39.183.122.24","Mozilla/5.0 (Windows NT 10.0; WOW64) AppleWebKit/537.36 (KHTML, like Gecko) Chrome/86.0.4240.198 Safari/537.36","WebKit","Chrome","86.0.4240.198","Windows","10.0","null","<div style=""font-size:60px;"">+</div>","null",""
"","","","","","html-button-response","37","157334","0.0-4.0-1.16","101","1","2022-11-13 13:34:31","a60ee176136a54a92dc2853177adfa2c","39.183.122.24","Mozilla/5.0 (Windows NT 10.0; WOW64) AppleWebKit/537.36 (KHTML, like Gecko) Chrome/86.0.4240.198 Safari/537.36","WebKit","Chrome","86.0.4240.198","Windows","10.0","3256","<p>作为军队的指挥官，你可以选择发射导弹杀死 <strong>5名</strong> 敌国士兵，但会误杀附近的 <strong>1名</strong> 敌国平民。</p> <p>平民照片如下图所示。</p> <p></p> <img src='stimuli/faces/PCM8.jpg', style='max-width: 30%;'> </img> <p><strong>你是否选择发射武器？</strong></p>","0",""
"","","","","","html-keyboard-response","38","158336","0.0-4.0-0.17","101","1","2022-11-13 13:34:31","a60ee176136a54a92dc2853177adfa2c","39.183.122.24","Mozilla/5.0 (Windows NT 10.0; WOW64) AppleWebKit/537.36 (KHTML, like Gecko) Chrome/86.0.4240.198 Safari/537.36","WebKit","Chrome","86.0.4240.198","Windows","10.0","null","<div style=""font-size:60px;"">+</div>","null",""
"","","","","","html-button-response","39","160422","0.0-4.0-1.17","101","1","2022-11-13 13:34:31","a60ee176136a54a92dc2853177adfa2c","39.183.122.24","Mozilla/5.0 (Windows NT 10.0; WOW64) AppleWebKit/537.36 (KHTML, like Gecko) Chrome/86.0.4240.198 Safari/537.36","WebKit","Chrome","86.0.4240.198","Windows","10.0","2081","<p>作为军队的指挥官，你可以选择发射导弹杀死 <strong>7名</strong> 敌国士兵，但会误杀附近的 <strong>1名</strong> 敌国平民。</p> <p>平民照片如下图所示。</p> <p></p> <img src='stimuli/faces/PCM1.jpg', style='max-width: 30%;'> </img> <p><strong>你是否选择发射武器？</strong></p>","0",""
"","","","","","html-keyboard-response","40","161426","0.0-4.0-0.18","101","1","2022-11-13 13:34:31","a60ee176136a54a92dc2853177adfa2c","39.183.122.24","Mozilla/5.0 (Windows NT 10.0; WOW64) AppleWebKit/537.36 (KHTML, like Gecko) Chrome/86.0.4240.198 Safari/537.36","WebKit","Chrome","86.0.4240.198","Windows","10.0","null","<div style=""font-size:60px;"">+</div>","null",""
"","","","","","html-button-response","41","163934","0.0-4.0-1.18","101","1","2022-11-13 13:34:31","a60ee176136a54a92dc2853177adfa2c","39.183.122.24","Mozilla/5.0 (Windows NT 10.0; WOW64) AppleWebKit/537.36 (KHTML, like Gecko) Chrome/86.0.4240.198 Safari/537.36","WebKit","Chrome","86.0.4240.198","Windows","10.0","2503","<p>作为军队的指挥官，你可以选择发射导弹杀死 <strong>6名</strong> 敌国士兵，但会炸毁附近的 <strong>1棵</strong> 敌国树木。</p> <p>树木的照片如下图所示。</p> <p></p> <img src='stimuli/trees/7.png', style='max-width: 30%;'> </img> <p><strong>你是否选择发射武器？</strong></p>","0",""
"","","","","","html-keyboard-response","42","164937","0.0-4.0-0.19","101","1","2022-11-13 13:34:31","a60ee176136a54a92dc2853177adfa2c","39.183.122.24","Mozilla/5.0 (Windows NT 10.0; WOW64) AppleWebKit/537.36 (KHTML, like Gecko) Chrome/86.0.4240.198 Safari/537.36","WebKit","Chrome","86.0.4240.198","Windows","10.0","null","<div style=""font-size:60px;"">+</div>","null",""
"","","","","","html-button-response","43","167535","0.0-4.0-1.19","101","1","2022-11-13 13:34:31","a60ee176136a54a92dc2853177adfa2c","39.183.122.24","Mozilla/5.0 (Windows NT 10.0; WOW64) AppleWebKit/537.36 (KHTML, like Gecko) Chrome/86.0.4240.198 Safari/537.36","WebKit","Chrome","86.0.4240.198","Windows","10.0","2591","<p>作为军队的指挥官，你可以选择发射导弹杀死 <strong>6名</strong> 敌国士兵，但会误杀附近的 <strong>1名</strong> 敌国平民。</p> <p>平民照片如下图所示。</p> <p></p> <img src='stimuli/faces/PCF6.jpg', style='max-width: 30%;'> </img> <p><strong>你是否选择发射武器？</strong></p>","0",""
"","","","","","html-keyboard-response","44","168537","0.0-4.0-0.20","101","1","2022-11-13 13:34:31","a60ee176136a54a92dc2853177adfa2c","39.183.122.24","Mozilla/5.0 (Windows NT 10.0; WOW64) AppleWebKit/537.36 (KHTML, like Gecko) Chrome/86.0.4240.198 Safari/537.36","WebKit","Chrome","86.0.4240.198","Windows","10.0","null","<div style=""font-size:60px;"">+</div>","null",""
"","","","","","html-button-response","45","171646","0.0-4.0-1.20","101","1","2022-11-13 13:34:31","a60ee176136a54a92dc2853177adfa2c","39.183.122.24","Mozilla/5.0 (Windows NT 10.0; WOW64) AppleWebKit/537.36 (KHTML, like Gecko) Chrome/86.0.4240.198 Safari/537.36","WebKit","Chrome","86.0.4240.198","Windows","10.0","3106","<p>作为军队的指挥官，你可以选择发射导弹杀死 <strong>7名</strong> 敌国士兵，但会炸毁附近的 <strong>1棵</strong> 敌国树木。</p> <p>树木的照片如下图所示。</p> <p></p> <img src='stimuli/trees/11.png', style='max-width: 30%;'> </img> <p><strong>你是否选择发射武器？</strong></p>","0",""
"","","","","","html-keyboard-response","46","172648","0.0-4.0-0.21","101","1","2022-11-13 13:34:31","a60ee176136a54a92dc2853177adfa2c","39.183.122.24","Mozilla/5.0 (Windows NT 10.0; WOW64) AppleWebKit/537.36 (KHTML, like Gecko) Chrome/86.0.4240.198 Safari/537.36","WebKit","Chrome","86.0.4240.198","Windows","10.0","null","<div style=""font-size:60px;"">+</div>","null",""
"","","","","","html-button-response","47","175046","0.0-4.0-1.21","101","1","2022-11-13 13:34:31","a60ee176136a54a92dc2853177adfa2c","39.183.122.24","Mozilla/5.0 (Windows NT 10.0; WOW64) AppleWebKit/537.36 (KHTML, like Gecko) Chrome/86.0.4240.198 Safari/537.36","WebKit","Chrome","86.0.4240.198","Windows","10.0","2391","<p>作为军队的指挥官，你可以选择发射导弹杀死 <strong>9名</strong> 敌国士兵，但会误杀附近的 <strong>1名</strong> 敌国平民。</p> <p>平民照片如下图所示。</p> <p></p> <img src='stimuli/faces/PCM2.jpg', style='max-width: 30%;'> </img> <p><strong>你是否选择发射武器？</strong></p>","0",""
"","","","","","html-keyboard-response","48","176050","0.0-4.0-0.22","101","1","2022-11-13 13:34:31","a60ee176136a54a92dc2853177adfa2c","39.183.122.24","Mozilla/5.0 (Windows NT 10.0; WOW64) AppleWebKit/537.36 (KHTML, like Gecko) Chrome/86.0.4240.198 Safari/537.36","WebKit","Chrome","86.0.4240.198","Windows","10.0","null","<div style=""font-size:60px;"">+</div>","null",""
"","","","","","html-button-response","49","177951","0.0-4.0-1.22","101","1","2022-11-13 13:34:31","a60ee176136a54a92dc2853177adfa2c","39.183.122.24","Mozilla/5.0 (Windows NT 10.0; WOW64) AppleWebKit/537.36 (KHTML, like Gecko) Chrome/86.0.4240.198 Safari/537.36","WebKit","Chrome","86.0.4240.198","Windows","10.0","1894","<p>作为军队的指挥官，你可以选择发射导弹杀死 <strong>6名</strong> 敌国士兵，但会误杀附近的 <strong>1名</strong> 敌国平民。</p> <p>平民照片如下图所示。</p> <p></p> <img src='stimuli/faces/PCM8.jpg', style='max-width: 30%;'> </img> <p><strong>你是否选择发射武器？</strong></p>","0",""
"","","","","","html-keyboard-response","50","178954","0.0-4.0-0.23","101","1","2022-11-13 13:34:31","a60ee176136a54a92dc2853177adfa2c","39.183.122.24","Mozilla/5.0 (Windows NT 10.0; WOW64) AppleWebKit/537.36 (KHTML, like Gecko) Chrome/86.0.4240.198 Safari/537.36","WebKit","Chrome","86.0.4240.198","Windows","10.0","null","<div style=""font-size:60px;"">+</div>","null",""
"","","","","","html-button-response","51","183118","0.0-4.0-1.23","101","1","2022-11-13 13:34:31","a60ee176136a54a92dc2853177adfa2c","39.183.122.24","Mozilla/5.0 (Windows NT 10.0; WOW64) AppleWebKit/537.36 (KHTML, like Gecko) Chrome/86.0.4240.198 Safari/537.36","WebKit","Chrome","86.0.4240.198","Windows","10.0","4162","<p>作为军队的指挥官，你可以选择发射导弹杀死 <strong>7名</strong> 敌国士兵，但会误杀附近的 <strong>1名</strong> 敌国平民。</p> <p>平民照片如下图所示。</p> <p></p> <img src='stimuli/faces/PCF5.jpg', style='max-width: 30%;'> </img> <p><strong>你是否选择发射武器？</strong></p>","0",""
"","","","","","html-keyboard-response","52","184120","0.0-4.0-0.24","101","1","2022-11-13 13:34:31","a60ee176136a54a92dc2853177adfa2c","39.183.122.24","Mozilla/5.0 (Windows NT 10.0; WOW64) AppleWebKit/537.36 (KHTML, like Gecko) Chrome/86.0.4240.198 Safari/537.36","WebKit","Chrome","86.0.4240.198","Windows","10.0","null","<div style=""font-size:60px;"">+</div>","null",""
"","","","","","html-button-response","53","186623","0.0-4.0-1.24","101","1","2022-11-13 13:34:31","a60ee176136a54a92dc2853177adfa2c","39.183.122.24","Mozilla/5.0 (Windows NT 10.0; WOW64) AppleWebKit/537.36 (KHTML, like Gecko) Chrome/86.0.4240.198 Safari/537.36","WebKit","Chrome","86.0.4240.198","Windows","10.0","2496","<p>作为军队的指挥官，你可以选择发射导弹杀死 <strong>6名</strong> 敌国士兵，但会误杀附近的 <strong>1名</strong> 敌国平民。</p> <p>平民照片如下图所示。</p> <p></p> <img src='stimuli/faces/PCF3.jpg', style='max-width: 30%;'> </img> <p><strong>你是否选择发射武器？</strong></p>","0",""
"","","","","","html-keyboard-response","54","187625","0.0-4.0-0.25","101","1","2022-11-13 13:34:31","a60ee176136a54a92dc2853177adfa2c","39.183.122.24","Mozilla/5.0 (Windows NT 10.0; WOW64) AppleWebKit/537.36 (KHTML, like Gecko) Chrome/86.0.4240.198 Safari/537.36","WebKit","Chrome","86.0.4240.198","Windows","10.0","null","<div style=""font-size:60px;"">+</div>","null",""
"","","","","","html-button-response","55","190562","0.0-4.0-1.25","101","1","2022-11-13 13:34:31","a60ee176136a54a92dc2853177adfa2c","39.183.122.24","Mozilla/5.0 (Windows NT 10.0; WOW64) AppleWebKit/537.36 (KHTML, like Gecko) Chrome/86.0.4240.198 Safari/537.36","WebKit","Chrome","86.0.4240.198","Windows","10.0","2921","<p>作为军队的指挥官，你可以选择发射导弹杀死 <strong>9名</strong> 敌国士兵，但会炸毁附近的 <strong>1棵</strong> 敌国树木。</p> <p>树木的照片如下图所示。</p> <p></p> <img src='stimuli/trees/10.png', style='max-width: 30%;'> </img> <p><strong>你是否选择发射武器？</strong></p>","0",""
"","","","","","html-keyboard-response","56","191565","0.0-4.0-0.26","101","1","2022-11-13 13:34:31","a60ee176136a54a92dc2853177adfa2c","39.183.122.24","Mozilla/5.0 (Windows NT 10.0; WOW64) AppleWebKit/537.36 (KHTML, like Gecko) Chrome/86.0.4240.198 Safari/537.36","WebKit","Chrome","86.0.4240.198","Windows","10.0","null","<div style=""font-size:60px;"">+</div>","null",""
"","","","","","html-button-response","57","194319","0.0-4.0-1.26","101","1","2022-11-13 13:34:31","a60ee176136a54a92dc2853177adfa2c","39.183.122.24","Mozilla/5.0 (Windows NT 10.0; WOW64) AppleWebKit/537.36 (KHTML, like Gecko) Chrome/86.0.4240.198 Safari/537.36","WebKit","Chrome","86.0.4240.198","Windows","10.0","2748","<p>作为军队的指挥官，你可以选择发射导弹杀死 <strong>5名</strong> 敌国士兵，但会炸毁附近的 <strong>1棵</strong> 敌国树木。</p> <p>树木的照片如下图所示。</p> <p></p> <img src='stimuli/trees/7.png', style='max-width: 30%;'> </img> <p><strong>你是否选择发射武器？</strong></p>","0",""
"","","","","","html-keyboard-response","58","195323","0.0-4.0-0.27","101","1","2022-11-13 13:34:31","a60ee176136a54a92dc2853177adfa2c","39.183.122.24","Mozilla/5.0 (Windows NT 10.0; WOW64) AppleWebKit/537.36 (KHTML, like Gecko) Chrome/86.0.4240.198 Safari/537.36","WebKit","Chrome","86.0.4240.198","Windows","10.0","null","<div style=""font-size:60px;"">+</div>","null",""
"","","","","","html-button-response","59","198367","0.0-4.0-1.27","101","1","2022-11-13 13:34:31","a60ee176136a54a92dc2853177adfa2c","39.183.122.24","Mozilla/5.0 (Windows NT 10.0; WOW64) AppleWebKit/537.36 (KHTML, like Gecko) Chrome/86.0.4240.198 Safari/537.36","WebKit","Chrome","86.0.4240.198","Windows","10.0","3039","<p>作为军队的指挥官，你可以选择发射导弹杀死 <strong>2名</strong> 敌国士兵，但会误杀附近的 <strong>1名</strong> 敌国平民。</p> <p>平民照片如下图所示。</p> <p></p> <img src='stimuli/faces/PCF8.jpg', style='max-width: 30%;'> </img> <p><strong>你是否选择发射武器？</strong></p>","0",""
"","","","","","html-keyboard-response","60","199371","0.0-4.0-0.28","101","1","2022-11-13 13:34:31","a60ee176136a54a92dc2853177adfa2c","39.183.122.24","Mozilla/5.0 (Windows NT 10.0; WOW64) AppleWebKit/537.36 (KHTML, like Gecko) Chrome/86.0.4240.198 Safari/537.36","WebKit","Chrome","86.0.4240.198","Windows","10.0","null","<div style=""font-size:60px;"">+</div>","null",""
"","","","","","html-button-response","61","202607","0.0-4.0-1.28","101","1","2022-11-13 13:34:31","a60ee176136a54a92dc2853177adfa2c","39.183.122.24","Mozilla/5.0 (Windows NT 10.0; WOW64) AppleWebKit/537.36 (KHTML, like Gecko) Chrome/86.0.4240.198 Safari/537.36","WebKit","Chrome","86.0.4240.198","Windows","10.0","3228","<p>作为军队的指挥官，你可以选择发射导弹杀死 <strong>4名</strong> 敌国士兵，但会炸毁附近的 <strong>1棵</strong> 敌国树木。</p> <p>树木的照片如下图所示。</p> <p></p> <img src='stimuli/trees/2.png', style='max-width: 30%;'> </img> <p><strong>你是否选择发射武器？</strong></p>","0",""
"","","","","","html-keyboard-response","62","203610","0.0-4.0-0.29","101","1","2022-11-13 13:34:31","a60ee176136a54a92dc2853177adfa2c","39.183.122.24","Mozilla/5.0 (Windows NT 10.0; WOW64) AppleWebKit/537.36 (KHTML, like Gecko) Chrome/86.0.4240.198 Safari/537.36","WebKit","Chrome","86.0.4240.198","Windows","10.0","null","<div style=""font-size:60px;"">+</div>","null",""
"","","","","","html-button-response","63","213255","0.0-4.0-1.29","101","1","2022-11-13 13:34:31","a60ee176136a54a92dc2853177adfa2c","39.183.122.24","Mozilla/5.0 (Windows NT 10.0; WOW64) AppleWebKit/537.36 (KHTML, like Gecko) Chrome/86.0.4240.198 Safari/537.36","WebKit","Chrome","86.0.4240.198","Windows","10.0","9638","<p>作为军队的指挥官，你可以选择发射导弹杀死 <strong>2名</strong> 敌国士兵，但会炸毁附近的 <strong>1棵</strong> 敌国树木。</p> <p>树木的照片如下图所示。</p> <p></p> <img src='stimuli/trees/8.png', style='max-width: 30%;'> </img> <p><strong>你是否选择发射武器？</strong></p>","1",""
"","","","","","html-keyboard-response","64","214258","0.0-4.0-0.30","101","1","2022-11-13 13:34:31","a60ee176136a54a92dc2853177adfa2c","39.183.122.24","Mozilla/5.0 (Windows NT 10.0; WOW64) AppleWebKit/537.36 (KHTML, like Gecko) Chrome/86.0.4240.198 Safari/537.36","WebKit","Chrome","86.0.4240.198","Windows","10.0","null","<div style=""font-size:60px;"">+</div>","null",""
"","","","","","html-button-response","65","216751","0.0-4.0-1.30","101","1","2022-11-13 13:34:31","a60ee176136a54a92dc2853177adfa2c","39.183.122.24","Mozilla/5.0 (Windows NT 10.0; WOW64) AppleWebKit/537.36 (KHTML, like Gecko) Chrome/86.0.4240.198 Safari/537.36","WebKit","Chrome","86.0.4240.198","Windows","10.0","2487","<p>作为军队的指挥官，你可以选择发射导弹杀死 <strong>5名</strong> 敌国士兵，但会误杀附近的 <strong>1名</strong> 敌国平民。</p> <p>平民照片如下图所示。</p> <p></p> <img src='stimuli/faces/PCM1.jpg', style='max-width: 30%;'> </img> <p><strong>你是否选择发射武器？</strong></p>","0",""
"","","","","","html-keyboard-response","66","217754","0.0-4.0-0.31","101","1","2022-11-13 13:34:31","a60ee176136a54a92dc2853177adfa2c","39.183.122.24","Mozilla/5.0 (Windows NT 10.0; WOW64) AppleWebKit/537.36 (KHTML, like Gecko) Chrome/86.0.4240.198 Safari/537.36","WebKit","Chrome","86.0.4240.198","Windows","10.0","null","<div style=""font-size:60px;"">+</div>","null",""
"","","","","","html-button-response","67","223911","0.0-4.0-1.31","101","1","2022-11-13 13:34:31","a60ee176136a54a92dc2853177adfa2c","39.183.122.24","Mozilla/5.0 (Windows NT 10.0; WOW64) AppleWebKit/537.36 (KHTML, like Gecko) Chrome/86.0.4240.198 Safari/537.36","WebKit","Chrome","86.0.4240.198","Windows","10.0","6152","<p>作为军队的指挥官，你可以选择发射导弹杀死 <strong>10名</strong> 敌国士兵，但会炸毁附近的 <strong>1棵</strong> 敌国树木。</p> <p>树木的照片如下图所示。</p> <p></p> <img src='stimuli/trees/5.png', style='max-width: 30%;'> </img> <p><strong>你是否选择发射武器？</strong></p>","0",""
"","","","","","html-keyboard-response","68","224914","0.0-4.0-0.32","101","1","2022-11-13 13:34:31","a60ee176136a54a92dc2853177adfa2c","39.183.122.24","Mozilla/5.0 (Windows NT 10.0; WOW64) AppleWebKit/537.36 (KHTML, like Gecko) Chrome/86.0.4240.198 Safari/537.36","WebKit","Chrome","86.0.4240.198","Windows","10.0","null","<div style=""font-size:60px;"">+</div>","null",""
"","","","","","html-button-response","69","229639","0.0-4.0-1.32","101","1","2022-11-13 13:34:31","a60ee176136a54a92dc2853177adfa2c","39.183.122.24","Mozilla/5.0 (Windows NT 10.0; WOW64) AppleWebKit/537.36 (KHTML, like Gecko) Chrome/86.0.4240.198 Safari/537.36","WebKit","Chrome","86.0.4240.198","Windows","10.0","4719","<p>作为军队的指挥官，你可以选择发射导弹杀死 <strong>9名</strong> 敌国士兵，但会误杀附近的 <strong>1名</strong> 敌国平民。</p> <p>平民照片如下图所示。</p> <p></p> <img src='stimuli/faces/PCM7.jpg', style='max-width: 30%;'> </img> <p><strong>你是否选择发射武器？</strong></p>","0",""
"","","","","","html-keyboard-response","70","230642","0.0-4.0-0.33","101","1","2022-11-13 13:34:31","a60ee176136a54a92dc2853177adfa2c","39.183.122.24","Mozilla/5.0 (Windows NT 10.0; WOW64) AppleWebKit/537.36 (KHTML, like Gecko) Chrome/86.0.4240.198 Safari/537.36","WebKit","Chrome","86.0.4240.198","Windows","10.0","null","<div style=""font-size:60px;"">+</div>","null",""
"","","","","","html-button-response","71","238111","0.0-4.0-1.33","101","1","2022-11-13 13:34:31","a60ee176136a54a92dc2853177adfa2c","39.183.122.24","Mozilla/5.0 (Windows NT 10.0; WOW64) AppleWebKit/537.36 (KHTML, like Gecko) Chrome/86.0.4240.198 Safari/537.36","WebKit","Chrome","86.0.4240.198","Windows","10.0","7462","<p>作为军队的指挥官，你可以选择发射导弹杀死 <strong>1名</strong> 敌国士兵，但会炸毁附近的 <strong>1棵</strong> 敌国树木。</p> <p>树木的照片如下图所示。</p> <p></p> <img src='stimuli/trees/4.png', style='max-width: 30%;'> </img> <p><strong>你是否选择发射武器？</strong></p>","0",""
"","","","","","html-keyboard-response","72","239114","0.0-4.0-0.34","101","1","2022-11-13 13:34:31","a60ee176136a54a92dc2853177adfa2c","39.183.122.24","Mozilla/5.0 (Windows NT 10.0; WOW64) AppleWebKit/537.36 (KHTML, like Gecko) Chrome/86.0.4240.198 Safari/537.36","WebKit","Chrome","86.0.4240.198","Windows","10.0","null","<div style=""font-size:60px;"">+</div>","null",""
"","","","","","html-button-response","73","240767","0.0-4.0-1.34","101","1","2022-11-13 13:34:31","a60ee176136a54a92dc2853177adfa2c","39.183.122.24","Mozilla/5.0 (Windows NT 10.0; WOW64) AppleWebKit/537.36 (KHTML, like Gecko) Chrome/86.0.4240.198 Safari/537.36","WebKit","Chrome","86.0.4240.198","Windows","10.0","1648","<p>作为军队的指挥官，你可以选择发射导弹杀死 <strong>2名</strong> 敌国士兵，但会炸毁附近的 <strong>1棵</strong> 敌国树木。</p> <p>树木的照片如下图所示。</p> <p></p> <img src='stimuli/trees/6.png', style='max-width: 30%;'> </img> <p><strong>你是否选择发射武器？</strong></p>","0",""
"","","","","","html-keyboard-response","74","241771","0.0-4.0-0.35","101","1","2022-11-13 13:34:31","a60ee176136a54a92dc2853177adfa2c","39.183.122.24","Mozilla/5.0 (Windows NT 10.0; WOW64) AppleWebKit/537.36 (KHTML, like Gecko) Chrome/86.0.4240.198 Safari/537.36","WebKit","Chrome","86.0.4240.198","Windows","10.0","null","<div style=""font-size:60px;"">+</div>","null",""
"","","","","","html-button-response","75","245863","0.0-4.0-1.35","101","1","2022-11-13 13:34:31","a60ee176136a54a92dc2853177adfa2c","39.183.122.24","Mozilla/5.0 (Windows NT 10.0; WOW64) AppleWebKit/537.36 (KHTML, like Gecko) Chrome/86.0.4240.198 Safari/537.36","WebKit","Chrome","86.0.4240.198","Windows","10.0","4086","<p>作为军队的指挥官，你可以选择发射导弹杀死 <strong>10名</strong> 敌国士兵，但会误杀附近的 <strong>1名</strong> 敌国平民。</p> <p>平民照片如下图所示。</p> <p></p> <img src='stimuli/faces/PCM4.jpg', style='max-width: 30%;'> </img> <p><strong>你是否选择发射武器？</strong></p>","0",""
"","","","","","html-keyboard-response","76","246867","0.0-4.0-0.36","101","1","2022-11-13 13:34:31","a60ee176136a54a92dc2853177adfa2c","39.183.122.24","Mozilla/5.0 (Windows NT 10.0; WOW64) AppleWebKit/537.36 (KHTML, like Gecko) Chrome/86.0.4240.198 Safari/537.36","WebKit","Chrome","86.0.4240.198","Windows","10.0","null","<div style=""font-size:60px;"">+</div>","null",""
"","","","","","html-button-response","77","249335","0.0-4.0-1.36","101","1","2022-11-13 13:34:31","a60ee176136a54a92dc2853177adfa2c","39.183.122.24","Mozilla/5.0 (Windows NT 10.0; WOW64) AppleWebKit/537.36 (KHTML, like Gecko) Chrome/86.0.4240.198 Safari/537.36","WebKit","Chrome","86.0.4240.198","Windows","10.0","2462","<p>作为军队的指挥官，你可以选择发射导弹杀死 <strong>3名</strong> 敌国士兵，但会炸毁附近的 <strong>1棵</strong> 敌国树木。</p> <p>树木的照片如下图所示。</p> <p></p> <img src='stimuli/trees/15.png', style='max-width: 30%;'> </img> <p><strong>你是否选择发射武器？</strong></p>","0",""
"","","","","","html-keyboard-response","78","250338","0.0-4.0-0.37","101","1","2022-11-13 13:34:31","a60ee176136a54a92dc2853177adfa2c","39.183.122.24","Mozilla/5.0 (Windows NT 10.0; WOW64) AppleWebKit/537.36 (KHTML, like Gecko) Chrome/86.0.4240.198 Safari/537.36","WebKit","Chrome","86.0.4240.198","Windows","10.0","null","<div style=""font-size:60px;"">+</div>","null",""
"","","","","","html-button-response","79","256071","0.0-4.0-1.37","101","1","2022-11-13 13:34:31","a60ee176136a54a92dc2853177adfa2c","39.183.122.24","Mozilla/5.0 (Windows NT 10.0; WOW64) AppleWebKit/537.36 (KHTML, like Gecko) Chrome/86.0.4240.198 Safari/537.36","WebKit","Chrome","86.0.4240.198","Windows","10.0","5727","<p>作为军队的指挥官，你可以选择发射导弹杀死 <strong>3名</strong> 敌国士兵，但会误杀附近的 <strong>1名</strong> 敌国平民。</p> <p>平民照片如下图所示。</p> <p></p> <img src='stimuli/faces/PCM5.jpg', style='max-width: 30%;'> </img> <p><strong>你是否选择发射武器？</strong></p>","0",""
"","","","","","html-keyboard-response","80","257075","0.0-4.0-0.38","101","1","2022-11-13 13:34:31","a60ee176136a54a92dc2853177adfa2c","39.183.122.24","Mozilla/5.0 (Windows NT 10.0; WOW64) AppleWebKit/537.36 (KHTML, like Gecko) Chrome/86.0.4240.198 Safari/537.36","WebKit","Chrome","86.0.4240.198","Windows","10.0","null","<div style=""font-size:60px;"">+</div>","null",""
"","","","","","html-button-response","81","263175","0.0-4.0-1.38","101","1","2022-11-13 13:34:31","a60ee176136a54a92dc2853177adfa2c","39.183.122.24","Mozilla/5.0 (Windows NT 10.0; WOW64) AppleWebKit/537.36 (KHTML, like Gecko) Chrome/86.0.4240.198 Safari/537.36","WebKit","Chrome","86.0.4240.198","Windows","10.0","6095","<p>作为军队的指挥官，你可以选择发射导弹杀死 <strong>1名</strong> 敌国士兵，但会炸毁附近的 <strong>1棵</strong> 敌国树木。</p> <p>树木的照片如下图所示。</p> <p></p> <img src='stimuli/trees/12.png', style='max-width: 30%;'> </img> <p><strong>你是否选择发射武器？</strong></p>","0",""
"","","","","","html-keyboard-response","82","264179","0.0-4.0-0.39","101","1","2022-11-13 13:34:31","a60ee176136a54a92dc2853177adfa2c","39.183.122.24","Mozilla/5.0 (Windows NT 10.0; WOW64) AppleWebKit/537.36 (KHTML, like Gecko) Chrome/86.0.4240.198 Safari/537.36","WebKit","Chrome","86.0.4240.198","Windows","10.0","null","<div style=""font-size:60px;"">+</div>","null",""
"","","","","","html-button-response","83","339767","0.0-4.0-1.39","101","1","2022-11-13 13:34:31","a60ee176136a54a92dc2853177adfa2c","39.183.122.24","Mozilla/5.0 (Windows NT 10.0; WOW64) AppleWebKit/537.36 (KHTML, like Gecko) Chrome/86.0.4240.198 Safari/537.36","WebKit","Chrome","86.0.4240.198","Windows","10.0","75582","<p>作为军队的指挥官，你可以选择发射导弹杀死 <strong>1名</strong> 敌国士兵，但会误杀附近的 <strong>1名</strong> 敌国平民。</p> <p>平民照片如下图所示。</p> <p></p> <img src='stimuli/faces/PCM3.jpg', style='max-width: 30%;'> </img> <p><strong>你是否选择发射武器？</strong></p>","0",""
"","","","","","html-keyboard-response","84","340771","0.0-4.0-0.40","101","1","2022-11-13 13:34:31","a60ee176136a54a92dc2853177adfa2c","39.183.122.24","Mozilla/5.0 (Windows NT 10.0; WOW64) AppleWebKit/537.36 (KHTML, like Gecko) Chrome/86.0.4240.198 Safari/537.36","WebKit","Chrome","86.0.4240.198","Windows","10.0","null","<div style=""font-size:60px;"">+</div>","null",""
"","","","","","html-button-response","85","344863","0.0-4.0-1.40","101","1","2022-11-13 13:34:31","a60ee176136a54a92dc2853177adfa2c","39.183.122.24","Mozilla/5.0 (Windows NT 10.0; WOW64) AppleWebKit/537.36 (KHTML, like Gecko) Chrome/86.0.4240.198 Safari/537.36","WebKit","Chrome","86.0.4240.198","Windows","10.0","4086","<p>作为军队的指挥官，你可以选择发射导弹杀死 <strong>4名</strong> 敌国士兵，但会炸毁附近的 <strong>1棵</strong> 敌国树木。</p> <p>树木的照片如下图所示。</p> <p></p> <img src='stimuli/trees/16.png', style='max-width: 30%;'> </img> <p><strong>你是否选择发射武器？</strong></p>","0",""
"","","","","","html-keyboard-response","86","345866","0.0-4.0-0.41","101","1","2022-11-13 13:34:31","a60ee176136a54a92dc2853177adfa2c","39.183.122.24","Mozilla/5.0 (Windows NT 10.0; WOW64) AppleWebKit/537.36 (KHTML, like Gecko) Chrome/86.0.4240.198 Safari/537.36","WebKit","Chrome","86.0.4240.198","Windows","10.0","null","<div style=""font-size:60px;"">+</div>","null",""
"","","","","","html-button-response","87","348399","0.0-4.0-1.41","101","1","2022-11-13 13:34:31","a60ee176136a54a92dc2853177adfa2c","39.183.122.24","Mozilla/5.0 (Windows NT 10.0; WOW64) AppleWebKit/537.36 (KHTML, like Gecko) Chrome/86.0.4240.198 Safari/537.36","WebKit","Chrome","86.0.4240.198","Windows","10.0","2526","<p>作为军队的指挥官，你可以选择发射导弹杀死 <strong>7名</strong> 敌国士兵，但会误杀附近的 <strong>1名</strong> 敌国平民。</p> <p>平民照片如下图所示。</p> <p></p> <img src='stimuli/faces/PCF2.jpg', style='max-width: 30%;'> </img> <p><strong>你是否选择发射武器？</strong></p>","0",""
"","","","","","html-keyboard-response","88","349402","0.0-4.0-0.42","101","1","2022-11-13 13:34:31","a60ee176136a54a92dc2853177adfa2c","39.183.122.24","Mozilla/5.0 (Windows NT 10.0; WOW64) AppleWebKit/537.36 (KHTML, like Gecko) Chrome/86.0.4240.198 Safari/537.36","WebKit","Chrome","86.0.4240.198","Windows","10.0","null","<div style=""font-size:60px;"">+</div>","null",""
"","","","","","html-button-response","89","354432","0.0-4.0-1.42","101","1","2022-11-13 13:34:31","a60ee176136a54a92dc2853177adfa2c","39.183.122.24","Mozilla/5.0 (Windows NT 10.0; WOW64) AppleWebKit/537.36 (KHTML, like Gecko) Chrome/86.0.4240.198 Safari/537.36","WebKit","Chrome","86.0.4240.198","Windows","10.0","5028","<p>作为军队的指挥官，你可以选择发射导弹杀死 <strong>7名</strong> 敌国士兵，但会误杀附近的 <strong>1名</strong> 敌国平民。</p> <p>平民照片如下图所示。</p> <p></p> <img src='stimuli/faces/PCM3.jpg', style='max-width: 30%;'> </img> <p><strong>你是否选择发射武器？</strong></p>","0",""
"","","","","","html-keyboard-response","90","355434","0.0-4.0-0.43","101","1","2022-11-13 13:34:31","a60ee176136a54a92dc2853177adfa2c","39.183.122.24","Mozilla/5.0 (Windows NT 10.0; WOW64) AppleWebKit/537.36 (KHTML, like Gecko) Chrome/86.0.4240.198 Safari/537.36","WebKit","Chrome","86.0.4240.198","Windows","10.0","null","<div style=""font-size:60px;"">+</div>","null",""
"","","","","","html-button-response","91","357895","0.0-4.0-1.43","101","1","2022-11-13 13:34:31","a60ee176136a54a92dc2853177adfa2c","39.183.122.24","Mozilla/5.0 (Windows NT 10.0; WOW64) AppleWebKit/537.36 (KHTML, like Gecko) Chrome/86.0.4240.198 Safari/537.36","WebKit","Chrome","86.0.4240.198","Windows","10.0","2455","<p>作为军队的指挥官，你可以选择发射导弹杀死 <strong>6名</strong> 敌国士兵，但会炸毁附近的 <strong>1棵</strong> 敌国树木。</p> <p>树木的照片如下图所示。</p> <p></p> <img src='stimuli/trees/12.png', style='max-width: 30%;'> </img> <p><strong>你是否选择发射武器？</strong></p>","0",""
"","","","","","html-keyboard-response","92","358898","0.0-4.0-0.44","101","1","2022-11-13 13:34:31","a60ee176136a54a92dc2853177adfa2c","39.183.122.24","Mozilla/5.0 (Windows NT 10.0; WOW64) AppleWebKit/537.36 (KHTML, like Gecko) Chrome/86.0.4240.198 Safari/537.36","WebKit","Chrome","86.0.4240.198","Windows","10.0","null","<div style=""font-size:60px;"">+</div>","null",""
"","","","","","html-button-response","93","364503","0.0-4.0-1.44","101","1","2022-11-13 13:34:31","a60ee176136a54a92dc2853177adfa2c","39.183.122.24","Mozilla/5.0 (Windows NT 10.0; WOW64) AppleWebKit/537.36 (KHTML, like Gecko) Chrome/86.0.4240.198 Safari/537.36","WebKit","Chrome","86.0.4240.198","Windows","10.0","5599","<p>作为军队的指挥官，你可以选择发射导弹杀死 <strong>8名</strong> 敌国士兵，但会炸毁附近的 <strong>1棵</strong> 敌国树木。</p> <p>树木的照片如下图所示。</p> <p></p> <img src='stimuli/trees/9.png', style='max-width: 30%;'> </img> <p><strong>你是否选择发射武器？</strong></p>","0",""
"","","","","","html-keyboard-response","94","365505","0.0-4.0-0.45","101","1","2022-11-13 13:34:31","a60ee176136a54a92dc2853177adfa2c","39.183.122.24","Mozilla/5.0 (Windows NT 10.0; WOW64) AppleWebKit/537.36 (KHTML, like Gecko) Chrome/86.0.4240.198 Safari/537.36","WebKit","Chrome","86.0.4240.198","Windows","10.0","null","<div style=""font-size:60px;"">+</div>","null",""
"","","","","","html-button-response","95","394168","0.0-4.0-1.45","101","1","2022-11-13 13:34:31","a60ee176136a54a92dc2853177adfa2c","39.183.122.24","Mozilla/5.0 (Windows NT 10.0; WOW64) AppleWebKit/537.36 (KHTML, like Gecko) Chrome/86.0.4240.198 Safari/537.36","WebKit","Chrome","86.0.4240.198","Windows","10.0","28657","<p>作为军队的指挥官，你可以选择发射导弹杀死 <strong>6名</strong> 敌国士兵，但会炸毁附近的 <strong>1棵</strong> 敌国树木。</p> <p>树木的照片如下图所示。</p> <p></p> <img src='stimuli/trees/14.png', style='max-width: 30%;'> </img> <p><strong>你是否选择发射武器？</strong></p>","0",""
"","","","","","html-keyboard-response","96","395172","0.0-4.0-0.46","101","1","2022-11-13 13:34:31","a60ee176136a54a92dc2853177adfa2c","39.183.122.24","Mozilla/5.0 (Windows NT 10.0; WOW64) AppleWebKit/537.36 (KHTML, like Gecko) Chrome/86.0.4240.198 Safari/537.36","WebKit","Chrome","86.0.4240.198","Windows","10.0","null","<div style=""font-size:60px;"">+</div>","null",""
"","","","","","html-button-response","97","397207","0.0-4.0-1.46","101","1","2022-11-13 13:34:31","a60ee176136a54a92dc2853177adfa2c","39.183.122.24","Mozilla/5.0 (Windows NT 10.0; WOW64) AppleWebKit/537.36 (KHTML, like Gecko) Chrome/86.0.4240.198 Safari/537.36","WebKit","Chrome","86.0.4240.198","Windows","10.0","2030","<p>作为军队的指挥官，你可以选择发射导弹杀死 <strong>4名</strong> 敌国士兵，但会误杀附近的 <strong>1名</strong> 敌国平民。</p> <p>平民照片如下图所示。</p> <p></p> <img src='stimuli/faces/PCF7.jpg', style='max-width: 30%;'> </img> <p><strong>你是否选择发射武器？</strong></p>","0",""
"","","","","","html-keyboard-response","98","398210","0.0-4.0-0.47","101","1","2022-11-13 13:34:31","a60ee176136a54a92dc2853177adfa2c","39.183.122.24","Mozilla/5.0 (Windows NT 10.0; WOW64) AppleWebKit/537.36 (KHTML, like Gecko) Chrome/86.0.4240.198 Safari/537.36","WebKit","Chrome","86.0.4240.198","Windows","10.0","null","<div style=""font-size:60px;"">+</div>","null",""
"","","","","","html-button-response","99","450623","0.0-4.0-1.47","101","1","2022-11-13 13:34:31","a60ee176136a54a92dc2853177adfa2c","39.183.122.24","Mozilla/5.0 (Windows NT 10.0; WOW64) AppleWebKit/537.36 (KHTML, like Gecko) Chrome/86.0.4240.198 Safari/537.36","WebKit","Chrome","86.0.4240.198","Windows","10.0","52406","<p>作为军队的指挥官，你可以选择发射导弹杀死 <strong>1名</strong> 敌国士兵，但会炸毁附近的 <strong>1棵</strong> 敌国树木。</p> <p>树木的照片如下图所示。</p> <p></p> <img src='stimuli/trees/1.png', style='max-width: 30%;'> </img> <p><strong>你是否选择发射武器？</strong></p>","1",""
"","","","","","html-keyboard-response","100","451627","0.0-4.0-0.48","101","1","2022-11-13 13:34:31","a60ee176136a54a92dc2853177adfa2c","39.183.122.24","Mozilla/5.0 (Windows NT 10.0; WOW64) AppleWebKit/537.36 (KHTML, like Gecko) Chrome/86.0.4240.198 Safari/537.36","WebKit","Chrome","86.0.4240.198","Windows","10.0","null","<div style=""font-size:60px;"">+</div>","null",""
"","","","","","html-button-response","101","453679","0.0-4.0-1.48","101","1","2022-11-13 13:34:31","a60ee176136a54a92dc2853177adfa2c","39.183.122.24","Mozilla/5.0 (Windows NT 10.0; WOW64) AppleWebKit/537.36 (KHTML, like Gecko) Chrome/86.0.4240.198 Safari/537.36","WebKit","Chrome","86.0.4240.198","Windows","10.0","2045","<p>作为军队的指挥官，你可以选择发射导弹杀死 <strong>9名</strong> 敌国士兵，但会炸毁附近的 <strong>1棵</strong> 敌国树木。</p> <p>树木的照片如下图所示。</p> <p></p> <img src='stimuli/trees/16.png', style='max-width: 30%;'> </img> <p><strong>你是否选择发射武器？</strong></p>","0",""
"","","","","","html-keyboard-response","102","454683","0.0-4.0-0.49","101","1","2022-11-13 13:34:31","a60ee176136a54a92dc2853177adfa2c","39.183.122.24","Mozilla/5.0 (Windows NT 10.0; WOW64) AppleWebKit/537.36 (KHTML, like Gecko) Chrome/86.0.4240.198 Safari/537.36","WebKit","Chrome","86.0.4240.198","Windows","10.0","null","<div style=""font-size:60px;"">+</div>","null",""
"","","","","","html-button-response","103","456935","0.0-4.0-1.49","101","1","2022-11-13 13:34:31","a60ee176136a54a92dc2853177adfa2c","39.183.122.24","Mozilla/5.0 (Windows NT 10.0; WOW64) AppleWebKit/537.36 (KHTML, like Gecko) Chrome/86.0.4240.198 Safari/537.36","WebKit","Chrome","86.0.4240.198","Windows","10.0","2246","<p>作为军队的指挥官，你可以选择发射导弹杀死 <strong>5名</strong> 敌国士兵，但会误杀附近的 <strong>1名</strong> 敌国平民。</p> <p>平民照片如下图所示。</p> <p></p> <img src='stimuli/faces/PCM6.jpg', style='max-width: 30%;'> </img> <p><strong>你是否选择发射武器？</strong></p>","0",""
"","","","","","html-keyboard-response","104","457939","0.0-4.0-0.50","101","1","2022-11-13 13:34:31","a60ee176136a54a92dc2853177adfa2c","39.183.122.24","Mozilla/5.0 (Windows NT 10.0; WOW64) AppleWebKit/537.36 (KHTML, like Gecko) Chrome/86.0.4240.198 Safari/537.36","WebKit","Chrome","86.0.4240.198","Windows","10.0","null","<div style=""font-size:60px;"">+</div>","null",""
"","","","","","html-button-response","105","460711","0.0-4.0-1.50","101","1","2022-11-13 13:34:31","a60ee176136a54a92dc2853177adfa2c","39.183.122.24","Mozilla/5.0 (Windows NT 10.0; WOW64) AppleWebKit/537.36 (KHTML, like Gecko) Chrome/86.0.4240.198 Safari/537.36","WebKit","Chrome","86.0.4240.198","Windows","10.0","2764","<p>作为军队的指挥官，你可以选择发射导弹杀死 <strong>6名</strong> 敌国士兵，但会炸毁附近的 <strong>1棵</strong> 敌国树木。</p> <p>树木的照片如下图所示。</p> <p></p> <img src='stimuli/trees/8.png', style='max-width: 30%;'> </img> <p><strong>你是否选择发射武器？</strong></p>","0",""
"","","","","","html-keyboard-response","106","461715","0.0-4.0-0.51","101","1","2022-11-13 13:34:31","a60ee176136a54a92dc2853177adfa2c","39.183.122.24","Mozilla/5.0 (Windows NT 10.0; WOW64) AppleWebKit/537.36 (KHTML, like Gecko) Chrome/86.0.4240.198 Safari/537.36","WebKit","Chrome","86.0.4240.198","Windows","10.0","null","<div style=""font-size:60px;"">+</div>","null",""
"","","","","","html-button-response","107","463471","0.0-4.0-1.51","101","1","2022-11-13 13:34:31","a60ee176136a54a92dc2853177adfa2c","39.183.122.24","Mozilla/5.0 (Windows NT 10.0; WOW64) AppleWebKit/537.36 (KHTML, like Gecko) Chrome/86.0.4240.198 Safari/537.36","WebKit","Chrome","86.0.4240.198","Windows","10.0","1752","<p>作为军队的指挥官，你可以选择发射导弹杀死 <strong>9名</strong> 敌国士兵，但会炸毁附近的 <strong>1棵</strong> 敌国树木。</p> <p>树木的照片如下图所示。</p> <p></p> <img src='stimuli/trees/4.png', style='max-width: 30%;'> </img> <p><strong>你是否选择发射武器？</strong></p>","0",""
"","","","","","html-keyboard-response","108","464475","0.0-4.0-0.52","101","1","2022-11-13 13:34:31","a60ee176136a54a92dc2853177adfa2c","39.183.122.24","Mozilla/5.0 (Windows NT 10.0; WOW64) AppleWebKit/537.36 (KHTML, like Gecko) Chrome/86.0.4240.198 Safari/537.36","WebKit","Chrome","86.0.4240.198","Windows","10.0","null","<div style=""font-size:60px;"">+</div>","null",""
"","","","","","html-button-response","109","466439","0.0-4.0-1.52","101","1","2022-11-13 13:34:31","a60ee176136a54a92dc2853177adfa2c","39.183.122.24","Mozilla/5.0 (Windows NT 10.0; WOW64) AppleWebKit/537.36 (KHTML, like Gecko) Chrome/86.0.4240.198 Safari/537.36","WebKit","Chrome","86.0.4240.198","Windows","10.0","1958","<p>作为军队的指挥官，你可以选择发射导弹杀死 <strong>6名</strong> 敌国士兵，但会炸毁附近的 <strong>1棵</strong> 敌国树木。</p> <p>树木的照片如下图所示。</p> <p></p> <img src='stimuli/trees/3.png', style='max-width: 30%;'> </img> <p><strong>你是否选择发射武器？</strong></p>","0",""
"","","","","","html-keyboard-response","110","467443","0.0-4.0-0.53","101","1","2022-11-13 13:34:31","a60ee176136a54a92dc2853177adfa2c","39.183.122.24","Mozilla/5.0 (Windows NT 10.0; WOW64) AppleWebKit/537.36 (KHTML, like Gecko) Chrome/86.0.4240.198 Safari/537.36","WebKit","Chrome","86.0.4240.198","Windows","10.0","null","<div style=""font-size:60px;"">+</div>","null",""
"","","","","","html-button-response","111","471487","0.0-4.0-1.53","101","1","2022-11-13 13:34:31","a60ee176136a54a92dc2853177adfa2c","39.183.122.24","Mozilla/5.0 (Windows NT 10.0; WOW64) AppleWebKit/537.36 (KHTML, like Gecko) Chrome/86.0.4240.198 Safari/537.36","WebKit","Chrome","86.0.4240.198","Windows","10.0","4039","<p>作为军队的指挥官，你可以选择发射导弹杀死 <strong>4名</strong> 敌国士兵，但会误杀附近的 <strong>1名</strong> 敌国平民。</p> <p>平民照片如下图所示。</p> <p></p> <img src='stimuli/faces/PCF6.jpg', style='max-width: 30%;'> </img> <p><strong>你是否选择发射武器？</strong></p>","0",""
"","","","","","html-keyboard-response","112","472491","0.0-4.0-0.54","101","1","2022-11-13 13:34:31","a60ee176136a54a92dc2853177adfa2c","39.183.122.24","Mozilla/5.0 (Windows NT 10.0; WOW64) AppleWebKit/537.36 (KHTML, like Gecko) Chrome/86.0.4240.198 Safari/537.36","WebKit","Chrome","86.0.4240.198","Windows","10.0","null","<div style=""font-size:60px;"">+</div>","null",""
"","","","","","html-button-response","113","474663","0.0-4.0-1.54","101","1","2022-11-13 13:34:31","a60ee176136a54a92dc2853177adfa2c","39.183.122.24","Mozilla/5.0 (Windows NT 10.0; WOW64) AppleWebKit/537.36 (KHTML, like Gecko) Chrome/86.0.4240.198 Safari/537.36","WebKit","Chrome","86.0.4240.198","Windows","10.0","2163","<p>作为军队的指挥官，你可以选择发射导弹杀死 <strong>2名</strong> 敌国士兵，但会误杀附近的 <strong>1名</strong> 敌国平民。</p> <p>平民照片如下图所示。</p> <p></p> <img src='stimuli/faces/PCM2.jpg', style='max-width: 30%;'> </img> <p><strong>你是否选择发射武器？</strong></p>","0",""
"","","","","","html-keyboard-response","114","475667","0.0-4.0-0.55","101","1","2022-11-13 13:34:31","a60ee176136a54a92dc2853177adfa2c","39.183.122.24","Mozilla/5.0 (Windows NT 10.0; WOW64) AppleWebKit/537.36 (KHTML, like Gecko) Chrome/86.0.4240.198 Safari/537.36","WebKit","Chrome","86.0.4240.198","Windows","10.0","null","<div style=""font-size:60px;"">+</div>","null",""
"","","","","","html-button-response","115","515415","0.0-4.0-1.55","101","1","2022-11-13 13:34:31","a60ee176136a54a92dc2853177adfa2c","39.183.122.24","Mozilla/5.0 (Windows NT 10.0; WOW64) AppleWebKit/537.36 (KHTML, like Gecko) Chrome/86.0.4240.198 Safari/537.36","WebKit","Chrome","86.0.4240.198","Windows","10.0","39742","<p>作为军队的指挥官，你可以选择发射导弹杀死 <strong>6名</strong> 敌国士兵，但会炸毁附近的 <strong>1棵</strong> 敌国树木。</p> <p>树木的照片如下图所示。</p> <p></p> <img src='stimuli/trees/15.png', style='max-width: 30%;'> </img> <p><strong>你是否选择发射武器？</strong></p>","0",""
"","","","","","html-keyboard-response","116","516419","0.0-4.0-0.56","101","1","2022-11-13 13:34:31","a60ee176136a54a92dc2853177adfa2c","39.183.122.24","Mozilla/5.0 (Windows NT 10.0; WOW64) AppleWebKit/537.36 (KHTML, like Gecko) Chrome/86.0.4240.198 Safari/537.36","WebKit","Chrome","86.0.4240.198","Windows","10.0","null","<div style=""font-size:60px;"">+</div>","null",""
"","","","","","html-button-response","117","517775","0.0-4.0-1.56","101","1","2022-11-13 13:34:31","a60ee176136a54a92dc2853177adfa2c","39.183.122.24","Mozilla/5.0 (Windows NT 10.0; WOW64) AppleWebKit/537.36 (KHTML, like Gecko) Chrome/86.0.4240.198 Safari/537.36","WebKit","Chrome","86.0.4240.198","Windows","10.0","1350","<p>作为军队的指挥官，你可以选择发射导弹杀死 <strong>6名</strong> 敌国士兵，但会炸毁附近的 <strong>1棵</strong> 敌国树木。</p> <p>树木的照片如下图所示。</p> <p></p> <img src='stimuli/trees/6.png', style='max-width: 30%;'> </img> <p><strong>你是否选择发射武器？</strong></p>","0",""
"","","","","","html-keyboard-response","118","518779","0.0-4.0-0.57","101","1","2022-11-13 13:34:31","a60ee176136a54a92dc2853177adfa2c","39.183.122.24","Mozilla/5.0 (Windows NT 10.0; WOW64) AppleWebKit/537.36 (KHTML, like Gecko) Chrome/86.0.4240.198 Safari/537.36","WebKit","Chrome","86.0.4240.198","Windows","10.0","null","<div style=""font-size:60px;"">+</div>","null",""
"","","","","","html-button-response","119","525990","0.0-4.0-1.57","101","1","2022-11-13 13:34:31","a60ee176136a54a92dc2853177adfa2c","39.183.122.24","Mozilla/5.0 (Windows NT 10.0; WOW64) AppleWebKit/537.36 (KHTML, like Gecko) Chrome/86.0.4240.198 Safari/537.36","WebKit","Chrome","86.0.4240.198","Windows","10.0","7205","<p>作为军队的指挥官，你可以选择发射导弹杀死 <strong>7名</strong> 敌国士兵，但会误杀附近的 <strong>1名</strong> 敌国平民。</p> <p>平民照片如下图所示。</p> <p></p> <img src='stimuli/faces/PCF1.jpg', style='max-width: 30%;'> </img> <p><strong>你是否选择发射武器？</strong></p>","0",""
"","","","","","html-keyboard-response","120","526994","0.0-4.0-0.58","101","1","2022-11-13 13:34:31","a60ee176136a54a92dc2853177adfa2c","39.183.122.24","Mozilla/5.0 (Windows NT 10.0; WOW64) AppleWebKit/537.36 (KHTML, like Gecko) Chrome/86.0.4240.198 Safari/537.36","WebKit","Chrome","86.0.4240.198","Windows","10.0","null","<div style=""font-size:60px;"">+</div>","null",""
"","","","","","html-button-response","121","528263","0.0-4.0-1.58","101","1","2022-11-13 13:34:31","a60ee176136a54a92dc2853177adfa2c","39.183.122.24","Mozilla/5.0 (Windows NT 10.0; WOW64) AppleWebKit/537.36 (KHTML, like Gecko) Chrome/86.0.4240.198 Safari/537.36","WebKit","Chrome","86.0.4240.198","Windows","10.0","1263","<p>作为军队的指挥官，你可以选择发射导弹杀死 <strong>7名</strong> 敌国士兵，但会炸毁附近的 <strong>1棵</strong> 敌国树木。</p> <p>树木的照片如下图所示。</p> <p></p> <img src='stimuli/trees/2.png', style='max-width: 30%;'> </img> <p><strong>你是否选择发射武器？</strong></p>","0",""
"","","","","","html-keyboard-response","122","529267","0.0-4.0-0.59","101","1","2022-11-13 13:34:31","a60ee176136a54a92dc2853177adfa2c","39.183.122.24","Mozilla/5.0 (Windows NT 10.0; WOW64) AppleWebKit/537.36 (KHTML, like Gecko) Chrome/86.0.4240.198 Safari/537.36","WebKit","Chrome","86.0.4240.198","Windows","10.0","null","<div style=""font-size:60px;"">+</div>","null",""
"","","","","","html-button-response","123","530831","0.0-4.0-1.59","101","1","2022-11-13 13:34:31","a60ee176136a54a92dc2853177adfa2c","39.183.122.24","Mozilla/5.0 (Windows NT 10.0; WOW64) AppleWebKit/537.36 (KHTML, like Gecko) Chrome/86.0.4240.198 Safari/537.36","WebKit","Chrome","86.0.4240.198","Windows","10.0","1559","<p>作为军队的指挥官，你可以选择发射导弹杀死 <strong>10名</strong> 敌国士兵，但会炸毁附近的 <strong>1棵</strong> 敌国树木。</p> <p>树木的照片如下图所示。</p> <p></p> <img src='stimuli/trees/1.png', style='max-width: 30%;'> </img> <p><strong>你是否选择发射武器？</strong></p>","0",""
"","","","","","html-keyboard-response","124","531835","0.0-4.0-0.60","101","1","2022-11-13 13:34:31","a60ee176136a54a92dc2853177adfa2c","39.183.122.24","Mozilla/5.0 (Windows NT 10.0; WOW64) AppleWebKit/537.36 (KHTML, like Gecko) Chrome/86.0.4240.198 Safari/537.36","WebKit","Chrome","86.0.4240.198","Windows","10.0","null","<div style=""font-size:60px;"">+</div>","null",""
"","","","","","html-button-response","125","533111","0.0-4.0-1.60","101","1","2022-11-13 13:34:31","a60ee176136a54a92dc2853177adfa2c","39.183.122.24","Mozilla/5.0 (Windows NT 10.0; WOW64) AppleWebKit/537.36 (KHTML, like Gecko) Chrome/86.0.4240.198 Safari/537.36","WebKit","Chrome","86.0.4240.198","Windows","10.0","1265","<p>作为军队的指挥官，你可以选择发射导弹杀死 <strong>9名</strong> 敌国士兵，但会炸毁附近的 <strong>1棵</strong> 敌国树木。</p> <p>树木的照片如下图所示。</p> <p></p> <img src='stimuli/trees/13.png', style='max-width: 30%;'> </img> <p><strong>你是否选择发射武器？</strong></p>","0",""
"","","","","","html-keyboard-response","126","534115","0.0-4.0-0.61","101","1","2022-11-13 13:34:31","a60ee176136a54a92dc2853177adfa2c","39.183.122.24","Mozilla/5.0 (Windows NT 10.0; WOW64) AppleWebKit/537.36 (KHTML, like Gecko) Chrome/86.0.4240.198 Safari/537.36","WebKit","Chrome","86.0.4240.198","Windows","10.0","null","<div style=""font-size:60px;"">+</div>","null",""
"","","","","","html-button-response","127","752567","0.0-4.0-1.61","101","1","2022-11-13 13:34:31","a60ee176136a54a92dc2853177adfa2c","39.183.122.24","Mozilla/5.0 (Windows NT 10.0; WOW64) AppleWebKit/537.36 (KHTML, like Gecko) Chrome/86.0.4240.198 Safari/537.36","WebKit","Chrome","86.0.4240.198","Windows","10.0","218446","<p>作为军队的指挥官，你可以选择发射导弹杀死 <strong>3名</strong> 敌国士兵，但会炸毁附近的 <strong>1棵</strong> 敌国树木。</p> <p>树木的照片如下图所示。</p> <p></p> <img src='stimuli/trees/9.png', style='max-width: 30%;'> </img> <p><strong>你是否选择发射武器？</strong></p>","0",""
"","","","","","html-keyboard-response","128","753571","0.0-4.0-0.62","101","1","2022-11-13 13:34:31","a60ee176136a54a92dc2853177adfa2c","39.183.122.24","Mozilla/5.0 (Windows NT 10.0; WOW64) AppleWebKit/537.36 (KHTML, like Gecko) Chrome/86.0.4240.198 Safari/537.36","WebKit","Chrome","86.0.4240.198","Windows","10.0","null","<div style=""font-size:60px;"">+</div>","null",""
"","","","","","html-button-response","129","755839","0.0-4.0-1.62","101","1","2022-11-13 13:34:31","a60ee176136a54a92dc2853177adfa2c","39.183.122.24","Mozilla/5.0 (Windows NT 10.0; WOW64) AppleWebKit/537.36 (KHTML, like Gecko) Chrome/86.0.4240.198 Safari/537.36","WebKit","Chrome","86.0.4240.198","Windows","10.0","2265","<p>作为军队的指挥官，你可以选择发射导弹杀死 <strong>3名</strong> 敌国士兵，但会误杀附近的 <strong>1名</strong> 敌国平民。</p> <p>平民照片如下图所示。</p> <p></p> <img src='stimuli/faces/PCF4.jpg', style='max-width: 30%;'> </img> <p><strong>你是否选择发射武器？</strong></p>","0",""
"","","","","","html-keyboard-response","130","756843","0.0-4.0-0.63","101","1","2022-11-13 13:34:31","a60ee176136a54a92dc2853177adfa2c","39.183.122.24","Mozilla/5.0 (Windows NT 10.0; WOW64) AppleWebKit/537.36 (KHTML, like Gecko) Chrome/86.0.4240.198 Safari/537.36","WebKit","Chrome","86.0.4240.198","Windows","10.0","null","<div style=""font-size:60px;"">+</div>","null",""
"","","","","","html-button-response","131","758311","0.0-4.0-1.63","101","1","2022-11-13 13:34:31","a60ee176136a54a92dc2853177adfa2c","39.183.122.24","Mozilla/5.0 (Windows NT 10.0; WOW64) AppleWebKit/537.36 (KHTML, like Gecko) Chrome/86.0.4240.198 Safari/537.36","WebKit","Chrome","86.0.4240.198","Windows","10.0","1459","<p>作为军队的指挥官，你可以选择发射导弹杀死 <strong>5名</strong> 敌国士兵，但会炸毁附近的 <strong>1棵</strong> 敌国树木。</p> <p>树木的照片如下图所示。</p> <p></p> <img src='stimuli/trees/14.png', style='max-width: 30%;'> </img> <p><strong>你是否选择发射武器？</strong></p>","0",""
"","","","","","survey-multi-choice","132","779712","0.0-5.0","101","1","2022-11-13 13:34:31","a60ee176136a54a92dc2853177adfa2c","39.183.122.24","Mozilla/5.0 (Windows NT 10.0; WOW64) AppleWebKit/537.36 (KHTML, like Gecko) Chrome/86.0.4240.198 Safari/537.36","WebKit","Chrome","86.0.4240.198","Windows","10.0","21395","","{""Attention1"":""""}","[0]"
"","","","","","html-button-response","133","799263","0.0-6.0","101","1","2022-11-13 13:34:31","a60ee176136a54a92dc2853177adfa2c","39.183.122.24","Mozilla/5.0 (Windows NT 10.0; WOW64) AppleWebKit/537.36 (KHTML, like Gecko) Chrome/86.0.4240.198 Safari/537.36","WebKit","Chrome","86.0.4240.198","Windows","10.0","19545","<p style=""font-size:20px;font-weight:bold;"">恭喜！</p><p>你已经完成了实验的第一部分。</p><p>请休息放松一下，然后进入第二部分。</p><p>这部分大约需要10分钟。</p>","0",""
"","","","","","survey-text","134","832488","0.0-7.0","101","1","2022-11-13 13:34:31","a60ee176136a54a92dc2853177adfa2c","39.183.122.24","Mozilla/5.0 (Windows NT 10.0; WOW64) AppleWebKit/537.36 (KHTML, like Gecko) Chrome/86.0.4240.198 Safari/537.36","WebKit","Chrome","86.0.4240.198","Windows","10.0","32205","","{""Age"":""20"",""Nation"":""中国"",""Born"":""浙江杭州"",""Live"":""浙江杭州"",""Ethnic"":""汉族"",""Alipay"":""19858183353""}",""
"","","","","","survey-multi-choice","135","1038930","0.0-8.0","101","1","2022-11-13 13:34:31","a60ee176136a54a92dc2853177adfa2c","39.183.122.24","Mozilla/5.0 (Windows NT 10.0; WOW64) AppleWebKit/537.36 (KHTML, like Gecko) Chrome/86.0.4240.198 Safari/537.36","WebKit","Chrome","86.0.4240.198","Windows","10.0","206436","","{""Gender"":""男"",""Education"":""本科毕业"",""Income"":""￥70,000-￥139,999"",""Children"":""0"",""Race"":""亚洲人""}","[0,1,2,3,4]"
"","","","","","survey-multi-select","136","1049570","0.0-9.0","101","1","2022-11-13 13:34:31","a60ee176136a54a92dc2853177adfa2c","39.183.122.24","Mozilla/5.0 (Windows NT 10.0; WOW64) AppleWebKit/537.36 (KHTML, like Gecko) Chrome/86.0.4240.198 Safari/537.36","WebKit","Chrome","86.0.4240.198","Windows","10.0","10630","","{""Marriage"":[""未婚""],""Religion"":[""无宗教信仰""]}","[0,1]"
"","","","","","survey-multi-choice","137","1059199","0.0-10.0","101","1","2022-11-13 13:34:31","a60ee176136a54a92dc2853177adfa2c","39.183.122.24","Mozilla/5.0 (Windows NT 10.0; WOW64) AppleWebKit/537.36 (KHTML, like Gecko) Chrome/86.0.4240.198 Safari/537.36","WebKit","Chrome","86.0.4240.198","Windows","10.0","9623","","{""SES"":""6""}","[0]"
"","","","","","html-button-response","138","1062031","0.0-11.0","101","1","2022-11-13 13:34:31","a60ee176136a54a92dc2853177adfa2c","39.183.122.24","Mozilla/5.0 (Windows NT 10.0; WOW64) AppleWebKit/537.36 (KHTML, like Gecko) Chrome/86.0.4240.198 Safari/537.36","WebKit","Chrome","86.0.4240.198","Windows","10.0","2826","<p><strong>请判断下列陈述在多大程度上可以形容你？</p><p> (1 = ""和我一点都不像"" to 5 = ""非常像我"".)</strong></p>","0",""
"","","","","","survey-likert","139","1098865","0.0-12.0","101","1","2022-11-13 13:34:31","a60ee176136a54a92dc2853177adfa2c","39.183.122.24","Mozilla/5.0 (Windows NT 10.0; WOW64) AppleWebKit/537.36 (KHTML, like Gecko) Chrome/86.0.4240.198 Safari/537.36","WebKit","Chrome","86.0.4240.198","Windows","10.0","36828","","{""Aggression1"":1,""Aggression2"":3,""Aggression3"":3,""Aggression4"":1,""Aggression5"":3,""Aggression6"":3,""Aggression7"":1,""Aggression8"":1,""Aggression9"":3}","[0,1,2,3,4,5,6,7,8]"
"","","","","","html-button-response","140","1103063","0.0-13.0","101","1","2022-11-13 13:34:31","a60ee176136a54a92dc2853177adfa2c","39.183.122.24","Mozilla/5.0 (Windows NT 10.0; WOW64) AppleWebKit/537.36 (KHTML, like Gecko) Chrome/86.0.4240.198 Safari/537.36","WebKit","Chrome","86.0.4240.198","Windows","10.0","4190","<p><strong>请判断你在多大程度上同意下列陈述。</strong></p>","0",""
"","","","","","survey-likert","141","1644211","0.0-14.0","101","1","2022-11-13 13:34:31","a60ee176136a54a92dc2853177adfa2c","39.183.122.24","Mozilla/5.0 (Windows NT 10.0; WOW64) AppleWebKit/537.36 (KHTML, like Gecko) Chrome/86.0.4240.198 Safari/537.36","WebKit","Chrome","86.0.4240.198","Windows","10.0","542707","","{""scale1"":0,""scale26"":3,""scale27"":0,""scale16"":3,""scale15"":1,""scale13"":1,""scale10"":1,""scale22"":2,""scale7"":1,""scale24"":0,""scale6"":0,""scale21"":3,""scale9"":3,""scale5"":3,""scale20"":3,""scale8"":3,""scale28"":2,""scale18"":0,""scale4"":0,""scale11"":3,""scale3"":3,""scale25"":3,""scale23"":3,""scale12"":0,""scale17"":0,""scale2"":3,""scale14"":0,""scale19"":3}","[0,25,26,15,14,12,9,21,6,23,5,20,8,4,19,7,27,17,3,10,2,24,22,11,16,1,13,18]"
"","","","","","html-button-response","142","1645845","0.0-15.0","101","1","2022-11-13 13:34:31","a60ee176136a54a92dc2853177adfa2c","39.183.122.24","Mozilla/5.0 (Windows NT 10.0; WOW64) AppleWebKit/537.36 (KHTML, like Gecko) Chrome/86.0.4240.198 Safari/537.36","WebKit","Chrome","86.0.4240.198","Windows","10.0","1625","<p><strong>请判断你在多大程度上同意下列陈述。</strong></p>","0",""
"","","","","","survey-likert","143","1706962","0.0-16.0","101","1","2022-11-13 13:34:31","a60ee176136a54a92dc2853177adfa2c","39.183.122.24","Mozilla/5.0 (Windows NT 10.0; WOW64) AppleWebKit/537.36 (KHTML, like Gecko) Chrome/86.0.4240.198 Safari/537.36","WebKit","Chrome","86.0.4240.198","Windows","10.0","61110","","{""sdo5"":5,""sdo9"":4,""sdo12"":4,""sdo8"":4,""sdo13"":4,""sdo3"":5,""sdo15"":5,""sdo14"":4,""sdo6"":1,""sdo7"":4,""sdo2"":0,""sdo1"":1,""sdo10"":5,""sdo11"":5,""sdo16"":5,""sdo4"":1}","[4,8,11,7,12,2,14,13,5,6,1,0,9,10,15,3]"
"","","","","","html-button-response","144","1708678","0.0-17.0","101","1","2022-11-13 13:34:31","a60ee176136a54a92dc2853177adfa2c","39.183.122.24","Mozilla/5.0 (Windows NT 10.0; WOW64) AppleWebKit/537.36 (KHTML, like Gecko) Chrome/86.0.4240.198 Safari/537.36","WebKit","Chrome","86.0.4240.198","Windows","10.0","1708","<p><strong>请判断你在多大程度上同意下列陈述。</strong></p>","0",""
"","","","","","survey-likert","145","1758826","0.0-18.0","101","1","2022-11-13 13:34:31","a60ee176136a54a92dc2853177adfa2c","39.183.122.24","Mozilla/5.0 (Windows NT 10.0; WOW64) AppleWebKit/537.36 (KHTML, like Gecko) Chrome/86.0.4240.198 Safari/537.36","WebKit","Chrome","86.0.4240.198","Windows","10.0","50141","","{""caring1"":3,""liking1"":0,""caring2"":3,""protection1"":3,""liking2"":0,""caring3"":3,""protection2"":1,""liking3"":0,""protection3"":3,""caring4"":3,""liking4"":0,""protection4"":3,""caring5"":1,""liking5"":0,""protection5"":3}","[0,1,2,3,4,5,6,7,8,9,10,11,12,13,14]"
"","","","","","html-button-response","146","1760294","0.0-19.0","101","1","2022-11-13 13:34:31","a60ee176136a54a92dc2853177adfa2c","39.183.122.24","Mozilla/5.0 (Windows NT 10.0; WOW64) AppleWebKit/537.36 (KHTML, like Gecko) Chrome/86.0.4240.198 Safari/537.36","WebKit","Chrome","86.0.4240.198","Windows","10.0","1460","<p><strong>请判断下列场景中你的内心感受有多柔软。</strong></p>","0",""
"","","","","","survey-likert","147","1918040","0.0-20.0","101","1","2022-11-13 13:34:31","a60ee176136a54a92dc2853177adfa2c","39.183.122.24","Mozilla/5.0 (Windows NT 10.0; WOW64) AppleWebKit/537.36 (KHTML, like Gecko) Chrome/86.0.4240.198 Safari/537.36","WebKit","Chrome","86.0.4240.198","Windows","10.0","157741","","{""tenderness-positive1"":3,""tenderness-negative1"":3,""tenderness-negative2"":3,""tenderness-positive2"":3,""tenderness-positive3"":3,""tenderness-negative3"":4,""tenderness-positive4"":3,""tenderness-negative4"":3,""tenderness-negative5"":3,""tenderness-positive5"":3}","[0,1,2,3,4,5,6,7,8,9]"
"","","","","","survey-multi-choice","148","1931862","0.0-21.0","101","1","2022-11-13 13:34:31","a60ee176136a54a92dc2853177adfa2c","39.183.122.24","Mozilla/5.0 (Windows NT 10.0; WOW64) AppleWebKit/537.36 (KHTML, like Gecko) Chrome/86.0.4240.198 Safari/537.36","WebKit","Chrome","86.0.4240.198","Windows","10.0","13813","","{""Attention2"":""其他""}","[0]"
"","","","","","html-button-response","149","1933150","0.0-22.0","101","1","2022-11-13 13:34:31","a60ee176136a54a92dc2853177adfa2c","39.183.122.24","Mozilla/5.0 (Windows NT 10.0; WOW64) AppleWebKit/537.36 (KHTML, like Gecko) Chrome/86.0.4240.198 Safari/537.36","WebKit","Chrome","86.0.4240.198","Windows","10.0","1280","<p><strong>请判断你在多大程度上同意下列陈述。</strong></p>","0",""
"","","","","","survey-likert","150","1980313","0.0-23.0","101","1","2022-11-13 13:34:31","a60ee176136a54a92dc2853177adfa2c","39.183.122.24","Mozilla/5.0 (Windows NT 10.0; WOW64) AppleWebKit/537.36 (KHTML, like Gecko) Chrome/86.0.4240.198 Safari/537.36","WebKit","Chrome","86.0.4240.198","Windows","10.0","47157","","{""Patri6"":0,""Nation6"":3,""Patri7"":4,""Patri5"":4,""Patri8"":4,""Patri4"":4,""Nation1"":4,""Nation8"":0,""Patri11"":0,""Patri10"":0,""Nation2"":4,""Patri12"":0,""Patri3"":4,""Nation4"":4,""Patri1"":4,""Nation5"":4,""Patri2"":4,""Nation7"":4,""Patri9"":0,""Nation3"":3}","[5,17,6,4,7,3,12,19,10,9,13,11,2,15,0,16,1,18,8,14]"
"","","","","","html-button-response","151","1981589","0.0-24.0","101","1","2022-11-13 13:34:31","a60ee176136a54a92dc2853177adfa2c","39.183.122.24","Mozilla/5.0 (Windows NT 10.0; WOW64) AppleWebKit/537.36 (KHTML, like Gecko) Chrome/86.0.4240.198 Safari/537.36","WebKit","Chrome","86.0.4240.198","Windows","10.0","1271","<p><strong>请判断你在多大程度上同意下列陈述。</strong></p>","0",""
"","","","","","survey-likert","152","2020811","0.0-25.0","101","1","2022-11-13 13:34:31","a60ee176136a54a92dc2853177adfa2c","39.183.122.24","Mozilla/5.0 (Windows NT 10.0; WOW64) AppleWebKit/537.36 (KHTML, like Gecko) Chrome/86.0.4240.198 Safari/537.36","WebKit","Chrome","86.0.4240.198","Windows","10.0","39213","","{""hc1"":7,""hc3"":7,""hi1"":2,""hc2"":7,""vi4"":2,""vc3"":7,""hi3"":1,""vc2"":7,""Robot"":6,""vc1"":7,""vi2"":7,""vi1"":6,""vi3"":7,""hi2"":7,""vc4"":7,""hc4"":6,""hi4"":8}","[9,11,0,10,8,15,2,14,7,13,5,4,6,1,16,12,3]"
"","","","","","survey-text","153","2039878","0.0-26.0","101","1","2022-11-13 13:34:31","a60ee176136a54a92dc2853177adfa2c","39.183.122.24","Mozilla/5.0 (Windows NT 10.0; WOW64) AppleWebKit/537.36 (KHTML, like Gecko) Chrome/86.0.4240.198 Safari/537.36","WebKit","Chrome","86.0.4240.198","Windows","10.0","19059","","{""Comments"":""我觉得很好了，没有其他建议""}",""
"","","","","","html-button-response","154","2041382","0.0-27.0","101","1","2022-11-13 13:34:31","a60ee176136a54a92dc2853177adfa2c","39.183.122.24","Mozilla/5.0 (Windows NT 10.0; WOW64) AppleWebKit/537.36 (KHTML, like Gecko) Chrome/86.0.4240.198 Safari/537.36","WebKit","Chrome","86.0.4240.198","Windows","10.0","1499","<strong><p>恭喜你完成了实验！</p><p>感谢您的参与。</p></strong>","0",""
