"success","timeout","failed_images","failed_audio","failed_video","trial_type","trial_index","time_elapsed","internal_node_id","run_id","condition","recorded_at","source_code_version","ip","user_agent","device","browser","browser_version","platform","platform_version","rt","stimulus","response","question_order"
"true","false","[]","[]","[]","preload","0","2907","0.0-0.0","105","1","2022-11-13 16:10:20","a60ee176136a54a92dc2853177adfa2c","223.72.74.204","Mozilla/5.0 (Macintosh; Intel Mac OS X 10_13_6) AppleWebKit/605.1.15 (KHTML, like Gecko) Version/13.1.2 Safari/605.1.15","Macintosh","Safari","13.1.2","OS X","10_13_6","","","",""
"true","","","","","fullscreen","1","6303","0.0-1.0","105","1","2022-11-13 16:10:20","a60ee176136a54a92dc2853177adfa2c","223.72.74.204","Mozilla/5.0 (Macintosh; Intel Mac OS X 10_13_6) AppleWebKit/605.1.15 (KHTML, like Gecko) Version/13.1.2 Safari/605.1.15","Macintosh","Safari","13.1.2","OS X","10_13_6","","","",""
"","","","","","html-button-response","2","33669","0.0-2.0","105","1","2022-11-13 16:10:20","a60ee176136a54a92dc2853177adfa2c","223.72.74.204","Mozilla/5.0 (Macintosh; Intel Mac OS X 10_13_6) AppleWebKit/605.1.15 (KHTML, like Gecko) Version/13.1.2 Safari/605.1.15","Macintosh","Safari","13.1.2","OS X","10_13_6","27362","<p style=""font-size:20px;font-weight:bold;"">实验知情同意书</p><p style=""text-align:left;""><strong>实验名称：</strong>社会冲突研究</p><p style=""text-align:left;""><strong>主要研究者：</strong>韩晓春副教授（北京师范大学心理学部）</p><p style=""text-align:left;""><strong>联系方式：</strong>发送邮件至xiaochun.han@bnu.edu.cn</p><p style=""text-align:left;""><strong>研究目的：</strong>研究旨在了解人类面对群体冲突时的决策方式，以及相关的心理学特质。实验调查大约需要20分钟。</p><p style=""text-align:left;""><strong>实验流程：</strong>实验包含两部分。第一部分呈现一系列群体冲突场景，请你决定如何对这些冲突进行反应，大约需要10分钟完成。第二部分包含一系列人口统计学信息收集和心理学问卷，大约需要10分钟完成。</p><p style=""text-align:left;""><strong>参加及退出规则：</strong>参加本实验完全取决于您的个人意愿。在参与过程中，您可以随时退出，并且不用承担任何后果。</p><p style=""text-align:left;""><strong>隐私：</strong>本实验完全匿名进行，不会收集您的姓名或其他能够识别您身份的信息。实验中收集的作答仅用作科学研究使用，可能会在学术期刊/书籍上发表，或者用于教学，您的数据未来可能会和其他研究者或实验室分享，但您的个人身份不会被识别。</p><p style=""text-align:left;""><strong>实验报酬：</strong>实验完成后，您将获得15元人民币报酬，以感谢您的时间和努力。调查问卷中包含几道题目用以测验您作答时的认真度。只有完成全部实验，并且正确回答认真度测验的被试才能获得实验报酬。实验报酬将通过支付宝转账发放。</p><p style=""text-align:left;font-size:20px;""><strong>如果您同意以上实验知情同意书的内容，请点击'同意并且开始实验'按钮；否则请关闭浏览器界面，退出实验。</strong></p>","0",""
"","","","","","html-button-response","3","71396","0.0-3.0","105","1","2022-11-13 16:10:20","a60ee176136a54a92dc2853177adfa2c","223.72.74.204","Mozilla/5.0 (Macintosh; Intel Mac OS X 10_13_6) AppleWebKit/605.1.15 (KHTML, like Gecko) Version/13.1.2 Safari/605.1.15","Macintosh","Safari","13.1.2","OS X","10_13_6","37722","<p ><strong>实验任务一：</strong></p><p>请想象你的国家与另一个国家发生了军事冲突。</p><p>你是国家军队的指挥官，你将如何在冲突中进行决策。</p><p>具体来说，作为军队指挥官，请你决定是否发射导弹进行打击。</p><p>接下来，你会面对一系列场景，请仔细阅读每个场景，然后进行决策。</p><p>这部分实验任务大约需要10分钟。</p><p><strong>实验过程中，请集中注意力。</strong></p>","0",""
"","","","","","html-keyboard-response","4","72402","0.0-4.0-0.0","105","1","2022-11-13 16:10:20","a60ee176136a54a92dc2853177adfa2c","223.72.74.204","Mozilla/5.0 (Macintosh; Intel Mac OS X 10_13_6) AppleWebKit/605.1.15 (KHTML, like Gecko) Version/13.1.2 Safari/605.1.15","Macintosh","Safari","13.1.2","OS X","10_13_6","null","<div style=""font-size:60px;"">+</div>","null",""
"","","","","","html-button-response","5","82708","0.0-4.0-1.0","105","1","2022-11-13 16:10:20","a60ee176136a54a92dc2853177adfa2c","223.72.74.204","Mozilla/5.0 (Macintosh; Intel Mac OS X 10_13_6) AppleWebKit/605.1.15 (KHTML, like Gecko) Version/13.1.2 Safari/605.1.15","Macintosh","Safari","13.1.2","OS X","10_13_6","10301","<p>作为军队的指挥官，你可以选择发射导弹杀死 <strong>2名</strong> 敌国士兵，但会炸毁附近的 <strong>1棵</strong> 敌国树木。</p> <p>树木的照片如下图所示。</p> <p></p> <img src='stimuli/trees/15.png', style='max-width: 30%;'> </img> <p><strong>你是否选择发射武器？</strong></p>","0",""
"","","","","","html-keyboard-response","6","83713","0.0-4.0-0.1","105","1","2022-11-13 16:10:20","a60ee176136a54a92dc2853177adfa2c","223.72.74.204","Mozilla/5.0 (Macintosh; Intel Mac OS X 10_13_6) AppleWebKit/605.1.15 (KHTML, like Gecko) Version/13.1.2 Safari/605.1.15","Macintosh","Safari","13.1.2","OS X","10_13_6","null","<div style=""font-size:60px;"">+</div>","null",""
"","","","","","html-button-response","7","90328","0.0-4.0-1.1","105","1","2022-11-13 16:10:20","a60ee176136a54a92dc2853177adfa2c","223.72.74.204","Mozilla/5.0 (Macintosh; Intel Mac OS X 10_13_6) AppleWebKit/605.1.15 (KHTML, like Gecko) Version/13.1.2 Safari/605.1.15","Macintosh","Safari","13.1.2","OS X","10_13_6","6612","<p>作为军队的指挥官，你可以选择发射导弹杀死 <strong>8名</strong> 敌国士兵，但会误杀附近的 <strong>1名</strong> 敌国平民。</p> <p>平民照片如下图所示。</p> <p></p> <img src='stimuli/faces/PCM2.jpg', style='max-width: 30%;'> </img> <p><strong>你是否选择发射武器？</strong></p>","1",""
"","","","","","html-keyboard-response","8","91332","0.0-4.0-0.2","105","1","2022-11-13 16:10:20","a60ee176136a54a92dc2853177adfa2c","223.72.74.204","Mozilla/5.0 (Macintosh; Intel Mac OS X 10_13_6) AppleWebKit/605.1.15 (KHTML, like Gecko) Version/13.1.2 Safari/605.1.15","Macintosh","Safari","13.1.2","OS X","10_13_6","null","<div style=""font-size:60px;"">+</div>","null",""
"","","","","","html-button-response","9","97937","0.0-4.0-1.2","105","1","2022-11-13 16:10:20","a60ee176136a54a92dc2853177adfa2c","223.72.74.204","Mozilla/5.0 (Macintosh; Intel Mac OS X 10_13_6) AppleWebKit/605.1.15 (KHTML, like Gecko) Version/13.1.2 Safari/605.1.15","Macintosh","Safari","13.1.2","OS X","10_13_6","6602","<p>作为军队的指挥官，你可以选择发射导弹杀死 <strong>5名</strong> 敌国士兵，但会误杀附近的 <strong>1名</strong> 敌国平民。</p> <p>平民照片如下图所示。</p> <p></p> <img src='stimuli/faces/PCM5.jpg', style='max-width: 30%;'> </img> <p><strong>你是否选择发射武器？</strong></p>","1",""
"","","","","","html-keyboard-response","10","98941","0.0-4.0-0.3","105","1","2022-11-13 16:10:20","a60ee176136a54a92dc2853177adfa2c","223.72.74.204","Mozilla/5.0 (Macintosh; Intel Mac OS X 10_13_6) AppleWebKit/605.1.15 (KHTML, like Gecko) Version/13.1.2 Safari/605.1.15","Macintosh","Safari","13.1.2","OS X","10_13_6","null","<div style=""font-size:60px;"">+</div>","null",""
"","","","","","html-button-response","11","104422","0.0-4.0-1.3","105","1","2022-11-13 16:10:20","a60ee176136a54a92dc2853177adfa2c","223.72.74.204","Mozilla/5.0 (Macintosh; Intel Mac OS X 10_13_6) AppleWebKit/605.1.15 (KHTML, like Gecko) Version/13.1.2 Safari/605.1.15","Macintosh","Safari","13.1.2","OS X","10_13_6","5477","<p>作为军队的指挥官，你可以选择发射导弹杀死 <strong>8名</strong> 敌国士兵，但会炸毁附近的 <strong>1棵</strong> 敌国树木。</p> <p>树木的照片如下图所示。</p> <p></p> <img src='stimuli/trees/13.png', style='max-width: 30%;'> </img> <p><strong>你是否选择发射武器？</strong></p>","0",""
"","","","","","html-keyboard-response","12","105426","0.0-4.0-0.4","105","1","2022-11-13 16:10:20","a60ee176136a54a92dc2853177adfa2c","223.72.74.204","Mozilla/5.0 (Macintosh; Intel Mac OS X 10_13_6) AppleWebKit/605.1.15 (KHTML, like Gecko) Version/13.1.2 Safari/605.1.15","Macintosh","Safari","13.1.2","OS X","10_13_6","null","<div style=""font-size:60px;"">+</div>","null",""
"","","","","","html-button-response","13","109415","0.0-4.0-1.4","105","1","2022-11-13 16:10:20","a60ee176136a54a92dc2853177adfa2c","223.72.74.204","Mozilla/5.0 (Macintosh; Intel Mac OS X 10_13_6) AppleWebKit/605.1.15 (KHTML, like Gecko) Version/13.1.2 Safari/605.1.15","Macintosh","Safari","13.1.2","OS X","10_13_6","3985","<p>作为军队的指挥官，你可以选择发射导弹杀死 <strong>5名</strong> 敌国士兵，但会炸毁附近的 <strong>1棵</strong> 敌国树木。</p> <p>树木的照片如下图所示。</p> <p></p> <img src='stimuli/trees/6.png', style='max-width: 30%;'> </img> <p><strong>你是否选择发射武器？</strong></p>","0",""
"","","","","","html-keyboard-response","14","110419","0.0-4.0-0.5","105","1","2022-11-13 16:10:20","a60ee176136a54a92dc2853177adfa2c","223.72.74.204","Mozilla/5.0 (Macintosh; Intel Mac OS X 10_13_6) AppleWebKit/605.1.15 (KHTML, like Gecko) Version/13.1.2 Safari/605.1.15","Macintosh","Safari","13.1.2","OS X","10_13_6","null","<div style=""font-size:60px;"">+</div>","null",""
"","","","","","html-button-response","15","116769","0.0-4.0-1.5","105","1","2022-11-13 16:10:20","a60ee176136a54a92dc2853177adfa2c","223.72.74.204","Mozilla/5.0 (Macintosh; Intel Mac OS X 10_13_6) AppleWebKit/605.1.15 (KHTML, like Gecko) Version/13.1.2 Safari/605.1.15","Macintosh","Safari","13.1.2","OS X","10_13_6","6347","<p>作为军队的指挥官，你可以选择发射导弹杀死 <strong>6名</strong> 敌国士兵，但会炸毁附近的 <strong>1棵</strong> 敌国树木。</p> <p>树木的照片如下图所示。</p> <p></p> <img src='stimuli/trees/10.png', style='max-width: 30%;'> </img> <p><strong>你是否选择发射武器？</strong></p>","0",""
"","","","","","html-keyboard-response","16","117773","0.0-4.0-0.6","105","1","2022-11-13 16:10:20","a60ee176136a54a92dc2853177adfa2c","223.72.74.204","Mozilla/5.0 (Macintosh; Intel Mac OS X 10_13_6) AppleWebKit/605.1.15 (KHTML, like Gecko) Version/13.1.2 Safari/605.1.15","Macintosh","Safari","13.1.2","OS X","10_13_6","null","<div style=""font-size:60px;"">+</div>","null",""
"","","","","","html-button-response","17","121762","0.0-4.0-1.6","105","1","2022-11-13 16:10:20","a60ee176136a54a92dc2853177adfa2c","223.72.74.204","Mozilla/5.0 (Macintosh; Intel Mac OS X 10_13_6) AppleWebKit/605.1.15 (KHTML, like Gecko) Version/13.1.2 Safari/605.1.15","Macintosh","Safari","13.1.2","OS X","10_13_6","3986","<p>作为军队的指挥官，你可以选择发射导弹杀死 <strong>2名</strong> 敌国士兵，但会误杀附近的 <strong>1名</strong> 敌国平民。</p> <p>平民照片如下图所示。</p> <p></p> <img src='stimuli/faces/PCF4.jpg', style='max-width: 30%;'> </img> <p><strong>你是否选择发射武器？</strong></p>","1",""
"","","","","","html-keyboard-response","18","122767","0.0-4.0-0.7","105","1","2022-11-13 16:10:20","a60ee176136a54a92dc2853177adfa2c","223.72.74.204","Mozilla/5.0 (Macintosh; Intel Mac OS X 10_13_6) AppleWebKit/605.1.15 (KHTML, like Gecko) Version/13.1.2 Safari/605.1.15","Macintosh","Safari","13.1.2","OS X","10_13_6","null","<div style=""font-size:60px;"">+</div>","null",""
"","","","","","html-button-response","19","143177","0.0-4.0-1.7","105","1","2022-11-13 16:10:20","a60ee176136a54a92dc2853177adfa2c","223.72.74.204","Mozilla/5.0 (Macintosh; Intel Mac OS X 10_13_6) AppleWebKit/605.1.15 (KHTML, like Gecko) Version/13.1.2 Safari/605.1.15","Macintosh","Safari","13.1.2","OS X","10_13_6","20406","<p>作为军队的指挥官，你可以选择发射导弹杀死 <strong>2名</strong> 敌国士兵，但会误杀附近的 <strong>1名</strong> 敌国平民。</p> <p>平民照片如下图所示。</p> <p></p> <img src='stimuli/faces/PCM7.jpg', style='max-width: 30%;'> </img> <p><strong>你是否选择发射武器？</strong></p>","1",""
"","","","","","html-keyboard-response","20","144182","0.0-4.0-0.8","105","1","2022-11-13 16:10:20","a60ee176136a54a92dc2853177adfa2c","223.72.74.204","Mozilla/5.0 (Macintosh; Intel Mac OS X 10_13_6) AppleWebKit/605.1.15 (KHTML, like Gecko) Version/13.1.2 Safari/605.1.15","Macintosh","Safari","13.1.2","OS X","10_13_6","null","<div style=""font-size:60px;"">+</div>","null",""
"","","","","","html-button-response","21","146667","0.0-4.0-1.8","105","1","2022-11-13 16:10:20","a60ee176136a54a92dc2853177adfa2c","223.72.74.204","Mozilla/5.0 (Macintosh; Intel Mac OS X 10_13_6) AppleWebKit/605.1.15 (KHTML, like Gecko) Version/13.1.2 Safari/605.1.15","Macintosh","Safari","13.1.2","OS X","10_13_6","2480","<p>作为军队的指挥官，你可以选择发射导弹杀死 <strong>5名</strong> 敌国士兵，但会误杀附近的 <strong>1名</strong> 敌国平民。</p> <p>平民照片如下图所示。</p> <p></p> <img src='stimuli/faces/PCF5.jpg', style='max-width: 30%;'> </img> <p><strong>你是否选择发射武器？</strong></p>","1",""
"","","","","","html-keyboard-response","22","147672","0.0-4.0-0.9","105","1","2022-11-13 16:10:20","a60ee176136a54a92dc2853177adfa2c","223.72.74.204","Mozilla/5.0 (Macintosh; Intel Mac OS X 10_13_6) AppleWebKit/605.1.15 (KHTML, like Gecko) Version/13.1.2 Safari/605.1.15","Macintosh","Safari","13.1.2","OS X","10_13_6","null","<div style=""font-size:60px;"">+</div>","null",""
"","","","","","html-button-response","23","153847","0.0-4.0-1.9","105","1","2022-11-13 16:10:20","a60ee176136a54a92dc2853177adfa2c","223.72.74.204","Mozilla/5.0 (Macintosh; Intel Mac OS X 10_13_6) AppleWebKit/605.1.15 (KHTML, like Gecko) Version/13.1.2 Safari/605.1.15","Macintosh","Safari","13.1.2","OS X","10_13_6","6172","<p>作为军队的指挥官，你可以选择发射导弹杀死 <strong>9名</strong> 敌国士兵，但会误杀附近的 <strong>1名</strong> 敌国平民。</p> <p>平民照片如下图所示。</p> <p></p> <img src='stimuli/faces/PCM3.jpg', style='max-width: 30%;'> </img> <p><strong>你是否选择发射武器？</strong></p>","1",""
"","","","","","html-keyboard-response","24","154851","0.0-4.0-0.10","105","1","2022-11-13 16:10:20","a60ee176136a54a92dc2853177adfa2c","223.72.74.204","Mozilla/5.0 (Macintosh; Intel Mac OS X 10_13_6) AppleWebKit/605.1.15 (KHTML, like Gecko) Version/13.1.2 Safari/605.1.15","Macintosh","Safari","13.1.2","OS X","10_13_6","null","<div style=""font-size:60px;"">+</div>","null",""
"","","","","","html-button-response","25","156835","0.0-4.0-1.10","105","1","2022-11-13 16:10:20","a60ee176136a54a92dc2853177adfa2c","223.72.74.204","Mozilla/5.0 (Macintosh; Intel Mac OS X 10_13_6) AppleWebKit/605.1.15 (KHTML, like Gecko) Version/13.1.2 Safari/605.1.15","Macintosh","Safari","13.1.2","OS X","10_13_6","1981","<p>作为军队的指挥官，你可以选择发射导弹杀死 <strong>2名</strong> 敌国士兵，但会误杀附近的 <strong>1名</strong> 敌国平民。</p> <p>平民照片如下图所示。</p> <p></p> <img src='stimuli/faces/PCM3.jpg', style='max-width: 30%;'> </img> <p><strong>你是否选择发射武器？</strong></p>","1",""
"","","","","","html-keyboard-response","26","157842","0.0-4.0-0.11","105","1","2022-11-13 16:10:20","a60ee176136a54a92dc2853177adfa2c","223.72.74.204","Mozilla/5.0 (Macintosh; Intel Mac OS X 10_13_6) AppleWebKit/605.1.15 (KHTML, like Gecko) Version/13.1.2 Safari/605.1.15","Macintosh","Safari","13.1.2","OS X","10_13_6","null","<div style=""font-size:60px;"">+</div>","null",""
"","","","","","html-button-response","27","160785","0.0-4.0-1.11","105","1","2022-11-13 16:10:20","a60ee176136a54a92dc2853177adfa2c","223.72.74.204","Mozilla/5.0 (Macintosh; Intel Mac OS X 10_13_6) AppleWebKit/605.1.15 (KHTML, like Gecko) Version/13.1.2 Safari/605.1.15","Macintosh","Safari","13.1.2","OS X","10_13_6","2938","<p>作为军队的指挥官，你可以选择发射导弹杀死 <strong>9名</strong> 敌国士兵，但会误杀附近的 <strong>1名</strong> 敌国平民。</p> <p>平民照片如下图所示。</p> <p></p> <img src='stimuli/faces/PCM6.jpg', style='max-width: 30%;'> </img> <p><strong>你是否选择发射武器？</strong></p>","1",""
"","","","","","html-keyboard-response","28","161791","0.0-4.0-0.12","105","1","2022-11-13 16:10:20","a60ee176136a54a92dc2853177adfa2c","223.72.74.204","Mozilla/5.0 (Macintosh; Intel Mac OS X 10_13_6) AppleWebKit/605.1.15 (KHTML, like Gecko) Version/13.1.2 Safari/605.1.15","Macintosh","Safari","13.1.2","OS X","10_13_6","null","<div style=""font-size:60px;"">+</div>","null",""
"","","","","","html-button-response","29","164808","0.0-4.0-1.12","105","1","2022-11-13 16:10:20","a60ee176136a54a92dc2853177adfa2c","223.72.74.204","Mozilla/5.0 (Macintosh; Intel Mac OS X 10_13_6) AppleWebKit/605.1.15 (KHTML, like Gecko) Version/13.1.2 Safari/605.1.15","Macintosh","Safari","13.1.2","OS X","10_13_6","3013","<p>作为军队的指挥官，你可以选择发射导弹杀死 <strong>3名</strong> 敌国士兵，但会炸毁附近的 <strong>1棵</strong> 敌国树木。</p> <p>树木的照片如下图所示。</p> <p></p> <img src='stimuli/trees/1.png', style='max-width: 30%;'> </img> <p><strong>你是否选择发射武器？</strong></p>","0",""
"","","","","","html-keyboard-response","30","165814","0.0-4.0-0.13","105","1","2022-11-13 16:10:20","a60ee176136a54a92dc2853177adfa2c","223.72.74.204","Mozilla/5.0 (Macintosh; Intel Mac OS X 10_13_6) AppleWebKit/605.1.15 (KHTML, like Gecko) Version/13.1.2 Safari/605.1.15","Macintosh","Safari","13.1.2","OS X","10_13_6","null","<div style=""font-size:60px;"">+</div>","null",""
"","","","","","html-button-response","31","168638","0.0-4.0-1.13","105","1","2022-11-13 16:10:20","a60ee176136a54a92dc2853177adfa2c","223.72.74.204","Mozilla/5.0 (Macintosh; Intel Mac OS X 10_13_6) AppleWebKit/605.1.15 (KHTML, like Gecko) Version/13.1.2 Safari/605.1.15","Macintosh","Safari","13.1.2","OS X","10_13_6","2818","<p>作为军队的指挥官，你可以选择发射导弹杀死 <strong>6名</strong> 敌国士兵，但会炸毁附近的 <strong>1棵</strong> 敌国树木。</p> <p>树木的照片如下图所示。</p> <p></p> <img src='stimuli/trees/2.png', style='max-width: 30%;'> </img> <p><strong>你是否选择发射武器？</strong></p>","0",""
"","","","","","html-keyboard-response","32","169644","0.0-4.0-0.14","105","1","2022-11-13 16:10:20","a60ee176136a54a92dc2853177adfa2c","223.72.74.204","Mozilla/5.0 (Macintosh; Intel Mac OS X 10_13_6) AppleWebKit/605.1.15 (KHTML, like Gecko) Version/13.1.2 Safari/605.1.15","Macintosh","Safari","13.1.2","OS X","10_13_6","null","<div style=""font-size:60px;"">+</div>","null",""
"","","","","","html-button-response","33","171628","0.0-4.0-1.14","105","1","2022-11-13 16:10:20","a60ee176136a54a92dc2853177adfa2c","223.72.74.204","Mozilla/5.0 (Macintosh; Intel Mac OS X 10_13_6) AppleWebKit/605.1.15 (KHTML, like Gecko) Version/13.1.2 Safari/605.1.15","Macintosh","Safari","13.1.2","OS X","10_13_6","1980","<p>作为军队的指挥官，你可以选择发射导弹杀死 <strong>2名</strong> 敌国士兵，但会误杀附近的 <strong>1名</strong> 敌国平民。</p> <p>平民照片如下图所示。</p> <p></p> <img src='stimuli/faces/PCM1.jpg', style='max-width: 30%;'> </img> <p><strong>你是否选择发射武器？</strong></p>","1",""
"","","","","","html-keyboard-response","34","172635","0.0-4.0-0.15","105","1","2022-11-13 16:10:20","a60ee176136a54a92dc2853177adfa2c","223.72.74.204","Mozilla/5.0 (Macintosh; Intel Mac OS X 10_13_6) AppleWebKit/605.1.15 (KHTML, like Gecko) Version/13.1.2 Safari/605.1.15","Macintosh","Safari","13.1.2","OS X","10_13_6","null","<div style=""font-size:60px;"">+</div>","null",""
"","","","","","html-button-response","35","174755","0.0-4.0-1.15","105","1","2022-11-13 16:10:20","a60ee176136a54a92dc2853177adfa2c","223.72.74.204","Mozilla/5.0 (Macintosh; Intel Mac OS X 10_13_6) AppleWebKit/605.1.15 (KHTML, like Gecko) Version/13.1.2 Safari/605.1.15","Macintosh","Safari","13.1.2","OS X","10_13_6","2114","<p>作为军队的指挥官，你可以选择发射导弹杀死 <strong>8名</strong> 敌国士兵，但会误杀附近的 <strong>1名</strong> 敌国平民。</p> <p>平民照片如下图所示。</p> <p></p> <img src='stimuli/faces/PCF4.jpg', style='max-width: 30%;'> </img> <p><strong>你是否选择发射武器？</strong></p>","1",""
"","","","","","html-keyboard-response","36","175761","0.0-4.0-0.16","105","1","2022-11-13 16:10:20","a60ee176136a54a92dc2853177adfa2c","223.72.74.204","Mozilla/5.0 (Macintosh; Intel Mac OS X 10_13_6) AppleWebKit/605.1.15 (KHTML, like Gecko) Version/13.1.2 Safari/605.1.15","Macintosh","Safari","13.1.2","OS X","10_13_6","null","<div style=""font-size:60px;"">+</div>","null",""
"","","","","","html-button-response","37","177177","0.0-4.0-1.16","105","1","2022-11-13 16:10:20","a60ee176136a54a92dc2853177adfa2c","223.72.74.204","Mozilla/5.0 (Macintosh; Intel Mac OS X 10_13_6) AppleWebKit/605.1.15 (KHTML, like Gecko) Version/13.1.2 Safari/605.1.15","Macintosh","Safari","13.1.2","OS X","10_13_6","1411","<p>作为军队的指挥官，你可以选择发射导弹杀死 <strong>7名</strong> 敌国士兵，但会误杀附近的 <strong>1名</strong> 敌国平民。</p> <p>平民照片如下图所示。</p> <p></p> <img src='stimuli/faces/PCM8.jpg', style='max-width: 30%;'> </img> <p><strong>你是否选择发射武器？</strong></p>","1",""
"","","","","","html-keyboard-response","38","178184","0.0-4.0-0.17","105","1","2022-11-13 16:10:20","a60ee176136a54a92dc2853177adfa2c","223.72.74.204","Mozilla/5.0 (Macintosh; Intel Mac OS X 10_13_6) AppleWebKit/605.1.15 (KHTML, like Gecko) Version/13.1.2 Safari/605.1.15","Macintosh","Safari","13.1.2","OS X","10_13_6","null","<div style=""font-size:60px;"">+</div>","null",""
"","","","","","html-button-response","39","180192","0.0-4.0-1.17","105","1","2022-11-13 16:10:20","a60ee176136a54a92dc2853177adfa2c","223.72.74.204","Mozilla/5.0 (Macintosh; Intel Mac OS X 10_13_6) AppleWebKit/605.1.15 (KHTML, like Gecko) Version/13.1.2 Safari/605.1.15","Macintosh","Safari","13.1.2","OS X","10_13_6","2002","<p>作为军队的指挥官，你可以选择发射导弹杀死 <strong>1名</strong> 敌国士兵，但会炸毁附近的 <strong>1棵</strong> 敌国树木。</p> <p>树木的照片如下图所示。</p> <p></p> <img src='stimuli/trees/12.png', style='max-width: 30%;'> </img> <p><strong>你是否选择发射武器？</strong></p>","0",""
"","","","","","html-keyboard-response","40","181199","0.0-4.0-0.18","105","1","2022-11-13 16:10:20","a60ee176136a54a92dc2853177adfa2c","223.72.74.204","Mozilla/5.0 (Macintosh; Intel Mac OS X 10_13_6) AppleWebKit/605.1.15 (KHTML, like Gecko) Version/13.1.2 Safari/605.1.15","Macintosh","Safari","13.1.2","OS X","10_13_6","null","<div style=""font-size:60px;"">+</div>","null",""
"","","","","","html-button-response","41","184069","0.0-4.0-1.18","105","1","2022-11-13 16:10:20","a60ee176136a54a92dc2853177adfa2c","223.72.74.204","Mozilla/5.0 (Macintosh; Intel Mac OS X 10_13_6) AppleWebKit/605.1.15 (KHTML, like Gecko) Version/13.1.2 Safari/605.1.15","Macintosh","Safari","13.1.2","OS X","10_13_6","2865","<p>作为军队的指挥官，你可以选择发射导弹杀死 <strong>10名</strong> 敌国士兵，但会误杀附近的 <strong>1名</strong> 敌国平民。</p> <p>平民照片如下图所示。</p> <p></p> <img src='stimuli/faces/PCF6.jpg', style='max-width: 30%;'> </img> <p><strong>你是否选择发射武器？</strong></p>","1",""
"","","","","","html-keyboard-response","42","185076","0.0-4.0-0.19","105","1","2022-11-13 16:10:20","a60ee176136a54a92dc2853177adfa2c","223.72.74.204","Mozilla/5.0 (Macintosh; Intel Mac OS X 10_13_6) AppleWebKit/605.1.15 (KHTML, like Gecko) Version/13.1.2 Safari/605.1.15","Macintosh","Safari","13.1.2","OS X","10_13_6","null","<div style=""font-size:60px;"">+</div>","null",""
"","","","","","html-button-response","43","187156","0.0-4.0-1.19","105","1","2022-11-13 16:10:20","a60ee176136a54a92dc2853177adfa2c","223.72.74.204","Mozilla/5.0 (Macintosh; Intel Mac OS X 10_13_6) AppleWebKit/605.1.15 (KHTML, like Gecko) Version/13.1.2 Safari/605.1.15","Macintosh","Safari","13.1.2","OS X","10_13_6","2073","<p>作为军队的指挥官，你可以选择发射导弹杀死 <strong>9名</strong> 敌国士兵，但会炸毁附近的 <strong>1棵</strong> 敌国树木。</p> <p>树木的照片如下图所示。</p> <p></p> <img src='stimuli/trees/5.png', style='max-width: 30%;'> </img> <p><strong>你是否选择发射武器？</strong></p>","0",""
"","","","","","html-keyboard-response","44","188164","0.0-4.0-0.20","105","1","2022-11-13 16:10:20","a60ee176136a54a92dc2853177adfa2c","223.72.74.204","Mozilla/5.0 (Macintosh; Intel Mac OS X 10_13_6) AppleWebKit/605.1.15 (KHTML, like Gecko) Version/13.1.2 Safari/605.1.15","Macintosh","Safari","13.1.2","OS X","10_13_6","null","<div style=""font-size:60px;"">+</div>","null",""
"","","","","","html-button-response","45","191446","0.0-4.0-1.20","105","1","2022-11-13 16:10:20","a60ee176136a54a92dc2853177adfa2c","223.72.74.204","Mozilla/5.0 (Macintosh; Intel Mac OS X 10_13_6) AppleWebKit/605.1.15 (KHTML, like Gecko) Version/13.1.2 Safari/605.1.15","Macintosh","Safari","13.1.2","OS X","10_13_6","3276","<p>作为军队的指挥官，你可以选择发射导弹杀死 <strong>4名</strong> 敌国士兵，但会误杀附近的 <strong>1名</strong> 敌国平民。</p> <p>平民照片如下图所示。</p> <p></p> <img src='stimuli/faces/PCF2.jpg', style='max-width: 30%;'> </img> <p><strong>你是否选择发射武器？</strong></p>","1",""
"","","","","","html-keyboard-response","46","192454","0.0-4.0-0.21","105","1","2022-11-13 16:10:20","a60ee176136a54a92dc2853177adfa2c","223.72.74.204","Mozilla/5.0 (Macintosh; Intel Mac OS X 10_13_6) AppleWebKit/605.1.15 (KHTML, like Gecko) Version/13.1.2 Safari/605.1.15","Macintosh","Safari","13.1.2","OS X","10_13_6","null","<div style=""font-size:60px;"">+</div>","null",""
"","","","","","html-button-response","47","194276","0.0-4.0-1.21","105","1","2022-11-13 16:10:20","a60ee176136a54a92dc2853177adfa2c","223.72.74.204","Mozilla/5.0 (Macintosh; Intel Mac OS X 10_13_6) AppleWebKit/605.1.15 (KHTML, like Gecko) Version/13.1.2 Safari/605.1.15","Macintosh","Safari","13.1.2","OS X","10_13_6","1814","<p>作为军队的指挥官，你可以选择发射导弹杀死 <strong>2名</strong> 敌国士兵，但会误杀附近的 <strong>1名</strong> 敌国平民。</p> <p>平民照片如下图所示。</p> <p></p> <img src='stimuli/faces/PCM2.jpg', style='max-width: 30%;'> </img> <p><strong>你是否选择发射武器？</strong></p>","1",""
"","","","","","html-keyboard-response","48","195284","0.0-4.0-0.22","105","1","2022-11-13 16:10:20","a60ee176136a54a92dc2853177adfa2c","223.72.74.204","Mozilla/5.0 (Macintosh; Intel Mac OS X 10_13_6) AppleWebKit/605.1.15 (KHTML, like Gecko) Version/13.1.2 Safari/605.1.15","Macintosh","Safari","13.1.2","OS X","10_13_6","null","<div style=""font-size:60px;"">+</div>","null",""
"","","","","","html-button-response","49","197745","0.0-4.0-1.22","105","1","2022-11-13 16:10:20","a60ee176136a54a92dc2853177adfa2c","223.72.74.204","Mozilla/5.0 (Macintosh; Intel Mac OS X 10_13_6) AppleWebKit/605.1.15 (KHTML, like Gecko) Version/13.1.2 Safari/605.1.15","Macintosh","Safari","13.1.2","OS X","10_13_6","2455","<p>作为军队的指挥官，你可以选择发射导弹杀死 <strong>5名</strong> 敌国士兵，但会炸毁附近的 <strong>1棵</strong> 敌国树木。</p> <p>树木的照片如下图所示。</p> <p></p> <img src='stimuli/trees/16.png', style='max-width: 30%;'> </img> <p><strong>你是否选择发射武器？</strong></p>","0",""
"","","","","","html-keyboard-response","50","198754","0.0-4.0-0.23","105","1","2022-11-13 16:10:20","a60ee176136a54a92dc2853177adfa2c","223.72.74.204","Mozilla/5.0 (Macintosh; Intel Mac OS X 10_13_6) AppleWebKit/605.1.15 (KHTML, like Gecko) Version/13.1.2 Safari/605.1.15","Macintosh","Safari","13.1.2","OS X","10_13_6","null","<div style=""font-size:60px;"">+</div>","null",""
"","","","","","html-button-response","51","200064","0.0-4.0-1.23","105","1","2022-11-13 16:10:20","a60ee176136a54a92dc2853177adfa2c","223.72.74.204","Mozilla/5.0 (Macintosh; Intel Mac OS X 10_13_6) AppleWebKit/605.1.15 (KHTML, like Gecko) Version/13.1.2 Safari/605.1.15","Macintosh","Safari","13.1.2","OS X","10_13_6","1302","<p>作为军队的指挥官，你可以选择发射导弹杀死 <strong>9名</strong> 敌国士兵，但会炸毁附近的 <strong>1棵</strong> 敌国树木。</p> <p>树木的照片如下图所示。</p> <p></p> <img src='stimuli/trees/4.png', style='max-width: 30%;'> </img> <p><strong>你是否选择发射武器？</strong></p>","0",""
"","","","","","html-keyboard-response","52","201069","0.0-4.0-0.24","105","1","2022-11-13 16:10:20","a60ee176136a54a92dc2853177adfa2c","223.72.74.204","Mozilla/5.0 (Macintosh; Intel Mac OS X 10_13_6) AppleWebKit/605.1.15 (KHTML, like Gecko) Version/13.1.2 Safari/605.1.15","Macintosh","Safari","13.1.2","OS X","10_13_6","null","<div style=""font-size:60px;"">+</div>","null",""
"","","","","","html-button-response","53","203618","0.0-4.0-1.24","105","1","2022-11-13 16:10:20","a60ee176136a54a92dc2853177adfa2c","223.72.74.204","Mozilla/5.0 (Macintosh; Intel Mac OS X 10_13_6) AppleWebKit/605.1.15 (KHTML, like Gecko) Version/13.1.2 Safari/605.1.15","Macintosh","Safari","13.1.2","OS X","10_13_6","2545","<p>作为军队的指挥官，你可以选择发射导弹杀死 <strong>10名</strong> 敌国士兵，但会误杀附近的 <strong>1名</strong> 敌国平民。</p> <p>平民照片如下图所示。</p> <p></p> <img src='stimuli/faces/PCF3.jpg', style='max-width: 30%;'> </img> <p><strong>你是否选择发射武器？</strong></p>","1",""
"","","","","","html-keyboard-response","54","204624","0.0-4.0-0.25","105","1","2022-11-13 16:10:20","a60ee176136a54a92dc2853177adfa2c","223.72.74.204","Mozilla/5.0 (Macintosh; Intel Mac OS X 10_13_6) AppleWebKit/605.1.15 (KHTML, like Gecko) Version/13.1.2 Safari/605.1.15","Macintosh","Safari","13.1.2","OS X","10_13_6","null","<div style=""font-size:60px;"">+</div>","null",""
"","","","","","html-button-response","55","210279","0.0-4.0-1.25","105","1","2022-11-13 16:10:20","a60ee176136a54a92dc2853177adfa2c","223.72.74.204","Mozilla/5.0 (Macintosh; Intel Mac OS X 10_13_6) AppleWebKit/605.1.15 (KHTML, like Gecko) Version/13.1.2 Safari/605.1.15","Macintosh","Safari","13.1.2","OS X","10_13_6","5650","<p>作为军队的指挥官，你可以选择发射导弹杀死 <strong>9名</strong> 敌国士兵，但会误杀附近的 <strong>1名</strong> 敌国平民。</p> <p>平民照片如下图所示。</p> <p></p> <img src='stimuli/faces/PCF1.jpg', style='max-width: 30%;'> </img> <p><strong>你是否选择发射武器？</strong></p>","1",""
"","","","","","html-keyboard-response","56","211285","0.0-4.0-0.26","105","1","2022-11-13 16:10:20","a60ee176136a54a92dc2853177adfa2c","223.72.74.204","Mozilla/5.0 (Macintosh; Intel Mac OS X 10_13_6) AppleWebKit/605.1.15 (KHTML, like Gecko) Version/13.1.2 Safari/605.1.15","Macintosh","Safari","13.1.2","OS X","10_13_6","null","<div style=""font-size:60px;"">+</div>","null",""
"","","","","","html-button-response","57","213145","0.0-4.0-1.26","105","1","2022-11-13 16:10:20","a60ee176136a54a92dc2853177adfa2c","223.72.74.204","Mozilla/5.0 (Macintosh; Intel Mac OS X 10_13_6) AppleWebKit/605.1.15 (KHTML, like Gecko) Version/13.1.2 Safari/605.1.15","Macintosh","Safari","13.1.2","OS X","10_13_6","1855","<p>作为军队的指挥官，你可以选择发射导弹杀死 <strong>9名</strong> 敌国士兵，但会炸毁附近的 <strong>1棵</strong> 敌国树木。</p> <p>树木的照片如下图所示。</p> <p></p> <img src='stimuli/trees/11.png', style='max-width: 30%;'> </img> <p><strong>你是否选择发射武器？</strong></p>","0",""
"","","","","","html-keyboard-response","58","214151","0.0-4.0-0.27","105","1","2022-11-13 16:10:20","a60ee176136a54a92dc2853177adfa2c","223.72.74.204","Mozilla/5.0 (Macintosh; Intel Mac OS X 10_13_6) AppleWebKit/605.1.15 (KHTML, like Gecko) Version/13.1.2 Safari/605.1.15","Macintosh","Safari","13.1.2","OS X","10_13_6","null","<div style=""font-size:60px;"">+</div>","null",""
"","","","","","html-button-response","59","215062","0.0-4.0-1.27","105","1","2022-11-13 16:10:20","a60ee176136a54a92dc2853177adfa2c","223.72.74.204","Mozilla/5.0 (Macintosh; Intel Mac OS X 10_13_6) AppleWebKit/605.1.15 (KHTML, like Gecko) Version/13.1.2 Safari/605.1.15","Macintosh","Safari","13.1.2","OS X","10_13_6","906","<p>作为军队的指挥官，你可以选择发射导弹杀死 <strong>3名</strong> 敌国士兵，但会炸毁附近的 <strong>1棵</strong> 敌国树木。</p> <p>树木的照片如下图所示。</p> <p></p> <img src='stimuli/trees/11.png', style='max-width: 30%;'> </img> <p><strong>你是否选择发射武器？</strong></p>","0",""
"","","","","","html-keyboard-response","60","216068","0.0-4.0-0.28","105","1","2022-11-13 16:10:20","a60ee176136a54a92dc2853177adfa2c","223.72.74.204","Mozilla/5.0 (Macintosh; Intel Mac OS X 10_13_6) AppleWebKit/605.1.15 (KHTML, like Gecko) Version/13.1.2 Safari/605.1.15","Macintosh","Safari","13.1.2","OS X","10_13_6","null","<div style=""font-size:60px;"">+</div>","null",""
"","","","","","html-button-response","61","218218","0.0-4.0-1.28","105","1","2022-11-13 16:10:20","a60ee176136a54a92dc2853177adfa2c","223.72.74.204","Mozilla/5.0 (Macintosh; Intel Mac OS X 10_13_6) AppleWebKit/605.1.15 (KHTML, like Gecko) Version/13.1.2 Safari/605.1.15","Macintosh","Safari","13.1.2","OS X","10_13_6","2145","<p>作为军队的指挥官，你可以选择发射导弹杀死 <strong>2名</strong> 敌国士兵，但会炸毁附近的 <strong>1棵</strong> 敌国树木。</p> <p>树木的照片如下图所示。</p> <p></p> <img src='stimuli/trees/5.png', style='max-width: 30%;'> </img> <p><strong>你是否选择发射武器？</strong></p>","0",""
"","","","","","html-keyboard-response","62","219224","0.0-4.0-0.29","105","1","2022-11-13 16:10:20","a60ee176136a54a92dc2853177adfa2c","223.72.74.204","Mozilla/5.0 (Macintosh; Intel Mac OS X 10_13_6) AppleWebKit/605.1.15 (KHTML, like Gecko) Version/13.1.2 Safari/605.1.15","Macintosh","Safari","13.1.2","OS X","10_13_6","null","<div style=""font-size:60px;"">+</div>","null",""
"","","","","","html-button-response","63","222636","0.0-4.0-1.29","105","1","2022-11-13 16:10:20","a60ee176136a54a92dc2853177adfa2c","223.72.74.204","Mozilla/5.0 (Macintosh; Intel Mac OS X 10_13_6) AppleWebKit/605.1.15 (KHTML, like Gecko) Version/13.1.2 Safari/605.1.15","Macintosh","Safari","13.1.2","OS X","10_13_6","3407","<p>作为军队的指挥官，你可以选择发射导弹杀死 <strong>9名</strong> 敌国士兵，但会炸毁附近的 <strong>1棵</strong> 敌国树木。</p> <p>树木的照片如下图所示。</p> <p></p> <img src='stimuli/trees/8.png', style='max-width: 30%;'> </img> <p><strong>你是否选择发射武器？</strong></p>","0",""
"","","","","","html-keyboard-response","64","223642","0.0-4.0-0.30","105","1","2022-11-13 16:10:20","a60ee176136a54a92dc2853177adfa2c","223.72.74.204","Mozilla/5.0 (Macintosh; Intel Mac OS X 10_13_6) AppleWebKit/605.1.15 (KHTML, like Gecko) Version/13.1.2 Safari/605.1.15","Macintosh","Safari","13.1.2","OS X","10_13_6","null","<div style=""font-size:60px;"">+</div>","null",""
"","","","","","html-button-response","65","225075","0.0-4.0-1.30","105","1","2022-11-13 16:10:20","a60ee176136a54a92dc2853177adfa2c","223.72.74.204","Mozilla/5.0 (Macintosh; Intel Mac OS X 10_13_6) AppleWebKit/605.1.15 (KHTML, like Gecko) Version/13.1.2 Safari/605.1.15","Macintosh","Safari","13.1.2","OS X","10_13_6","1428","<p>作为军队的指挥官，你可以选择发射导弹杀死 <strong>6名</strong> 敌国士兵，但会炸毁附近的 <strong>1棵</strong> 敌国树木。</p> <p>树木的照片如下图所示。</p> <p></p> <img src='stimuli/trees/15.png', style='max-width: 30%;'> </img> <p><strong>你是否选择发射武器？</strong></p>","0",""
"","","","","","html-keyboard-response","66","226081","0.0-4.0-0.31","105","1","2022-11-13 16:10:20","a60ee176136a54a92dc2853177adfa2c","223.72.74.204","Mozilla/5.0 (Macintosh; Intel Mac OS X 10_13_6) AppleWebKit/605.1.15 (KHTML, like Gecko) Version/13.1.2 Safari/605.1.15","Macintosh","Safari","13.1.2","OS X","10_13_6","null","<div style=""font-size:60px;"">+</div>","null",""
"","","","","","html-button-response","67","239688","0.0-4.0-1.31","105","1","2022-11-13 16:10:20","a60ee176136a54a92dc2853177adfa2c","223.72.74.204","Mozilla/5.0 (Macintosh; Intel Mac OS X 10_13_6) AppleWebKit/605.1.15 (KHTML, like Gecko) Version/13.1.2 Safari/605.1.15","Macintosh","Safari","13.1.2","OS X","10_13_6","13602","<p>作为军队的指挥官，你可以选择发射导弹杀死 <strong>10名</strong> 敌国士兵，但会误杀附近的 <strong>1名</strong> 敌国平民。</p> <p>平民照片如下图所示。</p> <p></p> <img src='stimuli/faces/PCF5.jpg', style='max-width: 30%;'> </img> <p><strong>你是否选择发射武器？</strong></p>","1",""
"","","","","","html-keyboard-response","68","240694","0.0-4.0-0.32","105","1","2022-11-13 16:10:20","a60ee176136a54a92dc2853177adfa2c","223.72.74.204","Mozilla/5.0 (Macintosh; Intel Mac OS X 10_13_6) AppleWebKit/605.1.15 (KHTML, like Gecko) Version/13.1.2 Safari/605.1.15","Macintosh","Safari","13.1.2","OS X","10_13_6","null","<div style=""font-size:60px;"">+</div>","null",""
"","","","","","html-button-response","69","242483","0.0-4.0-1.32","105","1","2022-11-13 16:10:20","a60ee176136a54a92dc2853177adfa2c","223.72.74.204","Mozilla/5.0 (Macintosh; Intel Mac OS X 10_13_6) AppleWebKit/605.1.15 (KHTML, like Gecko) Version/13.1.2 Safari/605.1.15","Macintosh","Safari","13.1.2","OS X","10_13_6","1784","<p>作为军队的指挥官，你可以选择发射导弹杀死 <strong>2名</strong> 敌国士兵，但会误杀附近的 <strong>1名</strong> 敌国平民。</p> <p>平民照片如下图所示。</p> <p></p> <img src='stimuli/faces/PCM6.jpg', style='max-width: 30%;'> </img> <p><strong>你是否选择发射武器？</strong></p>","1",""
"","","","","","html-keyboard-response","70","243488","0.0-4.0-0.33","105","1","2022-11-13 16:10:20","a60ee176136a54a92dc2853177adfa2c","223.72.74.204","Mozilla/5.0 (Macintosh; Intel Mac OS X 10_13_6) AppleWebKit/605.1.15 (KHTML, like Gecko) Version/13.1.2 Safari/605.1.15","Macintosh","Safari","13.1.2","OS X","10_13_6","null","<div style=""font-size:60px;"">+</div>","null",""
"","","","","","html-button-response","71","246327","0.0-4.0-1.33","105","1","2022-11-13 16:10:20","a60ee176136a54a92dc2853177adfa2c","223.72.74.204","Mozilla/5.0 (Macintosh; Intel Mac OS X 10_13_6) AppleWebKit/605.1.15 (KHTML, like Gecko) Version/13.1.2 Safari/605.1.15","Macintosh","Safari","13.1.2","OS X","10_13_6","2834","<p>作为军队的指挥官，你可以选择发射导弹杀死 <strong>7名</strong> 敌国士兵，但会误杀附近的 <strong>1名</strong> 敌国平民。</p> <p>平民照片如下图所示。</p> <p></p> <img src='stimuli/faces/PCF7.jpg', style='max-width: 30%;'> </img> <p><strong>你是否选择发射武器？</strong></p>","1",""
"","","","","","html-keyboard-response","72","247333","0.0-4.0-0.34","105","1","2022-11-13 16:10:20","a60ee176136a54a92dc2853177adfa2c","223.72.74.204","Mozilla/5.0 (Macintosh; Intel Mac OS X 10_13_6) AppleWebKit/605.1.15 (KHTML, like Gecko) Version/13.1.2 Safari/605.1.15","Macintosh","Safari","13.1.2","OS X","10_13_6","null","<div style=""font-size:60px;"">+</div>","null",""
"","","","","","html-button-response","73","249381","0.0-4.0-1.34","105","1","2022-11-13 16:10:20","a60ee176136a54a92dc2853177adfa2c","223.72.74.204","Mozilla/5.0 (Macintosh; Intel Mac OS X 10_13_6) AppleWebKit/605.1.15 (KHTML, like Gecko) Version/13.1.2 Safari/605.1.15","Macintosh","Safari","13.1.2","OS X","10_13_6","2043","<p>作为军队的指挥官，你可以选择发射导弹杀死 <strong>6名</strong> 敌国士兵，但会误杀附近的 <strong>1名</strong> 敌国平民。</p> <p>平民照片如下图所示。</p> <p></p> <img src='stimuli/faces/PCF2.jpg', style='max-width: 30%;'> </img> <p><strong>你是否选择发射武器？</strong></p>","1",""
"","","","","","html-keyboard-response","74","250387","0.0-4.0-0.35","105","1","2022-11-13 16:10:20","a60ee176136a54a92dc2853177adfa2c","223.72.74.204","Mozilla/5.0 (Macintosh; Intel Mac OS X 10_13_6) AppleWebKit/605.1.15 (KHTML, like Gecko) Version/13.1.2 Safari/605.1.15","Macintosh","Safari","13.1.2","OS X","10_13_6","null","<div style=""font-size:60px;"">+</div>","null",""
"","","","","","html-button-response","75","251522","0.0-4.0-1.35","105","1","2022-11-13 16:10:20","a60ee176136a54a92dc2853177adfa2c","223.72.74.204","Mozilla/5.0 (Macintosh; Intel Mac OS X 10_13_6) AppleWebKit/605.1.15 (KHTML, like Gecko) Version/13.1.2 Safari/605.1.15","Macintosh","Safari","13.1.2","OS X","10_13_6","1131","<p>作为军队的指挥官，你可以选择发射导弹杀死 <strong>10名</strong> 敌国士兵，但会误杀附近的 <strong>1名</strong> 敌国平民。</p> <p>平民照片如下图所示。</p> <p></p> <img src='stimuli/faces/PCM7.jpg', style='max-width: 30%;'> </img> <p><strong>你是否选择发射武器？</strong></p>","1",""
"","","","","","html-keyboard-response","76","252528","0.0-4.0-0.36","105","1","2022-11-13 16:10:20","a60ee176136a54a92dc2853177adfa2c","223.72.74.204","Mozilla/5.0 (Macintosh; Intel Mac OS X 10_13_6) AppleWebKit/605.1.15 (KHTML, like Gecko) Version/13.1.2 Safari/605.1.15","Macintosh","Safari","13.1.2","OS X","10_13_6","null","<div style=""font-size:60px;"">+</div>","null",""
"","","","","","html-button-response","77","254263","0.0-4.0-1.36","105","1","2022-11-13 16:10:20","a60ee176136a54a92dc2853177adfa2c","223.72.74.204","Mozilla/5.0 (Macintosh; Intel Mac OS X 10_13_6) AppleWebKit/605.1.15 (KHTML, like Gecko) Version/13.1.2 Safari/605.1.15","Macintosh","Safari","13.1.2","OS X","10_13_6","1729","<p>作为军队的指挥官，你可以选择发射导弹杀死 <strong>1名</strong> 敌国士兵，但会炸毁附近的 <strong>1棵</strong> 敌国树木。</p> <p>树木的照片如下图所示。</p> <p></p> <img src='stimuli/trees/9.png', style='max-width: 30%;'> </img> <p><strong>你是否选择发射武器？</strong></p>","0",""
"","","","","","html-keyboard-response","78","255269","0.0-4.0-0.37","105","1","2022-11-13 16:10:20","a60ee176136a54a92dc2853177adfa2c","223.72.74.204","Mozilla/5.0 (Macintosh; Intel Mac OS X 10_13_6) AppleWebKit/605.1.15 (KHTML, like Gecko) Version/13.1.2 Safari/605.1.15","Macintosh","Safari","13.1.2","OS X","10_13_6","null","<div style=""font-size:60px;"">+</div>","null",""
"","","","","","html-button-response","79","258109","0.0-4.0-1.37","105","1","2022-11-13 16:10:20","a60ee176136a54a92dc2853177adfa2c","223.72.74.204","Mozilla/5.0 (Macintosh; Intel Mac OS X 10_13_6) AppleWebKit/605.1.15 (KHTML, like Gecko) Version/13.1.2 Safari/605.1.15","Macintosh","Safari","13.1.2","OS X","10_13_6","2834","<p>作为军队的指挥官，你可以选择发射导弹杀死 <strong>10名</strong> 敌国士兵，但会误杀附近的 <strong>1名</strong> 敌国平民。</p> <p>平民照片如下图所示。</p> <p></p> <img src='stimuli/faces/PCF8.jpg', style='max-width: 30%;'> </img> <p><strong>你是否选择发射武器？</strong></p>","1",""
"","","","","","html-keyboard-response","80","259114","0.0-4.0-0.38","105","1","2022-11-13 16:10:20","a60ee176136a54a92dc2853177adfa2c","223.72.74.204","Mozilla/5.0 (Macintosh; Intel Mac OS X 10_13_6) AppleWebKit/605.1.15 (KHTML, like Gecko) Version/13.1.2 Safari/605.1.15","Macintosh","Safari","13.1.2","OS X","10_13_6","null","<div style=""font-size:60px;"">+</div>","null",""
"","","","","","html-button-response","81","262271","0.0-4.0-1.38","105","1","2022-11-13 16:10:20","a60ee176136a54a92dc2853177adfa2c","223.72.74.204","Mozilla/5.0 (Macintosh; Intel Mac OS X 10_13_6) AppleWebKit/605.1.15 (KHTML, like Gecko) Version/13.1.2 Safari/605.1.15","Macintosh","Safari","13.1.2","OS X","10_13_6","3152","<p>作为军队的指挥官，你可以选择发射导弹杀死 <strong>8名</strong> 敌国士兵，但会炸毁附近的 <strong>1棵</strong> 敌国树木。</p> <p>树木的照片如下图所示。</p> <p></p> <img src='stimuli/trees/7.png', style='max-width: 30%;'> </img> <p><strong>你是否选择发射武器？</strong></p>","0",""
"","","","","","html-keyboard-response","82","263284","0.0-4.0-0.39","105","1","2022-11-13 16:10:20","a60ee176136a54a92dc2853177adfa2c","223.72.74.204","Mozilla/5.0 (Macintosh; Intel Mac OS X 10_13_6) AppleWebKit/605.1.15 (KHTML, like Gecko) Version/13.1.2 Safari/605.1.15","Macintosh","Safari","13.1.2","OS X","10_13_6","null","<div style=""font-size:60px;"">+</div>","null",""
"","","","","","html-button-response","83","264797","0.0-4.0-1.39","105","1","2022-11-13 16:10:20","a60ee176136a54a92dc2853177adfa2c","223.72.74.204","Mozilla/5.0 (Macintosh; Intel Mac OS X 10_13_6) AppleWebKit/605.1.15 (KHTML, like Gecko) Version/13.1.2 Safari/605.1.15","Macintosh","Safari","13.1.2","OS X","10_13_6","1507","<p>作为军队的指挥官，你可以选择发射导弹杀死 <strong>3名</strong> 敌国士兵，但会误杀附近的 <strong>1名</strong> 敌国平民。</p> <p>平民照片如下图所示。</p> <p></p> <img src='stimuli/faces/PCF8.jpg', style='max-width: 30%;'> </img> <p><strong>你是否选择发射武器？</strong></p>","1",""
"","","","","","html-keyboard-response","84","265803","0.0-4.0-0.40","105","1","2022-11-13 16:10:20","a60ee176136a54a92dc2853177adfa2c","223.72.74.204","Mozilla/5.0 (Macintosh; Intel Mac OS X 10_13_6) AppleWebKit/605.1.15 (KHTML, like Gecko) Version/13.1.2 Safari/605.1.15","Macintosh","Safari","13.1.2","OS X","10_13_6","null","<div style=""font-size:60px;"">+</div>","null",""
"","","","","","html-button-response","85","269853","0.0-4.0-1.40","105","1","2022-11-13 16:10:20","a60ee176136a54a92dc2853177adfa2c","223.72.74.204","Mozilla/5.0 (Macintosh; Intel Mac OS X 10_13_6) AppleWebKit/605.1.15 (KHTML, like Gecko) Version/13.1.2 Safari/605.1.15","Macintosh","Safari","13.1.2","OS X","10_13_6","4045","<p>作为军队的指挥官，你可以选择发射导弹杀死 <strong>8名</strong> 敌国士兵，但会误杀附近的 <strong>1名</strong> 敌国平民。</p> <p>平民照片如下图所示。</p> <p></p> <img src='stimuli/faces/PCM1.jpg', style='max-width: 30%;'> </img> <p><strong>你是否选择发射武器？</strong></p>","1",""
"","","","","","html-keyboard-response","86","270858","0.0-4.0-0.41","105","1","2022-11-13 16:10:20","a60ee176136a54a92dc2853177adfa2c","223.72.74.204","Mozilla/5.0 (Macintosh; Intel Mac OS X 10_13_6) AppleWebKit/605.1.15 (KHTML, like Gecko) Version/13.1.2 Safari/605.1.15","Macintosh","Safari","13.1.2","OS X","10_13_6","null","<div style=""font-size:60px;"">+</div>","null",""
"","","","","","html-button-response","87","272451","0.0-4.0-1.41","105","1","2022-11-13 16:10:20","a60ee176136a54a92dc2853177adfa2c","223.72.74.204","Mozilla/5.0 (Macintosh; Intel Mac OS X 10_13_6) AppleWebKit/605.1.15 (KHTML, like Gecko) Version/13.1.2 Safari/605.1.15","Macintosh","Safari","13.1.2","OS X","10_13_6","1587","<p>作为军队的指挥官，你可以选择发射导弹杀死 <strong>10名</strong> 敌国士兵，但会炸毁附近的 <strong>1棵</strong> 敌国树木。</p> <p>树木的照片如下图所示。</p> <p></p> <img src='stimuli/trees/9.png', style='max-width: 30%;'> </img> <p><strong>你是否选择发射武器？</strong></p>","0",""
"","","","","","html-keyboard-response","88","273457","0.0-4.0-0.42","105","1","2022-11-13 16:10:20","a60ee176136a54a92dc2853177adfa2c","223.72.74.204","Mozilla/5.0 (Macintosh; Intel Mac OS X 10_13_6) AppleWebKit/605.1.15 (KHTML, like Gecko) Version/13.1.2 Safari/605.1.15","Macintosh","Safari","13.1.2","OS X","10_13_6","null","<div style=""font-size:60px;"">+</div>","null",""
"","","","","","html-button-response","89","276537","0.0-4.0-1.42","105","1","2022-11-13 16:10:20","a60ee176136a54a92dc2853177adfa2c","223.72.74.204","Mozilla/5.0 (Macintosh; Intel Mac OS X 10_13_6) AppleWebKit/605.1.15 (KHTML, like Gecko) Version/13.1.2 Safari/605.1.15","Macintosh","Safari","13.1.2","OS X","10_13_6","3074","<p>作为军队的指挥官，你可以选择发射导弹杀死 <strong>5名</strong> 敌国士兵，但会炸毁附近的 <strong>1棵</strong> 敌国树木。</p> <p>树木的照片如下图所示。</p> <p></p> <img src='stimuli/trees/13.png', style='max-width: 30%;'> </img> <p><strong>你是否选择发射武器？</strong></p>","0",""
"","","","","","html-keyboard-response","90","277544","0.0-4.0-0.43","105","1","2022-11-13 16:10:20","a60ee176136a54a92dc2853177adfa2c","223.72.74.204","Mozilla/5.0 (Macintosh; Intel Mac OS X 10_13_6) AppleWebKit/605.1.15 (KHTML, like Gecko) Version/13.1.2 Safari/605.1.15","Macintosh","Safari","13.1.2","OS X","10_13_6","null","<div style=""font-size:60px;"">+</div>","null",""
"","","","","","html-button-response","91","280785","0.0-4.0-1.43","105","1","2022-11-13 16:10:20","a60ee176136a54a92dc2853177adfa2c","223.72.74.204","Mozilla/5.0 (Macintosh; Intel Mac OS X 10_13_6) AppleWebKit/605.1.15 (KHTML, like Gecko) Version/13.1.2 Safari/605.1.15","Macintosh","Safari","13.1.2","OS X","10_13_6","3236","<p>作为军队的指挥官，你可以选择发射导弹杀死 <strong>9名</strong> 敌国士兵，但会炸毁附近的 <strong>1棵</strong> 敌国树木。</p> <p>树木的照片如下图所示。</p> <p></p> <img src='stimuli/trees/3.png', style='max-width: 30%;'> </img> <p><strong>你是否选择发射武器？</strong></p>","0",""
"","","","","","html-keyboard-response","92","281792","0.0-4.0-0.44","105","1","2022-11-13 16:10:20","a60ee176136a54a92dc2853177adfa2c","223.72.74.204","Mozilla/5.0 (Macintosh; Intel Mac OS X 10_13_6) AppleWebKit/605.1.15 (KHTML, like Gecko) Version/13.1.2 Safari/605.1.15","Macintosh","Safari","13.1.2","OS X","10_13_6","null","<div style=""font-size:60px;"">+</div>","null",""
"","","","","","html-button-response","93","283343","0.0-4.0-1.44","105","1","2022-11-13 16:10:20","a60ee176136a54a92dc2853177adfa2c","223.72.74.204","Mozilla/5.0 (Macintosh; Intel Mac OS X 10_13_6) AppleWebKit/605.1.15 (KHTML, like Gecko) Version/13.1.2 Safari/605.1.15","Macintosh","Safari","13.1.2","OS X","10_13_6","1545","<p>作为军队的指挥官，你可以选择发射导弹杀死 <strong>4名</strong> 敌国士兵，但会误杀附近的 <strong>1名</strong> 敌国平民。</p> <p>平民照片如下图所示。</p> <p></p> <img src='stimuli/faces/PCF1.jpg', style='max-width: 30%;'> </img> <p><strong>你是否选择发射武器？</strong></p>","1",""
"","","","","","html-keyboard-response","94","284350","0.0-4.0-0.45","105","1","2022-11-13 16:10:20","a60ee176136a54a92dc2853177adfa2c","223.72.74.204","Mozilla/5.0 (Macintosh; Intel Mac OS X 10_13_6) AppleWebKit/605.1.15 (KHTML, like Gecko) Version/13.1.2 Safari/605.1.15","Macintosh","Safari","13.1.2","OS X","10_13_6","null","<div style=""font-size:60px;"">+</div>","null",""
"","","","","","html-button-response","95","285939","0.0-4.0-1.45","105","1","2022-11-13 16:10:20","a60ee176136a54a92dc2853177adfa2c","223.72.74.204","Mozilla/5.0 (Macintosh; Intel Mac OS X 10_13_6) AppleWebKit/605.1.15 (KHTML, like Gecko) Version/13.1.2 Safari/605.1.15","Macintosh","Safari","13.1.2","OS X","10_13_6","1584","<p>作为军队的指挥官，你可以选择发射导弹杀死 <strong>8名</strong> 敌国士兵，但会炸毁附近的 <strong>1棵</strong> 敌国树木。</p> <p>树木的照片如下图所示。</p> <p></p> <img src='stimuli/trees/6.png', style='max-width: 30%;'> </img> <p><strong>你是否选择发射武器？</strong></p>","0",""
"","","","","","html-keyboard-response","96","286946","0.0-4.0-0.46","105","1","2022-11-13 16:10:20","a60ee176136a54a92dc2853177adfa2c","223.72.74.204","Mozilla/5.0 (Macintosh; Intel Mac OS X 10_13_6) AppleWebKit/605.1.15 (KHTML, like Gecko) Version/13.1.2 Safari/605.1.15","Macintosh","Safari","13.1.2","OS X","10_13_6","null","<div style=""font-size:60px;"">+</div>","null",""
"","","","","","html-button-response","97","289615","0.0-4.0-1.46","105","1","2022-11-13 16:10:20","a60ee176136a54a92dc2853177adfa2c","223.72.74.204","Mozilla/5.0 (Macintosh; Intel Mac OS X 10_13_6) AppleWebKit/605.1.15 (KHTML, like Gecko) Version/13.1.2 Safari/605.1.15","Macintosh","Safari","13.1.2","OS X","10_13_6","2663","<p>作为军队的指挥官，你可以选择发射导弹杀死 <strong>2名</strong> 敌国士兵，但会炸毁附近的 <strong>1棵</strong> 敌国树木。</p> <p>树木的照片如下图所示。</p> <p></p> <img src='stimuli/trees/14.png', style='max-width: 30%;'> </img> <p><strong>你是否选择发射武器？</strong></p>","0",""
"","","","","","html-keyboard-response","98","290621","0.0-4.0-0.47","105","1","2022-11-13 16:10:20","a60ee176136a54a92dc2853177adfa2c","223.72.74.204","Mozilla/5.0 (Macintosh; Intel Mac OS X 10_13_6) AppleWebKit/605.1.15 (KHTML, like Gecko) Version/13.1.2 Safari/605.1.15","Macintosh","Safari","13.1.2","OS X","10_13_6","null","<div style=""font-size:60px;"">+</div>","null",""
"","","","","","html-button-response","99","293088","0.0-4.0-1.47","105","1","2022-11-13 16:10:20","a60ee176136a54a92dc2853177adfa2c","223.72.74.204","Mozilla/5.0 (Macintosh; Intel Mac OS X 10_13_6) AppleWebKit/605.1.15 (KHTML, like Gecko) Version/13.1.2 Safari/605.1.15","Macintosh","Safari","13.1.2","OS X","10_13_6","2461","<p>作为军队的指挥官，你可以选择发射导弹杀死 <strong>9名</strong> 敌国士兵，但会炸毁附近的 <strong>1棵</strong> 敌国树木。</p> <p>树木的照片如下图所示。</p> <p></p> <img src='stimuli/trees/14.png', style='max-width: 30%;'> </img> <p><strong>你是否选择发射武器？</strong></p>","0",""
"","","","","","html-keyboard-response","100","294095","0.0-4.0-0.48","105","1","2022-11-13 16:10:20","a60ee176136a54a92dc2853177adfa2c","223.72.74.204","Mozilla/5.0 (Macintosh; Intel Mac OS X 10_13_6) AppleWebKit/605.1.15 (KHTML, like Gecko) Version/13.1.2 Safari/605.1.15","Macintosh","Safari","13.1.2","OS X","10_13_6","null","<div style=""font-size:60px;"">+</div>","null",""
"","","","","","html-button-response","101","295209","0.0-4.0-1.48","105","1","2022-11-13 16:10:20","a60ee176136a54a92dc2853177adfa2c","223.72.74.204","Mozilla/5.0 (Macintosh; Intel Mac OS X 10_13_6) AppleWebKit/605.1.15 (KHTML, like Gecko) Version/13.1.2 Safari/605.1.15","Macintosh","Safari","13.1.2","OS X","10_13_6","1109","<p>作为军队的指挥官，你可以选择发射导弹杀死 <strong>2名</strong> 敌国士兵，但会炸毁附近的 <strong>1棵</strong> 敌国树木。</p> <p>树木的照片如下图所示。</p> <p></p> <img src='stimuli/trees/4.png', style='max-width: 30%;'> </img> <p><strong>你是否选择发射武器？</strong></p>","0",""
"","","","","","html-keyboard-response","102","296216","0.0-4.0-0.49","105","1","2022-11-13 16:10:20","a60ee176136a54a92dc2853177adfa2c","223.72.74.204","Mozilla/5.0 (Macintosh; Intel Mac OS X 10_13_6) AppleWebKit/605.1.15 (KHTML, like Gecko) Version/13.1.2 Safari/605.1.15","Macintosh","Safari","13.1.2","OS X","10_13_6","null","<div style=""font-size:60px;"">+</div>","null",""
"","","","","","html-button-response","103","297818","0.0-4.0-1.49","105","1","2022-11-13 16:10:20","a60ee176136a54a92dc2853177adfa2c","223.72.74.204","Mozilla/5.0 (Macintosh; Intel Mac OS X 10_13_6) AppleWebKit/605.1.15 (KHTML, like Gecko) Version/13.1.2 Safari/605.1.15","Macintosh","Safari","13.1.2","OS X","10_13_6","1595","<p>作为军队的指挥官，你可以选择发射导弹杀死 <strong>3名</strong> 敌国士兵，但会炸毁附近的 <strong>1棵</strong> 敌国树木。</p> <p>树木的照片如下图所示。</p> <p></p> <img src='stimuli/trees/7.png', style='max-width: 30%;'> </img> <p><strong>你是否选择发射武器？</strong></p>","0",""
"","","","","","html-keyboard-response","104","298824","0.0-4.0-0.50","105","1","2022-11-13 16:10:20","a60ee176136a54a92dc2853177adfa2c","223.72.74.204","Mozilla/5.0 (Macintosh; Intel Mac OS X 10_13_6) AppleWebKit/605.1.15 (KHTML, like Gecko) Version/13.1.2 Safari/605.1.15","Macintosh","Safari","13.1.2","OS X","10_13_6","null","<div style=""font-size:60px;"">+</div>","null",""
"","","","","","html-button-response","105","299687","0.0-4.0-1.50","105","1","2022-11-13 16:10:20","a60ee176136a54a92dc2853177adfa2c","223.72.74.204","Mozilla/5.0 (Macintosh; Intel Mac OS X 10_13_6) AppleWebKit/605.1.15 (KHTML, like Gecko) Version/13.1.2 Safari/605.1.15","Macintosh","Safari","13.1.2","OS X","10_13_6","856","<p>作为军队的指挥官，你可以选择发射导弹杀死 <strong>2名</strong> 敌国士兵，但会炸毁附近的 <strong>1棵</strong> 敌国树木。</p> <p>树木的照片如下图所示。</p> <p></p> <img src='stimuli/trees/2.png', style='max-width: 30%;'> </img> <p><strong>你是否选择发射武器？</strong></p>","0",""
"","","","","","html-keyboard-response","106","300694","0.0-4.0-0.51","105","1","2022-11-13 16:10:20","a60ee176136a54a92dc2853177adfa2c","223.72.74.204","Mozilla/5.0 (Macintosh; Intel Mac OS X 10_13_6) AppleWebKit/605.1.15 (KHTML, like Gecko) Version/13.1.2 Safari/605.1.15","Macintosh","Safari","13.1.2","OS X","10_13_6","null","<div style=""font-size:60px;"">+</div>","null",""
"","","","","","html-button-response","107","301768","0.0-4.0-1.51","105","1","2022-11-13 16:10:20","a60ee176136a54a92dc2853177adfa2c","223.72.74.204","Mozilla/5.0 (Macintosh; Intel Mac OS X 10_13_6) AppleWebKit/605.1.15 (KHTML, like Gecko) Version/13.1.2 Safari/605.1.15","Macintosh","Safari","13.1.2","OS X","10_13_6","1067","<p>作为军队的指挥官，你可以选择发射导弹杀死 <strong>2名</strong> 敌国士兵，但会炸毁附近的 <strong>1棵</strong> 敌国树木。</p> <p>树木的照片如下图所示。</p> <p></p> <img src='stimuli/trees/3.png', style='max-width: 30%;'> </img> <p><strong>你是否选择发射武器？</strong></p>","0",""
"","","","","","html-keyboard-response","108","302775","0.0-4.0-0.52","105","1","2022-11-13 16:10:20","a60ee176136a54a92dc2853177adfa2c","223.72.74.204","Mozilla/5.0 (Macintosh; Intel Mac OS X 10_13_6) AppleWebKit/605.1.15 (KHTML, like Gecko) Version/13.1.2 Safari/605.1.15","Macintosh","Safari","13.1.2","OS X","10_13_6","null","<div style=""font-size:60px;"">+</div>","null",""
"","","","","","html-button-response","109","304969","0.0-4.0-1.52","105","1","2022-11-13 16:10:20","a60ee176136a54a92dc2853177adfa2c","223.72.74.204","Mozilla/5.0 (Macintosh; Intel Mac OS X 10_13_6) AppleWebKit/605.1.15 (KHTML, like Gecko) Version/13.1.2 Safari/605.1.15","Macintosh","Safari","13.1.2","OS X","10_13_6","2187","<p>作为军队的指挥官，你可以选择发射导弹杀死 <strong>3名</strong> 敌国士兵，但会误杀附近的 <strong>1名</strong> 敌国平民。</p> <p>平民照片如下图所示。</p> <p></p> <img src='stimuli/faces/PCF7.jpg', style='max-width: 30%;'> </img> <p><strong>你是否选择发射武器？</strong></p>","1",""
"","","","","","html-keyboard-response","110","305976","0.0-4.0-0.53","105","1","2022-11-13 16:10:20","a60ee176136a54a92dc2853177adfa2c","223.72.74.204","Mozilla/5.0 (Macintosh; Intel Mac OS X 10_13_6) AppleWebKit/605.1.15 (KHTML, like Gecko) Version/13.1.2 Safari/605.1.15","Macintosh","Safari","13.1.2","OS X","10_13_6","null","<div style=""font-size:60px;"">+</div>","null",""
"","","","","","html-button-response","111","307062","0.0-4.0-1.53","105","1","2022-11-13 16:10:20","a60ee176136a54a92dc2853177adfa2c","223.72.74.204","Mozilla/5.0 (Macintosh; Intel Mac OS X 10_13_6) AppleWebKit/605.1.15 (KHTML, like Gecko) Version/13.1.2 Safari/605.1.15","Macintosh","Safari","13.1.2","OS X","10_13_6","1079","<p>作为军队的指挥官，你可以选择发射导弹杀死 <strong>5名</strong> 敌国士兵，但会误杀附近的 <strong>1名</strong> 敌国平民。</p> <p>平民照片如下图所示。</p> <p></p> <img src='stimuli/faces/PCM4.jpg', style='max-width: 30%;'> </img> <p><strong>你是否选择发射武器？</strong></p>","1",""
"","","","","","html-keyboard-response","112","308074","0.0-4.0-0.54","105","1","2022-11-13 16:10:20","a60ee176136a54a92dc2853177adfa2c","223.72.74.204","Mozilla/5.0 (Macintosh; Intel Mac OS X 10_13_6) AppleWebKit/605.1.15 (KHTML, like Gecko) Version/13.1.2 Safari/605.1.15","Macintosh","Safari","13.1.2","OS X","10_13_6","null","<div style=""font-size:60px;"">+</div>","null",""
"","","","","","html-button-response","113","311198","0.0-4.0-1.54","105","1","2022-11-13 16:10:20","a60ee176136a54a92dc2853177adfa2c","223.72.74.204","Mozilla/5.0 (Macintosh; Intel Mac OS X 10_13_6) AppleWebKit/605.1.15 (KHTML, like Gecko) Version/13.1.2 Safari/605.1.15","Macintosh","Safari","13.1.2","OS X","10_13_6","3118","<p>作为军队的指挥官，你可以选择发射导弹杀死 <strong>6名</strong> 敌国士兵，但会误杀附近的 <strong>1名</strong> 敌国平民。</p> <p>平民照片如下图所示。</p> <p></p> <img src='stimuli/faces/PCM5.jpg', style='max-width: 30%;'> </img> <p><strong>你是否选择发射武器？</strong></p>","1",""
"","","","","","html-keyboard-response","114","312205","0.0-4.0-0.55","105","1","2022-11-13 16:10:20","a60ee176136a54a92dc2853177adfa2c","223.72.74.204","Mozilla/5.0 (Macintosh; Intel Mac OS X 10_13_6) AppleWebKit/605.1.15 (KHTML, like Gecko) Version/13.1.2 Safari/605.1.15","Macintosh","Safari","13.1.2","OS X","10_13_6","null","<div style=""font-size:60px;"">+</div>","null",""
"","","","","","html-button-response","115","313525","0.0-4.0-1.55","105","1","2022-11-13 16:10:20","a60ee176136a54a92dc2853177adfa2c","223.72.74.204","Mozilla/5.0 (Macintosh; Intel Mac OS X 10_13_6) AppleWebKit/605.1.15 (KHTML, like Gecko) Version/13.1.2 Safari/605.1.15","Macintosh","Safari","13.1.2","OS X","10_13_6","1314","<p>作为军队的指挥官，你可以选择发射导弹杀死 <strong>1名</strong> 敌国士兵，但会炸毁附近的 <strong>1棵</strong> 敌国树木。</p> <p>树木的照片如下图所示。</p> <p></p> <img src='stimuli/trees/10.png', style='max-width: 30%;'> </img> <p><strong>你是否选择发射武器？</strong></p>","0",""
"","","","","","html-keyboard-response","116","314532","0.0-4.0-0.56","105","1","2022-11-13 16:10:20","a60ee176136a54a92dc2853177adfa2c","223.72.74.204","Mozilla/5.0 (Macintosh; Intel Mac OS X 10_13_6) AppleWebKit/605.1.15 (KHTML, like Gecko) Version/13.1.2 Safari/605.1.15","Macintosh","Safari","13.1.2","OS X","10_13_6","null","<div style=""font-size:60px;"">+</div>","null",""
"","","","","","html-button-response","117","316099","0.0-4.0-1.56","105","1","2022-11-13 16:10:20","a60ee176136a54a92dc2853177adfa2c","223.72.74.204","Mozilla/5.0 (Macintosh; Intel Mac OS X 10_13_6) AppleWebKit/605.1.15 (KHTML, like Gecko) Version/13.1.2 Safari/605.1.15","Macintosh","Safari","13.1.2","OS X","10_13_6","1559","<p>作为军队的指挥官，你可以选择发射导弹杀死 <strong>5名</strong> 敌国士兵，但会误杀附近的 <strong>1名</strong> 敌国平民。</p> <p>平民照片如下图所示。</p> <p></p> <img src='stimuli/faces/PCF6.jpg', style='max-width: 30%;'> </img> <p><strong>你是否选择发射武器？</strong></p>","1",""
"","","","","","html-keyboard-response","118","317106","0.0-4.0-0.57","105","1","2022-11-13 16:10:20","a60ee176136a54a92dc2853177adfa2c","223.72.74.204","Mozilla/5.0 (Macintosh; Intel Mac OS X 10_13_6) AppleWebKit/605.1.15 (KHTML, like Gecko) Version/13.1.2 Safari/605.1.15","Macintosh","Safari","13.1.2","OS X","10_13_6","null","<div style=""font-size:60px;"">+</div>","null",""
"","","","","","html-button-response","119","318825","0.0-4.0-1.57","105","1","2022-11-13 16:10:20","a60ee176136a54a92dc2853177adfa2c","223.72.74.204","Mozilla/5.0 (Macintosh; Intel Mac OS X 10_13_6) AppleWebKit/605.1.15 (KHTML, like Gecko) Version/13.1.2 Safari/605.1.15","Macintosh","Safari","13.1.2","OS X","10_13_6","1714","<p>作为军队的指挥官，你可以选择发射导弹杀死 <strong>10名</strong> 敌国士兵，但会误杀附近的 <strong>1名</strong> 敌国平民。</p> <p>平民照片如下图所示。</p> <p></p> <img src='stimuli/faces/PCM4.jpg', style='max-width: 30%;'> </img> <p><strong>你是否选择发射武器？</strong></p>","1",""
"","","","","","html-keyboard-response","120","319834","0.0-4.0-0.58","105","1","2022-11-13 16:10:20","a60ee176136a54a92dc2853177adfa2c","223.72.74.204","Mozilla/5.0 (Macintosh; Intel Mac OS X 10_13_6) AppleWebKit/605.1.15 (KHTML, like Gecko) Version/13.1.2 Safari/605.1.15","Macintosh","Safari","13.1.2","OS X","10_13_6","null","<div style=""font-size:60px;"">+</div>","null",""
"","","","","","html-button-response","121","321163","0.0-4.0-1.58","105","1","2022-11-13 16:10:20","a60ee176136a54a92dc2853177adfa2c","223.72.74.204","Mozilla/5.0 (Macintosh; Intel Mac OS X 10_13_6) AppleWebKit/605.1.15 (KHTML, like Gecko) Version/13.1.2 Safari/605.1.15","Macintosh","Safari","13.1.2","OS X","10_13_6","1322","<p>作为军队的指挥官，你可以选择发射导弹杀死 <strong>5名</strong> 敌国士兵，但会炸毁附近的 <strong>1棵</strong> 敌国树木。</p> <p>树木的照片如下图所示。</p> <p></p> <img src='stimuli/trees/8.png', style='max-width: 30%;'> </img> <p><strong>你是否选择发射武器？</strong></p>","0",""
"","","","","","html-keyboard-response","122","322170","0.0-4.0-0.59","105","1","2022-11-13 16:10:20","a60ee176136a54a92dc2853177adfa2c","223.72.74.204","Mozilla/5.0 (Macintosh; Intel Mac OS X 10_13_6) AppleWebKit/605.1.15 (KHTML, like Gecko) Version/13.1.2 Safari/605.1.15","Macintosh","Safari","13.1.2","OS X","10_13_6","null","<div style=""font-size:60px;"">+</div>","null",""
"","","","","","html-button-response","123","323472","0.0-4.0-1.59","105","1","2022-11-13 16:10:20","a60ee176136a54a92dc2853177adfa2c","223.72.74.204","Mozilla/5.0 (Macintosh; Intel Mac OS X 10_13_6) AppleWebKit/605.1.15 (KHTML, like Gecko) Version/13.1.2 Safari/605.1.15","Macintosh","Safari","13.1.2","OS X","10_13_6","1295","<p>作为军队的指挥官，你可以选择发射导弹杀死 <strong>10名</strong> 敌国士兵，但会炸毁附近的 <strong>1棵</strong> 敌国树木。</p> <p>树木的照片如下图所示。</p> <p></p> <img src='stimuli/trees/16.png', style='max-width: 30%;'> </img> <p><strong>你是否选择发射武器？</strong></p>","0",""
"","","","","","html-keyboard-response","124","324482","0.0-4.0-0.60","105","1","2022-11-13 16:10:20","a60ee176136a54a92dc2853177adfa2c","223.72.74.204","Mozilla/5.0 (Macintosh; Intel Mac OS X 10_13_6) AppleWebKit/605.1.15 (KHTML, like Gecko) Version/13.1.2 Safari/605.1.15","Macintosh","Safari","13.1.2","OS X","10_13_6","null","<div style=""font-size:60px;"">+</div>","null",""
"","","","","","html-button-response","125","328459","0.0-4.0-1.60","105","1","2022-11-13 16:10:20","a60ee176136a54a92dc2853177adfa2c","223.72.74.204","Mozilla/5.0 (Macintosh; Intel Mac OS X 10_13_6) AppleWebKit/605.1.15 (KHTML, like Gecko) Version/13.1.2 Safari/605.1.15","Macintosh","Safari","13.1.2","OS X","10_13_6","3971","<p>作为军队的指挥官，你可以选择发射导弹杀死 <strong>2名</strong> 敌国士兵，但会误杀附近的 <strong>1名</strong> 敌国平民。</p> <p>平民照片如下图所示。</p> <p></p> <img src='stimuli/faces/PCF3.jpg', style='max-width: 30%;'> </img> <p><strong>你是否选择发射武器？</strong></p>","1",""
"","","","","","html-keyboard-response","126","329467","0.0-4.0-0.61","105","1","2022-11-13 16:10:20","a60ee176136a54a92dc2853177adfa2c","223.72.74.204","Mozilla/5.0 (Macintosh; Intel Mac OS X 10_13_6) AppleWebKit/605.1.15 (KHTML, like Gecko) Version/13.1.2 Safari/605.1.15","Macintosh","Safari","13.1.2","OS X","10_13_6","null","<div style=""font-size:60px;"">+</div>","null",""
"","","","","","html-button-response","127","331506","0.0-4.0-1.61","105","1","2022-11-13 16:10:20","a60ee176136a54a92dc2853177adfa2c","223.72.74.204","Mozilla/5.0 (Macintosh; Intel Mac OS X 10_13_6) AppleWebKit/605.1.15 (KHTML, like Gecko) Version/13.1.2 Safari/605.1.15","Macintosh","Safari","13.1.2","OS X","10_13_6","2030","<p>作为军队的指挥官，你可以选择发射导弹杀死 <strong>6名</strong> 敌国士兵，但会炸毁附近的 <strong>1棵</strong> 敌国树木。</p> <p>树木的照片如下图所示。</p> <p></p> <img src='stimuli/trees/1.png', style='max-width: 30%;'> </img> <p><strong>你是否选择发射武器？</strong></p>","0",""
"","","","","","html-keyboard-response","128","332514","0.0-4.0-0.62","105","1","2022-11-13 16:10:20","a60ee176136a54a92dc2853177adfa2c","223.72.74.204","Mozilla/5.0 (Macintosh; Intel Mac OS X 10_13_6) AppleWebKit/605.1.15 (KHTML, like Gecko) Version/13.1.2 Safari/605.1.15","Macintosh","Safari","13.1.2","OS X","10_13_6","null","<div style=""font-size:60px;"">+</div>","null",""
"","","","","","html-button-response","129","338934","0.0-4.0-1.62","105","1","2022-11-13 16:10:20","a60ee176136a54a92dc2853177adfa2c","223.72.74.204","Mozilla/5.0 (Macintosh; Intel Mac OS X 10_13_6) AppleWebKit/605.1.15 (KHTML, like Gecko) Version/13.1.2 Safari/605.1.15","Macintosh","Safari","13.1.2","OS X","10_13_6","6415","<p>作为军队的指挥官，你可以选择发射导弹杀死 <strong>9名</strong> 敌国士兵，但会炸毁附近的 <strong>1棵</strong> 敌国树木。</p> <p>树木的照片如下图所示。</p> <p></p> <img src='stimuli/trees/12.png', style='max-width: 30%;'> </img> <p><strong>你是否选择发射武器？</strong></p>","0",""
"","","","","","html-keyboard-response","130","339941","0.0-4.0-0.63","105","1","2022-11-13 16:10:20","a60ee176136a54a92dc2853177adfa2c","223.72.74.204","Mozilla/5.0 (Macintosh; Intel Mac OS X 10_13_6) AppleWebKit/605.1.15 (KHTML, like Gecko) Version/13.1.2 Safari/605.1.15","Macintosh","Safari","13.1.2","OS X","10_13_6","null","<div style=""font-size:60px;"">+</div>","null",""
"","","","","","html-button-response","131","342767","0.0-4.0-1.63","105","1","2022-11-13 16:10:20","a60ee176136a54a92dc2853177adfa2c","223.72.74.204","Mozilla/5.0 (Macintosh; Intel Mac OS X 10_13_6) AppleWebKit/605.1.15 (KHTML, like Gecko) Version/13.1.2 Safari/605.1.15","Macintosh","Safari","13.1.2","OS X","10_13_6","2820","<p>作为军队的指挥官，你可以选择发射导弹杀死 <strong>4名</strong> 敌国士兵，但会误杀附近的 <strong>1名</strong> 敌国平民。</p> <p>平民照片如下图所示。</p> <p></p> <img src='stimuli/faces/PCM8.jpg', style='max-width: 30%;'> </img> <p><strong>你是否选择发射武器？</strong></p>","1",""
"","","","","","survey-multi-choice","132","404372","0.0-5.0","105","1","2022-11-13 16:10:20","a60ee176136a54a92dc2853177adfa2c","223.72.74.204","Mozilla/5.0 (Macintosh; Intel Mac OS X 10_13_6) AppleWebKit/605.1.15 (KHTML, like Gecko) Version/13.1.2 Safari/605.1.15","Macintosh","Safari","13.1.2","OS X","10_13_6","61590","","{""Attention1"":""""}","[0]"
"","","","","","html-button-response","133","407343","0.0-6.0","105","1","2022-11-13 16:10:20","a60ee176136a54a92dc2853177adfa2c","223.72.74.204","Mozilla/5.0 (Macintosh; Intel Mac OS X 10_13_6) AppleWebKit/605.1.15 (KHTML, like Gecko) Version/13.1.2 Safari/605.1.15","Macintosh","Safari","13.1.2","OS X","10_13_6","2962","<p style=""font-size:20px;font-weight:bold;"">恭喜！</p><p>你已经完成了实验的第一部分。</p><p>请休息放松一下，然后进入第二部分。</p><p>这部分大约需要10分钟。</p>","0",""
"","","","","","survey-text","134","449373","0.0-7.0","105","1","2022-11-13 16:10:20","a60ee176136a54a92dc2853177adfa2c","223.72.74.204","Mozilla/5.0 (Macintosh; Intel Mac OS X 10_13_6) AppleWebKit/605.1.15 (KHTML, like Gecko) Version/13.1.2 Safari/605.1.15","Macintosh","Safari","13.1.2","OS X","10_13_6","40996","","{""Age"":""23"",""Nation"":""中国"",""Born"":""河南省郑州市"",""Live"":""北京市"",""Ethnic"":""汉族"",""Alipay"":""15038325815""}",""
"","","","","","survey-multi-choice","135","474325","0.0-8.0","105","1","2022-11-13 16:10:20","a60ee176136a54a92dc2853177adfa2c","223.72.74.204","Mozilla/5.0 (Macintosh; Intel Mac OS X 10_13_6) AppleWebKit/605.1.15 (KHTML, like Gecko) Version/13.1.2 Safari/605.1.15","Macintosh","Safari","13.1.2","OS X","10_13_6","32573","","{""Gender"":""女"",""Education"":""本科毕业"",""Income"":""￥35,000-￥69,999"",""Children"":""0"",""Race"":""亚洲人""}","[0,1,2,3,4]"
"","","","","","survey-multi-select","136","515336","0.0-9.0","105","1","2022-11-13 16:10:20","a60ee176136a54a92dc2853177adfa2c","223.72.74.204","Mozilla/5.0 (Macintosh; Intel Mac OS X 10_13_6) AppleWebKit/605.1.15 (KHTML, like Gecko) Version/13.1.2 Safari/605.1.15","Macintosh","Safari","13.1.2","OS X","10_13_6","40996","","{""Marriage"":[""未婚""],""Religion"":[""无宗教信仰""]}","[0,1]"
"","","","","","survey-multi-choice","137","533917","0.0-10.0","105","1","2022-11-13 16:10:20","a60ee176136a54a92dc2853177adfa2c","223.72.74.204","Mozilla/5.0 (Macintosh; Intel Mac OS X 10_13_6) AppleWebKit/605.1.15 (KHTML, like Gecko) Version/13.1.2 Safari/605.1.15","Macintosh","Safari","13.1.2","OS X","10_13_6","18576","","{""SES"":""3""}","[0]"
"","","","","","html-button-response","138","549512","0.0-11.0","105","1","2022-11-13 16:10:20","a60ee176136a54a92dc2853177adfa2c","223.72.74.204","Mozilla/5.0 (Macintosh; Intel Mac OS X 10_13_6) AppleWebKit/605.1.15 (KHTML, like Gecko) Version/13.1.2 Safari/605.1.15","Macintosh","Safari","13.1.2","OS X","10_13_6","15588","<p><strong>请判断下列陈述在多大程度上可以形容你？</p><p> (1 = ""和我一点都不像"" to 5 = ""非常像我"".)</strong></p>","0",""
"","","","","","survey-likert","139","599445","0.0-12.0","105","1","2022-11-13 16:10:20","a60ee176136a54a92dc2853177adfa2c","223.72.74.204","Mozilla/5.0 (Macintosh; Intel Mac OS X 10_13_6) AppleWebKit/605.1.15 (KHTML, like Gecko) Version/13.1.2 Safari/605.1.15","Macintosh","Safari","13.1.2","OS X","10_13_6","49925","","{""Aggression1"":1,""Aggression2"":1,""Aggression3"":1,""Aggression4"":0,""Aggression5"":1,""Aggression6"":2,""Aggression7"":2,""Aggression8"":0,""Aggression9"":0}","[0,1,2,3,4,5,6,7,8]"
"","","","","","html-button-response","140","601511","0.0-13.0","105","1","2022-11-13 16:10:20","a60ee176136a54a92dc2853177adfa2c","223.72.74.204","Mozilla/5.0 (Macintosh; Intel Mac OS X 10_13_6) AppleWebKit/605.1.15 (KHTML, like Gecko) Version/13.1.2 Safari/605.1.15","Macintosh","Safari","13.1.2","OS X","10_13_6","2060","<p><strong>请判断你在多大程度上同意下列陈述。</strong></p>","0",""
"","","","","","survey-likert","141","999283","0.0-14.0","105","1","2022-11-13 16:10:20","a60ee176136a54a92dc2853177adfa2c","223.72.74.204","Mozilla/5.0 (Macintosh; Intel Mac OS X 10_13_6) AppleWebKit/605.1.15 (KHTML, like Gecko) Version/13.1.2 Safari/605.1.15","Macintosh","Safari","13.1.2","OS X","10_13_6","397778","","{""scale20"":3,""scale2"":3,""scale4"":2,""scale28"":2,""scale26"":3,""scale22"":3,""scale17"":3,""scale6"":4,""scale18"":1,""scale5"":3,""scale13"":1,""scale8"":1,""scale3"":2,""scale15"":2,""scale14"":1,""scale12"":1,""scale7"":1,""scale27"":1,""scale24"":2,""scale19"":1,""scale10"":3,""scale16"":2,""scale21"":2,""scale25"":2,""scale9"":2,""scale23"":2,""scale1"":3,""scale11"":2}","[19,1,3,27,25,21,16,5,17,4,12,7,2,14,13,11,6,26,23,18,9,15,20,24,8,22,0,10]"
"","","","","","html-button-response","142","1000976","0.0-15.0","105","1","2022-11-13 16:10:20","a60ee176136a54a92dc2853177adfa2c","223.72.74.204","Mozilla/5.0 (Macintosh; Intel Mac OS X 10_13_6) AppleWebKit/605.1.15 (KHTML, like Gecko) Version/13.1.2 Safari/605.1.15","Macintosh","Safari","13.1.2","OS X","10_13_6","1688","<p><strong>请判断你在多大程度上同意下列陈述。</strong></p>","0",""
"","","","","","survey-likert","143","1082320","0.0-16.0","105","1","2022-11-13 16:10:20","a60ee176136a54a92dc2853177adfa2c","223.72.74.204","Mozilla/5.0 (Macintosh; Intel Mac OS X 10_13_6) AppleWebKit/605.1.15 (KHTML, like Gecko) Version/13.1.2 Safari/605.1.15","Macintosh","Safari","13.1.2","OS X","10_13_6","81335","","{""sdo16"":4,""sdo13"":5,""sdo14"":4,""sdo5"":2,""sdo2"":3,""sdo15"":4,""sdo1"":1,""sdo10"":4,""sdo4"":3,""sdo8"":2,""sdo3"":3,""sdo12"":3,""sdo6"":2,""sdo9"":3,""sdo7"":3,""sdo11"":4}","[15,12,13,4,1,14,0,9,3,7,2,11,5,8,6,10]"
"","","","","","html-button-response","144","1084232","0.0-17.0","105","1","2022-11-13 16:10:20","a60ee176136a54a92dc2853177adfa2c","223.72.74.204","Mozilla/5.0 (Macintosh; Intel Mac OS X 10_13_6) AppleWebKit/605.1.15 (KHTML, like Gecko) Version/13.1.2 Safari/605.1.15","Macintosh","Safari","13.1.2","OS X","10_13_6","1902","<p><strong>请判断你在多大程度上同意下列陈述。</strong></p>","0",""
"","","","","","survey-likert","145","1232040","0.0-18.0","105","1","2022-11-13 16:10:20","a60ee176136a54a92dc2853177adfa2c","223.72.74.204","Mozilla/5.0 (Macintosh; Intel Mac OS X 10_13_6) AppleWebKit/605.1.15 (KHTML, like Gecko) Version/13.1.2 Safari/605.1.15","Macintosh","Safari","13.1.2","OS X","10_13_6","147800","","{""caring1"":3,""liking1"":1,""caring2"":3,""protection1"":3,""liking2"":2,""caring3"":3,""protection2"":2,""liking3"":2,""protection3"":3,""caring4"":3,""liking4"":2,""protection4"":2,""caring5"":3,""liking5"":4,""protection5"":3}","[0,1,2,3,4,5,6,7,8,9,10,11,12,13,14]"
"","","","","","html-button-response","146","1233728","0.0-19.0","105","1","2022-11-13 16:10:20","a60ee176136a54a92dc2853177adfa2c","223.72.74.204","Mozilla/5.0 (Macintosh; Intel Mac OS X 10_13_6) AppleWebKit/605.1.15 (KHTML, like Gecko) Version/13.1.2 Safari/605.1.15","Macintosh","Safari","13.1.2","OS X","10_13_6","1681","<p><strong>请判断下列场景中你的内心感受有多柔软。</strong></p>","0",""
"","","","","","survey-likert","147","1271485","0.0-20.0","105","1","2022-11-13 16:10:20","a60ee176136a54a92dc2853177adfa2c","223.72.74.204","Mozilla/5.0 (Macintosh; Intel Mac OS X 10_13_6) AppleWebKit/605.1.15 (KHTML, like Gecko) Version/13.1.2 Safari/605.1.15","Macintosh","Safari","13.1.2","OS X","10_13_6","37748","","{""tenderness-positive1"":3,""tenderness-negative1"":2,""tenderness-negative2"":1,""tenderness-positive2"":3,""tenderness-positive3"":3,""tenderness-negative3"":1,""tenderness-positive4"":3,""tenderness-negative4"":2,""tenderness-negative5"":2,""tenderness-positive5"":3}","[0,1,2,3,4,5,6,7,8,9]"
"","","","","","survey-multi-choice","148","1306589","0.0-21.0","105","1","2022-11-13 16:10:20","a60ee176136a54a92dc2853177adfa2c","223.72.74.204","Mozilla/5.0 (Macintosh; Intel Mac OS X 10_13_6) AppleWebKit/605.1.15 (KHTML, like Gecko) Version/13.1.2 Safari/605.1.15","Macintosh","Safari","13.1.2","OS X","10_13_6","35098","","{""Attention2"":""其他""}","[0]"
"","","","","","html-button-response","149","1308877","0.0-22.0","105","1","2022-11-13 16:10:20","a60ee176136a54a92dc2853177adfa2c","223.72.74.204","Mozilla/5.0 (Macintosh; Intel Mac OS X 10_13_6) AppleWebKit/605.1.15 (KHTML, like Gecko) Version/13.1.2 Safari/605.1.15","Macintosh","Safari","13.1.2","OS X","10_13_6","2278","<p><strong>请判断你在多大程度上同意下列陈述。</strong></p>","0",""
"","","","","","survey-likert","150","1410677","0.0-23.0","105","1","2022-11-13 16:10:20","a60ee176136a54a92dc2853177adfa2c","223.72.74.204","Mozilla/5.0 (Macintosh; Intel Mac OS X 10_13_6) AppleWebKit/605.1.15 (KHTML, like Gecko) Version/13.1.2 Safari/605.1.15","Macintosh","Safari","13.1.2","OS X","10_13_6","101735","","{""Patri1"":4,""Patri10"":1,""Nation3"":2,""Nation5"":2,""Nation7"":3,""Patri9"":2,""Patri8"":3,""Nation1"":1,""Patri3"":3,""Patri2"":3,""Patri5"":3,""Patri7"":3,""Nation4"":2,""Patri11"":1,""Nation6"":2,""Patri6"":2,""Patri4"":4,""Nation8"":2,""Nation2"":3,""Patri12"":1}","[0,9,14,16,18,8,7,12,2,1,4,6,15,10,17,5,3,19,13,11]"
"","","","","","html-button-response","151","1412564","0.0-24.0","105","1","2022-11-13 16:10:20","a60ee176136a54a92dc2853177adfa2c","223.72.74.204","Mozilla/5.0 (Macintosh; Intel Mac OS X 10_13_6) AppleWebKit/605.1.15 (KHTML, like Gecko) Version/13.1.2 Safari/605.1.15","Macintosh","Safari","13.1.2","OS X","10_13_6","1883","<p><strong>请判断你在多大程度上同意下列陈述。</strong></p>","0",""
"","","","","","survey-likert","152","1471808","0.0-25.0","105","1","2022-11-13 16:10:20","a60ee176136a54a92dc2853177adfa2c","223.72.74.204","Mozilla/5.0 (Macintosh; Intel Mac OS X 10_13_6) AppleWebKit/605.1.15 (KHTML, like Gecko) Version/13.1.2 Safari/605.1.15","Macintosh","Safari","13.1.2","OS X","10_13_6","59231","","{""vc2"":5,""vi3"":5,""vi1"":5,""hc1"":5,""hi1"":2,""hc3"":5,""hi2"":3,""hc4"":5,""hi4"":4,""vc3"":5,""vi2"":3,""hi3"":3,""hc2"":5,""vc4"":5,""vi4"":4,""vc1"":5,""Robot"":6}","[14,6,4,9,0,11,1,12,3,15,5,2,10,16,8,13,7]"
"","","","","","survey-text","153","1542197","0.0-26.0","105","1","2022-11-13 16:10:20","a60ee176136a54a92dc2853177adfa2c","223.72.74.204","Mozilla/5.0 (Macintosh; Intel Mac OS X 10_13_6) AppleWebKit/605.1.15 (KHTML, like Gecko) Version/13.1.2 Safari/605.1.15","Macintosh","Safari","13.1.2","OS X","10_13_6","70383","","{""Comments"":""问卷中有错别字""}",""
"","","","","","html-button-response","154","1543798","0.0-27.0","105","1","2022-11-13 16:10:20","a60ee176136a54a92dc2853177adfa2c","223.72.74.204","Mozilla/5.0 (Macintosh; Intel Mac OS X 10_13_6) AppleWebKit/605.1.15 (KHTML, like Gecko) Version/13.1.2 Safari/605.1.15","Macintosh","Safari","13.1.2","OS X","10_13_6","1596","<strong><p>恭喜你完成了实验！</p><p>感谢您的参与。</p></strong>","0",""
