"success","timeout","failed_images","failed_audio","failed_video","trial_type","trial_index","time_elapsed","internal_node_id","run_id","condition","recorded_at","source_code_version","ip","user_agent","device","browser","browser_version","platform","platform_version","rt","stimulus","response","question_order"
"true","false","[]","[]","[]","preload","0","5444","0.0-0.0","107","1","2022-11-13 16:14:17","a60ee176136a54a92dc2853177adfa2c","175.8.201.165","Mozilla/5.0 (Windows NT 10.0; WOW64) AppleWebKit/537.36 (KHTML, like Gecko) Chrome/80.0.3987.87 Safari/537.36 SE 2.X MetaSr 1.0","WebKit","Chrome","80.0.3987.87","Windows","10.0","","","",""
"true","","","","","fullscreen","1","8584","0.0-1.0","107","1","2022-11-13 16:14:17","a60ee176136a54a92dc2853177adfa2c","175.8.201.165","Mozilla/5.0 (Windows NT 10.0; WOW64) AppleWebKit/537.36 (KHTML, like Gecko) Chrome/80.0.3987.87 Safari/537.36 SE 2.X MetaSr 1.0","WebKit","Chrome","80.0.3987.87","Windows","10.0","","","",""
"","","","","","html-button-response","2","27513","0.0-2.0","107","1","2022-11-13 16:14:17","a60ee176136a54a92dc2853177adfa2c","175.8.201.165","Mozilla/5.0 (Windows NT 10.0; WOW64) AppleWebKit/537.36 (KHTML, like Gecko) Chrome/80.0.3987.87 Safari/537.36 SE 2.X MetaSr 1.0","WebKit","Chrome","80.0.3987.87","Windows","10.0","18928","<p style=""font-size:20px;font-weight:bold;"">实验知情同意书</p><p style=""text-align:left;""><strong>实验名称：</strong>社会冲突研究</p><p style=""text-align:left;""><strong>主要研究者：</strong>韩晓春副教授（北京师范大学心理学部）</p><p style=""text-align:left;""><strong>联系方式：</strong>发送邮件至xiaochun.han@bnu.edu.cn</p><p style=""text-align:left;""><strong>研究目的：</strong>研究旨在了解人类面对群体冲突时的决策方式，以及相关的心理学特质。实验调查大约需要20分钟。</p><p style=""text-align:left;""><strong>实验流程：</strong>实验包含两部分。第一部分呈现一系列群体冲突场景，请你决定如何对这些冲突进行反应，大约需要10分钟完成。第二部分包含一系列人口统计学信息收集和心理学问卷，大约需要10分钟完成。</p><p style=""text-align:left;""><strong>参加及退出规则：</strong>参加本实验完全取决于您的个人意愿。在参与过程中，您可以随时退出，并且不用承担任何后果。</p><p style=""text-align:left;""><strong>隐私：</strong>本实验完全匿名进行，不会收集您的姓名或其他能够识别您身份的信息。实验中收集的作答仅用作科学研究使用，可能会在学术期刊/书籍上发表，或者用于教学，您的数据未来可能会和其他研究者或实验室分享，但您的个人身份不会被识别。</p><p style=""text-align:left;""><strong>实验报酬：</strong>实验完成后，您将获得15元人民币报酬，以感谢您的时间和努力。调查问卷中包含几道题目用以测验您作答时的认真度。只有完成全部实验，并且正确回答认真度测验的被试才能获得实验报酬。实验报酬将通过支付宝转账发放。</p><p style=""text-align:left;font-size:20px;""><strong>如果您同意以上实验知情同意书的内容，请点击'同意并且开始实验'按钮；否则请关闭浏览器界面，退出实验。</strong></p>","0",""
"","","","","","html-button-response","3","54138","0.0-3.0","107","1","2022-11-13 16:14:17","a60ee176136a54a92dc2853177adfa2c","175.8.201.165","Mozilla/5.0 (Windows NT 10.0; WOW64) AppleWebKit/537.36 (KHTML, like Gecko) Chrome/80.0.3987.87 Safari/537.36 SE 2.X MetaSr 1.0","WebKit","Chrome","80.0.3987.87","Windows","10.0","26622","<p ><strong>实验任务一：</strong></p><p>请想象你的国家与另一个国家发生了军事冲突。</p><p>你是国家军队的指挥官，你将如何在冲突中进行决策。</p><p>具体来说，作为军队指挥官，请你决定是否发射导弹进行打击。</p><p>接下来，你会面对一系列场景，请仔细阅读每个场景，然后进行决策。</p><p>这部分实验任务大约需要10分钟。</p><p><strong>实验过程中，请集中注意力。</strong></p>","0",""
"","","","","","html-keyboard-response","4","55139","0.0-4.0-0.0","107","1","2022-11-13 16:14:17","a60ee176136a54a92dc2853177adfa2c","175.8.201.165","Mozilla/5.0 (Windows NT 10.0; WOW64) AppleWebKit/537.36 (KHTML, like Gecko) Chrome/80.0.3987.87 Safari/537.36 SE 2.X MetaSr 1.0","WebKit","Chrome","80.0.3987.87","Windows","10.0","null","<div style=""font-size:60px;"">+</div>","null",""
"","","","","","html-button-response","5","69418","0.0-4.0-1.0","107","1","2022-11-13 16:14:17","a60ee176136a54a92dc2853177adfa2c","175.8.201.165","Mozilla/5.0 (Windows NT 10.0; WOW64) AppleWebKit/537.36 (KHTML, like Gecko) Chrome/80.0.3987.87 Safari/537.36 SE 2.X MetaSr 1.0","WebKit","Chrome","80.0.3987.87","Windows","10.0","14277","<p>作为军队的指挥官，你可以选择发射导弹杀死 <strong>8名</strong> 敌国士兵，但会炸毁附近的 <strong>1棵</strong> 敌国树木。</p> <p>树木的照片如下图所示。</p> <p></p> <img src='stimuli/trees/13.png', style='max-width: 30%;'> </img> <p><strong>你是否选择发射武器？</strong></p>","0",""
"","","","","","html-keyboard-response","6","70420","0.0-4.0-0.1","107","1","2022-11-13 16:14:17","a60ee176136a54a92dc2853177adfa2c","175.8.201.165","Mozilla/5.0 (Windows NT 10.0; WOW64) AppleWebKit/537.36 (KHTML, like Gecko) Chrome/80.0.3987.87 Safari/537.36 SE 2.X MetaSr 1.0","WebKit","Chrome","80.0.3987.87","Windows","10.0","null","<div style=""font-size:60px;"">+</div>","null",""
"","","","","","html-button-response","7","77690","0.0-4.0-1.1","107","1","2022-11-13 16:14:17","a60ee176136a54a92dc2853177adfa2c","175.8.201.165","Mozilla/5.0 (Windows NT 10.0; WOW64) AppleWebKit/537.36 (KHTML, like Gecko) Chrome/80.0.3987.87 Safari/537.36 SE 2.X MetaSr 1.0","WebKit","Chrome","80.0.3987.87","Windows","10.0","7269","<p>作为军队的指挥官，你可以选择发射导弹杀死 <strong>9名</strong> 敌国士兵，但会误杀附近的 <strong>1名</strong> 敌国平民。</p> <p>平民照片如下图所示。</p> <p></p> <img src='stimuli/faces/PCM3.jpg', style='max-width: 30%;'> </img> <p><strong>你是否选择发射武器？</strong></p>","0",""
"","","","","","html-keyboard-response","8","78692","0.0-4.0-0.2","107","1","2022-11-13 16:14:17","a60ee176136a54a92dc2853177adfa2c","175.8.201.165","Mozilla/5.0 (Windows NT 10.0; WOW64) AppleWebKit/537.36 (KHTML, like Gecko) Chrome/80.0.3987.87 Safari/537.36 SE 2.X MetaSr 1.0","WebKit","Chrome","80.0.3987.87","Windows","10.0","null","<div style=""font-size:60px;"">+</div>","null",""
"","","","","","html-button-response","9","84530","0.0-4.0-1.2","107","1","2022-11-13 16:14:17","a60ee176136a54a92dc2853177adfa2c","175.8.201.165","Mozilla/5.0 (Windows NT 10.0; WOW64) AppleWebKit/537.36 (KHTML, like Gecko) Chrome/80.0.3987.87 Safari/537.36 SE 2.X MetaSr 1.0","WebKit","Chrome","80.0.3987.87","Windows","10.0","5836","<p>作为军队的指挥官，你可以选择发射导弹杀死 <strong>10名</strong> 敌国士兵，但会炸毁附近的 <strong>1棵</strong> 敌国树木。</p> <p>树木的照片如下图所示。</p> <p></p> <img src='stimuli/trees/5.png', style='max-width: 30%;'> </img> <p><strong>你是否选择发射武器？</strong></p>","0",""
"","","","","","html-keyboard-response","10","85531","0.0-4.0-0.3","107","1","2022-11-13 16:14:17","a60ee176136a54a92dc2853177adfa2c","175.8.201.165","Mozilla/5.0 (Windows NT 10.0; WOW64) AppleWebKit/537.36 (KHTML, like Gecko) Chrome/80.0.3987.87 Safari/537.36 SE 2.X MetaSr 1.0","WebKit","Chrome","80.0.3987.87","Windows","10.0","null","<div style=""font-size:60px;"">+</div>","null",""
"","","","","","html-button-response","11","89154","0.0-4.0-1.3","107","1","2022-11-13 16:14:17","a60ee176136a54a92dc2853177adfa2c","175.8.201.165","Mozilla/5.0 (Windows NT 10.0; WOW64) AppleWebKit/537.36 (KHTML, like Gecko) Chrome/80.0.3987.87 Safari/537.36 SE 2.X MetaSr 1.0","WebKit","Chrome","80.0.3987.87","Windows","10.0","3622","<p>作为军队的指挥官，你可以选择发射导弹杀死 <strong>9名</strong> 敌国士兵，但会炸毁附近的 <strong>1棵</strong> 敌国树木。</p> <p>树木的照片如下图所示。</p> <p></p> <img src='stimuli/trees/16.png', style='max-width: 30%;'> </img> <p><strong>你是否选择发射武器？</strong></p>","0",""
"","","","","","html-keyboard-response","12","90155","0.0-4.0-0.4","107","1","2022-11-13 16:14:17","a60ee176136a54a92dc2853177adfa2c","175.8.201.165","Mozilla/5.0 (Windows NT 10.0; WOW64) AppleWebKit/537.36 (KHTML, like Gecko) Chrome/80.0.3987.87 Safari/537.36 SE 2.X MetaSr 1.0","WebKit","Chrome","80.0.3987.87","Windows","10.0","null","<div style=""font-size:60px;"">+</div>","null",""
"","","","","","html-button-response","13","96818","0.0-4.0-1.4","107","1","2022-11-13 16:14:17","a60ee176136a54a92dc2853177adfa2c","175.8.201.165","Mozilla/5.0 (Windows NT 10.0; WOW64) AppleWebKit/537.36 (KHTML, like Gecko) Chrome/80.0.3987.87 Safari/537.36 SE 2.X MetaSr 1.0","WebKit","Chrome","80.0.3987.87","Windows","10.0","6661","<p>作为军队的指挥官，你可以选择发射导弹杀死 <strong>6名</strong> 敌国士兵，但会炸毁附近的 <strong>1棵</strong> 敌国树木。</p> <p>树木的照片如下图所示。</p> <p></p> <img src='stimuli/trees/9.png', style='max-width: 30%;'> </img> <p><strong>你是否选择发射武器？</strong></p>","0",""
"","","","","","html-keyboard-response","14","97820","0.0-4.0-0.5","107","1","2022-11-13 16:14:17","a60ee176136a54a92dc2853177adfa2c","175.8.201.165","Mozilla/5.0 (Windows NT 10.0; WOW64) AppleWebKit/537.36 (KHTML, like Gecko) Chrome/80.0.3987.87 Safari/537.36 SE 2.X MetaSr 1.0","WebKit","Chrome","80.0.3987.87","Windows","10.0","null","<div style=""font-size:60px;"">+</div>","null",""
"","","","","","html-button-response","15","101890","0.0-4.0-1.5","107","1","2022-11-13 16:14:17","a60ee176136a54a92dc2853177adfa2c","175.8.201.165","Mozilla/5.0 (Windows NT 10.0; WOW64) AppleWebKit/537.36 (KHTML, like Gecko) Chrome/80.0.3987.87 Safari/537.36 SE 2.X MetaSr 1.0","WebKit","Chrome","80.0.3987.87","Windows","10.0","4068","<p>作为军队的指挥官，你可以选择发射导弹杀死 <strong>10名</strong> 敌国士兵，但会炸毁附近的 <strong>1棵</strong> 敌国树木。</p> <p>树木的照片如下图所示。</p> <p></p> <img src='stimuli/trees/14.png', style='max-width: 30%;'> </img> <p><strong>你是否选择发射武器？</strong></p>","0",""
"","","","","","html-keyboard-response","16","102891","0.0-4.0-0.6","107","1","2022-11-13 16:14:17","a60ee176136a54a92dc2853177adfa2c","175.8.201.165","Mozilla/5.0 (Windows NT 10.0; WOW64) AppleWebKit/537.36 (KHTML, like Gecko) Chrome/80.0.3987.87 Safari/537.36 SE 2.X MetaSr 1.0","WebKit","Chrome","80.0.3987.87","Windows","10.0","null","<div style=""font-size:60px;"">+</div>","null",""
"","","","","","html-button-response","17","107426","0.0-4.0-1.6","107","1","2022-11-13 16:14:17","a60ee176136a54a92dc2853177adfa2c","175.8.201.165","Mozilla/5.0 (Windows NT 10.0; WOW64) AppleWebKit/537.36 (KHTML, like Gecko) Chrome/80.0.3987.87 Safari/537.36 SE 2.X MetaSr 1.0","WebKit","Chrome","80.0.3987.87","Windows","10.0","4534","<p>作为军队的指挥官，你可以选择发射导弹杀死 <strong>5名</strong> 敌国士兵，但会炸毁附近的 <strong>1棵</strong> 敌国树木。</p> <p>树木的照片如下图所示。</p> <p></p> <img src='stimuli/trees/7.png', style='max-width: 30%;'> </img> <p><strong>你是否选择发射武器？</strong></p>","0",""
"","","","","","html-keyboard-response","18","108427","0.0-4.0-0.7","107","1","2022-11-13 16:14:17","a60ee176136a54a92dc2853177adfa2c","175.8.201.165","Mozilla/5.0 (Windows NT 10.0; WOW64) AppleWebKit/537.36 (KHTML, like Gecko) Chrome/80.0.3987.87 Safari/537.36 SE 2.X MetaSr 1.0","WebKit","Chrome","80.0.3987.87","Windows","10.0","null","<div style=""font-size:60px;"">+</div>","null",""
"","","","","","html-button-response","19","133722","0.0-4.0-1.7","107","1","2022-11-13 16:14:17","a60ee176136a54a92dc2853177adfa2c","175.8.201.165","Mozilla/5.0 (Windows NT 10.0; WOW64) AppleWebKit/537.36 (KHTML, like Gecko) Chrome/80.0.3987.87 Safari/537.36 SE 2.X MetaSr 1.0","WebKit","Chrome","80.0.3987.87","Windows","10.0","25294","<p>作为军队的指挥官，你可以选择发射导弹杀死 <strong>4名</strong> 敌国士兵，但会误杀附近的 <strong>1名</strong> 敌国平民。</p> <p>平民照片如下图所示。</p> <p></p> <img src='stimuli/faces/PCF3.jpg', style='max-width: 30%;'> </img> <p><strong>你是否选择发射武器？</strong></p>","1",""
"","","","","","html-keyboard-response","20","134723","0.0-4.0-0.8","107","1","2022-11-13 16:14:17","a60ee176136a54a92dc2853177adfa2c","175.8.201.165","Mozilla/5.0 (Windows NT 10.0; WOW64) AppleWebKit/537.36 (KHTML, like Gecko) Chrome/80.0.3987.87 Safari/537.36 SE 2.X MetaSr 1.0","WebKit","Chrome","80.0.3987.87","Windows","10.0","null","<div style=""font-size:60px;"">+</div>","null",""
"","","","","","html-button-response","21","148666","0.0-4.0-1.8","107","1","2022-11-13 16:14:17","a60ee176136a54a92dc2853177adfa2c","175.8.201.165","Mozilla/5.0 (Windows NT 10.0; WOW64) AppleWebKit/537.36 (KHTML, like Gecko) Chrome/80.0.3987.87 Safari/537.36 SE 2.X MetaSr 1.0","WebKit","Chrome","80.0.3987.87","Windows","10.0","13941","<p>作为军队的指挥官，你可以选择发射导弹杀死 <strong>2名</strong> 敌国士兵，但会误杀附近的 <strong>1名</strong> 敌国平民。</p> <p>平民照片如下图所示。</p> <p></p> <img src='stimuli/faces/PCM2.jpg', style='max-width: 30%;'> </img> <p><strong>你是否选择发射武器？</strong></p>","1",""
"","","","","","html-keyboard-response","22","149668","0.0-4.0-0.9","107","1","2022-11-13 16:14:17","a60ee176136a54a92dc2853177adfa2c","175.8.201.165","Mozilla/5.0 (Windows NT 10.0; WOW64) AppleWebKit/537.36 (KHTML, like Gecko) Chrome/80.0.3987.87 Safari/537.36 SE 2.X MetaSr 1.0","WebKit","Chrome","80.0.3987.87","Windows","10.0","null","<div style=""font-size:60px;"">+</div>","null",""
"","","","","","html-button-response","23","151953","0.0-4.0-1.9","107","1","2022-11-13 16:14:17","a60ee176136a54a92dc2853177adfa2c","175.8.201.165","Mozilla/5.0 (Windows NT 10.0; WOW64) AppleWebKit/537.36 (KHTML, like Gecko) Chrome/80.0.3987.87 Safari/537.36 SE 2.X MetaSr 1.0","WebKit","Chrome","80.0.3987.87","Windows","10.0","2280","<p>作为军队的指挥官，你可以选择发射导弹杀死 <strong>1名</strong> 敌国士兵，但会误杀附近的 <strong>1名</strong> 敌国平民。</p> <p>平民照片如下图所示。</p> <p></p> <img src='stimuli/faces/PCF6.jpg', style='max-width: 30%;'> </img> <p><strong>你是否选择发射武器？</strong></p>","1",""
"","","","","","html-keyboard-response","24","152955","0.0-4.0-0.10","107","1","2022-11-13 16:14:17","a60ee176136a54a92dc2853177adfa2c","175.8.201.165","Mozilla/5.0 (Windows NT 10.0; WOW64) AppleWebKit/537.36 (KHTML, like Gecko) Chrome/80.0.3987.87 Safari/537.36 SE 2.X MetaSr 1.0","WebKit","Chrome","80.0.3987.87","Windows","10.0","null","<div style=""font-size:60px;"">+</div>","null",""
"","","","","","html-button-response","25","154818","0.0-4.0-1.10","107","1","2022-11-13 16:14:17","a60ee176136a54a92dc2853177adfa2c","175.8.201.165","Mozilla/5.0 (Windows NT 10.0; WOW64) AppleWebKit/537.36 (KHTML, like Gecko) Chrome/80.0.3987.87 Safari/537.36 SE 2.X MetaSr 1.0","WebKit","Chrome","80.0.3987.87","Windows","10.0","1861","<p>作为军队的指挥官，你可以选择发射导弹杀死 <strong>2名</strong> 敌国士兵，但会炸毁附近的 <strong>1棵</strong> 敌国树木。</p> <p>树木的照片如下图所示。</p> <p></p> <img src='stimuli/trees/10.png', style='max-width: 30%;'> </img> <p><strong>你是否选择发射武器？</strong></p>","0",""
"","","","","","html-keyboard-response","26","155819","0.0-4.0-0.11","107","1","2022-11-13 16:14:17","a60ee176136a54a92dc2853177adfa2c","175.8.201.165","Mozilla/5.0 (Windows NT 10.0; WOW64) AppleWebKit/537.36 (KHTML, like Gecko) Chrome/80.0.3987.87 Safari/537.36 SE 2.X MetaSr 1.0","WebKit","Chrome","80.0.3987.87","Windows","10.0","null","<div style=""font-size:60px;"">+</div>","null",""
"","","","","","html-button-response","27","159570","0.0-4.0-1.11","107","1","2022-11-13 16:14:17","a60ee176136a54a92dc2853177adfa2c","175.8.201.165","Mozilla/5.0 (Windows NT 10.0; WOW64) AppleWebKit/537.36 (KHTML, like Gecko) Chrome/80.0.3987.87 Safari/537.36 SE 2.X MetaSr 1.0","WebKit","Chrome","80.0.3987.87","Windows","10.0","3750","<p>作为军队的指挥官，你可以选择发射导弹杀死 <strong>8名</strong> 敌国士兵，但会误杀附近的 <strong>1名</strong> 敌国平民。</p> <p>平民照片如下图所示。</p> <p></p> <img src='stimuli/faces/PCF7.jpg', style='max-width: 30%;'> </img> <p><strong>你是否选择发射武器？</strong></p>","1",""
"","","","","","html-keyboard-response","28","160572","0.0-4.0-0.12","107","1","2022-11-13 16:14:17","a60ee176136a54a92dc2853177adfa2c","175.8.201.165","Mozilla/5.0 (Windows NT 10.0; WOW64) AppleWebKit/537.36 (KHTML, like Gecko) Chrome/80.0.3987.87 Safari/537.36 SE 2.X MetaSr 1.0","WebKit","Chrome","80.0.3987.87","Windows","10.0","null","<div style=""font-size:60px;"">+</div>","null",""
"","","","","","html-button-response","29","163234","0.0-4.0-1.12","107","1","2022-11-13 16:14:17","a60ee176136a54a92dc2853177adfa2c","175.8.201.165","Mozilla/5.0 (Windows NT 10.0; WOW64) AppleWebKit/537.36 (KHTML, like Gecko) Chrome/80.0.3987.87 Safari/537.36 SE 2.X MetaSr 1.0","WebKit","Chrome","80.0.3987.87","Windows","10.0","2660","<p>作为军队的指挥官，你可以选择发射导弹杀死 <strong>2名</strong> 敌国士兵，但会炸毁附近的 <strong>1棵</strong> 敌国树木。</p> <p>树木的照片如下图所示。</p> <p></p> <img src='stimuli/trees/5.png', style='max-width: 30%;'> </img> <p><strong>你是否选择发射武器？</strong></p>","0",""
"","","","","","html-keyboard-response","30","164236","0.0-4.0-0.13","107","1","2022-11-13 16:14:17","a60ee176136a54a92dc2853177adfa2c","175.8.201.165","Mozilla/5.0 (Windows NT 10.0; WOW64) AppleWebKit/537.36 (KHTML, like Gecko) Chrome/80.0.3987.87 Safari/537.36 SE 2.X MetaSr 1.0","WebKit","Chrome","80.0.3987.87","Windows","10.0","null","<div style=""font-size:60px;"">+</div>","null",""
"","","","","","html-button-response","31","166697","0.0-4.0-1.13","107","1","2022-11-13 16:14:17","a60ee176136a54a92dc2853177adfa2c","175.8.201.165","Mozilla/5.0 (Windows NT 10.0; WOW64) AppleWebKit/537.36 (KHTML, like Gecko) Chrome/80.0.3987.87 Safari/537.36 SE 2.X MetaSr 1.0","WebKit","Chrome","80.0.3987.87","Windows","10.0","2456","<p>作为军队的指挥官，你可以选择发射导弹杀死 <strong>7名</strong> 敌国士兵，但会误杀附近的 <strong>1名</strong> 敌国平民。</p> <p>平民照片如下图所示。</p> <p></p> <img src='stimuli/faces/PCM5.jpg', style='max-width: 30%;'> </img> <p><strong>你是否选择发射武器？</strong></p>","1",""
"","","","","","html-keyboard-response","32","167699","0.0-4.0-0.14","107","1","2022-11-13 16:14:17","a60ee176136a54a92dc2853177adfa2c","175.8.201.165","Mozilla/5.0 (Windows NT 10.0; WOW64) AppleWebKit/537.36 (KHTML, like Gecko) Chrome/80.0.3987.87 Safari/537.36 SE 2.X MetaSr 1.0","WebKit","Chrome","80.0.3987.87","Windows","10.0","null","<div style=""font-size:60px;"">+</div>","null",""
"","","","","","html-button-response","33","170889","0.0-4.0-1.14","107","1","2022-11-13 16:14:17","a60ee176136a54a92dc2853177adfa2c","175.8.201.165","Mozilla/5.0 (Windows NT 10.0; WOW64) AppleWebKit/537.36 (KHTML, like Gecko) Chrome/80.0.3987.87 Safari/537.36 SE 2.X MetaSr 1.0","WebKit","Chrome","80.0.3987.87","Windows","10.0","3185","<p>作为军队的指挥官，你可以选择发射导弹杀死 <strong>9名</strong> 敌国士兵，但会炸毁附近的 <strong>1棵</strong> 敌国树木。</p> <p>树木的照片如下图所示。</p> <p></p> <img src='stimuli/trees/15.png', style='max-width: 30%;'> </img> <p><strong>你是否选择发射武器？</strong></p>","0",""
"","","","","","html-keyboard-response","34","171892","0.0-4.0-0.15","107","1","2022-11-13 16:14:17","a60ee176136a54a92dc2853177adfa2c","175.8.201.165","Mozilla/5.0 (Windows NT 10.0; WOW64) AppleWebKit/537.36 (KHTML, like Gecko) Chrome/80.0.3987.87 Safari/537.36 SE 2.X MetaSr 1.0","WebKit","Chrome","80.0.3987.87","Windows","10.0","null","<div style=""font-size:60px;"">+</div>","null",""
"","","","","","html-button-response","35","177058","0.0-4.0-1.15","107","1","2022-11-13 16:14:17","a60ee176136a54a92dc2853177adfa2c","175.8.201.165","Mozilla/5.0 (Windows NT 10.0; WOW64) AppleWebKit/537.36 (KHTML, like Gecko) Chrome/80.0.3987.87 Safari/537.36 SE 2.X MetaSr 1.0","WebKit","Chrome","80.0.3987.87","Windows","10.0","5164","<p>作为军队的指挥官，你可以选择发射导弹杀死 <strong>4名</strong> 敌国士兵，但会误杀附近的 <strong>1名</strong> 敌国平民。</p> <p>平民照片如下图所示。</p> <p></p> <img src='stimuli/faces/PCF2.jpg', style='max-width: 30%;'> </img> <p><strong>你是否选择发射武器？</strong></p>","1",""
"","","","","","html-keyboard-response","36","178059","0.0-4.0-0.16","107","1","2022-11-13 16:14:17","a60ee176136a54a92dc2853177adfa2c","175.8.201.165","Mozilla/5.0 (Windows NT 10.0; WOW64) AppleWebKit/537.36 (KHTML, like Gecko) Chrome/80.0.3987.87 Safari/537.36 SE 2.X MetaSr 1.0","WebKit","Chrome","80.0.3987.87","Windows","10.0","null","<div style=""font-size:60px;"">+</div>","null",""
"","","","","","html-button-response","37","181889","0.0-4.0-1.16","107","1","2022-11-13 16:14:17","a60ee176136a54a92dc2853177adfa2c","175.8.201.165","Mozilla/5.0 (Windows NT 10.0; WOW64) AppleWebKit/537.36 (KHTML, like Gecko) Chrome/80.0.3987.87 Safari/537.36 SE 2.X MetaSr 1.0","WebKit","Chrome","80.0.3987.87","Windows","10.0","3824","<p>作为军队的指挥官，你可以选择发射导弹杀死 <strong>2名</strong> 敌国士兵，但会误杀附近的 <strong>1名</strong> 敌国平民。</p> <p>平民照片如下图所示。</p> <p></p> <img src='stimuli/faces/PCF8.jpg', style='max-width: 30%;'> </img> <p><strong>你是否选择发射武器？</strong></p>","1",""
"","","","","","html-keyboard-response","38","182891","0.0-4.0-0.17","107","1","2022-11-13 16:14:17","a60ee176136a54a92dc2853177adfa2c","175.8.201.165","Mozilla/5.0 (Windows NT 10.0; WOW64) AppleWebKit/537.36 (KHTML, like Gecko) Chrome/80.0.3987.87 Safari/537.36 SE 2.X MetaSr 1.0","WebKit","Chrome","80.0.3987.87","Windows","10.0","null","<div style=""font-size:60px;"">+</div>","null",""
"","","","","","html-button-response","39","197810","0.0-4.0-1.17","107","1","2022-11-13 16:14:17","a60ee176136a54a92dc2853177adfa2c","175.8.201.165","Mozilla/5.0 (Windows NT 10.0; WOW64) AppleWebKit/537.36 (KHTML, like Gecko) Chrome/80.0.3987.87 Safari/537.36 SE 2.X MetaSr 1.0","WebKit","Chrome","80.0.3987.87","Windows","10.0","14917","<p>作为军队的指挥官，你可以选择发射导弹杀死 <strong>6名</strong> 敌国士兵，但会误杀附近的 <strong>1名</strong> 敌国平民。</p> <p>平民照片如下图所示。</p> <p></p> <img src='stimuli/faces/PCF8.jpg', style='max-width: 30%;'> </img> <p><strong>你是否选择发射武器？</strong></p>","1",""
"","","","","","html-keyboard-response","40","198813","0.0-4.0-0.18","107","1","2022-11-13 16:14:17","a60ee176136a54a92dc2853177adfa2c","175.8.201.165","Mozilla/5.0 (Windows NT 10.0; WOW64) AppleWebKit/537.36 (KHTML, like Gecko) Chrome/80.0.3987.87 Safari/537.36 SE 2.X MetaSr 1.0","WebKit","Chrome","80.0.3987.87","Windows","10.0","null","<div style=""font-size:60px;"">+</div>","null",""
"","","","","","html-button-response","41","200626","0.0-4.0-1.18","107","1","2022-11-13 16:14:17","a60ee176136a54a92dc2853177adfa2c","175.8.201.165","Mozilla/5.0 (Windows NT 10.0; WOW64) AppleWebKit/537.36 (KHTML, like Gecko) Chrome/80.0.3987.87 Safari/537.36 SE 2.X MetaSr 1.0","WebKit","Chrome","80.0.3987.87","Windows","10.0","1806","<p>作为军队的指挥官，你可以选择发射导弹杀死 <strong>8名</strong> 敌国士兵，但会炸毁附近的 <strong>1棵</strong> 敌国树木。</p> <p>树木的照片如下图所示。</p> <p></p> <img src='stimuli/trees/2.png', style='max-width: 30%;'> </img> <p><strong>你是否选择发射武器？</strong></p>","0",""
"","","","","","html-keyboard-response","42","201628","0.0-4.0-0.19","107","1","2022-11-13 16:14:17","a60ee176136a54a92dc2853177adfa2c","175.8.201.165","Mozilla/5.0 (Windows NT 10.0; WOW64) AppleWebKit/537.36 (KHTML, like Gecko) Chrome/80.0.3987.87 Safari/537.36 SE 2.X MetaSr 1.0","WebKit","Chrome","80.0.3987.87","Windows","10.0","null","<div style=""font-size:60px;"">+</div>","null",""
"","","","","","html-button-response","43","204161","0.0-4.0-1.19","107","1","2022-11-13 16:14:17","a60ee176136a54a92dc2853177adfa2c","175.8.201.165","Mozilla/5.0 (Windows NT 10.0; WOW64) AppleWebKit/537.36 (KHTML, like Gecko) Chrome/80.0.3987.87 Safari/537.36 SE 2.X MetaSr 1.0","WebKit","Chrome","80.0.3987.87","Windows","10.0","2531","<p>作为军队的指挥官，你可以选择发射导弹杀死 <strong>8名</strong> 敌国士兵，但会误杀附近的 <strong>1名</strong> 敌国平民。</p> <p>平民照片如下图所示。</p> <p></p> <img src='stimuli/faces/PCM7.jpg', style='max-width: 30%;'> </img> <p><strong>你是否选择发射武器？</strong></p>","1",""
"","","","","","html-keyboard-response","44","205163","0.0-4.0-0.20","107","1","2022-11-13 16:14:17","a60ee176136a54a92dc2853177adfa2c","175.8.201.165","Mozilla/5.0 (Windows NT 10.0; WOW64) AppleWebKit/537.36 (KHTML, like Gecko) Chrome/80.0.3987.87 Safari/537.36 SE 2.X MetaSr 1.0","WebKit","Chrome","80.0.3987.87","Windows","10.0","null","<div style=""font-size:60px;"">+</div>","null",""
"","","","","","html-button-response","45","206954","0.0-4.0-1.20","107","1","2022-11-13 16:14:17","a60ee176136a54a92dc2853177adfa2c","175.8.201.165","Mozilla/5.0 (Windows NT 10.0; WOW64) AppleWebKit/537.36 (KHTML, like Gecko) Chrome/80.0.3987.87 Safari/537.36 SE 2.X MetaSr 1.0","WebKit","Chrome","80.0.3987.87","Windows","10.0","1789","<p>作为军队的指挥官，你可以选择发射导弹杀死 <strong>3名</strong> 敌国士兵，但会炸毁附近的 <strong>1棵</strong> 敌国树木。</p> <p>树木的照片如下图所示。</p> <p></p> <img src='stimuli/trees/4.png', style='max-width: 30%;'> </img> <p><strong>你是否选择发射武器？</strong></p>","0",""
"","","","","","html-keyboard-response","46","207957","0.0-4.0-0.21","107","1","2022-11-13 16:14:17","a60ee176136a54a92dc2853177adfa2c","175.8.201.165","Mozilla/5.0 (Windows NT 10.0; WOW64) AppleWebKit/537.36 (KHTML, like Gecko) Chrome/80.0.3987.87 Safari/537.36 SE 2.X MetaSr 1.0","WebKit","Chrome","80.0.3987.87","Windows","10.0","null","<div style=""font-size:60px;"">+</div>","null",""
"","","","","","html-button-response","47","209874","0.0-4.0-1.21","107","1","2022-11-13 16:14:17","a60ee176136a54a92dc2853177adfa2c","175.8.201.165","Mozilla/5.0 (Windows NT 10.0; WOW64) AppleWebKit/537.36 (KHTML, like Gecko) Chrome/80.0.3987.87 Safari/537.36 SE 2.X MetaSr 1.0","WebKit","Chrome","80.0.3987.87","Windows","10.0","1912","<p>作为军队的指挥官，你可以选择发射导弹杀死 <strong>7名</strong> 敌国士兵，但会炸毁附近的 <strong>1棵</strong> 敌国树木。</p> <p>树木的照片如下图所示。</p> <p></p> <img src='stimuli/trees/12.png', style='max-width: 30%;'> </img> <p><strong>你是否选择发射武器？</strong></p>","0",""
"","","","","","html-keyboard-response","48","210876","0.0-4.0-0.22","107","1","2022-11-13 16:14:17","a60ee176136a54a92dc2853177adfa2c","175.8.201.165","Mozilla/5.0 (Windows NT 10.0; WOW64) AppleWebKit/537.36 (KHTML, like Gecko) Chrome/80.0.3987.87 Safari/537.36 SE 2.X MetaSr 1.0","WebKit","Chrome","80.0.3987.87","Windows","10.0","null","<div style=""font-size:60px;"">+</div>","null",""
"","","","","","html-button-response","49","214146","0.0-4.0-1.22","107","1","2022-11-13 16:14:17","a60ee176136a54a92dc2853177adfa2c","175.8.201.165","Mozilla/5.0 (Windows NT 10.0; WOW64) AppleWebKit/537.36 (KHTML, like Gecko) Chrome/80.0.3987.87 Safari/537.36 SE 2.X MetaSr 1.0","WebKit","Chrome","80.0.3987.87","Windows","10.0","3268","<p>作为军队的指挥官，你可以选择发射导弹杀死 <strong>4名</strong> 敌国士兵，但会炸毁附近的 <strong>1棵</strong> 敌国树木。</p> <p>树木的照片如下图所示。</p> <p></p> <img src='stimuli/trees/1.png', style='max-width: 30%;'> </img> <p><strong>你是否选择发射武器？</strong></p>","1",""
"","","","","","html-keyboard-response","50","215148","0.0-4.0-0.23","107","1","2022-11-13 16:14:17","a60ee176136a54a92dc2853177adfa2c","175.8.201.165","Mozilla/5.0 (Windows NT 10.0; WOW64) AppleWebKit/537.36 (KHTML, like Gecko) Chrome/80.0.3987.87 Safari/537.36 SE 2.X MetaSr 1.0","WebKit","Chrome","80.0.3987.87","Windows","10.0","null","<div style=""font-size:60px;"">+</div>","null",""
"","","","","","html-button-response","51","217514","0.0-4.0-1.23","107","1","2022-11-13 16:14:17","a60ee176136a54a92dc2853177adfa2c","175.8.201.165","Mozilla/5.0 (Windows NT 10.0; WOW64) AppleWebKit/537.36 (KHTML, like Gecko) Chrome/80.0.3987.87 Safari/537.36 SE 2.X MetaSr 1.0","WebKit","Chrome","80.0.3987.87","Windows","10.0","2364","<p>作为军队的指挥官，你可以选择发射导弹杀死 <strong>8名</strong> 敌国士兵，但会误杀附近的 <strong>1名</strong> 敌国平民。</p> <p>平民照片如下图所示。</p> <p></p> <img src='stimuli/faces/PCF5.jpg', style='max-width: 30%;'> </img> <p><strong>你是否选择发射武器？</strong></p>","1",""
"","","","","","html-keyboard-response","52","218517","0.0-4.0-0.24","107","1","2022-11-13 16:14:17","a60ee176136a54a92dc2853177adfa2c","175.8.201.165","Mozilla/5.0 (Windows NT 10.0; WOW64) AppleWebKit/537.36 (KHTML, like Gecko) Chrome/80.0.3987.87 Safari/537.36 SE 2.X MetaSr 1.0","WebKit","Chrome","80.0.3987.87","Windows","10.0","null","<div style=""font-size:60px;"">+</div>","null",""
"","","","","","html-button-response","53","220113","0.0-4.0-1.24","107","1","2022-11-13 16:14:17","a60ee176136a54a92dc2853177adfa2c","175.8.201.165","Mozilla/5.0 (Windows NT 10.0; WOW64) AppleWebKit/537.36 (KHTML, like Gecko) Chrome/80.0.3987.87 Safari/537.36 SE 2.X MetaSr 1.0","WebKit","Chrome","80.0.3987.87","Windows","10.0","1591","<p>作为军队的指挥官，你可以选择发射导弹杀死 <strong>5名</strong> 敌国士兵，但会炸毁附近的 <strong>1棵</strong> 敌国树木。</p> <p>树木的照片如下图所示。</p> <p></p> <img src='stimuli/trees/9.png', style='max-width: 30%;'> </img> <p><strong>你是否选择发射武器？</strong></p>","0",""
"","","","","","html-keyboard-response","54","221115","0.0-4.0-0.25","107","1","2022-11-13 16:14:17","a60ee176136a54a92dc2853177adfa2c","175.8.201.165","Mozilla/5.0 (Windows NT 10.0; WOW64) AppleWebKit/537.36 (KHTML, like Gecko) Chrome/80.0.3987.87 Safari/537.36 SE 2.X MetaSr 1.0","WebKit","Chrome","80.0.3987.87","Windows","10.0","null","<div style=""font-size:60px;"">+</div>","null",""
"","","","","","html-button-response","55","222881","0.0-4.0-1.25","107","1","2022-11-13 16:14:17","a60ee176136a54a92dc2853177adfa2c","175.8.201.165","Mozilla/5.0 (Windows NT 10.0; WOW64) AppleWebKit/537.36 (KHTML, like Gecko) Chrome/80.0.3987.87 Safari/537.36 SE 2.X MetaSr 1.0","WebKit","Chrome","80.0.3987.87","Windows","10.0","1760","<p>作为军队的指挥官，你可以选择发射导弹杀死 <strong>10名</strong> 敌国士兵，但会误杀附近的 <strong>1名</strong> 敌国平民。</p> <p>平民照片如下图所示。</p> <p></p> <img src='stimuli/faces/PCF6.jpg', style='max-width: 30%;'> </img> <p><strong>你是否选择发射武器？</strong></p>","1",""
"","","","","","html-keyboard-response","56","223883","0.0-4.0-0.26","107","1","2022-11-13 16:14:17","a60ee176136a54a92dc2853177adfa2c","175.8.201.165","Mozilla/5.0 (Windows NT 10.0; WOW64) AppleWebKit/537.36 (KHTML, like Gecko) Chrome/80.0.3987.87 Safari/537.36 SE 2.X MetaSr 1.0","WebKit","Chrome","80.0.3987.87","Windows","10.0","null","<div style=""font-size:60px;"">+</div>","null",""
"","","","","","html-button-response","57","227049","0.0-4.0-1.26","107","1","2022-11-13 16:14:17","a60ee176136a54a92dc2853177adfa2c","175.8.201.165","Mozilla/5.0 (Windows NT 10.0; WOW64) AppleWebKit/537.36 (KHTML, like Gecko) Chrome/80.0.3987.87 Safari/537.36 SE 2.X MetaSr 1.0","WebKit","Chrome","80.0.3987.87","Windows","10.0","3164","<p>作为军队的指挥官，你可以选择发射导弹杀死 <strong>1名</strong> 敌国士兵，但会炸毁附近的 <strong>1棵</strong> 敌国树木。</p> <p>树木的照片如下图所示。</p> <p></p> <img src='stimuli/trees/15.png', style='max-width: 30%;'> </img> <p><strong>你是否选择发射武器？</strong></p>","0",""
"","","","","","html-keyboard-response","58","228052","0.0-4.0-0.27","107","1","2022-11-13 16:14:17","a60ee176136a54a92dc2853177adfa2c","175.8.201.165","Mozilla/5.0 (Windows NT 10.0; WOW64) AppleWebKit/537.36 (KHTML, like Gecko) Chrome/80.0.3987.87 Safari/537.36 SE 2.X MetaSr 1.0","WebKit","Chrome","80.0.3987.87","Windows","10.0","null","<div style=""font-size:60px;"">+</div>","null",""
"","","","","","html-button-response","59","230218","0.0-4.0-1.27","107","1","2022-11-13 16:14:17","a60ee176136a54a92dc2853177adfa2c","175.8.201.165","Mozilla/5.0 (Windows NT 10.0; WOW64) AppleWebKit/537.36 (KHTML, like Gecko) Chrome/80.0.3987.87 Safari/537.36 SE 2.X MetaSr 1.0","WebKit","Chrome","80.0.3987.87","Windows","10.0","2160","<p>作为军队的指挥官，你可以选择发射导弹杀死 <strong>1名</strong> 敌国士兵，但会误杀附近的 <strong>1名</strong> 敌国平民。</p> <p>平民照片如下图所示。</p> <p></p> <img src='stimuli/faces/PCF4.jpg', style='max-width: 30%;'> </img> <p><strong>你是否选择发射武器？</strong></p>","1",""
"","","","","","html-keyboard-response","60","231220","0.0-4.0-0.28","107","1","2022-11-13 16:14:17","a60ee176136a54a92dc2853177adfa2c","175.8.201.165","Mozilla/5.0 (Windows NT 10.0; WOW64) AppleWebKit/537.36 (KHTML, like Gecko) Chrome/80.0.3987.87 Safari/537.36 SE 2.X MetaSr 1.0","WebKit","Chrome","80.0.3987.87","Windows","10.0","null","<div style=""font-size:60px;"">+</div>","null",""
"","","","","","html-button-response","61","233489","0.0-4.0-1.28","107","1","2022-11-13 16:14:17","a60ee176136a54a92dc2853177adfa2c","175.8.201.165","Mozilla/5.0 (Windows NT 10.0; WOW64) AppleWebKit/537.36 (KHTML, like Gecko) Chrome/80.0.3987.87 Safari/537.36 SE 2.X MetaSr 1.0","WebKit","Chrome","80.0.3987.87","Windows","10.0","2268","<p>作为军队的指挥官，你可以选择发射导弹杀死 <strong>3名</strong> 敌国士兵，但会误杀附近的 <strong>1名</strong> 敌国平民。</p> <p>平民照片如下图所示。</p> <p></p> <img src='stimuli/faces/PCM7.jpg', style='max-width: 30%;'> </img> <p><strong>你是否选择发射武器？</strong></p>","1",""
"","","","","","html-keyboard-response","62","234491","0.0-4.0-0.29","107","1","2022-11-13 16:14:17","a60ee176136a54a92dc2853177adfa2c","175.8.201.165","Mozilla/5.0 (Windows NT 10.0; WOW64) AppleWebKit/537.36 (KHTML, like Gecko) Chrome/80.0.3987.87 Safari/537.36 SE 2.X MetaSr 1.0","WebKit","Chrome","80.0.3987.87","Windows","10.0","null","<div style=""font-size:60px;"">+</div>","null",""
"","","","","","html-button-response","63","236961","0.0-4.0-1.29","107","1","2022-11-13 16:14:17","a60ee176136a54a92dc2853177adfa2c","175.8.201.165","Mozilla/5.0 (Windows NT 10.0; WOW64) AppleWebKit/537.36 (KHTML, like Gecko) Chrome/80.0.3987.87 Safari/537.36 SE 2.X MetaSr 1.0","WebKit","Chrome","80.0.3987.87","Windows","10.0","2464","<p>作为军队的指挥官，你可以选择发射导弹杀死 <strong>9名</strong> 敌国士兵，但会误杀附近的 <strong>1名</strong> 敌国平民。</p> <p>平民照片如下图所示。</p> <p></p> <img src='stimuli/faces/PCF4.jpg', style='max-width: 30%;'> </img> <p><strong>你是否选择发射武器？</strong></p>","1",""
"","","","","","html-keyboard-response","64","237963","0.0-4.0-0.30","107","1","2022-11-13 16:14:17","a60ee176136a54a92dc2853177adfa2c","175.8.201.165","Mozilla/5.0 (Windows NT 10.0; WOW64) AppleWebKit/537.36 (KHTML, like Gecko) Chrome/80.0.3987.87 Safari/537.36 SE 2.X MetaSr 1.0","WebKit","Chrome","80.0.3987.87","Windows","10.0","null","<div style=""font-size:60px;"">+</div>","null",""
"","","","","","html-button-response","65","241058","0.0-4.0-1.30","107","1","2022-11-13 16:14:17","a60ee176136a54a92dc2853177adfa2c","175.8.201.165","Mozilla/5.0 (Windows NT 10.0; WOW64) AppleWebKit/537.36 (KHTML, like Gecko) Chrome/80.0.3987.87 Safari/537.36 SE 2.X MetaSr 1.0","WebKit","Chrome","80.0.3987.87","Windows","10.0","3092","<p>作为军队的指挥官，你可以选择发射导弹杀死 <strong>2名</strong> 敌国士兵，但会炸毁附近的 <strong>1棵</strong> 敌国树木。</p> <p>树木的照片如下图所示。</p> <p></p> <img src='stimuli/trees/13.png', style='max-width: 30%;'> </img> <p><strong>你是否选择发射武器？</strong></p>","0",""
"","","","","","html-keyboard-response","66","242059","0.0-4.0-0.31","107","1","2022-11-13 16:14:17","a60ee176136a54a92dc2853177adfa2c","175.8.201.165","Mozilla/5.0 (Windows NT 10.0; WOW64) AppleWebKit/537.36 (KHTML, like Gecko) Chrome/80.0.3987.87 Safari/537.36 SE 2.X MetaSr 1.0","WebKit","Chrome","80.0.3987.87","Windows","10.0","null","<div style=""font-size:60px;"">+</div>","null",""
"","","","","","html-button-response","67","243922","0.0-4.0-1.31","107","1","2022-11-13 16:14:17","a60ee176136a54a92dc2853177adfa2c","175.8.201.165","Mozilla/5.0 (Windows NT 10.0; WOW64) AppleWebKit/537.36 (KHTML, like Gecko) Chrome/80.0.3987.87 Safari/537.36 SE 2.X MetaSr 1.0","WebKit","Chrome","80.0.3987.87","Windows","10.0","1857","<p>作为军队的指挥官，你可以选择发射导弹杀死 <strong>5名</strong> 敌国士兵，但会炸毁附近的 <strong>1棵</strong> 敌国树木。</p> <p>树木的照片如下图所示。</p> <p></p> <img src='stimuli/trees/2.png', style='max-width: 30%;'> </img> <p><strong>你是否选择发射武器？</strong></p>","0",""
"","","","","","html-keyboard-response","68","244924","0.0-4.0-0.32","107","1","2022-11-13 16:14:17","a60ee176136a54a92dc2853177adfa2c","175.8.201.165","Mozilla/5.0 (Windows NT 10.0; WOW64) AppleWebKit/537.36 (KHTML, like Gecko) Chrome/80.0.3987.87 Safari/537.36 SE 2.X MetaSr 1.0","WebKit","Chrome","80.0.3987.87","Windows","10.0","null","<div style=""font-size:60px;"">+</div>","null",""
"","","","","","html-button-response","69","251866","0.0-4.0-1.32","107","1","2022-11-13 16:14:17","a60ee176136a54a92dc2853177adfa2c","175.8.201.165","Mozilla/5.0 (Windows NT 10.0; WOW64) AppleWebKit/537.36 (KHTML, like Gecko) Chrome/80.0.3987.87 Safari/537.36 SE 2.X MetaSr 1.0","WebKit","Chrome","80.0.3987.87","Windows","10.0","6939","<p>作为军队的指挥官，你可以选择发射导弹杀死 <strong>5名</strong> 敌国士兵，但会误杀附近的 <strong>1名</strong> 敌国平民。</p> <p>平民照片如下图所示。</p> <p></p> <img src='stimuli/faces/PCM8.jpg', style='max-width: 30%;'> </img> <p><strong>你是否选择发射武器？</strong></p>","1",""
"","","","","","html-keyboard-response","70","252869","0.0-4.0-0.33","107","1","2022-11-13 16:14:17","a60ee176136a54a92dc2853177adfa2c","175.8.201.165","Mozilla/5.0 (Windows NT 10.0; WOW64) AppleWebKit/537.36 (KHTML, like Gecko) Chrome/80.0.3987.87 Safari/537.36 SE 2.X MetaSr 1.0","WebKit","Chrome","80.0.3987.87","Windows","10.0","null","<div style=""font-size:60px;"">+</div>","null",""
"","","","","","html-button-response","71","258578","0.0-4.0-1.33","107","1","2022-11-13 16:14:17","a60ee176136a54a92dc2853177adfa2c","175.8.201.165","Mozilla/5.0 (Windows NT 10.0; WOW64) AppleWebKit/537.36 (KHTML, like Gecko) Chrome/80.0.3987.87 Safari/537.36 SE 2.X MetaSr 1.0","WebKit","Chrome","80.0.3987.87","Windows","10.0","5707","<p>作为军队的指挥官，你可以选择发射导弹杀死 <strong>6名</strong> 敌国士兵，但会炸毁附近的 <strong>1棵</strong> 敌国树木。</p> <p>树木的照片如下图所示。</p> <p></p> <img src='stimuli/trees/10.png', style='max-width: 30%;'> </img> <p><strong>你是否选择发射武器？</strong></p>","0",""
"","","","","","html-keyboard-response","72","259580","0.0-4.0-0.34","107","1","2022-11-13 16:14:17","a60ee176136a54a92dc2853177adfa2c","175.8.201.165","Mozilla/5.0 (Windows NT 10.0; WOW64) AppleWebKit/537.36 (KHTML, like Gecko) Chrome/80.0.3987.87 Safari/537.36 SE 2.X MetaSr 1.0","WebKit","Chrome","80.0.3987.87","Windows","10.0","null","<div style=""font-size:60px;"">+</div>","null",""
"","","","","","html-button-response","73","261722","0.0-4.0-1.34","107","1","2022-11-13 16:14:17","a60ee176136a54a92dc2853177adfa2c","175.8.201.165","Mozilla/5.0 (Windows NT 10.0; WOW64) AppleWebKit/537.36 (KHTML, like Gecko) Chrome/80.0.3987.87 Safari/537.36 SE 2.X MetaSr 1.0","WebKit","Chrome","80.0.3987.87","Windows","10.0","2132","<p>作为军队的指挥官，你可以选择发射导弹杀死 <strong>4名</strong> 敌国士兵，但会误杀附近的 <strong>1名</strong> 敌国平民。</p> <p>平民照片如下图所示。</p> <p></p> <img src='stimuli/faces/PCM5.jpg', style='max-width: 30%;'> </img> <p><strong>你是否选择发射武器？</strong></p>","1",""
"","","","","","html-keyboard-response","74","262732","0.0-4.0-0.35","107","1","2022-11-13 16:14:17","a60ee176136a54a92dc2853177adfa2c","175.8.201.165","Mozilla/5.0 (Windows NT 10.0; WOW64) AppleWebKit/537.36 (KHTML, like Gecko) Chrome/80.0.3987.87 Safari/537.36 SE 2.X MetaSr 1.0","WebKit","Chrome","80.0.3987.87","Windows","10.0","null","<div style=""font-size:60px;"">+</div>","null",""
"","","","","","html-button-response","75","272386","0.0-4.0-1.35","107","1","2022-11-13 16:14:17","a60ee176136a54a92dc2853177adfa2c","175.8.201.165","Mozilla/5.0 (Windows NT 10.0; WOW64) AppleWebKit/537.36 (KHTML, like Gecko) Chrome/80.0.3987.87 Safari/537.36 SE 2.X MetaSr 1.0","WebKit","Chrome","80.0.3987.87","Windows","10.0","9652","<p>作为军队的指挥官，你可以选择发射导弹杀死 <strong>6名</strong> 敌国士兵，但会误杀附近的 <strong>1名</strong> 敌国平民。</p> <p>平民照片如下图所示。</p> <p></p> <img src='stimuli/faces/PCM8.jpg', style='max-width: 30%;'> </img> <p><strong>你是否选择发射武器？</strong></p>","1",""
"","","","","","html-keyboard-response","76","273388","0.0-4.0-0.36","107","1","2022-11-13 16:14:17","a60ee176136a54a92dc2853177adfa2c","175.8.201.165","Mozilla/5.0 (Windows NT 10.0; WOW64) AppleWebKit/537.36 (KHTML, like Gecko) Chrome/80.0.3987.87 Safari/537.36 SE 2.X MetaSr 1.0","WebKit","Chrome","80.0.3987.87","Windows","10.0","null","<div style=""font-size:60px;"">+</div>","null",""
"","","","","","html-button-response","77","277257","0.0-4.0-1.36","107","1","2022-11-13 16:14:17","a60ee176136a54a92dc2853177adfa2c","175.8.201.165","Mozilla/5.0 (Windows NT 10.0; WOW64) AppleWebKit/537.36 (KHTML, like Gecko) Chrome/80.0.3987.87 Safari/537.36 SE 2.X MetaSr 1.0","WebKit","Chrome","80.0.3987.87","Windows","10.0","3867","<p>作为军队的指挥官，你可以选择发射导弹杀死 <strong>6名</strong> 敌国士兵，但会炸毁附近的 <strong>1棵</strong> 敌国树木。</p> <p>树木的照片如下图所示。</p> <p></p> <img src='stimuli/trees/4.png', style='max-width: 30%;'> </img> <p><strong>你是否选择发射武器？</strong></p>","0",""
"","","","","","html-keyboard-response","78","278260","0.0-4.0-0.37","107","1","2022-11-13 16:14:17","a60ee176136a54a92dc2853177adfa2c","175.8.201.165","Mozilla/5.0 (Windows NT 10.0; WOW64) AppleWebKit/537.36 (KHTML, like Gecko) Chrome/80.0.3987.87 Safari/537.36 SE 2.X MetaSr 1.0","WebKit","Chrome","80.0.3987.87","Windows","10.0","null","<div style=""font-size:60px;"">+</div>","null",""
"","","","","","html-button-response","79","279826","0.0-4.0-1.37","107","1","2022-11-13 16:14:17","a60ee176136a54a92dc2853177adfa2c","175.8.201.165","Mozilla/5.0 (Windows NT 10.0; WOW64) AppleWebKit/537.36 (KHTML, like Gecko) Chrome/80.0.3987.87 Safari/537.36 SE 2.X MetaSr 1.0","WebKit","Chrome","80.0.3987.87","Windows","10.0","1561","<p>作为军队的指挥官，你可以选择发射导弹杀死 <strong>1名</strong> 敌国士兵，但会炸毁附近的 <strong>1棵</strong> 敌国树木。</p> <p>树木的照片如下图所示。</p> <p></p> <img src='stimuli/trees/6.png', style='max-width: 30%;'> </img> <p><strong>你是否选择发射武器？</strong></p>","0",""
"","","","","","html-keyboard-response","80","280829","0.0-4.0-0.38","107","1","2022-11-13 16:14:17","a60ee176136a54a92dc2853177adfa2c","175.8.201.165","Mozilla/5.0 (Windows NT 10.0; WOW64) AppleWebKit/537.36 (KHTML, like Gecko) Chrome/80.0.3987.87 Safari/537.36 SE 2.X MetaSr 1.0","WebKit","Chrome","80.0.3987.87","Windows","10.0","null","<div style=""font-size:60px;"">+</div>","null",""
"","","","","","html-button-response","81","282194","0.0-4.0-1.38","107","1","2022-11-13 16:14:17","a60ee176136a54a92dc2853177adfa2c","175.8.201.165","Mozilla/5.0 (Windows NT 10.0; WOW64) AppleWebKit/537.36 (KHTML, like Gecko) Chrome/80.0.3987.87 Safari/537.36 SE 2.X MetaSr 1.0","WebKit","Chrome","80.0.3987.87","Windows","10.0","1362","<p>作为军队的指挥官，你可以选择发射导弹杀死 <strong>5名</strong> 敌国士兵，但会炸毁附近的 <strong>1棵</strong> 敌国树木。</p> <p>树木的照片如下图所示。</p> <p></p> <img src='stimuli/trees/14.png', style='max-width: 30%;'> </img> <p><strong>你是否选择发射武器？</strong></p>","0",""
"","","","","","html-keyboard-response","82","283197","0.0-4.0-0.39","107","1","2022-11-13 16:14:17","a60ee176136a54a92dc2853177adfa2c","175.8.201.165","Mozilla/5.0 (Windows NT 10.0; WOW64) AppleWebKit/537.36 (KHTML, like Gecko) Chrome/80.0.3987.87 Safari/537.36 SE 2.X MetaSr 1.0","WebKit","Chrome","80.0.3987.87","Windows","10.0","null","<div style=""font-size:60px;"">+</div>","null",""
"","","","","","html-button-response","83","284969","0.0-4.0-1.39","107","1","2022-11-13 16:14:17","a60ee176136a54a92dc2853177adfa2c","175.8.201.165","Mozilla/5.0 (Windows NT 10.0; WOW64) AppleWebKit/537.36 (KHTML, like Gecko) Chrome/80.0.3987.87 Safari/537.36 SE 2.X MetaSr 1.0","WebKit","Chrome","80.0.3987.87","Windows","10.0","1770","<p>作为军队的指挥官，你可以选择发射导弹杀死 <strong>7名</strong> 敌国士兵，但会炸毁附近的 <strong>1棵</strong> 敌国树木。</p> <p>树木的照片如下图所示。</p> <p></p> <img src='stimuli/trees/7.png', style='max-width: 30%;'> </img> <p><strong>你是否选择发射武器？</strong></p>","0",""
"","","","","","html-keyboard-response","84","285972","0.0-4.0-0.40","107","1","2022-11-13 16:14:17","a60ee176136a54a92dc2853177adfa2c","175.8.201.165","Mozilla/5.0 (Windows NT 10.0; WOW64) AppleWebKit/537.36 (KHTML, like Gecko) Chrome/80.0.3987.87 Safari/537.36 SE 2.X MetaSr 1.0","WebKit","Chrome","80.0.3987.87","Windows","10.0","null","<div style=""font-size:60px;"">+</div>","null",""
"","","","","","html-button-response","85","288570","0.0-4.0-1.40","107","1","2022-11-13 16:14:17","a60ee176136a54a92dc2853177adfa2c","175.8.201.165","Mozilla/5.0 (Windows NT 10.0; WOW64) AppleWebKit/537.36 (KHTML, like Gecko) Chrome/80.0.3987.87 Safari/537.36 SE 2.X MetaSr 1.0","WebKit","Chrome","80.0.3987.87","Windows","10.0","2595","<p>作为军队的指挥官，你可以选择发射导弹杀死 <strong>9名</strong> 敌国士兵，但会炸毁附近的 <strong>1棵</strong> 敌国树木。</p> <p>树木的照片如下图所示。</p> <p></p> <img src='stimuli/trees/1.png', style='max-width: 30%;'> </img> <p><strong>你是否选择发射武器？</strong></p>","1",""
"","","","","","html-keyboard-response","86","289574","0.0-4.0-0.41","107","1","2022-11-13 16:14:17","a60ee176136a54a92dc2853177adfa2c","175.8.201.165","Mozilla/5.0 (Windows NT 10.0; WOW64) AppleWebKit/537.36 (KHTML, like Gecko) Chrome/80.0.3987.87 Safari/537.36 SE 2.X MetaSr 1.0","WebKit","Chrome","80.0.3987.87","Windows","10.0","null","<div style=""font-size:60px;"">+</div>","null",""
"","","","","","html-button-response","87","291042","0.0-4.0-1.41","107","1","2022-11-13 16:14:17","a60ee176136a54a92dc2853177adfa2c","175.8.201.165","Mozilla/5.0 (Windows NT 10.0; WOW64) AppleWebKit/537.36 (KHTML, like Gecko) Chrome/80.0.3987.87 Safari/537.36 SE 2.X MetaSr 1.0","WebKit","Chrome","80.0.3987.87","Windows","10.0","1466","<p>作为军队的指挥官，你可以选择发射导弹杀死 <strong>1名</strong> 敌国士兵，但会误杀附近的 <strong>1名</strong> 敌国平民。</p> <p>平民照片如下图所示。</p> <p></p> <img src='stimuli/faces/PCM4.jpg', style='max-width: 30%;'> </img> <p><strong>你是否选择发射武器？</strong></p>","1",""
"","","","","","html-keyboard-response","88","292045","0.0-4.0-0.42","107","1","2022-11-13 16:14:17","a60ee176136a54a92dc2853177adfa2c","175.8.201.165","Mozilla/5.0 (Windows NT 10.0; WOW64) AppleWebKit/537.36 (KHTML, like Gecko) Chrome/80.0.3987.87 Safari/537.36 SE 2.X MetaSr 1.0","WebKit","Chrome","80.0.3987.87","Windows","10.0","null","<div style=""font-size:60px;"">+</div>","null",""
"","","","","","html-button-response","89","296889","0.0-4.0-1.42","107","1","2022-11-13 16:14:17","a60ee176136a54a92dc2853177adfa2c","175.8.201.165","Mozilla/5.0 (Windows NT 10.0; WOW64) AppleWebKit/537.36 (KHTML, like Gecko) Chrome/80.0.3987.87 Safari/537.36 SE 2.X MetaSr 1.0","WebKit","Chrome","80.0.3987.87","Windows","10.0","4836","<p>作为军队的指挥官，你可以选择发射导弹杀死 <strong>3名</strong> 敌国士兵，但会炸毁附近的 <strong>1棵</strong> 敌国树木。</p> <p>树木的照片如下图所示。</p> <p></p> <img src='stimuli/trees/12.png', style='max-width: 30%;'> </img> <p><strong>你是否选择发射武器？</strong></p>","0",""
"","","","","","html-keyboard-response","90","297893","0.0-4.0-0.43","107","1","2022-11-13 16:14:17","a60ee176136a54a92dc2853177adfa2c","175.8.201.165","Mozilla/5.0 (Windows NT 10.0; WOW64) AppleWebKit/537.36 (KHTML, like Gecko) Chrome/80.0.3987.87 Safari/537.36 SE 2.X MetaSr 1.0","WebKit","Chrome","80.0.3987.87","Windows","10.0","null","<div style=""font-size:60px;"">+</div>","null",""
"","","","","","html-button-response","91","299624","0.0-4.0-1.43","107","1","2022-11-13 16:14:17","a60ee176136a54a92dc2853177adfa2c","175.8.201.165","Mozilla/5.0 (Windows NT 10.0; WOW64) AppleWebKit/537.36 (KHTML, like Gecko) Chrome/80.0.3987.87 Safari/537.36 SE 2.X MetaSr 1.0","WebKit","Chrome","80.0.3987.87","Windows","10.0","1725","<p>作为军队的指挥官，你可以选择发射导弹杀死 <strong>5名</strong> 敌国士兵，但会炸毁附近的 <strong>1棵</strong> 敌国树木。</p> <p>树木的照片如下图所示。</p> <p></p> <img src='stimuli/trees/3.png', style='max-width: 30%;'> </img> <p><strong>你是否选择发射武器？</strong></p>","0",""
"","","","","","html-keyboard-response","92","300627","0.0-4.0-0.44","107","1","2022-11-13 16:14:17","a60ee176136a54a92dc2853177adfa2c","175.8.201.165","Mozilla/5.0 (Windows NT 10.0; WOW64) AppleWebKit/537.36 (KHTML, like Gecko) Chrome/80.0.3987.87 Safari/537.36 SE 2.X MetaSr 1.0","WebKit","Chrome","80.0.3987.87","Windows","10.0","null","<div style=""font-size:60px;"">+</div>","null",""
"","","","","","html-button-response","93","302000","0.0-4.0-1.44","107","1","2022-11-13 16:14:17","a60ee176136a54a92dc2853177adfa2c","175.8.201.165","Mozilla/5.0 (Windows NT 10.0; WOW64) AppleWebKit/537.36 (KHTML, like Gecko) Chrome/80.0.3987.87 Safari/537.36 SE 2.X MetaSr 1.0","WebKit","Chrome","80.0.3987.87","Windows","10.0","1369","<p>作为军队的指挥官，你可以选择发射导弹杀死 <strong>9名</strong> 敌国士兵，但会误杀附近的 <strong>1名</strong> 敌国平民。</p> <p>平民照片如下图所示。</p> <p></p> <img src='stimuli/faces/PCF3.jpg', style='max-width: 30%;'> </img> <p><strong>你是否选择发射武器？</strong></p>","1",""
"","","","","","html-keyboard-response","94","303003","0.0-4.0-0.45","107","1","2022-11-13 16:14:17","a60ee176136a54a92dc2853177adfa2c","175.8.201.165","Mozilla/5.0 (Windows NT 10.0; WOW64) AppleWebKit/537.36 (KHTML, like Gecko) Chrome/80.0.3987.87 Safari/537.36 SE 2.X MetaSr 1.0","WebKit","Chrome","80.0.3987.87","Windows","10.0","null","<div style=""font-size:60px;"">+</div>","null",""
"","","","","","html-button-response","95","304785","0.0-4.0-1.45","107","1","2022-11-13 16:14:17","a60ee176136a54a92dc2853177adfa2c","175.8.201.165","Mozilla/5.0 (Windows NT 10.0; WOW64) AppleWebKit/537.36 (KHTML, like Gecko) Chrome/80.0.3987.87 Safari/537.36 SE 2.X MetaSr 1.0","WebKit","Chrome","80.0.3987.87","Windows","10.0","1775","<p>作为军队的指挥官，你可以选择发射导弹杀死 <strong>7名</strong> 敌国士兵，但会误杀附近的 <strong>1名</strong> 敌国平民。</p> <p>平民照片如下图所示。</p> <p></p> <img src='stimuli/faces/PCM1.jpg', style='max-width: 30%;'> </img> <p><strong>你是否选择发射武器？</strong></p>","1",""
"","","","","","html-keyboard-response","96","305787","0.0-4.0-0.46","107","1","2022-11-13 16:14:17","a60ee176136a54a92dc2853177adfa2c","175.8.201.165","Mozilla/5.0 (Windows NT 10.0; WOW64) AppleWebKit/537.36 (KHTML, like Gecko) Chrome/80.0.3987.87 Safari/537.36 SE 2.X MetaSr 1.0","WebKit","Chrome","80.0.3987.87","Windows","10.0","null","<div style=""font-size:60px;"">+</div>","null",""
"","","","","","html-button-response","97","307833","0.0-4.0-1.46","107","1","2022-11-13 16:14:17","a60ee176136a54a92dc2853177adfa2c","175.8.201.165","Mozilla/5.0 (Windows NT 10.0; WOW64) AppleWebKit/537.36 (KHTML, like Gecko) Chrome/80.0.3987.87 Safari/537.36 SE 2.X MetaSr 1.0","WebKit","Chrome","80.0.3987.87","Windows","10.0","2044","<p>作为军队的指挥官，你可以选择发射导弹杀死 <strong>9名</strong> 敌国士兵，但会误杀附近的 <strong>1名</strong> 敌国平民。</p> <p>平民照片如下图所示。</p> <p></p> <img src='stimuli/faces/PCF2.jpg', style='max-width: 30%;'> </img> <p><strong>你是否选择发射武器？</strong></p>","1",""
"","","","","","html-keyboard-response","98","308836","0.0-4.0-0.47","107","1","2022-11-13 16:14:17","a60ee176136a54a92dc2853177adfa2c","175.8.201.165","Mozilla/5.0 (Windows NT 10.0; WOW64) AppleWebKit/537.36 (KHTML, like Gecko) Chrome/80.0.3987.87 Safari/537.36 SE 2.X MetaSr 1.0","WebKit","Chrome","80.0.3987.87","Windows","10.0","null","<div style=""font-size:60px;"">+</div>","null",""
"","","","","","html-button-response","99","316729","0.0-4.0-1.47","107","1","2022-11-13 16:14:17","a60ee176136a54a92dc2853177adfa2c","175.8.201.165","Mozilla/5.0 (Windows NT 10.0; WOW64) AppleWebKit/537.36 (KHTML, like Gecko) Chrome/80.0.3987.87 Safari/537.36 SE 2.X MetaSr 1.0","WebKit","Chrome","80.0.3987.87","Windows","10.0","7883","<p>作为军队的指挥官，你可以选择发射导弹杀死 <strong>1名</strong> 敌国士兵，但会炸毁附近的 <strong>1棵</strong> 敌国树木。</p> <p>树木的照片如下图所示。</p> <p></p> <img src='stimuli/trees/16.png', style='max-width: 30%;'> </img> <p><strong>你是否选择发射武器？</strong></p>","0",""
"","","","","","html-keyboard-response","100","317731","0.0-4.0-0.48","107","1","2022-11-13 16:14:17","a60ee176136a54a92dc2853177adfa2c","175.8.201.165","Mozilla/5.0 (Windows NT 10.0; WOW64) AppleWebKit/537.36 (KHTML, like Gecko) Chrome/80.0.3987.87 Safari/537.36 SE 2.X MetaSr 1.0","WebKit","Chrome","80.0.3987.87","Windows","10.0","null","<div style=""font-size:60px;"">+</div>","null",""
"","","","","","html-button-response","101","321137","0.0-4.0-1.48","107","1","2022-11-13 16:14:17","a60ee176136a54a92dc2853177adfa2c","175.8.201.165","Mozilla/5.0 (Windows NT 10.0; WOW64) AppleWebKit/537.36 (KHTML, like Gecko) Chrome/80.0.3987.87 Safari/537.36 SE 2.X MetaSr 1.0","WebKit","Chrome","80.0.3987.87","Windows","10.0","3401","<p>作为军队的指挥官，你可以选择发射导弹杀死 <strong>3名</strong> 敌国士兵，但会误杀附近的 <strong>1名</strong> 敌国平民。</p> <p>平民照片如下图所示。</p> <p></p> <img src='stimuli/faces/PCF1.jpg', style='max-width: 30%;'> </img> <p><strong>你是否选择发射武器？</strong></p>","1",""
"","","","","","html-keyboard-response","102","322139","0.0-4.0-0.49","107","1","2022-11-13 16:14:17","a60ee176136a54a92dc2853177adfa2c","175.8.201.165","Mozilla/5.0 (Windows NT 10.0; WOW64) AppleWebKit/537.36 (KHTML, like Gecko) Chrome/80.0.3987.87 Safari/537.36 SE 2.X MetaSr 1.0","WebKit","Chrome","80.0.3987.87","Windows","10.0","null","<div style=""font-size:60px;"">+</div>","null",""
"","","","","","html-button-response","103","323881","0.0-4.0-1.49","107","1","2022-11-13 16:14:17","a60ee176136a54a92dc2853177adfa2c","175.8.201.165","Mozilla/5.0 (Windows NT 10.0; WOW64) AppleWebKit/537.36 (KHTML, like Gecko) Chrome/80.0.3987.87 Safari/537.36 SE 2.X MetaSr 1.0","WebKit","Chrome","80.0.3987.87","Windows","10.0","1739","<p>作为军队的指挥官，你可以选择发射导弹杀死 <strong>3名</strong> 敌国士兵，但会误杀附近的 <strong>1名</strong> 敌国平民。</p> <p>平民照片如下图所示。</p> <p></p> <img src='stimuli/faces/PCM1.jpg', style='max-width: 30%;'> </img> <p><strong>你是否选择发射武器？</strong></p>","1",""
"","","","","","html-keyboard-response","104","324885","0.0-4.0-0.50","107","1","2022-11-13 16:14:17","a60ee176136a54a92dc2853177adfa2c","175.8.201.165","Mozilla/5.0 (Windows NT 10.0; WOW64) AppleWebKit/537.36 (KHTML, like Gecko) Chrome/80.0.3987.87 Safari/537.36 SE 2.X MetaSr 1.0","WebKit","Chrome","80.0.3987.87","Windows","10.0","null","<div style=""font-size:60px;"">+</div>","null",""
"","","","","","html-button-response","105","327153","0.0-4.0-1.50","107","1","2022-11-13 16:14:17","a60ee176136a54a92dc2853177adfa2c","175.8.201.165","Mozilla/5.0 (Windows NT 10.0; WOW64) AppleWebKit/537.36 (KHTML, like Gecko) Chrome/80.0.3987.87 Safari/537.36 SE 2.X MetaSr 1.0","WebKit","Chrome","80.0.3987.87","Windows","10.0","2262","<p>作为军队的指挥官，你可以选择发射导弹杀死 <strong>8名</strong> 敌国士兵，但会误杀附近的 <strong>1名</strong> 敌国平民。</p> <p>平民照片如下图所示。</p> <p></p> <img src='stimuli/faces/PCM6.jpg', style='max-width: 30%;'> </img> <p><strong>你是否选择发射武器？</strong></p>","1",""
"","","","","","html-keyboard-response","106","328157","0.0-4.0-0.51","107","1","2022-11-13 16:14:17","a60ee176136a54a92dc2853177adfa2c","175.8.201.165","Mozilla/5.0 (Windows NT 10.0; WOW64) AppleWebKit/537.36 (KHTML, like Gecko) Chrome/80.0.3987.87 Safari/537.36 SE 2.X MetaSr 1.0","WebKit","Chrome","80.0.3987.87","Windows","10.0","null","<div style=""font-size:60px;"">+</div>","null",""
"","","","","","html-button-response","107","336144","0.0-4.0-1.51","107","1","2022-11-13 16:14:17","a60ee176136a54a92dc2853177adfa2c","175.8.201.165","Mozilla/5.0 (Windows NT 10.0; WOW64) AppleWebKit/537.36 (KHTML, like Gecko) Chrome/80.0.3987.87 Safari/537.36 SE 2.X MetaSr 1.0","WebKit","Chrome","80.0.3987.87","Windows","10.0","7982","<p>作为军队的指挥官，你可以选择发射导弹杀死 <strong>3名</strong> 敌国士兵，但会炸毁附近的 <strong>1棵</strong> 敌国树木。</p> <p>树木的照片如下图所示。</p> <p></p> <img src='stimuli/trees/11.png', style='max-width: 30%;'> </img> <p><strong>你是否选择发射武器？</strong></p>","0",""
"","","","","","html-keyboard-response","108","337146","0.0-4.0-0.52","107","1","2022-11-13 16:14:17","a60ee176136a54a92dc2853177adfa2c","175.8.201.165","Mozilla/5.0 (Windows NT 10.0; WOW64) AppleWebKit/537.36 (KHTML, like Gecko) Chrome/80.0.3987.87 Safari/537.36 SE 2.X MetaSr 1.0","WebKit","Chrome","80.0.3987.87","Windows","10.0","null","<div style=""font-size:60px;"">+</div>","null",""
"","","","","","html-button-response","109","338729","0.0-4.0-1.52","107","1","2022-11-13 16:14:17","a60ee176136a54a92dc2853177adfa2c","175.8.201.165","Mozilla/5.0 (Windows NT 10.0; WOW64) AppleWebKit/537.36 (KHTML, like Gecko) Chrome/80.0.3987.87 Safari/537.36 SE 2.X MetaSr 1.0","WebKit","Chrome","80.0.3987.87","Windows","10.0","1579","<p>作为军队的指挥官，你可以选择发射导弹杀死 <strong>8名</strong> 敌国士兵，但会炸毁附近的 <strong>1棵</strong> 敌国树木。</p> <p>树木的照片如下图所示。</p> <p></p> <img src='stimuli/trees/11.png', style='max-width: 30%;'> </img> <p><strong>你是否选择发射武器？</strong></p>","0",""
"","","","","","html-keyboard-response","110","339731","0.0-4.0-0.53","107","1","2022-11-13 16:14:17","a60ee176136a54a92dc2853177adfa2c","175.8.201.165","Mozilla/5.0 (Windows NT 10.0; WOW64) AppleWebKit/537.36 (KHTML, like Gecko) Chrome/80.0.3987.87 Safari/537.36 SE 2.X MetaSr 1.0","WebKit","Chrome","80.0.3987.87","Windows","10.0","null","<div style=""font-size:60px;"">+</div>","null",""
"","","","","","html-button-response","111","341449","0.0-4.0-1.53","107","1","2022-11-13 16:14:17","a60ee176136a54a92dc2853177adfa2c","175.8.201.165","Mozilla/5.0 (Windows NT 10.0; WOW64) AppleWebKit/537.36 (KHTML, like Gecko) Chrome/80.0.3987.87 Safari/537.36 SE 2.X MetaSr 1.0","WebKit","Chrome","80.0.3987.87","Windows","10.0","1716","<p>作为军队的指挥官，你可以选择发射导弹杀死 <strong>7名</strong> 敌国士兵，但会炸毁附近的 <strong>1棵</strong> 敌国树木。</p> <p>树木的照片如下图所示。</p> <p></p> <img src='stimuli/trees/8.png', style='max-width: 30%;'> </img> <p><strong>你是否选择发射武器？</strong></p>","0",""
"","","","","","html-keyboard-response","112","342452","0.0-4.0-0.54","107","1","2022-11-13 16:14:17","a60ee176136a54a92dc2853177adfa2c","175.8.201.165","Mozilla/5.0 (Windows NT 10.0; WOW64) AppleWebKit/537.36 (KHTML, like Gecko) Chrome/80.0.3987.87 Safari/537.36 SE 2.X MetaSr 1.0","WebKit","Chrome","80.0.3987.87","Windows","10.0","null","<div style=""font-size:60px;"">+</div>","null",""
"","","","","","html-button-response","113","345833","0.0-4.0-1.54","107","1","2022-11-13 16:14:17","a60ee176136a54a92dc2853177adfa2c","175.8.201.165","Mozilla/5.0 (Windows NT 10.0; WOW64) AppleWebKit/537.36 (KHTML, like Gecko) Chrome/80.0.3987.87 Safari/537.36 SE 2.X MetaSr 1.0","WebKit","Chrome","80.0.3987.87","Windows","10.0","3375","<p>作为军队的指挥官，你可以选择发射导弹杀死 <strong>4名</strong> 敌国士兵，但会炸毁附近的 <strong>1棵</strong> 敌国树木。</p> <p>树木的照片如下图所示。</p> <p></p> <img src='stimuli/trees/8.png', style='max-width: 30%;'> </img> <p><strong>你是否选择发射武器？</strong></p>","0",""
"","","","","","html-keyboard-response","114","346836","0.0-4.0-0.55","107","1","2022-11-13 16:14:17","a60ee176136a54a92dc2853177adfa2c","175.8.201.165","Mozilla/5.0 (Windows NT 10.0; WOW64) AppleWebKit/537.36 (KHTML, like Gecko) Chrome/80.0.3987.87 Safari/537.36 SE 2.X MetaSr 1.0","WebKit","Chrome","80.0.3987.87","Windows","10.0","null","<div style=""font-size:60px;"">+</div>","null",""
"","","","","","html-button-response","115","347977","0.0-4.0-1.55","107","1","2022-11-13 16:14:17","a60ee176136a54a92dc2853177adfa2c","175.8.201.165","Mozilla/5.0 (Windows NT 10.0; WOW64) AppleWebKit/537.36 (KHTML, like Gecko) Chrome/80.0.3987.87 Safari/537.36 SE 2.X MetaSr 1.0","WebKit","Chrome","80.0.3987.87","Windows","10.0","1137","<p>作为军队的指挥官，你可以选择发射导弹杀死 <strong>8名</strong> 敌国士兵，但会炸毁附近的 <strong>1棵</strong> 敌国树木。</p> <p>树木的照片如下图所示。</p> <p></p> <img src='stimuli/trees/3.png', style='max-width: 30%;'> </img> <p><strong>你是否选择发射武器？</strong></p>","0",""
"","","","","","html-keyboard-response","116","348981","0.0-4.0-0.56","107","1","2022-11-13 16:14:17","a60ee176136a54a92dc2853177adfa2c","175.8.201.165","Mozilla/5.0 (Windows NT 10.0; WOW64) AppleWebKit/537.36 (KHTML, like Gecko) Chrome/80.0.3987.87 Safari/537.36 SE 2.X MetaSr 1.0","WebKit","Chrome","80.0.3987.87","Windows","10.0","null","<div style=""font-size:60px;"">+</div>","null",""
"","","","","","html-button-response","117","350505","0.0-4.0-1.56","107","1","2022-11-13 16:14:17","a60ee176136a54a92dc2853177adfa2c","175.8.201.165","Mozilla/5.0 (Windows NT 10.0; WOW64) AppleWebKit/537.36 (KHTML, like Gecko) Chrome/80.0.3987.87 Safari/537.36 SE 2.X MetaSr 1.0","WebKit","Chrome","80.0.3987.87","Windows","10.0","1522","<p>作为军队的指挥官，你可以选择发射导弹杀死 <strong>10名</strong> 敌国士兵，但会炸毁附近的 <strong>1棵</strong> 敌国树木。</p> <p>树木的照片如下图所示。</p> <p></p> <img src='stimuli/trees/6.png', style='max-width: 30%;'> </img> <p><strong>你是否选择发射武器？</strong></p>","0",""
"","","","","","html-keyboard-response","118","351509","0.0-4.0-0.57","107","1","2022-11-13 16:14:17","a60ee176136a54a92dc2853177adfa2c","175.8.201.165","Mozilla/5.0 (Windows NT 10.0; WOW64) AppleWebKit/537.36 (KHTML, like Gecko) Chrome/80.0.3987.87 Safari/537.36 SE 2.X MetaSr 1.0","WebKit","Chrome","80.0.3987.87","Windows","10.0","null","<div style=""font-size:60px;"">+</div>","null",""
"","","","","","html-button-response","119","358033","0.0-4.0-1.57","107","1","2022-11-13 16:14:17","a60ee176136a54a92dc2853177adfa2c","175.8.201.165","Mozilla/5.0 (Windows NT 10.0; WOW64) AppleWebKit/537.36 (KHTML, like Gecko) Chrome/80.0.3987.87 Safari/537.36 SE 2.X MetaSr 1.0","WebKit","Chrome","80.0.3987.87","Windows","10.0","6521","<p>作为军队的指挥官，你可以选择发射导弹杀死 <strong>9名</strong> 敌国士兵，但会误杀附近的 <strong>1名</strong> 敌国平民。</p> <p>平民照片如下图所示。</p> <p></p> <img src='stimuli/faces/PCM2.jpg', style='max-width: 30%;'> </img> <p><strong>你是否选择发射武器？</strong></p>","1",""
"","","","","","html-keyboard-response","120","359036","0.0-4.0-0.58","107","1","2022-11-13 16:14:17","a60ee176136a54a92dc2853177adfa2c","175.8.201.165","Mozilla/5.0 (Windows NT 10.0; WOW64) AppleWebKit/537.36 (KHTML, like Gecko) Chrome/80.0.3987.87 Safari/537.36 SE 2.X MetaSr 1.0","WebKit","Chrome","80.0.3987.87","Windows","10.0","null","<div style=""font-size:60px;"">+</div>","null",""
"","","","","","html-button-response","121","360258","0.0-4.0-1.58","107","1","2022-11-13 16:14:17","a60ee176136a54a92dc2853177adfa2c","175.8.201.165","Mozilla/5.0 (Windows NT 10.0; WOW64) AppleWebKit/537.36 (KHTML, like Gecko) Chrome/80.0.3987.87 Safari/537.36 SE 2.X MetaSr 1.0","WebKit","Chrome","80.0.3987.87","Windows","10.0","1219","<p>作为军队的指挥官，你可以选择发射导弹杀死 <strong>5名</strong> 敌国士兵，但会误杀附近的 <strong>1名</strong> 敌国平民。</p> <p>平民照片如下图所示。</p> <p></p> <img src='stimuli/faces/PCF7.jpg', style='max-width: 30%;'> </img> <p><strong>你是否选择发射武器？</strong></p>","1",""
"","","","","","html-keyboard-response","122","361260","0.0-4.0-0.59","107","1","2022-11-13 16:14:17","a60ee176136a54a92dc2853177adfa2c","175.8.201.165","Mozilla/5.0 (Windows NT 10.0; WOW64) AppleWebKit/537.36 (KHTML, like Gecko) Chrome/80.0.3987.87 Safari/537.36 SE 2.X MetaSr 1.0","WebKit","Chrome","80.0.3987.87","Windows","10.0","null","<div style=""font-size:60px;"">+</div>","null",""
"","","","","","html-button-response","123","362777","0.0-4.0-1.59","107","1","2022-11-13 16:14:17","a60ee176136a54a92dc2853177adfa2c","175.8.201.165","Mozilla/5.0 (Windows NT 10.0; WOW64) AppleWebKit/537.36 (KHTML, like Gecko) Chrome/80.0.3987.87 Safari/537.36 SE 2.X MetaSr 1.0","WebKit","Chrome","80.0.3987.87","Windows","10.0","1514","<p>作为军队的指挥官，你可以选择发射导弹杀死 <strong>5名</strong> 敌国士兵，但会误杀附近的 <strong>1名</strong> 敌国平民。</p> <p>平民照片如下图所示。</p> <p></p> <img src='stimuli/faces/PCM6.jpg', style='max-width: 30%;'> </img> <p><strong>你是否选择发射武器？</strong></p>","1",""
"","","","","","html-keyboard-response","124","363780","0.0-4.0-0.60","107","1","2022-11-13 16:14:17","a60ee176136a54a92dc2853177adfa2c","175.8.201.165","Mozilla/5.0 (Windows NT 10.0; WOW64) AppleWebKit/537.36 (KHTML, like Gecko) Chrome/80.0.3987.87 Safari/537.36 SE 2.X MetaSr 1.0","WebKit","Chrome","80.0.3987.87","Windows","10.0","null","<div style=""font-size:60px;"">+</div>","null",""
"","","","","","html-button-response","125","365154","0.0-4.0-1.60","107","1","2022-11-13 16:14:17","a60ee176136a54a92dc2853177adfa2c","175.8.201.165","Mozilla/5.0 (Windows NT 10.0; WOW64) AppleWebKit/537.36 (KHTML, like Gecko) Chrome/80.0.3987.87 Safari/537.36 SE 2.X MetaSr 1.0","WebKit","Chrome","80.0.3987.87","Windows","10.0","1372","<p>作为军队的指挥官，你可以选择发射导弹杀死 <strong>9名</strong> 敌国士兵，但会误杀附近的 <strong>1名</strong> 敌国平民。</p> <p>平民照片如下图所示。</p> <p></p> <img src='stimuli/faces/PCF1.jpg', style='max-width: 30%;'> </img> <p><strong>你是否选择发射武器？</strong></p>","1",""
"","","","","","html-keyboard-response","126","366158","0.0-4.0-0.61","107","1","2022-11-13 16:14:17","a60ee176136a54a92dc2853177adfa2c","175.8.201.165","Mozilla/5.0 (Windows NT 10.0; WOW64) AppleWebKit/537.36 (KHTML, like Gecko) Chrome/80.0.3987.87 Safari/537.36 SE 2.X MetaSr 1.0","WebKit","Chrome","80.0.3987.87","Windows","10.0","null","<div style=""font-size:60px;"">+</div>","null",""
"","","","","","html-button-response","127","367633","0.0-4.0-1.61","107","1","2022-11-13 16:14:17","a60ee176136a54a92dc2853177adfa2c","175.8.201.165","Mozilla/5.0 (Windows NT 10.0; WOW64) AppleWebKit/537.36 (KHTML, like Gecko) Chrome/80.0.3987.87 Safari/537.36 SE 2.X MetaSr 1.0","WebKit","Chrome","80.0.3987.87","Windows","10.0","1472","<p>作为军队的指挥官，你可以选择发射导弹杀死 <strong>2名</strong> 敌国士兵，但会误杀附近的 <strong>1名</strong> 敌国平民。</p> <p>平民照片如下图所示。</p> <p></p> <img src='stimuli/faces/PCM3.jpg', style='max-width: 30%;'> </img> <p><strong>你是否选择发射武器？</strong></p>","1",""
"","","","","","html-keyboard-response","128","368636","0.0-4.0-0.62","107","1","2022-11-13 16:14:17","a60ee176136a54a92dc2853177adfa2c","175.8.201.165","Mozilla/5.0 (Windows NT 10.0; WOW64) AppleWebKit/537.36 (KHTML, like Gecko) Chrome/80.0.3987.87 Safari/537.36 SE 2.X MetaSr 1.0","WebKit","Chrome","80.0.3987.87","Windows","10.0","null","<div style=""font-size:60px;"">+</div>","null",""
"","","","","","html-button-response","129","370521","0.0-4.0-1.62","107","1","2022-11-13 16:14:17","a60ee176136a54a92dc2853177adfa2c","175.8.201.165","Mozilla/5.0 (Windows NT 10.0; WOW64) AppleWebKit/537.36 (KHTML, like Gecko) Chrome/80.0.3987.87 Safari/537.36 SE 2.X MetaSr 1.0","WebKit","Chrome","80.0.3987.87","Windows","10.0","1879","<p>作为军队的指挥官，你可以选择发射导弹杀死 <strong>5名</strong> 敌国士兵，但会误杀附近的 <strong>1名</strong> 敌国平民。</p> <p>平民照片如下图所示。</p> <p></p> <img src='stimuli/faces/PCF5.jpg', style='max-width: 30%;'> </img> <p><strong>你是否选择发射武器？</strong></p>","1",""
"","","","","","html-keyboard-response","130","371524","0.0-4.0-0.63","107","1","2022-11-13 16:14:17","a60ee176136a54a92dc2853177adfa2c","175.8.201.165","Mozilla/5.0 (Windows NT 10.0; WOW64) AppleWebKit/537.36 (KHTML, like Gecko) Chrome/80.0.3987.87 Safari/537.36 SE 2.X MetaSr 1.0","WebKit","Chrome","80.0.3987.87","Windows","10.0","null","<div style=""font-size:60px;"">+</div>","null",""
"","","","","","html-button-response","131","373946","0.0-4.0-1.63","107","1","2022-11-13 16:14:17","a60ee176136a54a92dc2853177adfa2c","175.8.201.165","Mozilla/5.0 (Windows NT 10.0; WOW64) AppleWebKit/537.36 (KHTML, like Gecko) Chrome/80.0.3987.87 Safari/537.36 SE 2.X MetaSr 1.0","WebKit","Chrome","80.0.3987.87","Windows","10.0","2410","<p>作为军队的指挥官，你可以选择发射导弹杀死 <strong>8名</strong> 敌国士兵，但会误杀附近的 <strong>1名</strong> 敌国平民。</p> <p>平民照片如下图所示。</p> <p></p> <img src='stimuli/faces/PCM4.jpg', style='max-width: 30%;'> </img> <p><strong>你是否选择发射武器？</strong></p>","1",""
"","","","","","survey-multi-choice","132","398898","0.0-5.0","107","1","2022-11-13 16:14:17","a60ee176136a54a92dc2853177adfa2c","175.8.201.165","Mozilla/5.0 (Windows NT 10.0; WOW64) AppleWebKit/537.36 (KHTML, like Gecko) Chrome/80.0.3987.87 Safari/537.36 SE 2.X MetaSr 1.0","WebKit","Chrome","80.0.3987.87","Windows","10.0","24949","","{""Attention1"":""""}","[0]"
"","","","","","html-button-response","133","401146","0.0-6.0","107","1","2022-11-13 16:14:17","a60ee176136a54a92dc2853177adfa2c","175.8.201.165","Mozilla/5.0 (Windows NT 10.0; WOW64) AppleWebKit/537.36 (KHTML, like Gecko) Chrome/80.0.3987.87 Safari/537.36 SE 2.X MetaSr 1.0","WebKit","Chrome","80.0.3987.87","Windows","10.0","2242","<p style=""font-size:20px;font-weight:bold;"">恭喜！</p><p>你已经完成了实验的第一部分。</p><p>请休息放松一下，然后进入第二部分。</p><p>这部分大约需要10分钟。</p>","0",""
"","","","","","survey-text","134","538386","0.0-7.0","107","1","2022-11-13 16:14:17","a60ee176136a54a92dc2853177adfa2c","175.8.201.165","Mozilla/5.0 (Windows NT 10.0; WOW64) AppleWebKit/537.36 (KHTML, like Gecko) Chrome/80.0.3987.87 Safari/537.36 SE 2.X MetaSr 1.0","WebKit","Chrome","80.0.3987.87","Windows","10.0","136232","","{""Age"":""29"",""Nation"":""中国"",""Born"":""河南郑州"",""Live"":""湖南长沙"",""Ethnic"":""汉族"",""Alipay"":""1160410999@qq.com""}",""
"","","","","","survey-multi-choice","135","556641","0.0-8.0","107","1","2022-11-13 16:14:17","a60ee176136a54a92dc2853177adfa2c","175.8.201.165","Mozilla/5.0 (Windows NT 10.0; WOW64) AppleWebKit/537.36 (KHTML, like Gecko) Chrome/80.0.3987.87 Safari/537.36 SE 2.X MetaSr 1.0","WebKit","Chrome","80.0.3987.87","Windows","10.0","18253","","{""Gender"":""男"",""Education"":""硕士研究生毕业"",""Income"":""￥35,000-￥69,999"",""Children"":""0"",""Race"":""亚洲人""}","[0,1,2,3,4]"
"","","","","","survey-multi-select","136","565009","0.0-9.0","107","1","2022-11-13 16:14:17","a60ee176136a54a92dc2853177adfa2c","175.8.201.165","Mozilla/5.0 (Windows NT 10.0; WOW64) AppleWebKit/537.36 (KHTML, like Gecko) Chrome/80.0.3987.87 Safari/537.36 SE 2.X MetaSr 1.0","WebKit","Chrome","80.0.3987.87","Windows","10.0","8358","","{""Marriage"":[""未婚""],""Religion"":[""无宗教信仰""]}","[0,1]"
"","","","","","survey-multi-choice","137","605617","0.0-10.0","107","1","2022-11-13 16:14:17","a60ee176136a54a92dc2853177adfa2c","175.8.201.165","Mozilla/5.0 (Windows NT 10.0; WOW64) AppleWebKit/537.36 (KHTML, like Gecko) Chrome/80.0.3987.87 Safari/537.36 SE 2.X MetaSr 1.0","WebKit","Chrome","80.0.3987.87","Windows","10.0","40602","","{""SES"":""2""}","[0]"
"","","","","","html-button-response","138","619145","0.0-11.0","107","1","2022-11-13 16:14:17","a60ee176136a54a92dc2853177adfa2c","175.8.201.165","Mozilla/5.0 (Windows NT 10.0; WOW64) AppleWebKit/537.36 (KHTML, like Gecko) Chrome/80.0.3987.87 Safari/537.36 SE 2.X MetaSr 1.0","WebKit","Chrome","80.0.3987.87","Windows","10.0","13521","<p><strong>请判断下列陈述在多大程度上可以形容你？</p><p> (1 = ""和我一点都不像"" to 5 = ""非常像我"".)</strong></p>","0",""
"","","","","","survey-likert","139","749347","0.0-12.0","107","1","2022-11-13 16:14:17","a60ee176136a54a92dc2853177adfa2c","175.8.201.165","Mozilla/5.0 (Windows NT 10.0; WOW64) AppleWebKit/537.36 (KHTML, like Gecko) Chrome/80.0.3987.87 Safari/537.36 SE 2.X MetaSr 1.0","WebKit","Chrome","80.0.3987.87","Windows","10.0","130198","","{""Aggression1"":0,""Aggression2"":2,""Aggression3"":4,""Aggression4"":0,""Aggression5"":2,""Aggression6"":2,""Aggression7"":3,""Aggression8"":0,""Aggression9"":0}","[0,1,2,3,4,5,6,7,8]"
"","","","","","html-button-response","140","751193","0.0-13.0","107","1","2022-11-13 16:14:17","a60ee176136a54a92dc2853177adfa2c","175.8.201.165","Mozilla/5.0 (Windows NT 10.0; WOW64) AppleWebKit/537.36 (KHTML, like Gecko) Chrome/80.0.3987.87 Safari/537.36 SE 2.X MetaSr 1.0","WebKit","Chrome","80.0.3987.87","Windows","10.0","1838","<p><strong>请判断你在多大程度上同意下列陈述。</strong></p>","0",""
"","","","","","survey-likert","141","846598","0.0-14.0","107","1","2022-11-13 16:14:17","a60ee176136a54a92dc2853177adfa2c","175.8.201.165","Mozilla/5.0 (Windows NT 10.0; WOW64) AppleWebKit/537.36 (KHTML, like Gecko) Chrome/80.0.3987.87 Safari/537.36 SE 2.X MetaSr 1.0","WebKit","Chrome","80.0.3987.87","Windows","10.0","95398","","{""scale1"":0,""scale28"":3,""scale22"":1,""scale5"":3,""scale8"":3,""scale26"":3,""scale27"":1,""scale9"":0,""scale24"":0,""scale16"":1,""scale19"":3,""scale12"":1,""scale25"":1,""scale17"":2,""scale4"":3,""scale6"":3,""scale10"":3,""scale20"":0,""scale21"":4,""scale13"":1,""scale7"":1,""scale11"":3,""scale3"":3,""scale15"":2,""scale23"":2,""scale2"":1,""scale14"":1,""scale18"":1}","[0,27,21,4,7,25,26,8,23,15,18,11,24,16,3,5,9,19,20,12,6,10,2,14,22,1,13,17]"
"","","","","","html-button-response","142","847874","0.0-15.0","107","1","2022-11-13 16:14:17","a60ee176136a54a92dc2853177adfa2c","175.8.201.165","Mozilla/5.0 (Windows NT 10.0; WOW64) AppleWebKit/537.36 (KHTML, like Gecko) Chrome/80.0.3987.87 Safari/537.36 SE 2.X MetaSr 1.0","WebKit","Chrome","80.0.3987.87","Windows","10.0","1269","<p><strong>请判断你在多大程度上同意下列陈述。</strong></p>","0",""
"","","","","","survey-likert","143","908731","0.0-16.0","107","1","2022-11-13 16:14:17","a60ee176136a54a92dc2853177adfa2c","175.8.201.165","Mozilla/5.0 (Windows NT 10.0; WOW64) AppleWebKit/537.36 (KHTML, like Gecko) Chrome/80.0.3987.87 Safari/537.36 SE 2.X MetaSr 1.0","WebKit","Chrome","80.0.3987.87","Windows","10.0","60851","","{""sdo3"":0,""sdo10"":6,""sdo15"":6,""sdo5"":0,""sdo16"":6,""sdo8"":0,""sdo1"":0,""sdo14"":6,""sdo13"":6,""sdo9"":6,""sdo11"":6,""sdo4"":0,""sdo7"":0,""sdo6"":0,""sdo12"":6,""sdo2"":0}","[2,9,14,4,15,7,0,13,12,8,10,3,6,5,11,1]"
"","","","","","html-button-response","144","909881","0.0-17.0","107","1","2022-11-13 16:14:17","a60ee176136a54a92dc2853177adfa2c","175.8.201.165","Mozilla/5.0 (Windows NT 10.0; WOW64) AppleWebKit/537.36 (KHTML, like Gecko) Chrome/80.0.3987.87 Safari/537.36 SE 2.X MetaSr 1.0","WebKit","Chrome","80.0.3987.87","Windows","10.0","1144","<p><strong>请判断你在多大程度上同意下列陈述。</strong></p>","0",""
"","","","","","survey-likert","145","989523","0.0-18.0","107","1","2022-11-13 16:14:17","a60ee176136a54a92dc2853177adfa2c","175.8.201.165","Mozilla/5.0 (Windows NT 10.0; WOW64) AppleWebKit/537.36 (KHTML, like Gecko) Chrome/80.0.3987.87 Safari/537.36 SE 2.X MetaSr 1.0","WebKit","Chrome","80.0.3987.87","Windows","10.0","79638","","{""caring1"":2,""liking1"":1,""caring2"":4,""protection1"":4,""liking2"":2,""caring3"":2,""protection2"":0,""liking3"":3,""protection3"":3,""caring4"":4,""liking4"":2,""protection4"":3,""caring5"":3,""liking5"":2,""protection5"":3}","[0,1,2,3,4,5,6,7,8,9,10,11,12,13,14]"
"","","","","","html-button-response","146","992049","0.0-19.0","107","1","2022-11-13 16:14:17","a60ee176136a54a92dc2853177adfa2c","175.8.201.165","Mozilla/5.0 (Windows NT 10.0; WOW64) AppleWebKit/537.36 (KHTML, like Gecko) Chrome/80.0.3987.87 Safari/537.36 SE 2.X MetaSr 1.0","WebKit","Chrome","80.0.3987.87","Windows","10.0","2520","<p><strong>请判断下列场景中你的内心感受有多柔软。</strong></p>","0",""
"","","","","","survey-likert","147","1017715","0.0-20.0","107","1","2022-11-13 16:14:17","a60ee176136a54a92dc2853177adfa2c","175.8.201.165","Mozilla/5.0 (Windows NT 10.0; WOW64) AppleWebKit/537.36 (KHTML, like Gecko) Chrome/80.0.3987.87 Safari/537.36 SE 2.X MetaSr 1.0","WebKit","Chrome","80.0.3987.87","Windows","10.0","25661","","{""tenderness-positive1"":3,""tenderness-negative1"":3,""tenderness-negative2"":2,""tenderness-positive2"":4,""tenderness-positive3"":4,""tenderness-negative3"":3,""tenderness-positive4"":3,""tenderness-negative4"":3,""tenderness-negative5"":3,""tenderness-positive5"":4}","[0,1,2,3,4,5,6,7,8,9]"
"","","","","","survey-multi-choice","148","1037586","0.0-21.0","107","1","2022-11-13 16:14:17","a60ee176136a54a92dc2853177adfa2c","175.8.201.165","Mozilla/5.0 (Windows NT 10.0; WOW64) AppleWebKit/537.36 (KHTML, like Gecko) Chrome/80.0.3987.87 Safari/537.36 SE 2.X MetaSr 1.0","WebKit","Chrome","80.0.3987.87","Windows","10.0","19863","","{""Attention2"":""其他""}","[0]"
"","","","","","html-button-response","149","1039082","0.0-22.0","107","1","2022-11-13 16:14:17","a60ee176136a54a92dc2853177adfa2c","175.8.201.165","Mozilla/5.0 (Windows NT 10.0; WOW64) AppleWebKit/537.36 (KHTML, like Gecko) Chrome/80.0.3987.87 Safari/537.36 SE 2.X MetaSr 1.0","WebKit","Chrome","80.0.3987.87","Windows","10.0","1489","<p><strong>请判断你在多大程度上同意下列陈述。</strong></p>","0",""
"","","","","","survey-likert","150","1199469","0.0-23.0","107","1","2022-11-13 16:14:17","a60ee176136a54a92dc2853177adfa2c","175.8.201.165","Mozilla/5.0 (Windows NT 10.0; WOW64) AppleWebKit/537.36 (KHTML, like Gecko) Chrome/80.0.3987.87 Safari/537.36 SE 2.X MetaSr 1.0","WebKit","Chrome","80.0.3987.87","Windows","10.0","160380","","{""Patri4"":4,""Nation7"":4,""Patri10"":3,""Nation4"":1,""Nation6"":3,""Patri11"":0,""Patri8"":4,""Patri6"":1,""Patri12"":0,""Nation5"":2,""Patri2"":4,""Patri7"":4,""Nation1"":2,""Patri9"":2,""Nation2"":4,""Nation8"":1,""Patri1"":4,""Patri5"":4,""Nation3"":2,""Patri3"":3}","[3,18,9,15,17,10,7,5,11,16,1,6,12,8,13,19,0,4,14,2]"
"","","","","","html-button-response","151","1200626","0.0-24.0","107","1","2022-11-13 16:14:17","a60ee176136a54a92dc2853177adfa2c","175.8.201.165","Mozilla/5.0 (Windows NT 10.0; WOW64) AppleWebKit/537.36 (KHTML, like Gecko) Chrome/80.0.3987.87 Safari/537.36 SE 2.X MetaSr 1.0","WebKit","Chrome","80.0.3987.87","Windows","10.0","1150","<p><strong>请判断你在多大程度上同意下列陈述。</strong></p>","0",""
"","","","","","survey-likert","152","1242557","0.0-25.0","107","1","2022-11-13 16:14:17","a60ee176136a54a92dc2853177adfa2c","175.8.201.165","Mozilla/5.0 (Windows NT 10.0; WOW64) AppleWebKit/537.36 (KHTML, like Gecko) Chrome/80.0.3987.87 Safari/537.36 SE 2.X MetaSr 1.0","WebKit","Chrome","80.0.3987.87","Windows","10.0","41924","","{""vi4"":4,""hi3"":7,""hi4"":7,""vi2"":6,""vc4"":4,""vc3"":7,""hc4"":2,""hc1"":4,""hc2"":4,""vc2"":7,""vi1"":7,""hc3"":2,""vi3"":7,""hi1"":7,""vc1"":6,""hi2"":7,""Robot"":6}","[8,2,3,5,16,15,12,9,10,14,4,11,6,0,13,1,7]"
"","","","","","survey-text","153","1315049","0.0-26.0","107","1","2022-11-13 16:14:17","a60ee176136a54a92dc2853177adfa2c","175.8.201.165","Mozilla/5.0 (Windows NT 10.0; WOW64) AppleWebKit/537.36 (KHTML, like Gecko) Chrome/80.0.3987.87 Safari/537.36 SE 2.X MetaSr 1.0","WebKit","Chrome","80.0.3987.87","Windows","10.0","72483","","{""Comments"":""有一个问题，存在一个错别字。应是“被”，而不是“背”""}",""
"","","","","","html-button-response","154","1316177","0.0-27.0","107","1","2022-11-13 16:14:17","a60ee176136a54a92dc2853177adfa2c","175.8.201.165","Mozilla/5.0 (Windows NT 10.0; WOW64) AppleWebKit/537.36 (KHTML, like Gecko) Chrome/80.0.3987.87 Safari/537.36 SE 2.X MetaSr 1.0","WebKit","Chrome","80.0.3987.87","Windows","10.0","1125","<strong><p>恭喜你完成了实验！</p><p>感谢您的参与。</p></strong>","0",""
