"success","timeout","failed_images","failed_audio","failed_video","trial_type","trial_index","time_elapsed","internal_node_id","run_id","condition","recorded_at","source_code_version","ip","user_agent","device","browser","browser_version","platform","platform_version","rt","stimulus","response","question_order"
"true","false","[]","[]","[]","preload","0","3531","0.0-0.0","119","1","2022-11-14 03:16:29","a60ee176136a54a92dc2853177adfa2c","117.152.201.42","Mozilla/5.0 (Windows NT 10.0; Win64; x64; rv:106.0) Gecko/20100101 Firefox/106.0","","Firefox","106.0","Windows","10.0","","","",""
"true","","","","","fullscreen","1","8186","0.0-1.0","119","1","2022-11-14 03:16:29","a60ee176136a54a92dc2853177adfa2c","117.152.201.42","Mozilla/5.0 (Windows NT 10.0; Win64; x64; rv:106.0) Gecko/20100101 Firefox/106.0","","Firefox","106.0","Windows","10.0","","","",""
"","","","","","html-button-response","2","15153","0.0-2.0","119","1","2022-11-14 03:16:29","a60ee176136a54a92dc2853177adfa2c","117.152.201.42","Mozilla/5.0 (Windows NT 10.0; Win64; x64; rv:106.0) Gecko/20100101 Firefox/106.0","","Firefox","106.0","Windows","10.0","6965","<p style=""font-size:20px;font-weight:bold;"">实验知情同意书</p><p style=""text-align:left;""><strong>实验名称：</strong>社会冲突研究</p><p style=""text-align:left;""><strong>主要研究者：</strong>韩晓春副教授（北京师范大学心理学部）</p><p style=""text-align:left;""><strong>联系方式：</strong>发送邮件至xiaochun.han@bnu.edu.cn</p><p style=""text-align:left;""><strong>研究目的：</strong>研究旨在了解人类面对群体冲突时的决策方式，以及相关的心理学特质。实验调查大约需要20分钟。</p><p style=""text-align:left;""><strong>实验流程：</strong>实验包含两部分。第一部分呈现一系列群体冲突场景，请你决定如何对这些冲突进行反应，大约需要10分钟完成。第二部分包含一系列人口统计学信息收集和心理学问卷，大约需要10分钟完成。</p><p style=""text-align:left;""><strong>参加及退出规则：</strong>参加本实验完全取决于您的个人意愿。在参与过程中，您可以随时退出，并且不用承担任何后果。</p><p style=""text-align:left;""><strong>隐私：</strong>本实验完全匿名进行，不会收集您的姓名或其他能够识别您身份的信息。实验中收集的作答仅用作科学研究使用，可能会在学术期刊/书籍上发表，或者用于教学，您的数据未来可能会和其他研究者或实验室分享，但您的个人身份不会被识别。</p><p style=""text-align:left;""><strong>实验报酬：</strong>实验完成后，您将获得15元人民币报酬，以感谢您的时间和努力。调查问卷中包含几道题目用以测验您作答时的认真度。只有完成全部实验，并且正确回答认真度测验的被试才能获得实验报酬。实验报酬将通过支付宝转账发放。</p><p style=""text-align:left;font-size:20px;""><strong>如果您同意以上实验知情同意书的内容，请点击'同意并且开始实验'按钮；否则请关闭浏览器界面，退出实验。</strong></p>","0",""
"","","","","","html-button-response","3","26550","0.0-3.0","119","1","2022-11-14 03:16:29","a60ee176136a54a92dc2853177adfa2c","117.152.201.42","Mozilla/5.0 (Windows NT 10.0; Win64; x64; rv:106.0) Gecko/20100101 Firefox/106.0","","Firefox","106.0","Windows","10.0","11396","<p ><strong>实验任务一：</strong></p><p>请想象你的国家与另一个国家发生了军事冲突。</p><p>你是国家军队的指挥官，你将如何在冲突中进行决策。</p><p>具体来说，作为军队指挥官，请你决定是否发射导弹进行打击。</p><p>接下来，你会面对一系列场景，请仔细阅读每个场景，然后进行决策。</p><p>这部分实验任务大约需要10分钟。</p><p><strong>实验过程中，请集中注意力。</strong></p>","0",""
"","","","","","html-keyboard-response","4","27556","0.0-4.0-0.0","119","1","2022-11-14 03:16:29","a60ee176136a54a92dc2853177adfa2c","117.152.201.42","Mozilla/5.0 (Windows NT 10.0; Win64; x64; rv:106.0) Gecko/20100101 Firefox/106.0","","Firefox","106.0","Windows","10.0","null","<div style=""font-size:60px;"">+</div>","null",""
"","","","","","html-button-response","5","41178","0.0-4.0-1.0","119","1","2022-11-14 03:16:29","a60ee176136a54a92dc2853177adfa2c","117.152.201.42","Mozilla/5.0 (Windows NT 10.0; Win64; x64; rv:106.0) Gecko/20100101 Firefox/106.0","","Firefox","106.0","Windows","10.0","13620","<p>作为军队的指挥官，你可以选择发射导弹杀死 <strong>5名</strong> 敌国士兵，但会误杀附近的 <strong>1名</strong> 敌国平民。</p> <p>平民照片如下图所示。</p> <p></p> <img src='stimuli/faces/PCF7.jpg', style='max-width: 30%;'> </img> <p><strong>你是否选择发射武器？</strong></p>","0",""
"","","","","","html-keyboard-response","6","42186","0.0-4.0-0.1","119","1","2022-11-14 03:16:29","a60ee176136a54a92dc2853177adfa2c","117.152.201.42","Mozilla/5.0 (Windows NT 10.0; Win64; x64; rv:106.0) Gecko/20100101 Firefox/106.0","","Firefox","106.0","Windows","10.0","null","<div style=""font-size:60px;"">+</div>","null",""
"","","","","","html-button-response","7","45298","0.0-4.0-1.1","119","1","2022-11-14 03:16:29","a60ee176136a54a92dc2853177adfa2c","117.152.201.42","Mozilla/5.0 (Windows NT 10.0; Win64; x64; rv:106.0) Gecko/20100101 Firefox/106.0","","Firefox","106.0","Windows","10.0","3110","<p>作为军队的指挥官，你可以选择发射导弹杀死 <strong>8名</strong> 敌国士兵，但会误杀附近的 <strong>1名</strong> 敌国平民。</p> <p>平民照片如下图所示。</p> <p></p> <img src='stimuli/faces/PCM2.jpg', style='max-width: 30%;'> </img> <p><strong>你是否选择发射武器？</strong></p>","0",""
"","","","","","html-keyboard-response","8","46305","0.0-4.0-0.2","119","1","2022-11-14 03:16:29","a60ee176136a54a92dc2853177adfa2c","117.152.201.42","Mozilla/5.0 (Windows NT 10.0; Win64; x64; rv:106.0) Gecko/20100101 Firefox/106.0","","Firefox","106.0","Windows","10.0","null","<div style=""font-size:60px;"">+</div>","null",""
"","","","","","html-button-response","9","49410","0.0-4.0-1.2","119","1","2022-11-14 03:16:29","a60ee176136a54a92dc2853177adfa2c","117.152.201.42","Mozilla/5.0 (Windows NT 10.0; Win64; x64; rv:106.0) Gecko/20100101 Firefox/106.0","","Firefox","106.0","Windows","10.0","3104","<p>作为军队的指挥官，你可以选择发射导弹杀死 <strong>4名</strong> 敌国士兵，但会炸毁附近的 <strong>1棵</strong> 敌国树木。</p> <p>树木的照片如下图所示。</p> <p></p> <img src='stimuli/trees/4.png', style='max-width: 30%;'> </img> <p><strong>你是否选择发射武器？</strong></p>","0",""
"","","","","","html-keyboard-response","10","50415","0.0-4.0-0.3","119","1","2022-11-14 03:16:29","a60ee176136a54a92dc2853177adfa2c","117.152.201.42","Mozilla/5.0 (Windows NT 10.0; Win64; x64; rv:106.0) Gecko/20100101 Firefox/106.0","","Firefox","106.0","Windows","10.0","null","<div style=""font-size:60px;"">+</div>","null",""
"","","","","","html-button-response","11","53160","0.0-4.0-1.3","119","1","2022-11-14 03:16:29","a60ee176136a54a92dc2853177adfa2c","117.152.201.42","Mozilla/5.0 (Windows NT 10.0; Win64; x64; rv:106.0) Gecko/20100101 Firefox/106.0","","Firefox","106.0","Windows","10.0","2744","<p>作为军队的指挥官，你可以选择发射导弹杀死 <strong>5名</strong> 敌国士兵，但会炸毁附近的 <strong>1棵</strong> 敌国树木。</p> <p>树木的照片如下图所示。</p> <p></p> <img src='stimuli/trees/8.png', style='max-width: 30%;'> </img> <p><strong>你是否选择发射武器？</strong></p>","0",""
"","","","","","html-keyboard-response","12","54165","0.0-4.0-0.4","119","1","2022-11-14 03:16:29","a60ee176136a54a92dc2853177adfa2c","117.152.201.42","Mozilla/5.0 (Windows NT 10.0; Win64; x64; rv:106.0) Gecko/20100101 Firefox/106.0","","Firefox","106.0","Windows","10.0","null","<div style=""font-size:60px;"">+</div>","null",""
"","","","","","html-button-response","13","58447","0.0-4.0-1.4","119","1","2022-11-14 03:16:29","a60ee176136a54a92dc2853177adfa2c","117.152.201.42","Mozilla/5.0 (Windows NT 10.0; Win64; x64; rv:106.0) Gecko/20100101 Firefox/106.0","","Firefox","106.0","Windows","10.0","4280","<p>作为军队的指挥官，你可以选择发射导弹杀死 <strong>9名</strong> 敌国士兵，但会炸毁附近的 <strong>1棵</strong> 敌国树木。</p> <p>树木的照片如下图所示。</p> <p></p> <img src='stimuli/trees/7.png', style='max-width: 30%;'> </img> <p><strong>你是否选择发射武器？</strong></p>","0",""
"","","","","","html-keyboard-response","14","59457","0.0-4.0-0.5","119","1","2022-11-14 03:16:29","a60ee176136a54a92dc2853177adfa2c","117.152.201.42","Mozilla/5.0 (Windows NT 10.0; Win64; x64; rv:106.0) Gecko/20100101 Firefox/106.0","","Firefox","106.0","Windows","10.0","null","<div style=""font-size:60px;"">+</div>","null",""
"","","","","","html-button-response","15","62550","0.0-4.0-1.5","119","1","2022-11-14 03:16:29","a60ee176136a54a92dc2853177adfa2c","117.152.201.42","Mozilla/5.0 (Windows NT 10.0; Win64; x64; rv:106.0) Gecko/20100101 Firefox/106.0","","Firefox","106.0","Windows","10.0","3093","<p>作为军队的指挥官，你可以选择发射导弹杀死 <strong>9名</strong> 敌国士兵，但会炸毁附近的 <strong>1棵</strong> 敌国树木。</p> <p>树木的照片如下图所示。</p> <p></p> <img src='stimuli/trees/11.png', style='max-width: 30%;'> </img> <p><strong>你是否选择发射武器？</strong></p>","0",""
"","","","","","html-keyboard-response","16","63556","0.0-4.0-0.6","119","1","2022-11-14 03:16:29","a60ee176136a54a92dc2853177adfa2c","117.152.201.42","Mozilla/5.0 (Windows NT 10.0; Win64; x64; rv:106.0) Gecko/20100101 Firefox/106.0","","Firefox","106.0","Windows","10.0","null","<div style=""font-size:60px;"">+</div>","null",""
"","","","","","html-button-response","17","69181","0.0-4.0-1.6","119","1","2022-11-14 03:16:29","a60ee176136a54a92dc2853177adfa2c","117.152.201.42","Mozilla/5.0 (Windows NT 10.0; Win64; x64; rv:106.0) Gecko/20100101 Firefox/106.0","","Firefox","106.0","Windows","10.0","5623","<p>作为军队的指挥官，你可以选择发射导弹杀死 <strong>5名</strong> 敌国士兵，但会误杀附近的 <strong>1名</strong> 敌国平民。</p> <p>平民照片如下图所示。</p> <p></p> <img src='stimuli/faces/PCM6.jpg', style='max-width: 30%;'> </img> <p><strong>你是否选择发射武器？</strong></p>","0",""
"","","","","","html-keyboard-response","18","70186","0.0-4.0-0.7","119","1","2022-11-14 03:16:29","a60ee176136a54a92dc2853177adfa2c","117.152.201.42","Mozilla/5.0 (Windows NT 10.0; Win64; x64; rv:106.0) Gecko/20100101 Firefox/106.0","","Firefox","106.0","Windows","10.0","null","<div style=""font-size:60px;"">+</div>","null",""
"","","","","","html-button-response","19","72335","0.0-4.0-1.7","119","1","2022-11-14 03:16:29","a60ee176136a54a92dc2853177adfa2c","117.152.201.42","Mozilla/5.0 (Windows NT 10.0; Win64; x64; rv:106.0) Gecko/20100101 Firefox/106.0","","Firefox","106.0","Windows","10.0","2146","<p>作为军队的指挥官，你可以选择发射导弹杀死 <strong>1名</strong> 敌国士兵，但会炸毁附近的 <strong>1棵</strong> 敌国树木。</p> <p>树木的照片如下图所示。</p> <p></p> <img src='stimuli/trees/2.png', style='max-width: 30%;'> </img> <p><strong>你是否选择发射武器？</strong></p>","0",""
"","","","","","html-keyboard-response","20","73347","0.0-4.0-0.8","119","1","2022-11-14 03:16:29","a60ee176136a54a92dc2853177adfa2c","117.152.201.42","Mozilla/5.0 (Windows NT 10.0; Win64; x64; rv:106.0) Gecko/20100101 Firefox/106.0","","Firefox","106.0","Windows","10.0","null","<div style=""font-size:60px;"">+</div>","null",""
"","","","","","html-button-response","21","76693","0.0-4.0-1.8","119","1","2022-11-14 03:16:29","a60ee176136a54a92dc2853177adfa2c","117.152.201.42","Mozilla/5.0 (Windows NT 10.0; Win64; x64; rv:106.0) Gecko/20100101 Firefox/106.0","","Firefox","106.0","Windows","10.0","3344","<p>作为军队的指挥官，你可以选择发射导弹杀死 <strong>10名</strong> 敌国士兵，但会炸毁附近的 <strong>1棵</strong> 敌国树木。</p> <p>树木的照片如下图所示。</p> <p></p> <img src='stimuli/trees/9.png', style='max-width: 30%;'> </img> <p><strong>你是否选择发射武器？</strong></p>","0",""
"","","","","","html-keyboard-response","22","77706","0.0-4.0-0.9","119","1","2022-11-14 03:16:29","a60ee176136a54a92dc2853177adfa2c","117.152.201.42","Mozilla/5.0 (Windows NT 10.0; Win64; x64; rv:106.0) Gecko/20100101 Firefox/106.0","","Firefox","106.0","Windows","10.0","null","<div style=""font-size:60px;"">+</div>","null",""
"","","","","","html-button-response","23","80828","0.0-4.0-1.9","119","1","2022-11-14 03:16:29","a60ee176136a54a92dc2853177adfa2c","117.152.201.42","Mozilla/5.0 (Windows NT 10.0; Win64; x64; rv:106.0) Gecko/20100101 Firefox/106.0","","Firefox","106.0","Windows","10.0","3120","<p>作为军队的指挥官，你可以选择发射导弹杀死 <strong>4名</strong> 敌国士兵，但会炸毁附近的 <strong>1棵</strong> 敌国树木。</p> <p>树木的照片如下图所示。</p> <p></p> <img src='stimuli/trees/15.png', style='max-width: 30%;'> </img> <p><strong>你是否选择发射武器？</strong></p>","0",""
"","","","","","html-keyboard-response","24","81836","0.0-4.0-0.10","119","1","2022-11-14 03:16:29","a60ee176136a54a92dc2853177adfa2c","117.152.201.42","Mozilla/5.0 (Windows NT 10.0; Win64; x64; rv:106.0) Gecko/20100101 Firefox/106.0","","Firefox","106.0","Windows","10.0","null","<div style=""font-size:60px;"">+</div>","null",""
"","","","","","html-button-response","25","83617","0.0-4.0-1.10","119","1","2022-11-14 03:16:29","a60ee176136a54a92dc2853177adfa2c","117.152.201.42","Mozilla/5.0 (Windows NT 10.0; Win64; x64; rv:106.0) Gecko/20100101 Firefox/106.0","","Firefox","106.0","Windows","10.0","1778","<p>作为军队的指挥官，你可以选择发射导弹杀死 <strong>7名</strong> 敌国士兵，但会误杀附近的 <strong>1名</strong> 敌国平民。</p> <p>平民照片如下图所示。</p> <p></p> <img src='stimuli/faces/PCM6.jpg', style='max-width: 30%;'> </img> <p><strong>你是否选择发射武器？</strong></p>","0",""
"","","","","","html-keyboard-response","26","84626","0.0-4.0-0.11","119","1","2022-11-14 03:16:29","a60ee176136a54a92dc2853177adfa2c","117.152.201.42","Mozilla/5.0 (Windows NT 10.0; Win64; x64; rv:106.0) Gecko/20100101 Firefox/106.0","","Firefox","106.0","Windows","10.0","null","<div style=""font-size:60px;"">+</div>","null",""
"","","","","","html-button-response","27","88271","0.0-4.0-1.11","119","1","2022-11-14 03:16:29","a60ee176136a54a92dc2853177adfa2c","117.152.201.42","Mozilla/5.0 (Windows NT 10.0; Win64; x64; rv:106.0) Gecko/20100101 Firefox/106.0","","Firefox","106.0","Windows","10.0","3643","<p>作为军队的指挥官，你可以选择发射导弹杀死 <strong>10名</strong> 敌国士兵，但会误杀附近的 <strong>1名</strong> 敌国平民。</p> <p>平民照片如下图所示。</p> <p></p> <img src='stimuli/faces/PCM4.jpg', style='max-width: 30%;'> </img> <p><strong>你是否选择发射武器？</strong></p>","0",""
"","","","","","html-keyboard-response","28","89277","0.0-4.0-0.12","119","1","2022-11-14 03:16:29","a60ee176136a54a92dc2853177adfa2c","117.152.201.42","Mozilla/5.0 (Windows NT 10.0; Win64; x64; rv:106.0) Gecko/20100101 Firefox/106.0","","Firefox","106.0","Windows","10.0","null","<div style=""font-size:60px;"">+</div>","null",""
"","","","","","html-button-response","29","91680","0.0-4.0-1.12","119","1","2022-11-14 03:16:29","a60ee176136a54a92dc2853177adfa2c","117.152.201.42","Mozilla/5.0 (Windows NT 10.0; Win64; x64; rv:106.0) Gecko/20100101 Firefox/106.0","","Firefox","106.0","Windows","10.0","2398","<p>作为军队的指挥官，你可以选择发射导弹杀死 <strong>5名</strong> 敌国士兵，但会误杀附近的 <strong>1名</strong> 敌国平民。</p> <p>平民照片如下图所示。</p> <p></p> <img src='stimuli/faces/PCF4.jpg', style='max-width: 30%;'> </img> <p><strong>你是否选择发射武器？</strong></p>","0",""
"","","","","","html-keyboard-response","30","92686","0.0-4.0-0.13","119","1","2022-11-14 03:16:29","a60ee176136a54a92dc2853177adfa2c","117.152.201.42","Mozilla/5.0 (Windows NT 10.0; Win64; x64; rv:106.0) Gecko/20100101 Firefox/106.0","","Firefox","106.0","Windows","10.0","null","<div style=""font-size:60px;"">+</div>","null",""
"","","","","","html-button-response","31","95490","0.0-4.0-1.13","119","1","2022-11-14 03:16:29","a60ee176136a54a92dc2853177adfa2c","117.152.201.42","Mozilla/5.0 (Windows NT 10.0; Win64; x64; rv:106.0) Gecko/20100101 Firefox/106.0","","Firefox","106.0","Windows","10.0","2803","<p>作为军队的指挥官，你可以选择发射导弹杀死 <strong>2名</strong> 敌国士兵，但会误杀附近的 <strong>1名</strong> 敌国平民。</p> <p>平民照片如下图所示。</p> <p></p> <img src='stimuli/faces/PCM3.jpg', style='max-width: 30%;'> </img> <p><strong>你是否选择发射武器？</strong></p>","0",""
"","","","","","html-keyboard-response","32","96496","0.0-4.0-0.14","119","1","2022-11-14 03:16:29","a60ee176136a54a92dc2853177adfa2c","117.152.201.42","Mozilla/5.0 (Windows NT 10.0; Win64; x64; rv:106.0) Gecko/20100101 Firefox/106.0","","Firefox","106.0","Windows","10.0","null","<div style=""font-size:60px;"">+</div>","null",""
"","","","","","html-button-response","33","98001","0.0-4.0-1.14","119","1","2022-11-14 03:16:29","a60ee176136a54a92dc2853177adfa2c","117.152.201.42","Mozilla/5.0 (Windows NT 10.0; Win64; x64; rv:106.0) Gecko/20100101 Firefox/106.0","","Firefox","106.0","Windows","10.0","1501","<p>作为军队的指挥官，你可以选择发射导弹杀死 <strong>4名</strong> 敌国士兵，但会误杀附近的 <strong>1名</strong> 敌国平民。</p> <p>平民照片如下图所示。</p> <p></p> <img src='stimuli/faces/PCM1.jpg', style='max-width: 30%;'> </img> <p><strong>你是否选择发射武器？</strong></p>","0",""
"","","","","","html-keyboard-response","34","99007","0.0-4.0-0.15","119","1","2022-11-14 03:16:29","a60ee176136a54a92dc2853177adfa2c","117.152.201.42","Mozilla/5.0 (Windows NT 10.0; Win64; x64; rv:106.0) Gecko/20100101 Firefox/106.0","","Firefox","106.0","Windows","10.0","null","<div style=""font-size:60px;"">+</div>","null",""
"","","","","","html-button-response","35","100280","0.0-4.0-1.15","119","1","2022-11-14 03:16:29","a60ee176136a54a92dc2853177adfa2c","117.152.201.42","Mozilla/5.0 (Windows NT 10.0; Win64; x64; rv:106.0) Gecko/20100101 Firefox/106.0","","Firefox","106.0","Windows","10.0","1272","<p>作为军队的指挥官，你可以选择发射导弹杀死 <strong>1名</strong> 敌国士兵，但会误杀附近的 <strong>1名</strong> 敌国平民。</p> <p>平民照片如下图所示。</p> <p></p> <img src='stimuli/faces/PCF6.jpg', style='max-width: 30%;'> </img> <p><strong>你是否选择发射武器？</strong></p>","0",""
"","","","","","html-keyboard-response","36","101286","0.0-4.0-0.16","119","1","2022-11-14 03:16:29","a60ee176136a54a92dc2853177adfa2c","117.152.201.42","Mozilla/5.0 (Windows NT 10.0; Win64; x64; rv:106.0) Gecko/20100101 Firefox/106.0","","Firefox","106.0","Windows","10.0","null","<div style=""font-size:60px;"">+</div>","null",""
"","","","","","html-button-response","37","102984","0.0-4.0-1.16","119","1","2022-11-14 03:16:29","a60ee176136a54a92dc2853177adfa2c","117.152.201.42","Mozilla/5.0 (Windows NT 10.0; Win64; x64; rv:106.0) Gecko/20100101 Firefox/106.0","","Firefox","106.0","Windows","10.0","1697","<p>作为军队的指挥官，你可以选择发射导弹杀死 <strong>9名</strong> 敌国士兵，但会误杀附近的 <strong>1名</strong> 敌国平民。</p> <p>平民照片如下图所示。</p> <p></p> <img src='stimuli/faces/PCF7.jpg', style='max-width: 30%;'> </img> <p><strong>你是否选择发射武器？</strong></p>","0",""
"","","","","","html-keyboard-response","38","103986","0.0-4.0-0.17","119","1","2022-11-14 03:16:29","a60ee176136a54a92dc2853177adfa2c","117.152.201.42","Mozilla/5.0 (Windows NT 10.0; Win64; x64; rv:106.0) Gecko/20100101 Firefox/106.0","","Firefox","106.0","Windows","10.0","null","<div style=""font-size:60px;"">+</div>","null",""
"","","","","","html-button-response","39","108960","0.0-4.0-1.17","119","1","2022-11-14 03:16:29","a60ee176136a54a92dc2853177adfa2c","117.152.201.42","Mozilla/5.0 (Windows NT 10.0; Win64; x64; rv:106.0) Gecko/20100101 Firefox/106.0","","Firefox","106.0","Windows","10.0","4970","<p>作为军队的指挥官，你可以选择发射导弹杀死 <strong>1名</strong> 敌国士兵，但会炸毁附近的 <strong>1棵</strong> 敌国树木。</p> <p>树木的照片如下图所示。</p> <p></p> <img src='stimuli/trees/3.png', style='max-width: 30%;'> </img> <p><strong>你是否选择发射武器？</strong></p>","1",""
"","","","","","html-keyboard-response","40","109966","0.0-4.0-0.18","119","1","2022-11-14 03:16:29","a60ee176136a54a92dc2853177adfa2c","117.152.201.42","Mozilla/5.0 (Windows NT 10.0; Win64; x64; rv:106.0) Gecko/20100101 Firefox/106.0","","Firefox","106.0","Windows","10.0","null","<div style=""font-size:60px;"">+</div>","null",""
"","","","","","html-button-response","41","111773","0.0-4.0-1.18","119","1","2022-11-14 03:16:29","a60ee176136a54a92dc2853177adfa2c","117.152.201.42","Mozilla/5.0 (Windows NT 10.0; Win64; x64; rv:106.0) Gecko/20100101 Firefox/106.0","","Firefox","106.0","Windows","10.0","1801","<p>作为军队的指挥官，你可以选择发射导弹杀死 <strong>10名</strong> 敌国士兵，但会炸毁附近的 <strong>1棵</strong> 敌国树木。</p> <p>树木的照片如下图所示。</p> <p></p> <img src='stimuli/trees/5.png', style='max-width: 30%;'> </img> <p><strong>你是否选择发射武器？</strong></p>","0",""
"","","","","","html-keyboard-response","42","112785","0.0-4.0-0.19","119","1","2022-11-14 03:16:29","a60ee176136a54a92dc2853177adfa2c","117.152.201.42","Mozilla/5.0 (Windows NT 10.0; Win64; x64; rv:106.0) Gecko/20100101 Firefox/106.0","","Firefox","106.0","Windows","10.0","null","<div style=""font-size:60px;"">+</div>","null",""
"","","","","","html-button-response","43","114471","0.0-4.0-1.19","119","1","2022-11-14 03:16:29","a60ee176136a54a92dc2853177adfa2c","117.152.201.42","Mozilla/5.0 (Windows NT 10.0; Win64; x64; rv:106.0) Gecko/20100101 Firefox/106.0","","Firefox","106.0","Windows","10.0","1682","<p>作为军队的指挥官，你可以选择发射导弹杀死 <strong>10名</strong> 敌国士兵，但会误杀附近的 <strong>1名</strong> 敌国平民。</p> <p>平民照片如下图所示。</p> <p></p> <img src='stimuli/faces/PCF6.jpg', style='max-width: 30%;'> </img> <p><strong>你是否选择发射武器？</strong></p>","0",""
"","","","","","html-keyboard-response","44","115477","0.0-4.0-0.20","119","1","2022-11-14 03:16:29","a60ee176136a54a92dc2853177adfa2c","117.152.201.42","Mozilla/5.0 (Windows NT 10.0; Win64; x64; rv:106.0) Gecko/20100101 Firefox/106.0","","Firefox","106.0","Windows","10.0","null","<div style=""font-size:60px;"">+</div>","null",""
"","","","","","html-button-response","45","117819","0.0-4.0-1.20","119","1","2022-11-14 03:16:29","a60ee176136a54a92dc2853177adfa2c","117.152.201.42","Mozilla/5.0 (Windows NT 10.0; Win64; x64; rv:106.0) Gecko/20100101 Firefox/106.0","","Firefox","106.0","Windows","10.0","2339","<p>作为军队的指挥官，你可以选择发射导弹杀死 <strong>7名</strong> 敌国士兵，但会炸毁附近的 <strong>1棵</strong> 敌国树木。</p> <p>树木的照片如下图所示。</p> <p></p> <img src='stimuli/trees/16.png', style='max-width: 30%;'> </img> <p><strong>你是否选择发射武器？</strong></p>","0",""
"","","","","","html-keyboard-response","46","118825","0.0-4.0-0.21","119","1","2022-11-14 03:16:29","a60ee176136a54a92dc2853177adfa2c","117.152.201.42","Mozilla/5.0 (Windows NT 10.0; Win64; x64; rv:106.0) Gecko/20100101 Firefox/106.0","","Firefox","106.0","Windows","10.0","null","<div style=""font-size:60px;"">+</div>","null",""
"","","","","","html-button-response","47","120259","0.0-4.0-1.21","119","1","2022-11-14 03:16:29","a60ee176136a54a92dc2853177adfa2c","117.152.201.42","Mozilla/5.0 (Windows NT 10.0; Win64; x64; rv:106.0) Gecko/20100101 Firefox/106.0","","Firefox","106.0","Windows","10.0","1432","<p>作为军队的指挥官，你可以选择发射导弹杀死 <strong>5名</strong> 敌国士兵，但会误杀附近的 <strong>1名</strong> 敌国平民。</p> <p>平民照片如下图所示。</p> <p></p> <img src='stimuli/faces/PCM4.jpg', style='max-width: 30%;'> </img> <p><strong>你是否选择发射武器？</strong></p>","0",""
"","","","","","html-keyboard-response","48","121267","0.0-4.0-0.22","119","1","2022-11-14 03:16:29","a60ee176136a54a92dc2853177adfa2c","117.152.201.42","Mozilla/5.0 (Windows NT 10.0; Win64; x64; rv:106.0) Gecko/20100101 Firefox/106.0","","Firefox","106.0","Windows","10.0","null","<div style=""font-size:60px;"">+</div>","null",""
"","","","","","html-button-response","49","123134","0.0-4.0-1.22","119","1","2022-11-14 03:16:29","a60ee176136a54a92dc2853177adfa2c","117.152.201.42","Mozilla/5.0 (Windows NT 10.0; Win64; x64; rv:106.0) Gecko/20100101 Firefox/106.0","","Firefox","106.0","Windows","10.0","1864","<p>作为军队的指挥官，你可以选择发射导弹杀死 <strong>7名</strong> 敌国士兵，但会误杀附近的 <strong>1名</strong> 敌国平民。</p> <p>平民照片如下图所示。</p> <p></p> <img src='stimuli/faces/PCF4.jpg', style='max-width: 30%;'> </img> <p><strong>你是否选择发射武器？</strong></p>","0",""
"","","","","","html-keyboard-response","50","124147","0.0-4.0-0.23","119","1","2022-11-14 03:16:29","a60ee176136a54a92dc2853177adfa2c","117.152.201.42","Mozilla/5.0 (Windows NT 10.0; Win64; x64; rv:106.0) Gecko/20100101 Firefox/106.0","","Firefox","106.0","Windows","10.0","null","<div style=""font-size:60px;"">+</div>","null",""
"","","","","","html-button-response","51","126904","0.0-4.0-1.23","119","1","2022-11-14 03:16:29","a60ee176136a54a92dc2853177adfa2c","117.152.201.42","Mozilla/5.0 (Windows NT 10.0; Win64; x64; rv:106.0) Gecko/20100101 Firefox/106.0","","Firefox","106.0","Windows","10.0","2753","<p>作为军队的指挥官，你可以选择发射导弹杀死 <strong>3名</strong> 敌国士兵，但会炸毁附近的 <strong>1棵</strong> 敌国树木。</p> <p>树木的照片如下图所示。</p> <p></p> <img src='stimuli/trees/13.png', style='max-width: 30%;'> </img> <p><strong>你是否选择发射武器？</strong></p>","0",""
"","","","","","html-keyboard-response","52","127916","0.0-4.0-0.24","119","1","2022-11-14 03:16:29","a60ee176136a54a92dc2853177adfa2c","117.152.201.42","Mozilla/5.0 (Windows NT 10.0; Win64; x64; rv:106.0) Gecko/20100101 Firefox/106.0","","Firefox","106.0","Windows","10.0","null","<div style=""font-size:60px;"">+</div>","null",""
"","","","","","html-button-response","53","129501","0.0-4.0-1.24","119","1","2022-11-14 03:16:29","a60ee176136a54a92dc2853177adfa2c","117.152.201.42","Mozilla/5.0 (Windows NT 10.0; Win64; x64; rv:106.0) Gecko/20100101 Firefox/106.0","","Firefox","106.0","Windows","10.0","1582","<p>作为军队的指挥官，你可以选择发射导弹杀死 <strong>4名</strong> 敌国士兵，但会误杀附近的 <strong>1名</strong> 敌国平民。</p> <p>平民照片如下图所示。</p> <p></p> <img src='stimuli/faces/PCF5.jpg', style='max-width: 30%;'> </img> <p><strong>你是否选择发射武器？</strong></p>","0",""
"","","","","","html-keyboard-response","54","130506","0.0-4.0-0.25","119","1","2022-11-14 03:16:29","a60ee176136a54a92dc2853177adfa2c","117.152.201.42","Mozilla/5.0 (Windows NT 10.0; Win64; x64; rv:106.0) Gecko/20100101 Firefox/106.0","","Firefox","106.0","Windows","10.0","null","<div style=""font-size:60px;"">+</div>","null",""
"","","","","","html-button-response","55","132020","0.0-4.0-1.25","119","1","2022-11-14 03:16:29","a60ee176136a54a92dc2853177adfa2c","117.152.201.42","Mozilla/5.0 (Windows NT 10.0; Win64; x64; rv:106.0) Gecko/20100101 Firefox/106.0","","Firefox","106.0","Windows","10.0","1514","<p>作为军队的指挥官，你可以选择发射导弹杀死 <strong>9名</strong> 敌国士兵，但会误杀附近的 <strong>1名</strong> 敌国平民。</p> <p>平民照片如下图所示。</p> <p></p> <img src='stimuli/faces/PCF8.jpg', style='max-width: 30%;'> </img> <p><strong>你是否选择发射武器？</strong></p>","0",""
"","","","","","html-keyboard-response","56","133027","0.0-4.0-0.26","119","1","2022-11-14 03:16:29","a60ee176136a54a92dc2853177adfa2c","117.152.201.42","Mozilla/5.0 (Windows NT 10.0; Win64; x64; rv:106.0) Gecko/20100101 Firefox/106.0","","Firefox","106.0","Windows","10.0","null","<div style=""font-size:60px;"">+</div>","null",""
"","","","","","html-button-response","57","134415","0.0-4.0-1.26","119","1","2022-11-14 03:16:29","a60ee176136a54a92dc2853177adfa2c","117.152.201.42","Mozilla/5.0 (Windows NT 10.0; Win64; x64; rv:106.0) Gecko/20100101 Firefox/106.0","","Firefox","106.0","Windows","10.0","1385","<p>作为军队的指挥官，你可以选择发射导弹杀死 <strong>7名</strong> 敌国士兵，但会误杀附近的 <strong>1名</strong> 敌国平民。</p> <p>平民照片如下图所示。</p> <p></p> <img src='stimuli/faces/PCM8.jpg', style='max-width: 30%;'> </img> <p><strong>你是否选择发射武器？</strong></p>","0",""
"","","","","","html-keyboard-response","58","135427","0.0-4.0-0.27","119","1","2022-11-14 03:16:29","a60ee176136a54a92dc2853177adfa2c","117.152.201.42","Mozilla/5.0 (Windows NT 10.0; Win64; x64; rv:106.0) Gecko/20100101 Firefox/106.0","","Firefox","106.0","Windows","10.0","null","<div style=""font-size:60px;"">+</div>","null",""
"","","","","","html-button-response","59","137570","0.0-4.0-1.27","119","1","2022-11-14 03:16:29","a60ee176136a54a92dc2853177adfa2c","117.152.201.42","Mozilla/5.0 (Windows NT 10.0; Win64; x64; rv:106.0) Gecko/20100101 Firefox/106.0","","Firefox","106.0","Windows","10.0","2133","<p>作为军队的指挥官，你可以选择发射导弹杀死 <strong>8名</strong> 敌国士兵，但会炸毁附近的 <strong>1棵</strong> 敌国树木。</p> <p>树木的照片如下图所示。</p> <p></p> <img src='stimuli/trees/3.png', style='max-width: 30%;'> </img> <p><strong>你是否选择发射武器？</strong></p>","0",""
"","","","","","html-keyboard-response","60","138576","0.0-4.0-0.28","119","1","2022-11-14 03:16:29","a60ee176136a54a92dc2853177adfa2c","117.152.201.42","Mozilla/5.0 (Windows NT 10.0; Win64; x64; rv:106.0) Gecko/20100101 Firefox/106.0","","Firefox","106.0","Windows","10.0","null","<div style=""font-size:60px;"">+</div>","null",""
"","","","","","html-button-response","61","145135","0.0-4.0-1.28","119","1","2022-11-14 03:16:29","a60ee176136a54a92dc2853177adfa2c","117.152.201.42","Mozilla/5.0 (Windows NT 10.0; Win64; x64; rv:106.0) Gecko/20100101 Firefox/106.0","","Firefox","106.0","Windows","10.0","6555","<p>作为军队的指挥官，你可以选择发射导弹杀死 <strong>1名</strong> 敌国士兵，但会误杀附近的 <strong>1名</strong> 敌国平民。</p> <p>平民照片如下图所示。</p> <p></p> <img src='stimuli/faces/PCM2.jpg', style='max-width: 30%;'> </img> <p><strong>你是否选择发射武器？</strong></p>","1",""
"","","","","","html-keyboard-response","62","146149","0.0-4.0-0.29","119","1","2022-11-14 03:16:29","a60ee176136a54a92dc2853177adfa2c","117.152.201.42","Mozilla/5.0 (Windows NT 10.0; Win64; x64; rv:106.0) Gecko/20100101 Firefox/106.0","","Firefox","106.0","Windows","10.0","null","<div style=""font-size:60px;"">+</div>","null",""
"","","","","","html-button-response","63","148311","0.0-4.0-1.29","119","1","2022-11-14 03:16:29","a60ee176136a54a92dc2853177adfa2c","117.152.201.42","Mozilla/5.0 (Windows NT 10.0; Win64; x64; rv:106.0) Gecko/20100101 Firefox/106.0","","Firefox","106.0","Windows","10.0","2159","<p>作为军队的指挥官，你可以选择发射导弹杀死 <strong>3名</strong> 敌国士兵，但会炸毁附近的 <strong>1棵</strong> 敌国树木。</p> <p>树木的照片如下图所示。</p> <p></p> <img src='stimuli/trees/5.png', style='max-width: 30%;'> </img> <p><strong>你是否选择发射武器？</strong></p>","0",""
"","","","","","html-keyboard-response","64","149316","0.0-4.0-0.30","119","1","2022-11-14 03:16:29","a60ee176136a54a92dc2853177adfa2c","117.152.201.42","Mozilla/5.0 (Windows NT 10.0; Win64; x64; rv:106.0) Gecko/20100101 Firefox/106.0","","Firefox","106.0","Windows","10.0","null","<div style=""font-size:60px;"">+</div>","null",""
"","","","","","html-button-response","65","150650","0.0-4.0-1.30","119","1","2022-11-14 03:16:29","a60ee176136a54a92dc2853177adfa2c","117.152.201.42","Mozilla/5.0 (Windows NT 10.0; Win64; x64; rv:106.0) Gecko/20100101 Firefox/106.0","","Firefox","106.0","Windows","10.0","1326","<p>作为军队的指挥官，你可以选择发射导弹杀死 <strong>3名</strong> 敌国士兵，但会炸毁附近的 <strong>1棵</strong> 敌国树木。</p> <p>树木的照片如下图所示。</p> <p></p> <img src='stimuli/trees/7.png', style='max-width: 30%;'> </img> <p><strong>你是否选择发射武器？</strong></p>","0",""
"","","","","","html-keyboard-response","66","151655","0.0-4.0-0.31","119","1","2022-11-14 03:16:29","a60ee176136a54a92dc2853177adfa2c","117.152.201.42","Mozilla/5.0 (Windows NT 10.0; Win64; x64; rv:106.0) Gecko/20100101 Firefox/106.0","","Firefox","106.0","Windows","10.0","null","<div style=""font-size:60px;"">+</div>","null",""
"","","","","","html-button-response","67","157152","0.0-4.0-1.31","119","1","2022-11-14 03:16:29","a60ee176136a54a92dc2853177adfa2c","117.152.201.42","Mozilla/5.0 (Windows NT 10.0; Win64; x64; rv:106.0) Gecko/20100101 Firefox/106.0","","Firefox","106.0","Windows","10.0","5492","<p>作为军队的指挥官，你可以选择发射导弹杀死 <strong>1名</strong> 敌国士兵，但会炸毁附近的 <strong>1棵</strong> 敌国树木。</p> <p>树木的照片如下图所示。</p> <p></p> <img src='stimuli/trees/16.png', style='max-width: 30%;'> </img> <p><strong>你是否选择发射武器？</strong></p>","1",""
"","","","","","html-keyboard-response","68","158157","0.0-4.0-0.32","119","1","2022-11-14 03:16:29","a60ee176136a54a92dc2853177adfa2c","117.152.201.42","Mozilla/5.0 (Windows NT 10.0; Win64; x64; rv:106.0) Gecko/20100101 Firefox/106.0","","Firefox","106.0","Windows","10.0","null","<div style=""font-size:60px;"">+</div>","null",""
"","","","","","html-button-response","69","159801","0.0-4.0-1.32","119","1","2022-11-14 03:16:29","a60ee176136a54a92dc2853177adfa2c","117.152.201.42","Mozilla/5.0 (Windows NT 10.0; Win64; x64; rv:106.0) Gecko/20100101 Firefox/106.0","","Firefox","106.0","Windows","10.0","1639","<p>作为军队的指挥官，你可以选择发射导弹杀死 <strong>4名</strong> 敌国士兵，但会炸毁附近的 <strong>1棵</strong> 敌国树木。</p> <p>树木的照片如下图所示。</p> <p></p> <img src='stimuli/trees/1.png', style='max-width: 30%;'> </img> <p><strong>你是否选择发射武器？</strong></p>","0",""
"","","","","","html-keyboard-response","70","160816","0.0-4.0-0.33","119","1","2022-11-14 03:16:29","a60ee176136a54a92dc2853177adfa2c","117.152.201.42","Mozilla/5.0 (Windows NT 10.0; Win64; x64; rv:106.0) Gecko/20100101 Firefox/106.0","","Firefox","106.0","Windows","10.0","null","<div style=""font-size:60px;"">+</div>","null",""
"","","","","","html-button-response","71","161875","0.0-4.0-1.33","119","1","2022-11-14 03:16:29","a60ee176136a54a92dc2853177adfa2c","117.152.201.42","Mozilla/5.0 (Windows NT 10.0; Win64; x64; rv:106.0) Gecko/20100101 Firefox/106.0","","Firefox","106.0","Windows","10.0","1054","<p>作为军队的指挥官，你可以选择发射导弹杀死 <strong>6名</strong> 敌国士兵，但会炸毁附近的 <strong>1棵</strong> 敌国树木。</p> <p>树木的照片如下图所示。</p> <p></p> <img src='stimuli/trees/15.png', style='max-width: 30%;'> </img> <p><strong>你是否选择发射武器？</strong></p>","0",""
"","","","","","html-keyboard-response","72","162886","0.0-4.0-0.34","119","1","2022-11-14 03:16:29","a60ee176136a54a92dc2853177adfa2c","117.152.201.42","Mozilla/5.0 (Windows NT 10.0; Win64; x64; rv:106.0) Gecko/20100101 Firefox/106.0","","Firefox","106.0","Windows","10.0","null","<div style=""font-size:60px;"">+</div>","null",""
"","","","","","html-button-response","73","167250","0.0-4.0-1.34","119","1","2022-11-14 03:16:29","a60ee176136a54a92dc2853177adfa2c","117.152.201.42","Mozilla/5.0 (Windows NT 10.0; Win64; x64; rv:106.0) Gecko/20100101 Firefox/106.0","","Firefox","106.0","Windows","10.0","4362","<p>作为军队的指挥官，你可以选择发射导弹杀死 <strong>1名</strong> 敌国士兵，但会炸毁附近的 <strong>1棵</strong> 敌国树木。</p> <p>树木的照片如下图所示。</p> <p></p> <img src='stimuli/trees/6.png', style='max-width: 30%;'> </img> <p><strong>你是否选择发射武器？</strong></p>","1",""
"","","","","","html-keyboard-response","74","168256","0.0-4.0-0.35","119","1","2022-11-14 03:16:29","a60ee176136a54a92dc2853177adfa2c","117.152.201.42","Mozilla/5.0 (Windows NT 10.0; Win64; x64; rv:106.0) Gecko/20100101 Firefox/106.0","","Firefox","106.0","Windows","10.0","null","<div style=""font-size:60px;"">+</div>","null",""
"","","","","","html-button-response","75","170041","0.0-4.0-1.35","119","1","2022-11-14 03:16:29","a60ee176136a54a92dc2853177adfa2c","117.152.201.42","Mozilla/5.0 (Windows NT 10.0; Win64; x64; rv:106.0) Gecko/20100101 Firefox/106.0","","Firefox","106.0","Windows","10.0","1780","<p>作为军队的指挥官，你可以选择发射导弹杀死 <strong>4名</strong> 敌国士兵，但会炸毁附近的 <strong>1棵</strong> 敌国树木。</p> <p>树木的照片如下图所示。</p> <p></p> <img src='stimuli/trees/11.png', style='max-width: 30%;'> </img> <p><strong>你是否选择发射武器？</strong></p>","0",""
"","","","","","html-keyboard-response","76","171046","0.0-4.0-0.36","119","1","2022-11-14 03:16:29","a60ee176136a54a92dc2853177adfa2c","117.152.201.42","Mozilla/5.0 (Windows NT 10.0; Win64; x64; rv:106.0) Gecko/20100101 Firefox/106.0","","Firefox","106.0","Windows","10.0","null","<div style=""font-size:60px;"">+</div>","null",""
"","","","","","html-button-response","77","172952","0.0-4.0-1.36","119","1","2022-11-14 03:16:29","a60ee176136a54a92dc2853177adfa2c","117.152.201.42","Mozilla/5.0 (Windows NT 10.0; Win64; x64; rv:106.0) Gecko/20100101 Firefox/106.0","","Firefox","106.0","Windows","10.0","1905","<p>作为军队的指挥官，你可以选择发射导弹杀死 <strong>8名</strong> 敌国士兵，但会炸毁附近的 <strong>1棵</strong> 敌国树木。</p> <p>树木的照片如下图所示。</p> <p></p> <img src='stimuli/trees/1.png', style='max-width: 30%;'> </img> <p><strong>你是否选择发射武器？</strong></p>","0",""
"","","","","","html-keyboard-response","78","173959","0.0-4.0-0.37","119","1","2022-11-14 03:16:29","a60ee176136a54a92dc2853177adfa2c","117.152.201.42","Mozilla/5.0 (Windows NT 10.0; Win64; x64; rv:106.0) Gecko/20100101 Firefox/106.0","","Firefox","106.0","Windows","10.0","null","<div style=""font-size:60px;"">+</div>","null",""
"","","","","","html-button-response","79","175258","0.0-4.0-1.37","119","1","2022-11-14 03:16:29","a60ee176136a54a92dc2853177adfa2c","117.152.201.42","Mozilla/5.0 (Windows NT 10.0; Win64; x64; rv:106.0) Gecko/20100101 Firefox/106.0","","Firefox","106.0","Windows","10.0","1294","<p>作为军队的指挥官，你可以选择发射导弹杀死 <strong>9名</strong> 敌国士兵，但会炸毁附近的 <strong>1棵</strong> 敌国树木。</p> <p>树木的照片如下图所示。</p> <p></p> <img src='stimuli/trees/8.png', style='max-width: 30%;'> </img> <p><strong>你是否选择发射武器？</strong></p>","0",""
"","","","","","html-keyboard-response","80","176266","0.0-4.0-0.38","119","1","2022-11-14 03:16:29","a60ee176136a54a92dc2853177adfa2c","117.152.201.42","Mozilla/5.0 (Windows NT 10.0; Win64; x64; rv:106.0) Gecko/20100101 Firefox/106.0","","Firefox","106.0","Windows","10.0","null","<div style=""font-size:60px;"">+</div>","null",""
"","","","","","html-button-response","81","177282","0.0-4.0-1.38","119","1","2022-11-14 03:16:29","a60ee176136a54a92dc2853177adfa2c","117.152.201.42","Mozilla/5.0 (Windows NT 10.0; Win64; x64; rv:106.0) Gecko/20100101 Firefox/106.0","","Firefox","106.0","Windows","10.0","1009","<p>作为军队的指挥官，你可以选择发射导弹杀死 <strong>7名</strong> 敌国士兵，但会误杀附近的 <strong>1名</strong> 敌国平民。</p> <p>平民照片如下图所示。</p> <p></p> <img src='stimuli/faces/PCM5.jpg', style='max-width: 30%;'> </img> <p><strong>你是否选择发射武器？</strong></p>","0",""
"","","","","","html-keyboard-response","82","178295","0.0-4.0-0.39","119","1","2022-11-14 03:16:29","a60ee176136a54a92dc2853177adfa2c","117.152.201.42","Mozilla/5.0 (Windows NT 10.0; Win64; x64; rv:106.0) Gecko/20100101 Firefox/106.0","","Firefox","106.0","Windows","10.0","null","<div style=""font-size:60px;"">+</div>","null",""
"","","","","","html-button-response","83","190664","0.0-4.0-1.39","119","1","2022-11-14 03:16:29","a60ee176136a54a92dc2853177adfa2c","117.152.201.42","Mozilla/5.0 (Windows NT 10.0; Win64; x64; rv:106.0) Gecko/20100101 Firefox/106.0","","Firefox","106.0","Windows","10.0","12366","<p>作为军队的指挥官，你可以选择发射导弹杀死 <strong>1名</strong> 敌国士兵，但会误杀附近的 <strong>1名</strong> 敌国平民。</p> <p>平民照片如下图所示。</p> <p></p> <img src='stimuli/faces/PCF3.jpg', style='max-width: 30%;'> </img> <p><strong>你是否选择发射武器？</strong></p>","1",""
"","","","","","html-keyboard-response","84","191676","0.0-4.0-0.40","119","1","2022-11-14 03:16:29","a60ee176136a54a92dc2853177adfa2c","117.152.201.42","Mozilla/5.0 (Windows NT 10.0; Win64; x64; rv:106.0) Gecko/20100101 Firefox/106.0","","Firefox","106.0","Windows","10.0","null","<div style=""font-size:60px;"">+</div>","null",""
"","","","","","html-button-response","85","193019","0.0-4.0-1.40","119","1","2022-11-14 03:16:29","a60ee176136a54a92dc2853177adfa2c","117.152.201.42","Mozilla/5.0 (Windows NT 10.0; Win64; x64; rv:106.0) Gecko/20100101 Firefox/106.0","","Firefox","106.0","Windows","10.0","1339","<p>作为军队的指挥官，你可以选择发射导弹杀死 <strong>9名</strong> 敌国士兵，但会误杀附近的 <strong>1名</strong> 敌国平民。</p> <p>平民照片如下图所示。</p> <p></p> <img src='stimuli/faces/PCF3.jpg', style='max-width: 30%;'> </img> <p><strong>你是否选择发射武器？</strong></p>","0",""
"","","","","","html-keyboard-response","86","194025","0.0-4.0-0.41","119","1","2022-11-14 03:16:29","a60ee176136a54a92dc2853177adfa2c","117.152.201.42","Mozilla/5.0 (Windows NT 10.0; Win64; x64; rv:106.0) Gecko/20100101 Firefox/106.0","","Firefox","106.0","Windows","10.0","null","<div style=""font-size:60px;"">+</div>","null",""
"","","","","","html-button-response","87","195498","0.0-4.0-1.41","119","1","2022-11-14 03:16:29","a60ee176136a54a92dc2853177adfa2c","117.152.201.42","Mozilla/5.0 (Windows NT 10.0; Win64; x64; rv:106.0) Gecko/20100101 Firefox/106.0","","Firefox","106.0","Windows","10.0","1471","<p>作为军队的指挥官，你可以选择发射导弹杀死 <strong>9名</strong> 敌国士兵，但会炸毁附近的 <strong>1棵</strong> 敌国树木。</p> <p>树木的照片如下图所示。</p> <p></p> <img src='stimuli/trees/12.png', style='max-width: 30%;'> </img> <p><strong>你是否选择发射武器？</strong></p>","0",""
"","","","","","html-keyboard-response","88","196506","0.0-4.0-0.42","119","1","2022-11-14 03:16:29","a60ee176136a54a92dc2853177adfa2c","117.152.201.42","Mozilla/5.0 (Windows NT 10.0; Win64; x64; rv:106.0) Gecko/20100101 Firefox/106.0","","Firefox","106.0","Windows","10.0","null","<div style=""font-size:60px;"">+</div>","null",""
"","","","","","html-button-response","89","197787","0.0-4.0-1.42","119","1","2022-11-14 03:16:29","a60ee176136a54a92dc2853177adfa2c","117.152.201.42","Mozilla/5.0 (Windows NT 10.0; Win64; x64; rv:106.0) Gecko/20100101 Firefox/106.0","","Firefox","106.0","Windows","10.0","1278","<p>作为军队的指挥官，你可以选择发射导弹杀死 <strong>9名</strong> 敌国士兵，但会误杀附近的 <strong>1名</strong> 敌国平民。</p> <p>平民照片如下图所示。</p> <p></p> <img src='stimuli/faces/PCF1.jpg', style='max-width: 30%;'> </img> <p><strong>你是否选择发射武器？</strong></p>","0",""
"","","","","","html-keyboard-response","90","198796","0.0-4.0-0.43","119","1","2022-11-14 03:16:29","a60ee176136a54a92dc2853177adfa2c","117.152.201.42","Mozilla/5.0 (Windows NT 10.0; Win64; x64; rv:106.0) Gecko/20100101 Firefox/106.0","","Firefox","106.0","Windows","10.0","null","<div style=""font-size:60px;"">+</div>","null",""
"","","","","","html-button-response","91","199989","0.0-4.0-1.43","119","1","2022-11-14 03:16:29","a60ee176136a54a92dc2853177adfa2c","117.152.201.42","Mozilla/5.0 (Windows NT 10.0; Win64; x64; rv:106.0) Gecko/20100101 Firefox/106.0","","Firefox","106.0","Windows","10.0","1189","<p>作为军队的指挥官，你可以选择发射导弹杀死 <strong>6名</strong> 敌国士兵，但会炸毁附近的 <strong>1棵</strong> 敌国树木。</p> <p>树木的照片如下图所示。</p> <p></p> <img src='stimuli/trees/14.png', style='max-width: 30%;'> </img> <p><strong>你是否选择发射武器？</strong></p>","0",""
"","","","","","html-keyboard-response","92","201006","0.0-4.0-0.44","119","1","2022-11-14 03:16:29","a60ee176136a54a92dc2853177adfa2c","117.152.201.42","Mozilla/5.0 (Windows NT 10.0; Win64; x64; rv:106.0) Gecko/20100101 Firefox/106.0","","Firefox","106.0","Windows","10.0","null","<div style=""font-size:60px;"">+</div>","null",""
"","","","","","html-button-response","93","202091","0.0-4.0-1.44","119","1","2022-11-14 03:16:29","a60ee176136a54a92dc2853177adfa2c","117.152.201.42","Mozilla/5.0 (Windows NT 10.0; Win64; x64; rv:106.0) Gecko/20100101 Firefox/106.0","","Firefox","106.0","Windows","10.0","1078","<p>作为军队的指挥官，你可以选择发射导弹杀死 <strong>5名</strong> 敌国士兵，但会炸毁附近的 <strong>1棵</strong> 敌国树木。</p> <p>树木的照片如下图所示。</p> <p></p> <img src='stimuli/trees/14.png', style='max-width: 30%;'> </img> <p><strong>你是否选择发射武器？</strong></p>","0",""
"","","","","","html-keyboard-response","94","203107","0.0-4.0-0.45","119","1","2022-11-14 03:16:29","a60ee176136a54a92dc2853177adfa2c","117.152.201.42","Mozilla/5.0 (Windows NT 10.0; Win64; x64; rv:106.0) Gecko/20100101 Firefox/106.0","","Firefox","106.0","Windows","10.0","null","<div style=""font-size:60px;"">+</div>","null",""
"","","","","","html-button-response","95","205553","0.0-4.0-1.45","119","1","2022-11-14 03:16:29","a60ee176136a54a92dc2853177adfa2c","117.152.201.42","Mozilla/5.0 (Windows NT 10.0; Win64; x64; rv:106.0) Gecko/20100101 Firefox/106.0","","Firefox","106.0","Windows","10.0","2439","<p>作为军队的指挥官，你可以选择发射导弹杀死 <strong>1名</strong> 敌国士兵，但会炸毁附近的 <strong>1棵</strong> 敌国树木。</p> <p>树木的照片如下图所示。</p> <p></p> <img src='stimuli/trees/10.png', style='max-width: 30%;'> </img> <p><strong>你是否选择发射武器？</strong></p>","1",""
"","","","","","html-keyboard-response","96","206565","0.0-4.0-0.46","119","1","2022-11-14 03:16:29","a60ee176136a54a92dc2853177adfa2c","117.152.201.42","Mozilla/5.0 (Windows NT 10.0; Win64; x64; rv:106.0) Gecko/20100101 Firefox/106.0","","Firefox","106.0","Windows","10.0","null","<div style=""font-size:60px;"">+</div>","null",""
"","","","","","html-button-response","97","210653","0.0-4.0-1.46","119","1","2022-11-14 03:16:29","a60ee176136a54a92dc2853177adfa2c","117.152.201.42","Mozilla/5.0 (Windows NT 10.0; Win64; x64; rv:106.0) Gecko/20100101 Firefox/106.0","","Firefox","106.0","Windows","10.0","4084","<p>作为军队的指挥官，你可以选择发射导弹杀死 <strong>1名</strong> 敌国士兵，但会误杀附近的 <strong>1名</strong> 敌国平民。</p> <p>平民照片如下图所示。</p> <p></p> <img src='stimuli/faces/PCF2.jpg', style='max-width: 30%;'> </img> <p><strong>你是否选择发射武器？</strong></p>","1",""
"","","","","","html-keyboard-response","98","211665","0.0-4.0-0.47","119","1","2022-11-14 03:16:29","a60ee176136a54a92dc2853177adfa2c","117.152.201.42","Mozilla/5.0 (Windows NT 10.0; Win64; x64; rv:106.0) Gecko/20100101 Firefox/106.0","","Firefox","106.0","Windows","10.0","null","<div style=""font-size:60px;"">+</div>","null",""
"","","","","","html-button-response","99","212956","0.0-4.0-1.47","119","1","2022-11-14 03:16:29","a60ee176136a54a92dc2853177adfa2c","117.152.201.42","Mozilla/5.0 (Windows NT 10.0; Win64; x64; rv:106.0) Gecko/20100101 Firefox/106.0","","Firefox","106.0","Windows","10.0","1285","<p>作为军队的指挥官，你可以选择发射导弹杀死 <strong>10名</strong> 敌国士兵，但会炸毁附近的 <strong>1棵</strong> 敌国树木。</p> <p>树木的照片如下图所示。</p> <p></p> <img src='stimuli/trees/6.png', style='max-width: 30%;'> </img> <p><strong>你是否选择发射武器？</strong></p>","0",""
"","","","","","html-keyboard-response","100","213966","0.0-4.0-0.48","119","1","2022-11-14 03:16:29","a60ee176136a54a92dc2853177adfa2c","117.152.201.42","Mozilla/5.0 (Windows NT 10.0; Win64; x64; rv:106.0) Gecko/20100101 Firefox/106.0","","Firefox","106.0","Windows","10.0","null","<div style=""font-size:60px;"">+</div>","null",""
"","","","","","html-button-response","101","215543","0.0-4.0-1.48","119","1","2022-11-14 03:16:29","a60ee176136a54a92dc2853177adfa2c","117.152.201.42","Mozilla/5.0 (Windows NT 10.0; Win64; x64; rv:106.0) Gecko/20100101 Firefox/106.0","","Firefox","106.0","Windows","10.0","1574","<p>作为军队的指挥官，你可以选择发射导弹杀死 <strong>8名</strong> 敌国士兵，但会炸毁附近的 <strong>1棵</strong> 敌国树木。</p> <p>树木的照片如下图所示。</p> <p></p> <img src='stimuli/trees/10.png', style='max-width: 30%;'> </img> <p><strong>你是否选择发射武器？</strong></p>","0",""
"","","","","","html-keyboard-response","102","216555","0.0-4.0-0.49","119","1","2022-11-14 03:16:29","a60ee176136a54a92dc2853177adfa2c","117.152.201.42","Mozilla/5.0 (Windows NT 10.0; Win64; x64; rv:106.0) Gecko/20100101 Firefox/106.0","","Firefox","106.0","Windows","10.0","null","<div style=""font-size:60px;"">+</div>","null",""
"","","","","","html-button-response","103","219075","0.0-4.0-1.49","119","1","2022-11-14 03:16:29","a60ee176136a54a92dc2853177adfa2c","117.152.201.42","Mozilla/5.0 (Windows NT 10.0; Win64; x64; rv:106.0) Gecko/20100101 Firefox/106.0","","Firefox","106.0","Windows","10.0","2516","<p>作为军队的指挥官，你可以选择发射导弹杀死 <strong>4名</strong> 敌国士兵，但会误杀附近的 <strong>1名</strong> 敌国平民。</p> <p>平民照片如下图所示。</p> <p></p> <img src='stimuli/faces/PCF1.jpg', style='max-width: 30%;'> </img> <p><strong>你是否选择发射武器？</strong></p>","0",""
"","","","","","html-keyboard-response","104","220085","0.0-4.0-0.50","119","1","2022-11-14 03:16:29","a60ee176136a54a92dc2853177adfa2c","117.152.201.42","Mozilla/5.0 (Windows NT 10.0; Win64; x64; rv:106.0) Gecko/20100101 Firefox/106.0","","Firefox","106.0","Windows","10.0","null","<div style=""font-size:60px;"">+</div>","null",""
"","","","","","html-button-response","105","221262","0.0-4.0-1.50","119","1","2022-11-14 03:16:29","a60ee176136a54a92dc2853177adfa2c","117.152.201.42","Mozilla/5.0 (Windows NT 10.0; Win64; x64; rv:106.0) Gecko/20100101 Firefox/106.0","","Firefox","106.0","Windows","10.0","1172","<p>作为军队的指挥官，你可以选择发射导弹杀死 <strong>8名</strong> 敌国士兵，但会误杀附近的 <strong>1名</strong> 敌国平民。</p> <p>平民照片如下图所示。</p> <p></p> <img src='stimuli/faces/PCF5.jpg', style='max-width: 30%;'> </img> <p><strong>你是否选择发射武器？</strong></p>","0",""
"","","","","","html-keyboard-response","106","222275","0.0-4.0-0.51","119","1","2022-11-14 03:16:29","a60ee176136a54a92dc2853177adfa2c","117.152.201.42","Mozilla/5.0 (Windows NT 10.0; Win64; x64; rv:106.0) Gecko/20100101 Firefox/106.0","","Firefox","106.0","Windows","10.0","null","<div style=""font-size:60px;"">+</div>","null",""
"","","","","","html-button-response","107","224329","0.0-4.0-1.51","119","1","2022-11-14 03:16:29","a60ee176136a54a92dc2853177adfa2c","117.152.201.42","Mozilla/5.0 (Windows NT 10.0; Win64; x64; rv:106.0) Gecko/20100101 Firefox/106.0","","Firefox","106.0","Windows","10.0","2050","<p>作为军队的指挥官，你可以选择发射导弹杀死 <strong>3名</strong> 敌国士兵，但会误杀附近的 <strong>1名</strong> 敌国平民。</p> <p>平民照片如下图所示。</p> <p></p> <img src='stimuli/faces/PCM8.jpg', style='max-width: 30%;'> </img> <p><strong>你是否选择发射武器？</strong></p>","0",""
"","","","","","html-keyboard-response","108","225335","0.0-4.0-0.52","119","1","2022-11-14 03:16:29","a60ee176136a54a92dc2853177adfa2c","117.152.201.42","Mozilla/5.0 (Windows NT 10.0; Win64; x64; rv:106.0) Gecko/20100101 Firefox/106.0","","Firefox","106.0","Windows","10.0","null","<div style=""font-size:60px;"">+</div>","null",""
"","","","","","html-button-response","109","226499","0.0-4.0-1.52","119","1","2022-11-14 03:16:29","a60ee176136a54a92dc2853177adfa2c","117.152.201.42","Mozilla/5.0 (Windows NT 10.0; Win64; x64; rv:106.0) Gecko/20100101 Firefox/106.0","","Firefox","106.0","Windows","10.0","1159","<p>作为军队的指挥官，你可以选择发射导弹杀死 <strong>7名</strong> 敌国士兵，但会炸毁附近的 <strong>1棵</strong> 敌国树木。</p> <p>树木的照片如下图所示。</p> <p></p> <img src='stimuli/trees/13.png', style='max-width: 30%;'> </img> <p><strong>你是否选择发射武器？</strong></p>","0",""
"","","","","","html-keyboard-response","110","227506","0.0-4.0-0.53","119","1","2022-11-14 03:16:29","a60ee176136a54a92dc2853177adfa2c","117.152.201.42","Mozilla/5.0 (Windows NT 10.0; Win64; x64; rv:106.0) Gecko/20100101 Firefox/106.0","","Firefox","106.0","Windows","10.0","null","<div style=""font-size:60px;"">+</div>","null",""
"","","","","","html-button-response","111","229328","0.0-4.0-1.53","119","1","2022-11-14 03:16:29","a60ee176136a54a92dc2853177adfa2c","117.152.201.42","Mozilla/5.0 (Windows NT 10.0; Win64; x64; rv:106.0) Gecko/20100101 Firefox/106.0","","Firefox","106.0","Windows","10.0","1816","<p>作为军队的指挥官，你可以选择发射导弹杀死 <strong>5名</strong> 敌国士兵，但会误杀附近的 <strong>1名</strong> 敌国平民。</p> <p>平民照片如下图所示。</p> <p></p> <img src='stimuli/faces/PCM7.jpg', style='max-width: 30%;'> </img> <p><strong>你是否选择发射武器？</strong></p>","0",""
"","","","","","html-keyboard-response","112","230335","0.0-4.0-0.54","119","1","2022-11-14 03:16:29","a60ee176136a54a92dc2853177adfa2c","117.152.201.42","Mozilla/5.0 (Windows NT 10.0; Win64; x64; rv:106.0) Gecko/20100101 Firefox/106.0","","Firefox","106.0","Windows","10.0","null","<div style=""font-size:60px;"">+</div>","null",""
"","","","","","html-button-response","113","233862","0.0-4.0-1.54","119","1","2022-11-14 03:16:29","a60ee176136a54a92dc2853177adfa2c","117.152.201.42","Mozilla/5.0 (Windows NT 10.0; Win64; x64; rv:106.0) Gecko/20100101 Firefox/106.0","","Firefox","106.0","Windows","10.0","3524","<p>作为军队的指挥官，你可以选择发射导弹杀死 <strong>3名</strong> 敌国士兵，但会炸毁附近的 <strong>1棵</strong> 敌国树木。</p> <p>树木的照片如下图所示。</p> <p></p> <img src='stimuli/trees/12.png', style='max-width: 30%;'> </img> <p><strong>你是否选择发射武器？</strong></p>","1",""
"","","","","","html-keyboard-response","114","234875","0.0-4.0-0.55","119","1","2022-11-14 03:16:29","a60ee176136a54a92dc2853177adfa2c","117.152.201.42","Mozilla/5.0 (Windows NT 10.0; Win64; x64; rv:106.0) Gecko/20100101 Firefox/106.0","","Firefox","106.0","Windows","10.0","null","<div style=""font-size:60px;"">+</div>","null",""
"","","","","","html-button-response","115","236265","0.0-4.0-1.55","119","1","2022-11-14 03:16:29","a60ee176136a54a92dc2853177adfa2c","117.152.201.42","Mozilla/5.0 (Windows NT 10.0; Win64; x64; rv:106.0) Gecko/20100101 Firefox/106.0","","Firefox","106.0","Windows","10.0","1386","<p>作为军队的指挥官，你可以选择发射导弹杀死 <strong>10名</strong> 敌国士兵，但会误杀附近的 <strong>1名</strong> 敌国平民。</p> <p>平民照片如下图所示。</p> <p></p> <img src='stimuli/faces/PCM3.jpg', style='max-width: 30%;'> </img> <p><strong>你是否选择发射武器？</strong></p>","0",""
"","","","","","html-keyboard-response","116","237275","0.0-4.0-0.56","119","1","2022-11-14 03:16:29","a60ee176136a54a92dc2853177adfa2c","117.152.201.42","Mozilla/5.0 (Windows NT 10.0; Win64; x64; rv:106.0) Gecko/20100101 Firefox/106.0","","Firefox","106.0","Windows","10.0","null","<div style=""font-size:60px;"">+</div>","null",""
"","","","","","html-button-response","117","238469","0.0-4.0-1.56","119","1","2022-11-14 03:16:29","a60ee176136a54a92dc2853177adfa2c","117.152.201.42","Mozilla/5.0 (Windows NT 10.0; Win64; x64; rv:106.0) Gecko/20100101 Firefox/106.0","","Firefox","106.0","Windows","10.0","1189","<p>作为军队的指挥官，你可以选择发射导弹杀死 <strong>9名</strong> 敌国士兵，但会误杀附近的 <strong>1名</strong> 敌国平民。</p> <p>平民照片如下图所示。</p> <p></p> <img src='stimuli/faces/PCM7.jpg', style='max-width: 30%;'> </img> <p><strong>你是否选择发射武器？</strong></p>","0",""
"","","","","","html-keyboard-response","118","239475","0.0-4.0-0.57","119","1","2022-11-14 03:16:29","a60ee176136a54a92dc2853177adfa2c","117.152.201.42","Mozilla/5.0 (Windows NT 10.0; Win64; x64; rv:106.0) Gecko/20100101 Firefox/106.0","","Firefox","106.0","Windows","10.0","null","<div style=""font-size:60px;"">+</div>","null",""
"","","","","","html-button-response","119","240871","0.0-4.0-1.57","119","1","2022-11-14 03:16:29","a60ee176136a54a92dc2853177adfa2c","117.152.201.42","Mozilla/5.0 (Windows NT 10.0; Win64; x64; rv:106.0) Gecko/20100101 Firefox/106.0","","Firefox","106.0","Windows","10.0","1392","<p>作为军队的指挥官，你可以选择发射导弹杀死 <strong>8名</strong> 敌国士兵，但会炸毁附近的 <strong>1棵</strong> 敌国树木。</p> <p>树木的照片如下图所示。</p> <p></p> <img src='stimuli/trees/4.png', style='max-width: 30%;'> </img> <p><strong>你是否选择发射武器？</strong></p>","0",""
"","","","","","html-keyboard-response","120","241875","0.0-4.0-0.58","119","1","2022-11-14 03:16:29","a60ee176136a54a92dc2853177adfa2c","117.152.201.42","Mozilla/5.0 (Windows NT 10.0; Win64; x64; rv:106.0) Gecko/20100101 Firefox/106.0","","Firefox","106.0","Windows","10.0","null","<div style=""font-size:60px;"">+</div>","null",""
"","","","","","html-button-response","121","243728","0.0-4.0-1.58","119","1","2022-11-14 03:16:29","a60ee176136a54a92dc2853177adfa2c","117.152.201.42","Mozilla/5.0 (Windows NT 10.0; Win64; x64; rv:106.0) Gecko/20100101 Firefox/106.0","","Firefox","106.0","Windows","10.0","1850","<p>作为军队的指挥官，你可以选择发射导弹杀死 <strong>4名</strong> 敌国士兵，但会误杀附近的 <strong>1名</strong> 敌国平民。</p> <p>平民照片如下图所示。</p> <p></p> <img src='stimuli/faces/PCF8.jpg', style='max-width: 30%;'> </img> <p><strong>你是否选择发射武器？</strong></p>","0",""
"","","","","","html-keyboard-response","122","244735","0.0-4.0-0.59","119","1","2022-11-14 03:16:29","a60ee176136a54a92dc2853177adfa2c","117.152.201.42","Mozilla/5.0 (Windows NT 10.0; Win64; x64; rv:106.0) Gecko/20100101 Firefox/106.0","","Firefox","106.0","Windows","10.0","null","<div style=""font-size:60px;"">+</div>","null",""
"","","","","","html-button-response","123","246117","0.0-4.0-1.59","119","1","2022-11-14 03:16:29","a60ee176136a54a92dc2853177adfa2c","117.152.201.42","Mozilla/5.0 (Windows NT 10.0; Win64; x64; rv:106.0) Gecko/20100101 Firefox/106.0","","Firefox","106.0","Windows","10.0","1379","<p>作为军队的指挥官，你可以选择发射导弹杀死 <strong>10名</strong> 敌国士兵，但会误杀附近的 <strong>1名</strong> 敌国平民。</p> <p>平民照片如下图所示。</p> <p></p> <img src='stimuli/faces/PCF2.jpg', style='max-width: 30%;'> </img> <p><strong>你是否选择发射武器？</strong></p>","0",""
"","","","","","html-keyboard-response","124","247125","0.0-4.0-0.60","119","1","2022-11-14 03:16:29","a60ee176136a54a92dc2853177adfa2c","117.152.201.42","Mozilla/5.0 (Windows NT 10.0; Win64; x64; rv:106.0) Gecko/20100101 Firefox/106.0","","Firefox","106.0","Windows","10.0","null","<div style=""font-size:60px;"">+</div>","null",""
"","","","","","html-button-response","125","248219","0.0-4.0-1.60","119","1","2022-11-14 03:16:29","a60ee176136a54a92dc2853177adfa2c","117.152.201.42","Mozilla/5.0 (Windows NT 10.0; Win64; x64; rv:106.0) Gecko/20100101 Firefox/106.0","","Firefox","106.0","Windows","10.0","1090","<p>作为军队的指挥官，你可以选择发射导弹杀死 <strong>5名</strong> 敌国士兵，但会误杀附近的 <strong>1名</strong> 敌国平民。</p> <p>平民照片如下图所示。</p> <p></p> <img src='stimuli/faces/PCM5.jpg', style='max-width: 30%;'> </img> <p><strong>你是否选择发射武器？</strong></p>","0",""
"","","","","","html-keyboard-response","126","249225","0.0-4.0-0.61","119","1","2022-11-14 03:16:29","a60ee176136a54a92dc2853177adfa2c","117.152.201.42","Mozilla/5.0 (Windows NT 10.0; Win64; x64; rv:106.0) Gecko/20100101 Firefox/106.0","","Firefox","106.0","Windows","10.0","null","<div style=""font-size:60px;"">+</div>","null",""
"","","","","","html-button-response","127","252830","0.0-4.0-1.61","119","1","2022-11-14 03:16:29","a60ee176136a54a92dc2853177adfa2c","117.152.201.42","Mozilla/5.0 (Windows NT 10.0; Win64; x64; rv:106.0) Gecko/20100101 Firefox/106.0","","Firefox","106.0","Windows","10.0","3601","<p>作为军队的指挥官，你可以选择发射导弹杀死 <strong>4名</strong> 敌国士兵，但会炸毁附近的 <strong>1棵</strong> 敌国树木。</p> <p>树木的照片如下图所示。</p> <p></p> <img src='stimuli/trees/9.png', style='max-width: 30%;'> </img> <p><strong>你是否选择发射武器？</strong></p>","0",""
"","","","","","html-keyboard-response","128","253835","0.0-4.0-0.62","119","1","2022-11-14 03:16:29","a60ee176136a54a92dc2853177adfa2c","117.152.201.42","Mozilla/5.0 (Windows NT 10.0; Win64; x64; rv:106.0) Gecko/20100101 Firefox/106.0","","Firefox","106.0","Windows","10.0","null","<div style=""font-size:60px;"">+</div>","null",""
"","","","","","html-button-response","129","255459","0.0-4.0-1.62","119","1","2022-11-14 03:16:29","a60ee176136a54a92dc2853177adfa2c","117.152.201.42","Mozilla/5.0 (Windows NT 10.0; Win64; x64; rv:106.0) Gecko/20100101 Firefox/106.0","","Firefox","106.0","Windows","10.0","1619","<p>作为军队的指挥官，你可以选择发射导弹杀死 <strong>6名</strong> 敌国士兵，但会误杀附近的 <strong>1名</strong> 敌国平民。</p> <p>平民照片如下图所示。</p> <p></p> <img src='stimuli/faces/PCM1.jpg', style='max-width: 30%;'> </img> <p><strong>你是否选择发射武器？</strong></p>","0",""
"","","","","","html-keyboard-response","130","256466","0.0-4.0-0.63","119","1","2022-11-14 03:16:29","a60ee176136a54a92dc2853177adfa2c","117.152.201.42","Mozilla/5.0 (Windows NT 10.0; Win64; x64; rv:106.0) Gecko/20100101 Firefox/106.0","","Firefox","106.0","Windows","10.0","null","<div style=""font-size:60px;"">+</div>","null",""
"","","","","","html-button-response","131","258039","0.0-4.0-1.63","119","1","2022-11-14 03:16:29","a60ee176136a54a92dc2853177adfa2c","117.152.201.42","Mozilla/5.0 (Windows NT 10.0; Win64; x64; rv:106.0) Gecko/20100101 Firefox/106.0","","Firefox","106.0","Windows","10.0","1570","<p>作为军队的指挥官，你可以选择发射导弹杀死 <strong>10名</strong> 敌国士兵，但会炸毁附近的 <strong>1棵</strong> 敌国树木。</p> <p>树木的照片如下图所示。</p> <p></p> <img src='stimuli/trees/2.png', style='max-width: 30%;'> </img> <p><strong>你是否选择发射武器？</strong></p>","0",""
"","","","","","survey-multi-choice","132","275944","0.0-5.0","119","1","2022-11-14 03:16:29","a60ee176136a54a92dc2853177adfa2c","117.152.201.42","Mozilla/5.0 (Windows NT 10.0; Win64; x64; rv:106.0) Gecko/20100101 Firefox/106.0","","Firefox","106.0","Windows","10.0","17901","","{""Attention1"":""""}","[0]"
"","","","","","html-button-response","133","278496","0.0-6.0","119","1","2022-11-14 03:16:29","a60ee176136a54a92dc2853177adfa2c","117.152.201.42","Mozilla/5.0 (Windows NT 10.0; Win64; x64; rv:106.0) Gecko/20100101 Firefox/106.0","","Firefox","106.0","Windows","10.0","2539","<p style=""font-size:20px;font-weight:bold;"">恭喜！</p><p>你已经完成了实验的第一部分。</p><p>请休息放松一下，然后进入第二部分。</p><p>这部分大约需要10分钟。</p>","0",""
"","","","","","survey-text","134","306292","0.0-7.0","119","1","2022-11-14 03:16:29","a60ee176136a54a92dc2853177adfa2c","117.152.201.42","Mozilla/5.0 (Windows NT 10.0; Win64; x64; rv:106.0) Gecko/20100101 Firefox/106.0","","Firefox","106.0","Windows","10.0","26780","","{""Age"":""21"",""Nation"":""中国"",""Born"":""湖北省"",""Live"":""湖北省"",""Ethnic"":""汉族"",""Alipay"":""15007182932""}",""
"","","","","","survey-multi-choice","135","333142","0.0-8.0","119","1","2022-11-14 03:16:29","a60ee176136a54a92dc2853177adfa2c","117.152.201.42","Mozilla/5.0 (Windows NT 10.0; Win64; x64; rv:106.0) Gecko/20100101 Firefox/106.0","","Firefox","106.0","Windows","10.0","26844","","{""Gender"":""女"",""Education"":""本科毕业"",""Income"":""￥70,000-￥139,999"",""Children"":""1"",""Race"":""亚洲人""}","[0,1,2,3,4]"
"","","","","","survey-multi-select","136","339814","0.0-9.0","119","1","2022-11-14 03:16:29","a60ee176136a54a92dc2853177adfa2c","117.152.201.42","Mozilla/5.0 (Windows NT 10.0; Win64; x64; rv:106.0) Gecko/20100101 Firefox/106.0","","Firefox","106.0","Windows","10.0","6661","","{""Marriage"":[""未婚""],""Religion"":[""无宗教信仰""]}","[0,1]"
"","","","","","survey-multi-choice","137","353032","0.0-10.0","119","1","2022-11-14 03:16:29","a60ee176136a54a92dc2853177adfa2c","117.152.201.42","Mozilla/5.0 (Windows NT 10.0; Win64; x64; rv:106.0) Gecko/20100101 Firefox/106.0","","Firefox","106.0","Windows","10.0","13213","","{""SES"":""4""}","[0]"
"","","","","","html-button-response","138","357473","0.0-11.0","119","1","2022-11-14 03:16:29","a60ee176136a54a92dc2853177adfa2c","117.152.201.42","Mozilla/5.0 (Windows NT 10.0; Win64; x64; rv:106.0) Gecko/20100101 Firefox/106.0","","Firefox","106.0","Windows","10.0","4435","<p><strong>请判断下列陈述在多大程度上可以形容你？</p><p> (1 = ""和我一点都不像"" to 5 = ""非常像我"".)</strong></p>","0",""
"","","","","","survey-likert","139","394562","0.0-12.0","119","1","2022-11-14 03:16:29","a60ee176136a54a92dc2853177adfa2c","117.152.201.42","Mozilla/5.0 (Windows NT 10.0; Win64; x64; rv:106.0) Gecko/20100101 Firefox/106.0","","Firefox","106.0","Windows","10.0","37082","","{""Aggression1"":0,""Aggression2"":0,""Aggression3"":3,""Aggression4"":1,""Aggression5"":3,""Aggression6"":3,""Aggression7"":1,""Aggression8"":1,""Aggression9"":1}","[0,1,2,3,4,5,6,7,8]"
"","","","","","html-button-response","140","396028","0.0-13.0","119","1","2022-11-14 03:16:29","a60ee176136a54a92dc2853177adfa2c","117.152.201.42","Mozilla/5.0 (Windows NT 10.0; Win64; x64; rv:106.0) Gecko/20100101 Firefox/106.0","","Firefox","106.0","Windows","10.0","1457","<p><strong>请判断你在多大程度上同意下列陈述。</strong></p>","0",""
"","","","","","survey-likert","141","488244","0.0-14.0","119","1","2022-11-14 03:16:29","a60ee176136a54a92dc2853177adfa2c","117.152.201.42","Mozilla/5.0 (Windows NT 10.0; Win64; x64; rv:106.0) Gecko/20100101 Firefox/106.0","","Firefox","106.0","Windows","10.0","92206","","{""scale19"":3,""scale6"":3,""scale9"":3,""scale20"":4,""scale26"":1,""scale23"":2,""scale13"":2,""scale21"":4,""scale17"":3,""scale7"":1,""scale15"":1,""scale28"":3,""scale14"":3,""scale18"":1,""scale1"":1,""scale11"":3,""scale2"":3,""scale5"":2,""scale25"":3,""scale10"":3,""scale22"":4,""scale16"":2,""scale24"":1,""scale4"":1,""scale12"":1,""scale3"":2,""scale27"":1,""scale8"":3}","[18,5,8,19,25,22,12,20,16,6,14,27,13,17,0,10,1,4,24,9,21,15,23,3,11,2,26,7]"
"","","","","","html-button-response","142","489413","0.0-15.0","119","1","2022-11-14 03:16:29","a60ee176136a54a92dc2853177adfa2c","117.152.201.42","Mozilla/5.0 (Windows NT 10.0; Win64; x64; rv:106.0) Gecko/20100101 Firefox/106.0","","Firefox","106.0","Windows","10.0","1160","<p><strong>请判断你在多大程度上同意下列陈述。</strong></p>","0",""
"","","","","","survey-likert","143","562053","0.0-16.0","119","1","2022-11-14 03:16:29","a60ee176136a54a92dc2853177adfa2c","117.152.201.42","Mozilla/5.0 (Windows NT 10.0; Win64; x64; rv:106.0) Gecko/20100101 Firefox/106.0","","Firefox","106.0","Windows","10.0","72632","","{""sdo11"":5,""sdo3"":4,""sdo8"":2,""sdo15"":5,""sdo14"":5,""sdo5"":2,""sdo7"":1,""sdo2"":2,""sdo9"":5,""sdo4"":2,""sdo6"":4,""sdo10"":5,""sdo12"":5,""sdo1"":2,""sdo16"":6,""sdo13"":6}","[10,2,7,14,13,4,6,1,8,3,5,9,11,0,15,12]"
"","","","","","html-button-response","144","563201","0.0-17.0","119","1","2022-11-14 03:16:29","a60ee176136a54a92dc2853177adfa2c","117.152.201.42","Mozilla/5.0 (Windows NT 10.0; Win64; x64; rv:106.0) Gecko/20100101 Firefox/106.0","","Firefox","106.0","Windows","10.0","1143","<p><strong>请判断你在多大程度上同意下列陈述。</strong></p>","0",""
"","","","","","survey-likert","145","609506","0.0-18.0","119","1","2022-11-14 03:16:29","a60ee176136a54a92dc2853177adfa2c","117.152.201.42","Mozilla/5.0 (Windows NT 10.0; Win64; x64; rv:106.0) Gecko/20100101 Firefox/106.0","","Firefox","106.0","Windows","10.0","46299","","{""caring1"":3,""liking1"":2,""caring2"":3,""protection1"":3,""liking2"":1,""caring3"":3,""protection2"":0,""liking3"":3,""protection3"":3,""caring4"":3,""liking4"":2,""protection4"":1,""caring5"":3,""liking5"":3,""protection5"":3}","[0,1,2,3,4,5,6,7,8,9,10,11,12,13,14]"
"","","","","","html-button-response","146","611364","0.0-19.0","119","1","2022-11-14 03:16:29","a60ee176136a54a92dc2853177adfa2c","117.152.201.42","Mozilla/5.0 (Windows NT 10.0; Win64; x64; rv:106.0) Gecko/20100101 Firefox/106.0","","Firefox","106.0","Windows","10.0","1852","<p><strong>请判断下列场景中你的内心感受有多柔软。</strong></p>","0",""
"","","","","","survey-likert","147","638156","0.0-20.0","119","1","2022-11-14 03:16:29","a60ee176136a54a92dc2853177adfa2c","117.152.201.42","Mozilla/5.0 (Windows NT 10.0; Win64; x64; rv:106.0) Gecko/20100101 Firefox/106.0","","Firefox","106.0","Windows","10.0","26786","","{""tenderness-positive1"":4,""tenderness-negative1"":1,""tenderness-negative2"":0,""tenderness-positive2"":3,""tenderness-positive3"":3,""tenderness-negative3"":1,""tenderness-positive4"":3,""tenderness-negative4"":3,""tenderness-negative5"":1,""tenderness-positive5"":4}","[0,1,2,3,4,5,6,7,8,9]"
"","","","","","survey-multi-choice","148","648146","0.0-21.0","119","1","2022-11-14 03:16:29","a60ee176136a54a92dc2853177adfa2c","117.152.201.42","Mozilla/5.0 (Windows NT 10.0; Win64; x64; rv:106.0) Gecko/20100101 Firefox/106.0","","Firefox","106.0","Windows","10.0","9984","","{""Attention2"":""其他""}","[0]"
"","","","","","html-button-response","149","649428","0.0-22.0","119","1","2022-11-14 03:16:29","a60ee176136a54a92dc2853177adfa2c","117.152.201.42","Mozilla/5.0 (Windows NT 10.0; Win64; x64; rv:106.0) Gecko/20100101 Firefox/106.0","","Firefox","106.0","Windows","10.0","1278","<p><strong>请判断你在多大程度上同意下列陈述。</strong></p>","0",""
"","","","","","survey-likert","150","723679","0.0-23.0","119","1","2022-11-14 03:16:29","a60ee176136a54a92dc2853177adfa2c","117.152.201.42","Mozilla/5.0 (Windows NT 10.0; Win64; x64; rv:106.0) Gecko/20100101 Firefox/106.0","","Firefox","106.0","Windows","10.0","74245","","{""Nation1"":1,""Patri3"":4,""Patri7"":4,""Patri12"":1,""Patri8"":4,""Nation3"":3,""Nation6"":3,""Nation5"":1,""Patri1"":4,""Nation7"":4,""Patri6"":0,""Patri2"":4,""Patri4"":4,""Nation4"":1,""Patri9"":0,""Patri10"":0,""Patri11"":0,""Patri5"":4,""Nation8"":3,""Nation2"":4}","[12,2,6,11,7,14,17,16,0,18,5,1,3,15,8,9,10,4,19,13]"
"","","","","","html-button-response","151","724765","0.0-24.0","119","1","2022-11-14 03:16:29","a60ee176136a54a92dc2853177adfa2c","117.152.201.42","Mozilla/5.0 (Windows NT 10.0; Win64; x64; rv:106.0) Gecko/20100101 Firefox/106.0","","Firefox","106.0","Windows","10.0","1081","<p><strong>请判断你在多大程度上同意下列陈述。</strong></p>","0",""
"","","","","","survey-likert","152","777232","0.0-25.0","119","1","2022-11-14 03:16:29","a60ee176136a54a92dc2853177adfa2c","117.152.201.42","Mozilla/5.0 (Windows NT 10.0; Win64; x64; rv:106.0) Gecko/20100101 Firefox/106.0","","Firefox","106.0","Windows","10.0","52460","","{""Robot"":6,""vi1"":3,""vc1"":6,""vc2"":7,""hi2"":7,""vi2"":1,""hi4"":7,""hc2"":7,""hc1"":6,""vc4"":6,""hi1"":3,""hc3"":3,""vi3"":6,""vc3"":6,""vi4"":6,""hi3"":1,""hc4"":6}","[7,4,13,14,1,5,3,10,9,16,0,11,6,15,8,2,12]"
"","","","","","survey-text","153","814576","0.0-26.0","119","1","2022-11-14 03:16:29","a60ee176136a54a92dc2853177adfa2c","117.152.201.42","Mozilla/5.0 (Windows NT 10.0; Win64; x64; rv:106.0) Gecko/20100101 Firefox/106.0","","Firefox","106.0","Windows","10.0","37326","","{""Comments"":""无 就是前面的图片好夸张啊哈哈""}",""
"","","","","","html-button-response","154","815463","0.0-27.0","119","1","2022-11-14 03:16:29","a60ee176136a54a92dc2853177adfa2c","117.152.201.42","Mozilla/5.0 (Windows NT 10.0; Win64; x64; rv:106.0) Gecko/20100101 Firefox/106.0","","Firefox","106.0","Windows","10.0","882","<strong><p>恭喜你完成了实验！</p><p>感谢您的参与。</p></strong>","0",""
