"success","timeout","failed_images","failed_audio","failed_video","trial_type","trial_index","time_elapsed","internal_node_id","run_id","condition","recorded_at","source_code_version","ip","user_agent","device","browser","browser_version","platform","platform_version","rt","stimulus","response","question_order"
"true","false","[]","[]","[]","preload","0","4629","0.0-0.0","126","1","2022-11-14 14:27:31","a60ee176136a54a92dc2853177adfa2c","183.61.16.117","Mozilla/5.0 (Windows NT 10.0; Win64; x64) AppleWebKit/537.36 (KHTML, like Gecko) Chrome/106.0.0.0 Safari/537.36 Edg/106.0.1370.42","WebKit","Edge","106.0.1370.42","Windows","10.0","","","",""
"true","","","","","fullscreen","1","7694","0.0-1.0","126","1","2022-11-14 14:27:31","a60ee176136a54a92dc2853177adfa2c","183.61.16.117","Mozilla/5.0 (Windows NT 10.0; Win64; x64) AppleWebKit/537.36 (KHTML, like Gecko) Chrome/106.0.0.0 Safari/537.36 Edg/106.0.1370.42","WebKit","Edge","106.0.1370.42","Windows","10.0","","","",""
"","","","","","html-button-response","2","17485","0.0-2.0","126","1","2022-11-14 14:27:31","a60ee176136a54a92dc2853177adfa2c","183.61.16.117","Mozilla/5.0 (Windows NT 10.0; Win64; x64) AppleWebKit/537.36 (KHTML, like Gecko) Chrome/106.0.0.0 Safari/537.36 Edg/106.0.1370.42","WebKit","Edge","106.0.1370.42","Windows","10.0","9789","<p style=""font-size:20px;font-weight:bold;"">实验知情同意书</p><p style=""text-align:left;""><strong>实验名称：</strong>社会冲突研究</p><p style=""text-align:left;""><strong>主要研究者：</strong>韩晓春副教授（北京师范大学心理学部）</p><p style=""text-align:left;""><strong>联系方式：</strong>发送邮件至xiaochun.han@bnu.edu.cn</p><p style=""text-align:left;""><strong>研究目的：</strong>研究旨在了解人类面对群体冲突时的决策方式，以及相关的心理学特质。实验调查大约需要20分钟。</p><p style=""text-align:left;""><strong>实验流程：</strong>实验包含两部分。第一部分呈现一系列群体冲突场景，请你决定如何对这些冲突进行反应，大约需要10分钟完成。第二部分包含一系列人口统计学信息收集和心理学问卷，大约需要10分钟完成。</p><p style=""text-align:left;""><strong>参加及退出规则：</strong>参加本实验完全取决于您的个人意愿。在参与过程中，您可以随时退出，并且不用承担任何后果。</p><p style=""text-align:left;""><strong>隐私：</strong>本实验完全匿名进行，不会收集您的姓名或其他能够识别您身份的信息。实验中收集的作答仅用作科学研究使用，可能会在学术期刊/书籍上发表，或者用于教学，您的数据未来可能会和其他研究者或实验室分享，但您的个人身份不会被识别。</p><p style=""text-align:left;""><strong>实验报酬：</strong>实验完成后，您将获得15元人民币报酬，以感谢您的时间和努力。调查问卷中包含几道题目用以测验您作答时的认真度。只有完成全部实验，并且正确回答认真度测验的被试才能获得实验报酬。实验报酬将通过支付宝转账发放。</p><p style=""text-align:left;font-size:20px;""><strong>如果您同意以上实验知情同意书的内容，请点击'同意并且开始实验'按钮；否则请关闭浏览器界面，退出实验。</strong></p>","0",""
"","","","","","html-button-response","3","1610338","0.0-3.0","126","1","2022-11-14 14:27:31","a60ee176136a54a92dc2853177adfa2c","183.61.16.117","Mozilla/5.0 (Windows NT 10.0; Win64; x64) AppleWebKit/537.36 (KHTML, like Gecko) Chrome/106.0.0.0 Safari/537.36 Edg/106.0.1370.42","WebKit","Edge","106.0.1370.42","Windows","10.0","1592852","<p ><strong>实验任务一：</strong></p><p>请想象你的国家与另一个国家发生了军事冲突。</p><p>你是国家军队的指挥官，你将如何在冲突中进行决策。</p><p>具体来说，作为军队指挥官，请你决定是否发射导弹进行打击。</p><p>接下来，你会面对一系列场景，请仔细阅读每个场景，然后进行决策。</p><p>这部分实验任务大约需要10分钟。</p><p><strong>实验过程中，请集中注意力。</strong></p>","0",""
"","","","","","html-keyboard-response","4","1611353","0.0-4.0-0.0","126","1","2022-11-14 14:27:31","a60ee176136a54a92dc2853177adfa2c","183.61.16.117","Mozilla/5.0 (Windows NT 10.0; Win64; x64) AppleWebKit/537.36 (KHTML, like Gecko) Chrome/106.0.0.0 Safari/537.36 Edg/106.0.1370.42","WebKit","Edge","106.0.1370.42","Windows","10.0","null","<div style=""font-size:60px;"">+</div>","null",""
"","","","","","html-button-response","5","1615647","0.0-4.0-1.0","126","1","2022-11-14 14:27:31","a60ee176136a54a92dc2853177adfa2c","183.61.16.117","Mozilla/5.0 (Windows NT 10.0; Win64; x64) AppleWebKit/537.36 (KHTML, like Gecko) Chrome/106.0.0.0 Safari/537.36 Edg/106.0.1370.42","WebKit","Edge","106.0.1370.42","Windows","10.0","4291","<p>作为军队的指挥官，你可以选择发射导弹杀死 <strong>2名</strong> 敌国士兵，但会炸毁附近的 <strong>1棵</strong> 敌国树木。</p> <p>树木的照片如下图所示。</p> <p></p> <img src='stimuli/trees/3.png', style='max-width: 30%;'> </img> <p><strong>你是否选择发射武器？</strong></p>","0",""
"","","","","","html-keyboard-response","6","1616648","0.0-4.0-0.1","126","1","2022-11-14 14:27:31","a60ee176136a54a92dc2853177adfa2c","183.61.16.117","Mozilla/5.0 (Windows NT 10.0; Win64; x64) AppleWebKit/537.36 (KHTML, like Gecko) Chrome/106.0.0.0 Safari/537.36 Edg/106.0.1370.42","WebKit","Edge","106.0.1370.42","Windows","10.0","null","<div style=""font-size:60px;"">+</div>","null",""
"","","","","","html-button-response","7","1620406","0.0-4.0-1.1","126","1","2022-11-14 14:27:31","a60ee176136a54a92dc2853177adfa2c","183.61.16.117","Mozilla/5.0 (Windows NT 10.0; Win64; x64) AppleWebKit/537.36 (KHTML, like Gecko) Chrome/106.0.0.0 Safari/537.36 Edg/106.0.1370.42","WebKit","Edge","106.0.1370.42","Windows","10.0","3756","<p>作为军队的指挥官，你可以选择发射导弹杀死 <strong>7名</strong> 敌国士兵，但会炸毁附近的 <strong>1棵</strong> 敌国树木。</p> <p>树木的照片如下图所示。</p> <p></p> <img src='stimuli/trees/12.png', style='max-width: 30%;'> </img> <p><strong>你是否选择发射武器？</strong></p>","0",""
"","","","","","html-keyboard-response","8","1621411","0.0-4.0-0.2","126","1","2022-11-14 14:27:31","a60ee176136a54a92dc2853177adfa2c","183.61.16.117","Mozilla/5.0 (Windows NT 10.0; Win64; x64) AppleWebKit/537.36 (KHTML, like Gecko) Chrome/106.0.0.0 Safari/537.36 Edg/106.0.1370.42","WebKit","Edge","106.0.1370.42","Windows","10.0","null","<div style=""font-size:60px;"">+</div>","null",""
"","","","","","html-button-response","9","1627702","0.0-4.0-1.2","126","1","2022-11-14 14:27:31","a60ee176136a54a92dc2853177adfa2c","183.61.16.117","Mozilla/5.0 (Windows NT 10.0; Win64; x64) AppleWebKit/537.36 (KHTML, like Gecko) Chrome/106.0.0.0 Safari/537.36 Edg/106.0.1370.42","WebKit","Edge","106.0.1370.42","Windows","10.0","6290","<p>作为军队的指挥官，你可以选择发射导弹杀死 <strong>4名</strong> 敌国士兵，但会误杀附近的 <strong>1名</strong> 敌国平民。</p> <p>平民照片如下图所示。</p> <p></p> <img src='stimuli/faces/PCM8.jpg', style='max-width: 30%;'> </img> <p><strong>你是否选择发射武器？</strong></p>","0",""
"","","","","","html-keyboard-response","10","1628713","0.0-4.0-0.3","126","1","2022-11-14 14:27:31","a60ee176136a54a92dc2853177adfa2c","183.61.16.117","Mozilla/5.0 (Windows NT 10.0; Win64; x64) AppleWebKit/537.36 (KHTML, like Gecko) Chrome/106.0.0.0 Safari/537.36 Edg/106.0.1370.42","WebKit","Edge","106.0.1370.42","Windows","10.0","null","<div style=""font-size:60px;"">+</div>","null",""
"","","","","","html-button-response","11","1632849","0.0-4.0-1.3","126","1","2022-11-14 14:27:31","a60ee176136a54a92dc2853177adfa2c","183.61.16.117","Mozilla/5.0 (Windows NT 10.0; Win64; x64) AppleWebKit/537.36 (KHTML, like Gecko) Chrome/106.0.0.0 Safari/537.36 Edg/106.0.1370.42","WebKit","Edge","106.0.1370.42","Windows","10.0","4134","<p>作为军队的指挥官，你可以选择发射导弹杀死 <strong>9名</strong> 敌国士兵，但会误杀附近的 <strong>1名</strong> 敌国平民。</p> <p>平民照片如下图所示。</p> <p></p> <img src='stimuli/faces/PCF5.jpg', style='max-width: 30%;'> </img> <p><strong>你是否选择发射武器？</strong></p>","0",""
"","","","","","html-keyboard-response","12","1633863","0.0-4.0-0.4","126","1","2022-11-14 14:27:31","a60ee176136a54a92dc2853177adfa2c","183.61.16.117","Mozilla/5.0 (Windows NT 10.0; Win64; x64) AppleWebKit/537.36 (KHTML, like Gecko) Chrome/106.0.0.0 Safari/537.36 Edg/106.0.1370.42","WebKit","Edge","106.0.1370.42","Windows","10.0","null","<div style=""font-size:60px;"">+</div>","null",""
"","","","","","html-button-response","13","1637195","0.0-4.0-1.4","126","1","2022-11-14 14:27:31","a60ee176136a54a92dc2853177adfa2c","183.61.16.117","Mozilla/5.0 (Windows NT 10.0; Win64; x64) AppleWebKit/537.36 (KHTML, like Gecko) Chrome/106.0.0.0 Safari/537.36 Edg/106.0.1370.42","WebKit","Edge","106.0.1370.42","Windows","10.0","3329","<p>作为军队的指挥官，你可以选择发射导弹杀死 <strong>1名</strong> 敌国士兵，但会误杀附近的 <strong>1名</strong> 敌国平民。</p> <p>平民照片如下图所示。</p> <p></p> <img src='stimuli/faces/PCM7.jpg', style='max-width: 30%;'> </img> <p><strong>你是否选择发射武器？</strong></p>","1",""
"","","","","","html-keyboard-response","14","1638196","0.0-4.0-0.5","126","1","2022-11-14 14:27:31","a60ee176136a54a92dc2853177adfa2c","183.61.16.117","Mozilla/5.0 (Windows NT 10.0; Win64; x64) AppleWebKit/537.36 (KHTML, like Gecko) Chrome/106.0.0.0 Safari/537.36 Edg/106.0.1370.42","WebKit","Edge","106.0.1370.42","Windows","10.0","null","<div style=""font-size:60px;"">+</div>","null",""
"","","","","","html-button-response","15","1640940","0.0-4.0-1.5","126","1","2022-11-14 14:27:31","a60ee176136a54a92dc2853177adfa2c","183.61.16.117","Mozilla/5.0 (Windows NT 10.0; Win64; x64) AppleWebKit/537.36 (KHTML, like Gecko) Chrome/106.0.0.0 Safari/537.36 Edg/106.0.1370.42","WebKit","Edge","106.0.1370.42","Windows","10.0","2743","<p>作为军队的指挥官，你可以选择发射导弹杀死 <strong>1名</strong> 敌国士兵，但会误杀附近的 <strong>1名</strong> 敌国平民。</p> <p>平民照片如下图所示。</p> <p></p> <img src='stimuli/faces/PCF6.jpg', style='max-width: 30%;'> </img> <p><strong>你是否选择发射武器？</strong></p>","0",""
"","","","","","html-keyboard-response","16","1641948","0.0-4.0-0.6","126","1","2022-11-14 14:27:31","a60ee176136a54a92dc2853177adfa2c","183.61.16.117","Mozilla/5.0 (Windows NT 10.0; Win64; x64) AppleWebKit/537.36 (KHTML, like Gecko) Chrome/106.0.0.0 Safari/537.36 Edg/106.0.1370.42","WebKit","Edge","106.0.1370.42","Windows","10.0","null","<div style=""font-size:60px;"">+</div>","null",""
"","","","","","html-button-response","17","1644161","0.0-4.0-1.6","126","1","2022-11-14 14:27:31","a60ee176136a54a92dc2853177adfa2c","183.61.16.117","Mozilla/5.0 (Windows NT 10.0; Win64; x64) AppleWebKit/537.36 (KHTML, like Gecko) Chrome/106.0.0.0 Safari/537.36 Edg/106.0.1370.42","WebKit","Edge","106.0.1370.42","Windows","10.0","2211","<p>作为军队的指挥官，你可以选择发射导弹杀死 <strong>3名</strong> 敌国士兵，但会炸毁附近的 <strong>1棵</strong> 敌国树木。</p> <p>树木的照片如下图所示。</p> <p></p> <img src='stimuli/trees/1.png', style='max-width: 30%;'> </img> <p><strong>你是否选择发射武器？</strong></p>","1",""
"","","","","","html-keyboard-response","18","1645169","0.0-4.0-0.7","126","1","2022-11-14 14:27:31","a60ee176136a54a92dc2853177adfa2c","183.61.16.117","Mozilla/5.0 (Windows NT 10.0; Win64; x64) AppleWebKit/537.36 (KHTML, like Gecko) Chrome/106.0.0.0 Safari/537.36 Edg/106.0.1370.42","WebKit","Edge","106.0.1370.42","Windows","10.0","null","<div style=""font-size:60px;"">+</div>","null",""
"","","","","","html-button-response","19","1646518","0.0-4.0-1.7","126","1","2022-11-14 14:27:31","a60ee176136a54a92dc2853177adfa2c","183.61.16.117","Mozilla/5.0 (Windows NT 10.0; Win64; x64) AppleWebKit/537.36 (KHTML, like Gecko) Chrome/106.0.0.0 Safari/537.36 Edg/106.0.1370.42","WebKit","Edge","106.0.1370.42","Windows","10.0","1347","<p>作为军队的指挥官，你可以选择发射导弹杀死 <strong>5名</strong> 敌国士兵，但会误杀附近的 <strong>1名</strong> 敌国平民。</p> <p>平民照片如下图所示。</p> <p></p> <img src='stimuli/faces/PCF7.jpg', style='max-width: 30%;'> </img> <p><strong>你是否选择发射武器？</strong></p>","0",""
"","","","","","html-keyboard-response","20","1647519","0.0-4.0-0.8","126","1","2022-11-14 14:27:31","a60ee176136a54a92dc2853177adfa2c","183.61.16.117","Mozilla/5.0 (Windows NT 10.0; Win64; x64) AppleWebKit/537.36 (KHTML, like Gecko) Chrome/106.0.0.0 Safari/537.36 Edg/106.0.1370.42","WebKit","Edge","106.0.1370.42","Windows","10.0","null","<div style=""font-size:60px;"">+</div>","null",""
"","","","","","html-button-response","21","1649287","0.0-4.0-1.8","126","1","2022-11-14 14:27:31","a60ee176136a54a92dc2853177adfa2c","183.61.16.117","Mozilla/5.0 (Windows NT 10.0; Win64; x64) AppleWebKit/537.36 (KHTML, like Gecko) Chrome/106.0.0.0 Safari/537.36 Edg/106.0.1370.42","WebKit","Edge","106.0.1370.42","Windows","10.0","1766","<p>作为军队的指挥官，你可以选择发射导弹杀死 <strong>4名</strong> 敌国士兵，但会误杀附近的 <strong>1名</strong> 敌国平民。</p> <p>平民照片如下图所示。</p> <p></p> <img src='stimuli/faces/PCM5.jpg', style='max-width: 30%;'> </img> <p><strong>你是否选择发射武器？</strong></p>","1",""
"","","","","","html-keyboard-response","22","1650289","0.0-4.0-0.9","126","1","2022-11-14 14:27:31","a60ee176136a54a92dc2853177adfa2c","183.61.16.117","Mozilla/5.0 (Windows NT 10.0; Win64; x64) AppleWebKit/537.36 (KHTML, like Gecko) Chrome/106.0.0.0 Safari/537.36 Edg/106.0.1370.42","WebKit","Edge","106.0.1370.42","Windows","10.0","null","<div style=""font-size:60px;"">+</div>","null",""
"","","","","","html-button-response","23","1651608","0.0-4.0-1.9","126","1","2022-11-14 14:27:31","a60ee176136a54a92dc2853177adfa2c","183.61.16.117","Mozilla/5.0 (Windows NT 10.0; Win64; x64) AppleWebKit/537.36 (KHTML, like Gecko) Chrome/106.0.0.0 Safari/537.36 Edg/106.0.1370.42","WebKit","Edge","106.0.1370.42","Windows","10.0","1318","<p>作为军队的指挥官，你可以选择发射导弹杀死 <strong>4名</strong> 敌国士兵，但会炸毁附近的 <strong>1棵</strong> 敌国树木。</p> <p>树木的照片如下图所示。</p> <p></p> <img src='stimuli/trees/14.png', style='max-width: 30%;'> </img> <p><strong>你是否选择发射武器？</strong></p>","0",""
"","","","","","html-keyboard-response","24","1652610","0.0-4.0-0.10","126","1","2022-11-14 14:27:31","a60ee176136a54a92dc2853177adfa2c","183.61.16.117","Mozilla/5.0 (Windows NT 10.0; Win64; x64) AppleWebKit/537.36 (KHTML, like Gecko) Chrome/106.0.0.0 Safari/537.36 Edg/106.0.1370.42","WebKit","Edge","106.0.1370.42","Windows","10.0","null","<div style=""font-size:60px;"">+</div>","null",""
"","","","","","html-button-response","25","1654660","0.0-4.0-1.10","126","1","2022-11-14 14:27:31","a60ee176136a54a92dc2853177adfa2c","183.61.16.117","Mozilla/5.0 (Windows NT 10.0; Win64; x64) AppleWebKit/537.36 (KHTML, like Gecko) Chrome/106.0.0.0 Safari/537.36 Edg/106.0.1370.42","WebKit","Edge","106.0.1370.42","Windows","10.0","2048","<p>作为军队的指挥官，你可以选择发射导弹杀死 <strong>4名</strong> 敌国士兵，但会炸毁附近的 <strong>1棵</strong> 敌国树木。</p> <p>树木的照片如下图所示。</p> <p></p> <img src='stimuli/trees/8.png', style='max-width: 30%;'> </img> <p><strong>你是否选择发射武器？</strong></p>","0",""
"","","","","","html-keyboard-response","26","1655661","0.0-4.0-0.11","126","1","2022-11-14 14:27:31","a60ee176136a54a92dc2853177adfa2c","183.61.16.117","Mozilla/5.0 (Windows NT 10.0; Win64; x64) AppleWebKit/537.36 (KHTML, like Gecko) Chrome/106.0.0.0 Safari/537.36 Edg/106.0.1370.42","WebKit","Edge","106.0.1370.42","Windows","10.0","null","<div style=""font-size:60px;"">+</div>","null",""
"","","","","","html-button-response","27","1657645","0.0-4.0-1.11","126","1","2022-11-14 14:27:31","a60ee176136a54a92dc2853177adfa2c","183.61.16.117","Mozilla/5.0 (Windows NT 10.0; Win64; x64) AppleWebKit/537.36 (KHTML, like Gecko) Chrome/106.0.0.0 Safari/537.36 Edg/106.0.1370.42","WebKit","Edge","106.0.1370.42","Windows","10.0","1982","<p>作为军队的指挥官，你可以选择发射导弹杀死 <strong>8名</strong> 敌国士兵，但会误杀附近的 <strong>1名</strong> 敌国平民。</p> <p>平民照片如下图所示。</p> <p></p> <img src='stimuli/faces/PCM5.jpg', style='max-width: 30%;'> </img> <p><strong>你是否选择发射武器？</strong></p>","0",""
"","","","","","html-keyboard-response","28","1658647","0.0-4.0-0.12","126","1","2022-11-14 14:27:31","a60ee176136a54a92dc2853177adfa2c","183.61.16.117","Mozilla/5.0 (Windows NT 10.0; Win64; x64) AppleWebKit/537.36 (KHTML, like Gecko) Chrome/106.0.0.0 Safari/537.36 Edg/106.0.1370.42","WebKit","Edge","106.0.1370.42","Windows","10.0","null","<div style=""font-size:60px;"">+</div>","null",""
"","","","","","html-button-response","29","1660270","0.0-4.0-1.12","126","1","2022-11-14 14:27:31","a60ee176136a54a92dc2853177adfa2c","183.61.16.117","Mozilla/5.0 (Windows NT 10.0; Win64; x64) AppleWebKit/537.36 (KHTML, like Gecko) Chrome/106.0.0.0 Safari/537.36 Edg/106.0.1370.42","WebKit","Edge","106.0.1370.42","Windows","10.0","1622","<p>作为军队的指挥官，你可以选择发射导弹杀死 <strong>6名</strong> 敌国士兵，但会炸毁附近的 <strong>1棵</strong> 敌国树木。</p> <p>树木的照片如下图所示。</p> <p></p> <img src='stimuli/trees/3.png', style='max-width: 30%;'> </img> <p><strong>你是否选择发射武器？</strong></p>","1",""
"","","","","","html-keyboard-response","30","1661272","0.0-4.0-0.13","126","1","2022-11-14 14:27:31","a60ee176136a54a92dc2853177adfa2c","183.61.16.117","Mozilla/5.0 (Windows NT 10.0; Win64; x64) AppleWebKit/537.36 (KHTML, like Gecko) Chrome/106.0.0.0 Safari/537.36 Edg/106.0.1370.42","WebKit","Edge","106.0.1370.42","Windows","10.0","null","<div style=""font-size:60px;"">+</div>","null",""
"","","","","","html-button-response","31","1663205","0.0-4.0-1.13","126","1","2022-11-14 14:27:31","a60ee176136a54a92dc2853177adfa2c","183.61.16.117","Mozilla/5.0 (Windows NT 10.0; Win64; x64) AppleWebKit/537.36 (KHTML, like Gecko) Chrome/106.0.0.0 Safari/537.36 Edg/106.0.1370.42","WebKit","Edge","106.0.1370.42","Windows","10.0","1932","<p>作为军队的指挥官，你可以选择发射导弹杀死 <strong>4名</strong> 敌国士兵，但会炸毁附近的 <strong>1棵</strong> 敌国树木。</p> <p>树木的照片如下图所示。</p> <p></p> <img src='stimuli/trees/7.png', style='max-width: 30%;'> </img> <p><strong>你是否选择发射武器？</strong></p>","1",""
"","","","","","html-keyboard-response","32","1664207","0.0-4.0-0.14","126","1","2022-11-14 14:27:31","a60ee176136a54a92dc2853177adfa2c","183.61.16.117","Mozilla/5.0 (Windows NT 10.0; Win64; x64) AppleWebKit/537.36 (KHTML, like Gecko) Chrome/106.0.0.0 Safari/537.36 Edg/106.0.1370.42","WebKit","Edge","106.0.1370.42","Windows","10.0","null","<div style=""font-size:60px;"">+</div>","null",""
"","","","","","html-button-response","33","1665760","0.0-4.0-1.14","126","1","2022-11-14 14:27:31","a60ee176136a54a92dc2853177adfa2c","183.61.16.117","Mozilla/5.0 (Windows NT 10.0; Win64; x64) AppleWebKit/537.36 (KHTML, like Gecko) Chrome/106.0.0.0 Safari/537.36 Edg/106.0.1370.42","WebKit","Edge","106.0.1370.42","Windows","10.0","1552","<p>作为军队的指挥官，你可以选择发射导弹杀死 <strong>6名</strong> 敌国士兵，但会误杀附近的 <strong>1名</strong> 敌国平民。</p> <p>平民照片如下图所示。</p> <p></p> <img src='stimuli/faces/PCM3.jpg', style='max-width: 30%;'> </img> <p><strong>你是否选择发射武器？</strong></p>","0",""
"","","","","","html-keyboard-response","34","1666762","0.0-4.0-0.15","126","1","2022-11-14 14:27:31","a60ee176136a54a92dc2853177adfa2c","183.61.16.117","Mozilla/5.0 (Windows NT 10.0; Win64; x64) AppleWebKit/537.36 (KHTML, like Gecko) Chrome/106.0.0.0 Safari/537.36 Edg/106.0.1370.42","WebKit","Edge","106.0.1370.42","Windows","10.0","null","<div style=""font-size:60px;"">+</div>","null",""
"","","","","","html-button-response","35","1668272","0.0-4.0-1.15","126","1","2022-11-14 14:27:31","a60ee176136a54a92dc2853177adfa2c","183.61.16.117","Mozilla/5.0 (Windows NT 10.0; Win64; x64) AppleWebKit/537.36 (KHTML, like Gecko) Chrome/106.0.0.0 Safari/537.36 Edg/106.0.1370.42","WebKit","Edge","106.0.1370.42","Windows","10.0","1508","<p>作为军队的指挥官，你可以选择发射导弹杀死 <strong>6名</strong> 敌国士兵，但会误杀附近的 <strong>1名</strong> 敌国平民。</p> <p>平民照片如下图所示。</p> <p></p> <img src='stimuli/faces/PCM6.jpg', style='max-width: 30%;'> </img> <p><strong>你是否选择发射武器？</strong></p>","0",""
"","","","","","html-keyboard-response","36","1669274","0.0-4.0-0.16","126","1","2022-11-14 14:27:31","a60ee176136a54a92dc2853177adfa2c","183.61.16.117","Mozilla/5.0 (Windows NT 10.0; Win64; x64) AppleWebKit/537.36 (KHTML, like Gecko) Chrome/106.0.0.0 Safari/537.36 Edg/106.0.1370.42","WebKit","Edge","106.0.1370.42","Windows","10.0","null","<div style=""font-size:60px;"">+</div>","null",""
"","","","","","html-button-response","37","1670545","0.0-4.0-1.16","126","1","2022-11-14 14:27:31","a60ee176136a54a92dc2853177adfa2c","183.61.16.117","Mozilla/5.0 (Windows NT 10.0; Win64; x64) AppleWebKit/537.36 (KHTML, like Gecko) Chrome/106.0.0.0 Safari/537.36 Edg/106.0.1370.42","WebKit","Edge","106.0.1370.42","Windows","10.0","1269","<p>作为军队的指挥官，你可以选择发射导弹杀死 <strong>3名</strong> 敌国士兵，但会炸毁附近的 <strong>1棵</strong> 敌国树木。</p> <p>树木的照片如下图所示。</p> <p></p> <img src='stimuli/trees/13.png', style='max-width: 30%;'> </img> <p><strong>你是否选择发射武器？</strong></p>","1",""
"","","","","","html-keyboard-response","38","1671555","0.0-4.0-0.17","126","1","2022-11-14 14:27:31","a60ee176136a54a92dc2853177adfa2c","183.61.16.117","Mozilla/5.0 (Windows NT 10.0; Win64; x64) AppleWebKit/537.36 (KHTML, like Gecko) Chrome/106.0.0.0 Safari/537.36 Edg/106.0.1370.42","WebKit","Edge","106.0.1370.42","Windows","10.0","null","<div style=""font-size:60px;"">+</div>","null",""
"","","","","","html-button-response","39","1672857","0.0-4.0-1.17","126","1","2022-11-14 14:27:31","a60ee176136a54a92dc2853177adfa2c","183.61.16.117","Mozilla/5.0 (Windows NT 10.0; Win64; x64) AppleWebKit/537.36 (KHTML, like Gecko) Chrome/106.0.0.0 Safari/537.36 Edg/106.0.1370.42","WebKit","Edge","106.0.1370.42","Windows","10.0","1300","<p>作为军队的指挥官，你可以选择发射导弹杀死 <strong>10名</strong> 敌国士兵，但会炸毁附近的 <strong>1棵</strong> 敌国树木。</p> <p>树木的照片如下图所示。</p> <p></p> <img src='stimuli/trees/9.png', style='max-width: 30%;'> </img> <p><strong>你是否选择发射武器？</strong></p>","0",""
"","","","","","html-keyboard-response","40","1673859","0.0-4.0-0.18","126","1","2022-11-14 14:27:31","a60ee176136a54a92dc2853177adfa2c","183.61.16.117","Mozilla/5.0 (Windows NT 10.0; Win64; x64) AppleWebKit/537.36 (KHTML, like Gecko) Chrome/106.0.0.0 Safari/537.36 Edg/106.0.1370.42","WebKit","Edge","106.0.1370.42","Windows","10.0","null","<div style=""font-size:60px;"">+</div>","null",""
"","","","","","html-button-response","41","1675520","0.0-4.0-1.18","126","1","2022-11-14 14:27:31","a60ee176136a54a92dc2853177adfa2c","183.61.16.117","Mozilla/5.0 (Windows NT 10.0; Win64; x64) AppleWebKit/537.36 (KHTML, like Gecko) Chrome/106.0.0.0 Safari/537.36 Edg/106.0.1370.42","WebKit","Edge","106.0.1370.42","Windows","10.0","1660","<p>作为军队的指挥官，你可以选择发射导弹杀死 <strong>5名</strong> 敌国士兵，但会炸毁附近的 <strong>1棵</strong> 敌国树木。</p> <p>树木的照片如下图所示。</p> <p></p> <img src='stimuli/trees/5.png', style='max-width: 30%;'> </img> <p><strong>你是否选择发射武器？</strong></p>","1",""
"","","","","","html-keyboard-response","42","1676522","0.0-4.0-0.19","126","1","2022-11-14 14:27:31","a60ee176136a54a92dc2853177adfa2c","183.61.16.117","Mozilla/5.0 (Windows NT 10.0; Win64; x64) AppleWebKit/537.36 (KHTML, like Gecko) Chrome/106.0.0.0 Safari/537.36 Edg/106.0.1370.42","WebKit","Edge","106.0.1370.42","Windows","10.0","null","<div style=""font-size:60px;"">+</div>","null",""
"","","","","","html-button-response","43","1677480","0.0-4.0-1.19","126","1","2022-11-14 14:27:31","a60ee176136a54a92dc2853177adfa2c","183.61.16.117","Mozilla/5.0 (Windows NT 10.0; Win64; x64) AppleWebKit/537.36 (KHTML, like Gecko) Chrome/106.0.0.0 Safari/537.36 Edg/106.0.1370.42","WebKit","Edge","106.0.1370.42","Windows","10.0","956","<p>作为军队的指挥官，你可以选择发射导弹杀死 <strong>7名</strong> 敌国士兵，但会炸毁附近的 <strong>1棵</strong> 敌国树木。</p> <p>树木的照片如下图所示。</p> <p></p> <img src='stimuli/trees/2.png', style='max-width: 30%;'> </img> <p><strong>你是否选择发射武器？</strong></p>","0",""
"","","","","","html-keyboard-response","44","1678482","0.0-4.0-0.20","126","1","2022-11-14 14:27:31","a60ee176136a54a92dc2853177adfa2c","183.61.16.117","Mozilla/5.0 (Windows NT 10.0; Win64; x64) AppleWebKit/537.36 (KHTML, like Gecko) Chrome/106.0.0.0 Safari/537.36 Edg/106.0.1370.42","WebKit","Edge","106.0.1370.42","Windows","10.0","null","<div style=""font-size:60px;"">+</div>","null",""
"","","","","","html-button-response","45","1680230","0.0-4.0-1.20","126","1","2022-11-14 14:27:31","a60ee176136a54a92dc2853177adfa2c","183.61.16.117","Mozilla/5.0 (Windows NT 10.0; Win64; x64) AppleWebKit/537.36 (KHTML, like Gecko) Chrome/106.0.0.0 Safari/537.36 Edg/106.0.1370.42","WebKit","Edge","106.0.1370.42","Windows","10.0","1746","<p>作为军队的指挥官，你可以选择发射导弹杀死 <strong>10名</strong> 敌国士兵，但会误杀附近的 <strong>1名</strong> 敌国平民。</p> <p>平民照片如下图所示。</p> <p></p> <img src='stimuli/faces/PCF8.jpg', style='max-width: 30%;'> </img> <p><strong>你是否选择发射武器？</strong></p>","0",""
"","","","","","html-keyboard-response","46","1681233","0.0-4.0-0.21","126","1","2022-11-14 14:27:31","a60ee176136a54a92dc2853177adfa2c","183.61.16.117","Mozilla/5.0 (Windows NT 10.0; Win64; x64) AppleWebKit/537.36 (KHTML, like Gecko) Chrome/106.0.0.0 Safari/537.36 Edg/106.0.1370.42","WebKit","Edge","106.0.1370.42","Windows","10.0","null","<div style=""font-size:60px;"">+</div>","null",""
"","","","","","html-button-response","47","1683276","0.0-4.0-1.21","126","1","2022-11-14 14:27:31","a60ee176136a54a92dc2853177adfa2c","183.61.16.117","Mozilla/5.0 (Windows NT 10.0; Win64; x64) AppleWebKit/537.36 (KHTML, like Gecko) Chrome/106.0.0.0 Safari/537.36 Edg/106.0.1370.42","WebKit","Edge","106.0.1370.42","Windows","10.0","2041","<p>作为军队的指挥官，你可以选择发射导弹杀死 <strong>10名</strong> 敌国士兵，但会误杀附近的 <strong>1名</strong> 敌国平民。</p> <p>平民照片如下图所示。</p> <p></p> <img src='stimuli/faces/PCF6.jpg', style='max-width: 30%;'> </img> <p><strong>你是否选择发射武器？</strong></p>","0",""
"","","","","","html-keyboard-response","48","1684285","0.0-4.0-0.22","126","1","2022-11-14 14:27:31","a60ee176136a54a92dc2853177adfa2c","183.61.16.117","Mozilla/5.0 (Windows NT 10.0; Win64; x64) AppleWebKit/537.36 (KHTML, like Gecko) Chrome/106.0.0.0 Safari/537.36 Edg/106.0.1370.42","WebKit","Edge","106.0.1370.42","Windows","10.0","null","<div style=""font-size:60px;"">+</div>","null",""
"","","","","","html-button-response","49","1685571","0.0-4.0-1.22","126","1","2022-11-14 14:27:31","a60ee176136a54a92dc2853177adfa2c","183.61.16.117","Mozilla/5.0 (Windows NT 10.0; Win64; x64) AppleWebKit/537.36 (KHTML, like Gecko) Chrome/106.0.0.0 Safari/537.36 Edg/106.0.1370.42","WebKit","Edge","106.0.1370.42","Windows","10.0","1284","<p>作为军队的指挥官，你可以选择发射导弹杀死 <strong>9名</strong> 敌国士兵，但会误杀附近的 <strong>1名</strong> 敌国平民。</p> <p>平民照片如下图所示。</p> <p></p> <img src='stimuli/faces/PCF4.jpg', style='max-width: 30%;'> </img> <p><strong>你是否选择发射武器？</strong></p>","0",""
"","","","","","html-keyboard-response","50","1686574","0.0-4.0-0.23","126","1","2022-11-14 14:27:31","a60ee176136a54a92dc2853177adfa2c","183.61.16.117","Mozilla/5.0 (Windows NT 10.0; Win64; x64) AppleWebKit/537.36 (KHTML, like Gecko) Chrome/106.0.0.0 Safari/537.36 Edg/106.0.1370.42","WebKit","Edge","106.0.1370.42","Windows","10.0","null","<div style=""font-size:60px;"">+</div>","null",""
"","","","","","html-button-response","51","1690051","0.0-4.0-1.23","126","1","2022-11-14 14:27:31","a60ee176136a54a92dc2853177adfa2c","183.61.16.117","Mozilla/5.0 (Windows NT 10.0; Win64; x64) AppleWebKit/537.36 (KHTML, like Gecko) Chrome/106.0.0.0 Safari/537.36 Edg/106.0.1370.42","WebKit","Edge","106.0.1370.42","Windows","10.0","3475","<p>作为军队的指挥官，你可以选择发射导弹杀死 <strong>5名</strong> 敌国士兵，但会误杀附近的 <strong>1名</strong> 敌国平民。</p> <p>平民照片如下图所示。</p> <p></p> <img src='stimuli/faces/PCF2.jpg', style='max-width: 30%;'> </img> <p><strong>你是否选择发射武器？</strong></p>","0",""
"","","","","","html-keyboard-response","52","1691060","0.0-4.0-0.24","126","1","2022-11-14 14:27:31","a60ee176136a54a92dc2853177adfa2c","183.61.16.117","Mozilla/5.0 (Windows NT 10.0; Win64; x64) AppleWebKit/537.36 (KHTML, like Gecko) Chrome/106.0.0.0 Safari/537.36 Edg/106.0.1370.42","WebKit","Edge","106.0.1370.42","Windows","10.0","null","<div style=""font-size:60px;"">+</div>","null",""
"","","","","","html-button-response","53","1695753","0.0-4.0-1.24","126","1","2022-11-14 14:27:31","a60ee176136a54a92dc2853177adfa2c","183.61.16.117","Mozilla/5.0 (Windows NT 10.0; Win64; x64) AppleWebKit/537.36 (KHTML, like Gecko) Chrome/106.0.0.0 Safari/537.36 Edg/106.0.1370.42","WebKit","Edge","106.0.1370.42","Windows","10.0","4691","<p>作为军队的指挥官，你可以选择发射导弹杀死 <strong>9名</strong> 敌国士兵，但会炸毁附近的 <strong>1棵</strong> 敌国树木。</p> <p>树木的照片如下图所示。</p> <p></p> <img src='stimuli/trees/4.png', style='max-width: 30%;'> </img> <p><strong>你是否选择发射武器？</strong></p>","1",""
"","","","","","html-keyboard-response","54","1696756","0.0-4.0-0.25","126","1","2022-11-14 14:27:31","a60ee176136a54a92dc2853177adfa2c","183.61.16.117","Mozilla/5.0 (Windows NT 10.0; Win64; x64) AppleWebKit/537.36 (KHTML, like Gecko) Chrome/106.0.0.0 Safari/537.36 Edg/106.0.1370.42","WebKit","Edge","106.0.1370.42","Windows","10.0","null","<div style=""font-size:60px;"">+</div>","null",""
"","","","","","html-button-response","55","1699443","0.0-4.0-1.25","126","1","2022-11-14 14:27:31","a60ee176136a54a92dc2853177adfa2c","183.61.16.117","Mozilla/5.0 (Windows NT 10.0; Win64; x64) AppleWebKit/537.36 (KHTML, like Gecko) Chrome/106.0.0.0 Safari/537.36 Edg/106.0.1370.42","WebKit","Edge","106.0.1370.42","Windows","10.0","2686","<p>作为军队的指挥官，你可以选择发射导弹杀死 <strong>5名</strong> 敌国士兵，但会炸毁附近的 <strong>1棵</strong> 敌国树木。</p> <p>树木的照片如下图所示。</p> <p></p> <img src='stimuli/trees/11.png', style='max-width: 30%;'> </img> <p><strong>你是否选择发射武器？</strong></p>","1",""
"","","","","","html-keyboard-response","56","1700446","0.0-4.0-0.26","126","1","2022-11-14 14:27:31","a60ee176136a54a92dc2853177adfa2c","183.61.16.117","Mozilla/5.0 (Windows NT 10.0; Win64; x64) AppleWebKit/537.36 (KHTML, like Gecko) Chrome/106.0.0.0 Safari/537.36 Edg/106.0.1370.42","WebKit","Edge","106.0.1370.42","Windows","10.0","null","<div style=""font-size:60px;"">+</div>","null",""
"","","","","","html-button-response","57","1703233","0.0-4.0-1.26","126","1","2022-11-14 14:27:31","a60ee176136a54a92dc2853177adfa2c","183.61.16.117","Mozilla/5.0 (Windows NT 10.0; Win64; x64) AppleWebKit/537.36 (KHTML, like Gecko) Chrome/106.0.0.0 Safari/537.36 Edg/106.0.1370.42","WebKit","Edge","106.0.1370.42","Windows","10.0","2785","<p>作为军队的指挥官，你可以选择发射导弹杀死 <strong>5名</strong> 敌国士兵，但会误杀附近的 <strong>1名</strong> 敌国平民。</p> <p>平民照片如下图所示。</p> <p></p> <img src='stimuli/faces/PCM2.jpg', style='max-width: 30%;'> </img> <p><strong>你是否选择发射武器？</strong></p>","0",""
"","","","","","html-keyboard-response","58","1704236","0.0-4.0-0.27","126","1","2022-11-14 14:27:31","a60ee176136a54a92dc2853177adfa2c","183.61.16.117","Mozilla/5.0 (Windows NT 10.0; Win64; x64) AppleWebKit/537.36 (KHTML, like Gecko) Chrome/106.0.0.0 Safari/537.36 Edg/106.0.1370.42","WebKit","Edge","106.0.1370.42","Windows","10.0","null","<div style=""font-size:60px;"">+</div>","null",""
"","","","","","html-button-response","59","1705981","0.0-4.0-1.27","126","1","2022-11-14 14:27:31","a60ee176136a54a92dc2853177adfa2c","183.61.16.117","Mozilla/5.0 (Windows NT 10.0; Win64; x64) AppleWebKit/537.36 (KHTML, like Gecko) Chrome/106.0.0.0 Safari/537.36 Edg/106.0.1370.42","WebKit","Edge","106.0.1370.42","Windows","10.0","1743","<p>作为军队的指挥官，你可以选择发射导弹杀死 <strong>3名</strong> 敌国士兵，但会炸毁附近的 <strong>1棵</strong> 敌国树木。</p> <p>树木的照片如下图所示。</p> <p></p> <img src='stimuli/trees/2.png', style='max-width: 30%;'> </img> <p><strong>你是否选择发射武器？</strong></p>","1",""
"","","","","","html-keyboard-response","60","1706983","0.0-4.0-0.28","126","1","2022-11-14 14:27:31","a60ee176136a54a92dc2853177adfa2c","183.61.16.117","Mozilla/5.0 (Windows NT 10.0; Win64; x64) AppleWebKit/537.36 (KHTML, like Gecko) Chrome/106.0.0.0 Safari/537.36 Edg/106.0.1370.42","WebKit","Edge","106.0.1370.42","Windows","10.0","null","<div style=""font-size:60px;"">+</div>","null",""
"","","","","","html-button-response","61","1709216","0.0-4.0-1.28","126","1","2022-11-14 14:27:31","a60ee176136a54a92dc2853177adfa2c","183.61.16.117","Mozilla/5.0 (Windows NT 10.0; Win64; x64) AppleWebKit/537.36 (KHTML, like Gecko) Chrome/106.0.0.0 Safari/537.36 Edg/106.0.1370.42","WebKit","Edge","106.0.1370.42","Windows","10.0","2231","<p>作为军队的指挥官，你可以选择发射导弹杀死 <strong>10名</strong> 敌国士兵，但会误杀附近的 <strong>1名</strong> 敌国平民。</p> <p>平民照片如下图所示。</p> <p></p> <img src='stimuli/faces/PCM1.jpg', style='max-width: 30%;'> </img> <p><strong>你是否选择发射武器？</strong></p>","0",""
"","","","","","html-keyboard-response","62","1710218","0.0-4.0-0.29","126","1","2022-11-14 14:27:31","a60ee176136a54a92dc2853177adfa2c","183.61.16.117","Mozilla/5.0 (Windows NT 10.0; Win64; x64) AppleWebKit/537.36 (KHTML, like Gecko) Chrome/106.0.0.0 Safari/537.36 Edg/106.0.1370.42","WebKit","Edge","106.0.1370.42","Windows","10.0","null","<div style=""font-size:60px;"">+</div>","null",""
"","","","","","html-button-response","63","1712523","0.0-4.0-1.29","126","1","2022-11-14 14:27:31","a60ee176136a54a92dc2853177adfa2c","183.61.16.117","Mozilla/5.0 (Windows NT 10.0; Win64; x64) AppleWebKit/537.36 (KHTML, like Gecko) Chrome/106.0.0.0 Safari/537.36 Edg/106.0.1370.42","WebKit","Edge","106.0.1370.42","Windows","10.0","2303","<p>作为军队的指挥官，你可以选择发射导弹杀死 <strong>9名</strong> 敌国士兵，但会误杀附近的 <strong>1名</strong> 敌国平民。</p> <p>平民照片如下图所示。</p> <p></p> <img src='stimuli/faces/PCM8.jpg', style='max-width: 30%;'> </img> <p><strong>你是否选择发射武器？</strong></p>","0",""
"","","","","","html-keyboard-response","64","1713525","0.0-4.0-0.30","126","1","2022-11-14 14:27:31","a60ee176136a54a92dc2853177adfa2c","183.61.16.117","Mozilla/5.0 (Windows NT 10.0; Win64; x64) AppleWebKit/537.36 (KHTML, like Gecko) Chrome/106.0.0.0 Safari/537.36 Edg/106.0.1370.42","WebKit","Edge","106.0.1370.42","Windows","10.0","null","<div style=""font-size:60px;"">+</div>","null",""
"","","","","","html-button-response","65","1714910","0.0-4.0-1.30","126","1","2022-11-14 14:27:31","a60ee176136a54a92dc2853177adfa2c","183.61.16.117","Mozilla/5.0 (Windows NT 10.0; Win64; x64) AppleWebKit/537.36 (KHTML, like Gecko) Chrome/106.0.0.0 Safari/537.36 Edg/106.0.1370.42","WebKit","Edge","106.0.1370.42","Windows","10.0","1383","<p>作为军队的指挥官，你可以选择发射导弹杀死 <strong>5名</strong> 敌国士兵，但会误杀附近的 <strong>1名</strong> 敌国平民。</p> <p>平民照片如下图所示。</p> <p></p> <img src='stimuli/faces/PCF4.jpg', style='max-width: 30%;'> </img> <p><strong>你是否选择发射武器？</strong></p>","0",""
"","","","","","html-keyboard-response","66","1715921","0.0-4.0-0.31","126","1","2022-11-14 14:27:31","a60ee176136a54a92dc2853177adfa2c","183.61.16.117","Mozilla/5.0 (Windows NT 10.0; Win64; x64) AppleWebKit/537.36 (KHTML, like Gecko) Chrome/106.0.0.0 Safari/537.36 Edg/106.0.1370.42","WebKit","Edge","106.0.1370.42","Windows","10.0","null","<div style=""font-size:60px;"">+</div>","null",""
"","","","","","html-button-response","67","1717180","0.0-4.0-1.31","126","1","2022-11-14 14:27:31","a60ee176136a54a92dc2853177adfa2c","183.61.16.117","Mozilla/5.0 (Windows NT 10.0; Win64; x64) AppleWebKit/537.36 (KHTML, like Gecko) Chrome/106.0.0.0 Safari/537.36 Edg/106.0.1370.42","WebKit","Edge","106.0.1370.42","Windows","10.0","1257","<p>作为军队的指挥官，你可以选择发射导弹杀死 <strong>1名</strong> 敌国士兵，但会炸毁附近的 <strong>1棵</strong> 敌国树木。</p> <p>树木的照片如下图所示。</p> <p></p> <img src='stimuli/trees/9.png', style='max-width: 30%;'> </img> <p><strong>你是否选择发射武器？</strong></p>","1",""
"","","","","","html-keyboard-response","68","1718183","0.0-4.0-0.32","126","1","2022-11-14 14:27:31","a60ee176136a54a92dc2853177adfa2c","183.61.16.117","Mozilla/5.0 (Windows NT 10.0; Win64; x64) AppleWebKit/537.36 (KHTML, like Gecko) Chrome/106.0.0.0 Safari/537.36 Edg/106.0.1370.42","WebKit","Edge","106.0.1370.42","Windows","10.0","null","<div style=""font-size:60px;"">+</div>","null",""
"","","","","","html-button-response","69","1720144","0.0-4.0-1.32","126","1","2022-11-14 14:27:31","a60ee176136a54a92dc2853177adfa2c","183.61.16.117","Mozilla/5.0 (Windows NT 10.0; Win64; x64) AppleWebKit/537.36 (KHTML, like Gecko) Chrome/106.0.0.0 Safari/537.36 Edg/106.0.1370.42","WebKit","Edge","106.0.1370.42","Windows","10.0","1959","<p>作为军队的指挥官，你可以选择发射导弹杀死 <strong>5名</strong> 敌国士兵，但会炸毁附近的 <strong>1棵</strong> 敌国树木。</p> <p>树木的照片如下图所示。</p> <p></p> <img src='stimuli/trees/12.png', style='max-width: 30%;'> </img> <p><strong>你是否选择发射武器？</strong></p>","1",""
"","","","","","html-keyboard-response","70","1721157","0.0-4.0-0.33","126","1","2022-11-14 14:27:31","a60ee176136a54a92dc2853177adfa2c","183.61.16.117","Mozilla/5.0 (Windows NT 10.0; Win64; x64) AppleWebKit/537.36 (KHTML, like Gecko) Chrome/106.0.0.0 Safari/537.36 Edg/106.0.1370.42","WebKit","Edge","106.0.1370.42","Windows","10.0","null","<div style=""font-size:60px;"">+</div>","null",""
"","","","","","html-button-response","71","1723127","0.0-4.0-1.33","126","1","2022-11-14 14:27:31","a60ee176136a54a92dc2853177adfa2c","183.61.16.117","Mozilla/5.0 (Windows NT 10.0; Win64; x64) AppleWebKit/537.36 (KHTML, like Gecko) Chrome/106.0.0.0 Safari/537.36 Edg/106.0.1370.42","WebKit","Edge","106.0.1370.42","Windows","10.0","1968","<p>作为军队的指挥官，你可以选择发射导弹杀死 <strong>2名</strong> 敌国士兵，但会误杀附近的 <strong>1名</strong> 敌国平民。</p> <p>平民照片如下图所示。</p> <p></p> <img src='stimuli/faces/PCM3.jpg', style='max-width: 30%;'> </img> <p><strong>你是否选择发射武器？</strong></p>","0",""
"","","","","","html-keyboard-response","72","1724135","0.0-4.0-0.34","126","1","2022-11-14 14:27:31","a60ee176136a54a92dc2853177adfa2c","183.61.16.117","Mozilla/5.0 (Windows NT 10.0; Win64; x64) AppleWebKit/537.36 (KHTML, like Gecko) Chrome/106.0.0.0 Safari/537.36 Edg/106.0.1370.42","WebKit","Edge","106.0.1370.42","Windows","10.0","null","<div style=""font-size:60px;"">+</div>","null",""
"","","","","","html-button-response","73","1728359","0.0-4.0-1.34","126","1","2022-11-14 14:27:31","a60ee176136a54a92dc2853177adfa2c","183.61.16.117","Mozilla/5.0 (Windows NT 10.0; Win64; x64) AppleWebKit/537.36 (KHTML, like Gecko) Chrome/106.0.0.0 Safari/537.36 Edg/106.0.1370.42","WebKit","Edge","106.0.1370.42","Windows","10.0","4222","<p>作为军队的指挥官，你可以选择发射导弹杀死 <strong>10名</strong> 敌国士兵，但会炸毁附近的 <strong>1棵</strong> 敌国树木。</p> <p>树木的照片如下图所示。</p> <p></p> <img src='stimuli/trees/15.png', style='max-width: 30%;'> </img> <p><strong>你是否选择发射武器？</strong></p>","0",""
"","","","","","html-keyboard-response","74","1729364","0.0-4.0-0.35","126","1","2022-11-14 14:27:31","a60ee176136a54a92dc2853177adfa2c","183.61.16.117","Mozilla/5.0 (Windows NT 10.0; Win64; x64) AppleWebKit/537.36 (KHTML, like Gecko) Chrome/106.0.0.0 Safari/537.36 Edg/106.0.1370.42","WebKit","Edge","106.0.1370.42","Windows","10.0","null","<div style=""font-size:60px;"">+</div>","null",""
"","","","","","html-button-response","75","1730937","0.0-4.0-1.35","126","1","2022-11-14 14:27:31","a60ee176136a54a92dc2853177adfa2c","183.61.16.117","Mozilla/5.0 (Windows NT 10.0; Win64; x64) AppleWebKit/537.36 (KHTML, like Gecko) Chrome/106.0.0.0 Safari/537.36 Edg/106.0.1370.42","WebKit","Edge","106.0.1370.42","Windows","10.0","1571","<p>作为军队的指挥官，你可以选择发射导弹杀死 <strong>2名</strong> 敌国士兵，但会误杀附近的 <strong>1名</strong> 敌国平民。</p> <p>平民照片如下图所示。</p> <p></p> <img src='stimuli/faces/PCF8.jpg', style='max-width: 30%;'> </img> <p><strong>你是否选择发射武器？</strong></p>","0",""
"","","","","","html-keyboard-response","76","1731949","0.0-4.0-0.36","126","1","2022-11-14 14:27:31","a60ee176136a54a92dc2853177adfa2c","183.61.16.117","Mozilla/5.0 (Windows NT 10.0; Win64; x64) AppleWebKit/537.36 (KHTML, like Gecko) Chrome/106.0.0.0 Safari/537.36 Edg/106.0.1370.42","WebKit","Edge","106.0.1370.42","Windows","10.0","null","<div style=""font-size:60px;"">+</div>","null",""
"","","","","","html-button-response","77","1736352","0.0-4.0-1.36","126","1","2022-11-14 14:27:31","a60ee176136a54a92dc2853177adfa2c","183.61.16.117","Mozilla/5.0 (Windows NT 10.0; Win64; x64) AppleWebKit/537.36 (KHTML, like Gecko) Chrome/106.0.0.0 Safari/537.36 Edg/106.0.1370.42","WebKit","Edge","106.0.1370.42","Windows","10.0","4401","<p>作为军队的指挥官，你可以选择发射导弹杀死 <strong>7名</strong> 敌国士兵，但会炸毁附近的 <strong>1棵</strong> 敌国树木。</p> <p>树木的照片如下图所示。</p> <p></p> <img src='stimuli/trees/10.png', style='max-width: 30%;'> </img> <p><strong>你是否选择发射武器？</strong></p>","0",""
"","","","","","html-keyboard-response","78","1737365","0.0-4.0-0.37","126","1","2022-11-14 14:27:31","a60ee176136a54a92dc2853177adfa2c","183.61.16.117","Mozilla/5.0 (Windows NT 10.0; Win64; x64) AppleWebKit/537.36 (KHTML, like Gecko) Chrome/106.0.0.0 Safari/537.36 Edg/106.0.1370.42","WebKit","Edge","106.0.1370.42","Windows","10.0","null","<div style=""font-size:60px;"">+</div>","null",""
"","","","","","html-button-response","79","1742077","0.0-4.0-1.37","126","1","2022-11-14 14:27:31","a60ee176136a54a92dc2853177adfa2c","183.61.16.117","Mozilla/5.0 (Windows NT 10.0; Win64; x64) AppleWebKit/537.36 (KHTML, like Gecko) Chrome/106.0.0.0 Safari/537.36 Edg/106.0.1370.42","WebKit","Edge","106.0.1370.42","Windows","10.0","4710","<p>作为军队的指挥官，你可以选择发射导弹杀死 <strong>4名</strong> 敌国士兵，但会炸毁附近的 <strong>1棵</strong> 敌国树木。</p> <p>树木的照片如下图所示。</p> <p></p> <img src='stimuli/trees/6.png', style='max-width: 30%;'> </img> <p><strong>你是否选择发射武器？</strong></p>","1",""
"","","","","","html-keyboard-response","80","1743095","0.0-4.0-0.38","126","1","2022-11-14 14:27:31","a60ee176136a54a92dc2853177adfa2c","183.61.16.117","Mozilla/5.0 (Windows NT 10.0; Win64; x64) AppleWebKit/537.36 (KHTML, like Gecko) Chrome/106.0.0.0 Safari/537.36 Edg/106.0.1370.42","WebKit","Edge","106.0.1370.42","Windows","10.0","null","<div style=""font-size:60px;"">+</div>","null",""
"","","","","","html-button-response","81","1744377","0.0-4.0-1.38","126","1","2022-11-14 14:27:31","a60ee176136a54a92dc2853177adfa2c","183.61.16.117","Mozilla/5.0 (Windows NT 10.0; Win64; x64) AppleWebKit/537.36 (KHTML, like Gecko) Chrome/106.0.0.0 Safari/537.36 Edg/106.0.1370.42","WebKit","Edge","106.0.1370.42","Windows","10.0","1280","<p>作为军队的指挥官，你可以选择发射导弹杀死 <strong>5名</strong> 敌国士兵，但会误杀附近的 <strong>1名</strong> 敌国平民。</p> <p>平民照片如下图所示。</p> <p></p> <img src='stimuli/faces/PCF5.jpg', style='max-width: 30%;'> </img> <p><strong>你是否选择发射武器？</strong></p>","0",""
"","","","","","html-keyboard-response","82","1745386","0.0-4.0-0.39","126","1","2022-11-14 14:27:31","a60ee176136a54a92dc2853177adfa2c","183.61.16.117","Mozilla/5.0 (Windows NT 10.0; Win64; x64) AppleWebKit/537.36 (KHTML, like Gecko) Chrome/106.0.0.0 Safari/537.36 Edg/106.0.1370.42","WebKit","Edge","106.0.1370.42","Windows","10.0","null","<div style=""font-size:60px;"">+</div>","null",""
"","","","","","html-button-response","83","1750627","0.0-4.0-1.39","126","1","2022-11-14 14:27:31","a60ee176136a54a92dc2853177adfa2c","183.61.16.117","Mozilla/5.0 (Windows NT 10.0; Win64; x64) AppleWebKit/537.36 (KHTML, like Gecko) Chrome/106.0.0.0 Safari/537.36 Edg/106.0.1370.42","WebKit","Edge","106.0.1370.42","Windows","10.0","5238","<p>作为军队的指挥官，你可以选择发射导弹杀死 <strong>9名</strong> 敌国士兵，但会误杀附近的 <strong>1名</strong> 敌国平民。</p> <p>平民照片如下图所示。</p> <p></p> <img src='stimuli/faces/PCF2.jpg', style='max-width: 30%;'> </img> <p><strong>你是否选择发射武器？</strong></p>","0",""
"","","","","","html-keyboard-response","84","1751631","0.0-4.0-0.40","126","1","2022-11-14 14:27:31","a60ee176136a54a92dc2853177adfa2c","183.61.16.117","Mozilla/5.0 (Windows NT 10.0; Win64; x64) AppleWebKit/537.36 (KHTML, like Gecko) Chrome/106.0.0.0 Safari/537.36 Edg/106.0.1370.42","WebKit","Edge","106.0.1370.42","Windows","10.0","null","<div style=""font-size:60px;"">+</div>","null",""
"","","","","","html-button-response","85","1766424","0.0-4.0-1.40","126","1","2022-11-14 14:27:31","a60ee176136a54a92dc2853177adfa2c","183.61.16.117","Mozilla/5.0 (Windows NT 10.0; Win64; x64) AppleWebKit/537.36 (KHTML, like Gecko) Chrome/106.0.0.0 Safari/537.36 Edg/106.0.1370.42","WebKit","Edge","106.0.1370.42","Windows","10.0","14791","<p>作为军队的指挥官，你可以选择发射导弹杀死 <strong>10名</strong> 敌国士兵，但会误杀附近的 <strong>1名</strong> 敌国平民。</p> <p>平民照片如下图所示。</p> <p></p> <img src='stimuli/faces/PCM4.jpg', style='max-width: 30%;'> </img> <p><strong>你是否选择发射武器？</strong></p>","0",""
"","","","","","html-keyboard-response","86","1767442","0.0-4.0-0.41","126","1","2022-11-14 14:27:31","a60ee176136a54a92dc2853177adfa2c","183.61.16.117","Mozilla/5.0 (Windows NT 10.0; Win64; x64) AppleWebKit/537.36 (KHTML, like Gecko) Chrome/106.0.0.0 Safari/537.36 Edg/106.0.1370.42","WebKit","Edge","106.0.1370.42","Windows","10.0","null","<div style=""font-size:60px;"">+</div>","null",""
"","","","","","html-button-response","87","1768997","0.0-4.0-1.41","126","1","2022-11-14 14:27:31","a60ee176136a54a92dc2853177adfa2c","183.61.16.117","Mozilla/5.0 (Windows NT 10.0; Win64; x64) AppleWebKit/537.36 (KHTML, like Gecko) Chrome/106.0.0.0 Safari/537.36 Edg/106.0.1370.42","WebKit","Edge","106.0.1370.42","Windows","10.0","1553","<p>作为军队的指挥官，你可以选择发射导弹杀死 <strong>8名</strong> 敌国士兵，但会误杀附近的 <strong>1名</strong> 敌国平民。</p> <p>平民照片如下图所示。</p> <p></p> <img src='stimuli/faces/PCF7.jpg', style='max-width: 30%;'> </img> <p><strong>你是否选择发射武器？</strong></p>","0",""
"","","","","","html-keyboard-response","88","1770010","0.0-4.0-0.42","126","1","2022-11-14 14:27:31","a60ee176136a54a92dc2853177adfa2c","183.61.16.117","Mozilla/5.0 (Windows NT 10.0; Win64; x64) AppleWebKit/537.36 (KHTML, like Gecko) Chrome/106.0.0.0 Safari/537.36 Edg/106.0.1370.42","WebKit","Edge","106.0.1370.42","Windows","10.0","null","<div style=""font-size:60px;"">+</div>","null",""
"","","","","","html-button-response","89","1774112","0.0-4.0-1.42","126","1","2022-11-14 14:27:31","a60ee176136a54a92dc2853177adfa2c","183.61.16.117","Mozilla/5.0 (Windows NT 10.0; Win64; x64) AppleWebKit/537.36 (KHTML, like Gecko) Chrome/106.0.0.0 Safari/537.36 Edg/106.0.1370.42","WebKit","Edge","106.0.1370.42","Windows","10.0","4100","<p>作为军队的指挥官，你可以选择发射导弹杀死 <strong>8名</strong> 敌国士兵，但会炸毁附近的 <strong>1棵</strong> 敌国树木。</p> <p>树木的照片如下图所示。</p> <p></p> <img src='stimuli/trees/1.png', style='max-width: 30%;'> </img> <p><strong>你是否选择发射武器？</strong></p>","1",""
"","","","","","html-keyboard-response","90","1775116","0.0-4.0-0.43","126","1","2022-11-14 14:27:31","a60ee176136a54a92dc2853177adfa2c","183.61.16.117","Mozilla/5.0 (Windows NT 10.0; Win64; x64) AppleWebKit/537.36 (KHTML, like Gecko) Chrome/106.0.0.0 Safari/537.36 Edg/106.0.1370.42","WebKit","Edge","106.0.1370.42","Windows","10.0","null","<div style=""font-size:60px;"">+</div>","null",""
"","","","","","html-button-response","91","1783323","0.0-4.0-1.43","126","1","2022-11-14 14:27:31","a60ee176136a54a92dc2853177adfa2c","183.61.16.117","Mozilla/5.0 (Windows NT 10.0; Win64; x64) AppleWebKit/537.36 (KHTML, like Gecko) Chrome/106.0.0.0 Safari/537.36 Edg/106.0.1370.42","WebKit","Edge","106.0.1370.42","Windows","10.0","8206","<p>作为军队的指挥官，你可以选择发射导弹杀死 <strong>10名</strong> 敌国士兵，但会误杀附近的 <strong>1名</strong> 敌国平民。</p> <p>平民照片如下图所示。</p> <p></p> <img src='stimuli/faces/PCM2.jpg', style='max-width: 30%;'> </img> <p><strong>你是否选择发射武器？</strong></p>","0",""
"","","","","","html-keyboard-response","92","1784335","0.0-4.0-0.44","126","1","2022-11-14 14:27:31","a60ee176136a54a92dc2853177adfa2c","183.61.16.117","Mozilla/5.0 (Windows NT 10.0; Win64; x64) AppleWebKit/537.36 (KHTML, like Gecko) Chrome/106.0.0.0 Safari/537.36 Edg/106.0.1370.42","WebKit","Edge","106.0.1370.42","Windows","10.0","null","<div style=""font-size:60px;"">+</div>","null",""
"","","","","","html-button-response","93","1788405","0.0-4.0-1.44","126","1","2022-11-14 14:27:31","a60ee176136a54a92dc2853177adfa2c","183.61.16.117","Mozilla/5.0 (Windows NT 10.0; Win64; x64) AppleWebKit/537.36 (KHTML, like Gecko) Chrome/106.0.0.0 Safari/537.36 Edg/106.0.1370.42","WebKit","Edge","106.0.1370.42","Windows","10.0","4067","<p>作为军队的指挥官，你可以选择发射导弹杀死 <strong>8名</strong> 敌国士兵，但会炸毁附近的 <strong>1棵</strong> 敌国树木。</p> <p>树木的照片如下图所示。</p> <p></p> <img src='stimuli/trees/7.png', style='max-width: 30%;'> </img> <p><strong>你是否选择发射武器？</strong></p>","1",""
"","","","","","html-keyboard-response","94","1789407","0.0-4.0-0.45","126","1","2022-11-14 14:27:31","a60ee176136a54a92dc2853177adfa2c","183.61.16.117","Mozilla/5.0 (Windows NT 10.0; Win64; x64) AppleWebKit/537.36 (KHTML, like Gecko) Chrome/106.0.0.0 Safari/537.36 Edg/106.0.1370.42","WebKit","Edge","106.0.1370.42","Windows","10.0","null","<div style=""font-size:60px;"">+</div>","null",""
"","","","","","html-button-response","95","1790982","0.0-4.0-1.45","126","1","2022-11-14 14:27:31","a60ee176136a54a92dc2853177adfa2c","183.61.16.117","Mozilla/5.0 (Windows NT 10.0; Win64; x64) AppleWebKit/537.36 (KHTML, like Gecko) Chrome/106.0.0.0 Safari/537.36 Edg/106.0.1370.42","WebKit","Edge","106.0.1370.42","Windows","10.0","1573","<p>作为军队的指挥官，你可以选择发射导弹杀死 <strong>5名</strong> 敌国士兵，但会炸毁附近的 <strong>1棵</strong> 敌国树木。</p> <p>树木的照片如下图所示。</p> <p></p> <img src='stimuli/trees/16.png', style='max-width: 30%;'> </img> <p><strong>你是否选择发射武器？</strong></p>","0",""
"","","","","","html-keyboard-response","96","1791993","0.0-4.0-0.46","126","1","2022-11-14 14:27:31","a60ee176136a54a92dc2853177adfa2c","183.61.16.117","Mozilla/5.0 (Windows NT 10.0; Win64; x64) AppleWebKit/537.36 (KHTML, like Gecko) Chrome/106.0.0.0 Safari/537.36 Edg/106.0.1370.42","WebKit","Edge","106.0.1370.42","Windows","10.0","null","<div style=""font-size:60px;"">+</div>","null",""
"","","","","","html-button-response","97","1798165","0.0-4.0-1.46","126","1","2022-11-14 14:27:31","a60ee176136a54a92dc2853177adfa2c","183.61.16.117","Mozilla/5.0 (Windows NT 10.0; Win64; x64) AppleWebKit/537.36 (KHTML, like Gecko) Chrome/106.0.0.0 Safari/537.36 Edg/106.0.1370.42","WebKit","Edge","106.0.1370.42","Windows","10.0","6169","<p>作为军队的指挥官，你可以选择发射导弹杀死 <strong>2名</strong> 敌国士兵，但会炸毁附近的 <strong>1棵</strong> 敌国树木。</p> <p>树木的照片如下图所示。</p> <p></p> <img src='stimuli/trees/15.png', style='max-width: 30%;'> </img> <p><strong>你是否选择发射武器？</strong></p>","0",""
"","","","","","html-keyboard-response","98","1799179","0.0-4.0-0.47","126","1","2022-11-14 14:27:31","a60ee176136a54a92dc2853177adfa2c","183.61.16.117","Mozilla/5.0 (Windows NT 10.0; Win64; x64) AppleWebKit/537.36 (KHTML, like Gecko) Chrome/106.0.0.0 Safari/537.36 Edg/106.0.1370.42","WebKit","Edge","106.0.1370.42","Windows","10.0","null","<div style=""font-size:60px;"">+</div>","null",""
"","","","","","html-button-response","99","1800605","0.0-4.0-1.47","126","1","2022-11-14 14:27:31","a60ee176136a54a92dc2853177adfa2c","183.61.16.117","Mozilla/5.0 (Windows NT 10.0; Win64; x64) AppleWebKit/537.36 (KHTML, like Gecko) Chrome/106.0.0.0 Safari/537.36 Edg/106.0.1370.42","WebKit","Edge","106.0.1370.42","Windows","10.0","1423","<p>作为军队的指挥官，你可以选择发射导弹杀死 <strong>10名</strong> 敌国士兵，但会误杀附近的 <strong>1名</strong> 敌国平民。</p> <p>平民照片如下图所示。</p> <p></p> <img src='stimuli/faces/PCM7.jpg', style='max-width: 30%;'> </img> <p><strong>你是否选择发射武器？</strong></p>","0",""
"","","","","","html-keyboard-response","100","1801620","0.0-4.0-0.48","126","1","2022-11-14 14:27:31","a60ee176136a54a92dc2853177adfa2c","183.61.16.117","Mozilla/5.0 (Windows NT 10.0; Win64; x64) AppleWebKit/537.36 (KHTML, like Gecko) Chrome/106.0.0.0 Safari/537.36 Edg/106.0.1370.42","WebKit","Edge","106.0.1370.42","Windows","10.0","null","<div style=""font-size:60px;"">+</div>","null",""
"","","","","","html-button-response","101","1803914","0.0-4.0-1.48","126","1","2022-11-14 14:27:31","a60ee176136a54a92dc2853177adfa2c","183.61.16.117","Mozilla/5.0 (Windows NT 10.0; Win64; x64) AppleWebKit/537.36 (KHTML, like Gecko) Chrome/106.0.0.0 Safari/537.36 Edg/106.0.1370.42","WebKit","Edge","106.0.1370.42","Windows","10.0","2292","<p>作为军队的指挥官，你可以选择发射导弹杀死 <strong>7名</strong> 敌国士兵，但会炸毁附近的 <strong>1棵</strong> 敌国树木。</p> <p>树木的照片如下图所示。</p> <p></p> <img src='stimuli/trees/13.png', style='max-width: 30%;'> </img> <p><strong>你是否选择发射武器？</strong></p>","0",""
"","","","","","html-keyboard-response","102","1804929","0.0-4.0-0.49","126","1","2022-11-14 14:27:31","a60ee176136a54a92dc2853177adfa2c","183.61.16.117","Mozilla/5.0 (Windows NT 10.0; Win64; x64) AppleWebKit/537.36 (KHTML, like Gecko) Chrome/106.0.0.0 Safari/537.36 Edg/106.0.1370.42","WebKit","Edge","106.0.1370.42","Windows","10.0","null","<div style=""font-size:60px;"">+</div>","null",""
"","","","","","html-button-response","103","1807431","0.0-4.0-1.49","126","1","2022-11-14 14:27:31","a60ee176136a54a92dc2853177adfa2c","183.61.16.117","Mozilla/5.0 (Windows NT 10.0; Win64; x64) AppleWebKit/537.36 (KHTML, like Gecko) Chrome/106.0.0.0 Safari/537.36 Edg/106.0.1370.42","WebKit","Edge","106.0.1370.42","Windows","10.0","2499","<p>作为军队的指挥官，你可以选择发射导弹杀死 <strong>1名</strong> 敌国士兵，但会炸毁附近的 <strong>1棵</strong> 敌国树木。</p> <p>树木的照片如下图所示。</p> <p></p> <img src='stimuli/trees/10.png', style='max-width: 30%;'> </img> <p><strong>你是否选择发射武器？</strong></p>","1",""
"","","","","","html-keyboard-response","104","1808438","0.0-4.0-0.50","126","1","2022-11-14 14:27:31","a60ee176136a54a92dc2853177adfa2c","183.61.16.117","Mozilla/5.0 (Windows NT 10.0; Win64; x64) AppleWebKit/537.36 (KHTML, like Gecko) Chrome/106.0.0.0 Safari/537.36 Edg/106.0.1370.42","WebKit","Edge","106.0.1370.42","Windows","10.0","null","<div style=""font-size:60px;"">+</div>","null",""
"","","","","","html-button-response","105","1814168","0.0-4.0-1.50","126","1","2022-11-14 14:27:31","a60ee176136a54a92dc2853177adfa2c","183.61.16.117","Mozilla/5.0 (Windows NT 10.0; Win64; x64) AppleWebKit/537.36 (KHTML, like Gecko) Chrome/106.0.0.0 Safari/537.36 Edg/106.0.1370.42","WebKit","Edge","106.0.1370.42","Windows","10.0","5727","<p>作为军队的指挥官，你可以选择发射导弹杀死 <strong>8名</strong> 敌国士兵，但会炸毁附近的 <strong>1棵</strong> 敌国树木。</p> <p>树木的照片如下图所示。</p> <p></p> <img src='stimuli/trees/11.png', style='max-width: 30%;'> </img> <p><strong>你是否选择发射武器？</strong></p>","1",""
"","","","","","html-keyboard-response","106","1815186","0.0-4.0-0.51","126","1","2022-11-14 14:27:31","a60ee176136a54a92dc2853177adfa2c","183.61.16.117","Mozilla/5.0 (Windows NT 10.0; Win64; x64) AppleWebKit/537.36 (KHTML, like Gecko) Chrome/106.0.0.0 Safari/537.36 Edg/106.0.1370.42","WebKit","Edge","106.0.1370.42","Windows","10.0","null","<div style=""font-size:60px;"">+</div>","null",""
"","","","","","html-button-response","107","1817790","0.0-4.0-1.51","126","1","2022-11-14 14:27:31","a60ee176136a54a92dc2853177adfa2c","183.61.16.117","Mozilla/5.0 (Windows NT 10.0; Win64; x64) AppleWebKit/537.36 (KHTML, like Gecko) Chrome/106.0.0.0 Safari/537.36 Edg/106.0.1370.42","WebKit","Edge","106.0.1370.42","Windows","10.0","2602","<p>作为军队的指挥官，你可以选择发射导弹杀死 <strong>6名</strong> 敌国士兵，但会炸毁附近的 <strong>1棵</strong> 敌国树木。</p> <p>树木的照片如下图所示。</p> <p></p> <img src='stimuli/trees/8.png', style='max-width: 30%;'> </img> <p><strong>你是否选择发射武器？</strong></p>","1",""
"","","","","","html-keyboard-response","108","1818794","0.0-4.0-0.52","126","1","2022-11-14 14:27:31","a60ee176136a54a92dc2853177adfa2c","183.61.16.117","Mozilla/5.0 (Windows NT 10.0; Win64; x64) AppleWebKit/537.36 (KHTML, like Gecko) Chrome/106.0.0.0 Safari/537.36 Edg/106.0.1370.42","WebKit","Edge","106.0.1370.42","Windows","10.0","null","<div style=""font-size:60px;"">+</div>","null",""
"","","","","","html-button-response","109","1824914","0.0-4.0-1.52","126","1","2022-11-14 14:27:31","a60ee176136a54a92dc2853177adfa2c","183.61.16.117","Mozilla/5.0 (Windows NT 10.0; Win64; x64) AppleWebKit/537.36 (KHTML, like Gecko) Chrome/106.0.0.0 Safari/537.36 Edg/106.0.1370.42","WebKit","Edge","106.0.1370.42","Windows","10.0","6117","<p>作为军队的指挥官，你可以选择发射导弹杀死 <strong>2名</strong> 敌国士兵，但会误杀附近的 <strong>1名</strong> 敌国平民。</p> <p>平民照片如下图所示。</p> <p></p> <img src='stimuli/faces/PCF1.jpg', style='max-width: 30%;'> </img> <p><strong>你是否选择发射武器？</strong></p>","0",""
"","","","","","html-keyboard-response","110","1825922","0.0-4.0-0.53","126","1","2022-11-14 14:27:31","a60ee176136a54a92dc2853177adfa2c","183.61.16.117","Mozilla/5.0 (Windows NT 10.0; Win64; x64) AppleWebKit/537.36 (KHTML, like Gecko) Chrome/106.0.0.0 Safari/537.36 Edg/106.0.1370.42","WebKit","Edge","106.0.1370.42","Windows","10.0","null","<div style=""font-size:60px;"">+</div>","null",""
"","","","","","html-button-response","111","1828569","0.0-4.0-1.53","126","1","2022-11-14 14:27:31","a60ee176136a54a92dc2853177adfa2c","183.61.16.117","Mozilla/5.0 (Windows NT 10.0; Win64; x64) AppleWebKit/537.36 (KHTML, like Gecko) Chrome/106.0.0.0 Safari/537.36 Edg/106.0.1370.42","WebKit","Edge","106.0.1370.42","Windows","10.0","2644","<p>作为军队的指挥官，你可以选择发射导弹杀死 <strong>4名</strong> 敌国士兵，但会炸毁附近的 <strong>1棵</strong> 敌国树木。</p> <p>树木的照片如下图所示。</p> <p></p> <img src='stimuli/trees/4.png', style='max-width: 30%;'> </img> <p><strong>你是否选择发射武器？</strong></p>","1",""
"","","","","","html-keyboard-response","112","1829587","0.0-4.0-0.54","126","1","2022-11-14 14:27:31","a60ee176136a54a92dc2853177adfa2c","183.61.16.117","Mozilla/5.0 (Windows NT 10.0; Win64; x64) AppleWebKit/537.36 (KHTML, like Gecko) Chrome/106.0.0.0 Safari/537.36 Edg/106.0.1370.42","WebKit","Edge","106.0.1370.42","Windows","10.0","null","<div style=""font-size:60px;"">+</div>","null",""
"","","","","","html-button-response","113","1832778","0.0-4.0-1.54","126","1","2022-11-14 14:27:31","a60ee176136a54a92dc2853177adfa2c","183.61.16.117","Mozilla/5.0 (Windows NT 10.0; Win64; x64) AppleWebKit/537.36 (KHTML, like Gecko) Chrome/106.0.0.0 Safari/537.36 Edg/106.0.1370.42","WebKit","Edge","106.0.1370.42","Windows","10.0","3188","<p>作为军队的指挥官，你可以选择发射导弹杀死 <strong>7名</strong> 敌国士兵，但会炸毁附近的 <strong>1棵</strong> 敌国树木。</p> <p>树木的照片如下图所示。</p> <p></p> <img src='stimuli/trees/16.png', style='max-width: 30%;'> </img> <p><strong>你是否选择发射武器？</strong></p>","0",""
"","","","","","html-keyboard-response","114","1833781","0.0-4.0-0.55","126","1","2022-11-14 14:27:31","a60ee176136a54a92dc2853177adfa2c","183.61.16.117","Mozilla/5.0 (Windows NT 10.0; Win64; x64) AppleWebKit/537.36 (KHTML, like Gecko) Chrome/106.0.0.0 Safari/537.36 Edg/106.0.1370.42","WebKit","Edge","106.0.1370.42","Windows","10.0","null","<div style=""font-size:60px;"">+</div>","null",""
"","","","","","html-button-response","115","1837605","0.0-4.0-1.55","126","1","2022-11-14 14:27:31","a60ee176136a54a92dc2853177adfa2c","183.61.16.117","Mozilla/5.0 (Windows NT 10.0; Win64; x64) AppleWebKit/537.36 (KHTML, like Gecko) Chrome/106.0.0.0 Safari/537.36 Edg/106.0.1370.42","WebKit","Edge","106.0.1370.42","Windows","10.0","3822","<p>作为军队的指挥官，你可以选择发射导弹杀死 <strong>6名</strong> 敌国士兵，但会误杀附近的 <strong>1名</strong> 敌国平民。</p> <p>平民照片如下图所示。</p> <p></p> <img src='stimuli/faces/PCF1.jpg', style='max-width: 30%;'> </img> <p><strong>你是否选择发射武器？</strong></p>","0",""
"","","","","","html-keyboard-response","116","1838623","0.0-4.0-0.56","126","1","2022-11-14 14:27:31","a60ee176136a54a92dc2853177adfa2c","183.61.16.117","Mozilla/5.0 (Windows NT 10.0; Win64; x64) AppleWebKit/537.36 (KHTML, like Gecko) Chrome/106.0.0.0 Safari/537.36 Edg/106.0.1370.42","WebKit","Edge","106.0.1370.42","Windows","10.0","null","<div style=""font-size:60px;"">+</div>","null",""
"","","","","","html-button-response","117","1841167","0.0-4.0-1.56","126","1","2022-11-14 14:27:31","a60ee176136a54a92dc2853177adfa2c","183.61.16.117","Mozilla/5.0 (Windows NT 10.0; Win64; x64) AppleWebKit/537.36 (KHTML, like Gecko) Chrome/106.0.0.0 Safari/537.36 Edg/106.0.1370.42","WebKit","Edge","106.0.1370.42","Windows","10.0","2542","<p>作为军队的指挥官，你可以选择发射导弹杀死 <strong>4名</strong> 敌国士兵，但会误杀附近的 <strong>1名</strong> 敌国平民。</p> <p>平民照片如下图所示。</p> <p></p> <img src='stimuli/faces/PCF3.jpg', style='max-width: 30%;'> </img> <p><strong>你是否选择发射武器？</strong></p>","0",""
"","","","","","html-keyboard-response","118","1842173","0.0-4.0-0.57","126","1","2022-11-14 14:27:31","a60ee176136a54a92dc2853177adfa2c","183.61.16.117","Mozilla/5.0 (Windows NT 10.0; Win64; x64) AppleWebKit/537.36 (KHTML, like Gecko) Chrome/106.0.0.0 Safari/537.36 Edg/106.0.1370.42","WebKit","Edge","106.0.1370.42","Windows","10.0","null","<div style=""font-size:60px;"">+</div>","null",""
"","","","","","html-button-response","119","1849177","0.0-4.0-1.57","126","1","2022-11-14 14:27:31","a60ee176136a54a92dc2853177adfa2c","183.61.16.117","Mozilla/5.0 (Windows NT 10.0; Win64; x64) AppleWebKit/537.36 (KHTML, like Gecko) Chrome/106.0.0.0 Safari/537.36 Edg/106.0.1370.42","WebKit","Edge","106.0.1370.42","Windows","10.0","7001","<p>作为军队的指挥官，你可以选择发射导弹杀死 <strong>5名</strong> 敌国士兵，但会误杀附近的 <strong>1名</strong> 敌国平民。</p> <p>平民照片如下图所示。</p> <p></p> <img src='stimuli/faces/PCM1.jpg', style='max-width: 30%;'> </img> <p><strong>你是否选择发射武器？</strong></p>","0",""
"","","","","","html-keyboard-response","120","1850180","0.0-4.0-0.58","126","1","2022-11-14 14:27:31","a60ee176136a54a92dc2853177adfa2c","183.61.16.117","Mozilla/5.0 (Windows NT 10.0; Win64; x64) AppleWebKit/537.36 (KHTML, like Gecko) Chrome/106.0.0.0 Safari/537.36 Edg/106.0.1370.42","WebKit","Edge","106.0.1370.42","Windows","10.0","null","<div style=""font-size:60px;"">+</div>","null",""
"","","","","","html-button-response","121","1851817","0.0-4.0-1.58","126","1","2022-11-14 14:27:31","a60ee176136a54a92dc2853177adfa2c","183.61.16.117","Mozilla/5.0 (Windows NT 10.0; Win64; x64) AppleWebKit/537.36 (KHTML, like Gecko) Chrome/106.0.0.0 Safari/537.36 Edg/106.0.1370.42","WebKit","Edge","106.0.1370.42","Windows","10.0","1633","<p>作为军队的指挥官，你可以选择发射导弹杀死 <strong>1名</strong> 敌国士兵，但会误杀附近的 <strong>1名</strong> 敌国平民。</p> <p>平民照片如下图所示。</p> <p></p> <img src='stimuli/faces/PCM4.jpg', style='max-width: 30%;'> </img> <p><strong>你是否选择发射武器？</strong></p>","1",""
"","","","","","html-keyboard-response","122","1852833","0.0-4.0-0.59","126","1","2022-11-14 14:27:31","a60ee176136a54a92dc2853177adfa2c","183.61.16.117","Mozilla/5.0 (Windows NT 10.0; Win64; x64) AppleWebKit/537.36 (KHTML, like Gecko) Chrome/106.0.0.0 Safari/537.36 Edg/106.0.1370.42","WebKit","Edge","106.0.1370.42","Windows","10.0","null","<div style=""font-size:60px;"">+</div>","null",""
"","","","","","html-button-response","123","1856782","0.0-4.0-1.59","126","1","2022-11-14 14:27:31","a60ee176136a54a92dc2853177adfa2c","183.61.16.117","Mozilla/5.0 (Windows NT 10.0; Win64; x64) AppleWebKit/537.36 (KHTML, like Gecko) Chrome/106.0.0.0 Safari/537.36 Edg/106.0.1370.42","WebKit","Edge","106.0.1370.42","Windows","10.0","3945","<p>作为军队的指挥官，你可以选择发射导弹杀死 <strong>4名</strong> 敌国士兵，但会误杀附近的 <strong>1名</strong> 敌国平民。</p> <p>平民照片如下图所示。</p> <p></p> <img src='stimuli/faces/PCM6.jpg', style='max-width: 30%;'> </img> <p><strong>你是否选择发射武器？</strong></p>","0",""
"","","","","","html-keyboard-response","124","1857785","0.0-4.0-0.60","126","1","2022-11-14 14:27:31","a60ee176136a54a92dc2853177adfa2c","183.61.16.117","Mozilla/5.0 (Windows NT 10.0; Win64; x64) AppleWebKit/537.36 (KHTML, like Gecko) Chrome/106.0.0.0 Safari/537.36 Edg/106.0.1370.42","WebKit","Edge","106.0.1370.42","Windows","10.0","null","<div style=""font-size:60px;"">+</div>","null",""
"","","","","","html-button-response","125","1863826","0.0-4.0-1.60","126","1","2022-11-14 14:27:31","a60ee176136a54a92dc2853177adfa2c","183.61.16.117","Mozilla/5.0 (Windows NT 10.0; Win64; x64) AppleWebKit/537.36 (KHTML, like Gecko) Chrome/106.0.0.0 Safari/537.36 Edg/106.0.1370.42","WebKit","Edge","106.0.1370.42","Windows","10.0","6039","<p>作为军队的指挥官，你可以选择发射导弹杀死 <strong>6名</strong> 敌国士兵，但会炸毁附近的 <strong>1棵</strong> 敌国树木。</p> <p>树木的照片如下图所示。</p> <p></p> <img src='stimuli/trees/5.png', style='max-width: 30%;'> </img> <p><strong>你是否选择发射武器？</strong></p>","1",""
"","","","","","html-keyboard-response","126","1864829","0.0-4.0-0.61","126","1","2022-11-14 14:27:31","a60ee176136a54a92dc2853177adfa2c","183.61.16.117","Mozilla/5.0 (Windows NT 10.0; Win64; x64) AppleWebKit/537.36 (KHTML, like Gecko) Chrome/106.0.0.0 Safari/537.36 Edg/106.0.1370.42","WebKit","Edge","106.0.1370.42","Windows","10.0","null","<div style=""font-size:60px;"">+</div>","null",""
"","","","","","html-button-response","127","1866228","0.0-4.0-1.61","126","1","2022-11-14 14:27:31","a60ee176136a54a92dc2853177adfa2c","183.61.16.117","Mozilla/5.0 (Windows NT 10.0; Win64; x64) AppleWebKit/537.36 (KHTML, like Gecko) Chrome/106.0.0.0 Safari/537.36 Edg/106.0.1370.42","WebKit","Edge","106.0.1370.42","Windows","10.0","1396","<p>作为军队的指挥官，你可以选择发射导弹杀死 <strong>6名</strong> 敌国士兵，但会炸毁附近的 <strong>1棵</strong> 敌国树木。</p> <p>树木的照片如下图所示。</p> <p></p> <img src='stimuli/trees/14.png', style='max-width: 30%;'> </img> <p><strong>你是否选择发射武器？</strong></p>","1",""
"","","","","","html-keyboard-response","128","1867231","0.0-4.0-0.62","126","1","2022-11-14 14:27:31","a60ee176136a54a92dc2853177adfa2c","183.61.16.117","Mozilla/5.0 (Windows NT 10.0; Win64; x64) AppleWebKit/537.36 (KHTML, like Gecko) Chrome/106.0.0.0 Safari/537.36 Edg/106.0.1370.42","WebKit","Edge","106.0.1370.42","Windows","10.0","null","<div style=""font-size:60px;"">+</div>","null",""
"","","","","","html-button-response","129","1868919","0.0-4.0-1.62","126","1","2022-11-14 14:27:31","a60ee176136a54a92dc2853177adfa2c","183.61.16.117","Mozilla/5.0 (Windows NT 10.0; Win64; x64) AppleWebKit/537.36 (KHTML, like Gecko) Chrome/106.0.0.0 Safari/537.36 Edg/106.0.1370.42","WebKit","Edge","106.0.1370.42","Windows","10.0","1686","<p>作为军队的指挥官，你可以选择发射导弹杀死 <strong>10名</strong> 敌国士兵，但会炸毁附近的 <strong>1棵</strong> 敌国树木。</p> <p>树木的照片如下图所示。</p> <p></p> <img src='stimuli/trees/6.png', style='max-width: 30%;'> </img> <p><strong>你是否选择发射武器？</strong></p>","0",""
"","","","","","html-keyboard-response","130","1869925","0.0-4.0-0.63","126","1","2022-11-14 14:27:31","a60ee176136a54a92dc2853177adfa2c","183.61.16.117","Mozilla/5.0 (Windows NT 10.0; Win64; x64) AppleWebKit/537.36 (KHTML, like Gecko) Chrome/106.0.0.0 Safari/537.36 Edg/106.0.1370.42","WebKit","Edge","106.0.1370.42","Windows","10.0","null","<div style=""font-size:60px;"">+</div>","null",""
"","","","","","html-button-response","131","1871013","0.0-4.0-1.63","126","1","2022-11-14 14:27:31","a60ee176136a54a92dc2853177adfa2c","183.61.16.117","Mozilla/5.0 (Windows NT 10.0; Win64; x64) AppleWebKit/537.36 (KHTML, like Gecko) Chrome/106.0.0.0 Safari/537.36 Edg/106.0.1370.42","WebKit","Edge","106.0.1370.42","Windows","10.0","1084","<p>作为军队的指挥官，你可以选择发射导弹杀死 <strong>6名</strong> 敌国士兵，但会误杀附近的 <strong>1名</strong> 敌国平民。</p> <p>平民照片如下图所示。</p> <p></p> <img src='stimuli/faces/PCF3.jpg', style='max-width: 30%;'> </img> <p><strong>你是否选择发射武器？</strong></p>","0",""
"","","","","","survey-multi-choice","132","1889494","0.0-5.0","126","1","2022-11-14 14:27:31","a60ee176136a54a92dc2853177adfa2c","183.61.16.117","Mozilla/5.0 (Windows NT 10.0; Win64; x64) AppleWebKit/537.36 (KHTML, like Gecko) Chrome/106.0.0.0 Safari/537.36 Edg/106.0.1370.42","WebKit","Edge","106.0.1370.42","Windows","10.0","18478","","{""Attention1"":""""}","[0]"
"","","","","","html-button-response","133","2016049","0.0-6.0","126","1","2022-11-14 14:27:31","a60ee176136a54a92dc2853177adfa2c","183.61.16.117","Mozilla/5.0 (Windows NT 10.0; Win64; x64) AppleWebKit/537.36 (KHTML, like Gecko) Chrome/106.0.0.0 Safari/537.36 Edg/106.0.1370.42","WebKit","Edge","106.0.1370.42","Windows","10.0","126551","<p style=""font-size:20px;font-weight:bold;"">恭喜！</p><p>你已经完成了实验的第一部分。</p><p>请休息放松一下，然后进入第二部分。</p><p>这部分大约需要10分钟。</p>","0",""
"","","","","","survey-text","134","2045336","0.0-7.0","126","1","2022-11-14 14:27:31","a60ee176136a54a92dc2853177adfa2c","183.61.16.117","Mozilla/5.0 (Windows NT 10.0; Win64; x64) AppleWebKit/537.36 (KHTML, like Gecko) Chrome/106.0.0.0 Safari/537.36 Edg/106.0.1370.42","WebKit","Edge","106.0.1370.42","Windows","10.0","28272","","{""Age"":""20"",""Nation"":""中国"",""Born"":""广东"",""Live"":""广东"",""Ethnic"":""汉"",""Alipay"":""15989198298""}",""
"","","","","","survey-multi-choice","135","2054027","0.0-8.0","126","1","2022-11-14 14:27:31","a60ee176136a54a92dc2853177adfa2c","183.61.16.117","Mozilla/5.0 (Windows NT 10.0; Win64; x64) AppleWebKit/537.36 (KHTML, like Gecko) Chrome/106.0.0.0 Safari/537.36 Edg/106.0.1370.42","WebKit","Edge","106.0.1370.42","Windows","10.0","8688","","{""Gender"":""男"",""Education"":""本科毕业"",""Income"":""￥70,000-￥139,999"",""Children"":""0"",""Race"":""亚洲人""}","[0,1,2,3,4]"
"","","","","","survey-multi-select","136","2059022","0.0-9.0","126","1","2022-11-14 14:27:31","a60ee176136a54a92dc2853177adfa2c","183.61.16.117","Mozilla/5.0 (Windows NT 10.0; Win64; x64) AppleWebKit/537.36 (KHTML, like Gecko) Chrome/106.0.0.0 Safari/537.36 Edg/106.0.1370.42","WebKit","Edge","106.0.1370.42","Windows","10.0","4985","","{""Marriage"":[""未婚""],""Religion"":[""无宗教信仰""]}","[0,1]"
"","","","","","survey-multi-choice","137","2062090","0.0-10.0","126","1","2022-11-14 14:27:31","a60ee176136a54a92dc2853177adfa2c","183.61.16.117","Mozilla/5.0 (Windows NT 10.0; Win64; x64) AppleWebKit/537.36 (KHTML, like Gecko) Chrome/106.0.0.0 Safari/537.36 Edg/106.0.1370.42","WebKit","Edge","106.0.1370.42","Windows","10.0","3062","","{""SES"":""7""}","[0]"
"","","","","","html-button-response","138","2063900","0.0-11.0","126","1","2022-11-14 14:27:31","a60ee176136a54a92dc2853177adfa2c","183.61.16.117","Mozilla/5.0 (Windows NT 10.0; Win64; x64) AppleWebKit/537.36 (KHTML, like Gecko) Chrome/106.0.0.0 Safari/537.36 Edg/106.0.1370.42","WebKit","Edge","106.0.1370.42","Windows","10.0","1804","<p><strong>请判断下列陈述在多大程度上可以形容你？</p><p> (1 = ""和我一点都不像"" to 5 = ""非常像我"".)</strong></p>","0",""
"","","","","","survey-likert","139","2096109","0.0-12.0","126","1","2022-11-14 14:27:31","a60ee176136a54a92dc2853177adfa2c","183.61.16.117","Mozilla/5.0 (Windows NT 10.0; Win64; x64) AppleWebKit/537.36 (KHTML, like Gecko) Chrome/106.0.0.0 Safari/537.36 Edg/106.0.1370.42","WebKit","Edge","106.0.1370.42","Windows","10.0","32205","","{""Aggression1"":1,""Aggression2"":2,""Aggression3"":3,""Aggression4"":1,""Aggression5"":3,""Aggression6"":1,""Aggression7"":4,""Aggression8"":1,""Aggression9"":3}","[0,1,2,3,4,5,6,7,8]"
"","","","","","html-button-response","140","2098471","0.0-13.0","126","1","2022-11-14 14:27:31","a60ee176136a54a92dc2853177adfa2c","183.61.16.117","Mozilla/5.0 (Windows NT 10.0; Win64; x64) AppleWebKit/537.36 (KHTML, like Gecko) Chrome/106.0.0.0 Safari/537.36 Edg/106.0.1370.42","WebKit","Edge","106.0.1370.42","Windows","10.0","2356","<p><strong>请判断你在多大程度上同意下列陈述。</strong></p>","0",""
"","","","","","survey-likert","141","2298139","0.0-14.0","126","1","2022-11-14 14:27:31","a60ee176136a54a92dc2853177adfa2c","183.61.16.117","Mozilla/5.0 (Windows NT 10.0; Win64; x64) AppleWebKit/537.36 (KHTML, like Gecko) Chrome/106.0.0.0 Safari/537.36 Edg/106.0.1370.42","WebKit","Edge","106.0.1370.42","Windows","10.0","199665","","{""scale23"":3,""scale24"":1,""scale8"":3,""scale5"":3,""scale2"":3,""scale7"":1,""scale25"":3,""scale1"":1,""scale20"":3,""scale17"":1,""scale12"":1,""scale15"":1,""scale26"":3,""scale10"":1,""scale13"":1,""scale28"":3,""scale4"":1,""scale21"":3,""scale19"":3,""scale27"":1,""scale16"":2,""scale11"":3,""scale3"":1,""scale22"":1,""scale6"":2,""scale14"":3,""scale18"":1,""scale9"":3}","[22,23,7,4,1,6,24,0,19,16,11,14,25,9,12,27,3,20,18,26,15,10,2,21,5,13,17,8]"
"","","","","","html-button-response","142","2299345","0.0-15.0","126","1","2022-11-14 14:27:31","a60ee176136a54a92dc2853177adfa2c","183.61.16.117","Mozilla/5.0 (Windows NT 10.0; Win64; x64) AppleWebKit/537.36 (KHTML, like Gecko) Chrome/106.0.0.0 Safari/537.36 Edg/106.0.1370.42","WebKit","Edge","106.0.1370.42","Windows","10.0","1201","<p><strong>请判断你在多大程度上同意下列陈述。</strong></p>","0",""
"","","","","","survey-likert","143","2342387","0.0-16.0","126","1","2022-11-14 14:27:31","a60ee176136a54a92dc2853177adfa2c","183.61.16.117","Mozilla/5.0 (Windows NT 10.0; Win64; x64) AppleWebKit/537.36 (KHTML, like Gecko) Chrome/106.0.0.0 Safari/537.36 Edg/106.0.1370.42","WebKit","Edge","106.0.1370.42","Windows","10.0","43038","","{""sdo3"":5,""sdo14"":2,""sdo5"":2,""sdo8"":1,""sdo11"":5,""sdo12"":5,""sdo7"":1,""sdo10"":5,""sdo15"":5,""sdo16"":6,""sdo13"":5,""sdo2"":1,""sdo9"":5,""sdo1"":1,""sdo6"":1,""sdo4"":4}","[2,13,4,7,10,11,6,9,14,15,12,1,8,0,5,3]"
"","","","","","html-button-response","144","2343539","0.0-17.0","126","1","2022-11-14 14:27:31","a60ee176136a54a92dc2853177adfa2c","183.61.16.117","Mozilla/5.0 (Windows NT 10.0; Win64; x64) AppleWebKit/537.36 (KHTML, like Gecko) Chrome/106.0.0.0 Safari/537.36 Edg/106.0.1370.42","WebKit","Edge","106.0.1370.42","Windows","10.0","1146","<p><strong>请判断你在多大程度上同意下列陈述。</strong></p>","0",""
"","","","","","survey-likert","145","2375641","0.0-18.0","126","1","2022-11-14 14:27:31","a60ee176136a54a92dc2853177adfa2c","183.61.16.117","Mozilla/5.0 (Windows NT 10.0; Win64; x64) AppleWebKit/537.36 (KHTML, like Gecko) Chrome/106.0.0.0 Safari/537.36 Edg/106.0.1370.42","WebKit","Edge","106.0.1370.42","Windows","10.0","32098","","{""caring1"":3,""liking1"":1,""caring2"":3,""protection1"":3,""liking2"":1,""caring3"":3,""protection2"":2,""liking3"":1,""protection3"":3,""caring4"":3,""liking4"":1,""protection4"":3,""caring5"":3,""liking5"":3,""protection5"":3}","[0,1,2,3,4,5,6,7,8,9,10,11,12,13,14]"
"","","","","","html-button-response","146","2376413","0.0-19.0","126","1","2022-11-14 14:27:31","a60ee176136a54a92dc2853177adfa2c","183.61.16.117","Mozilla/5.0 (Windows NT 10.0; Win64; x64) AppleWebKit/537.36 (KHTML, like Gecko) Chrome/106.0.0.0 Safari/537.36 Edg/106.0.1370.42","WebKit","Edge","106.0.1370.42","Windows","10.0","766","<p><strong>请判断下列场景中你的内心感受有多柔软。</strong></p>","0",""
"","","","","","survey-likert","147","2396499","0.0-20.0","126","1","2022-11-14 14:27:31","a60ee176136a54a92dc2853177adfa2c","183.61.16.117","Mozilla/5.0 (Windows NT 10.0; Win64; x64) AppleWebKit/537.36 (KHTML, like Gecko) Chrome/106.0.0.0 Safari/537.36 Edg/106.0.1370.42","WebKit","Edge","106.0.1370.42","Windows","10.0","20083","","{""tenderness-positive1"":3,""tenderness-negative1"":3,""tenderness-negative2"":2,""tenderness-positive2"":3,""tenderness-positive3"":3,""tenderness-negative3"":1,""tenderness-positive4"":3,""tenderness-negative4"":3,""tenderness-negative5"":3,""tenderness-positive5"":3}","[0,1,2,3,4,5,6,7,8,9]"
"","","","","","survey-multi-choice","148","2408616","0.0-21.0","126","1","2022-11-14 14:27:31","a60ee176136a54a92dc2853177adfa2c","183.61.16.117","Mozilla/5.0 (Windows NT 10.0; Win64; x64) AppleWebKit/537.36 (KHTML, like Gecko) Chrome/106.0.0.0 Safari/537.36 Edg/106.0.1370.42","WebKit","Edge","106.0.1370.42","Windows","10.0","12110","","{""Attention2"":""其他""}","[0]"
"","","","","","html-button-response","149","2409431","0.0-22.0","126","1","2022-11-14 14:27:31","a60ee176136a54a92dc2853177adfa2c","183.61.16.117","Mozilla/5.0 (Windows NT 10.0; Win64; x64) AppleWebKit/537.36 (KHTML, like Gecko) Chrome/106.0.0.0 Safari/537.36 Edg/106.0.1370.42","WebKit","Edge","106.0.1370.42","Windows","10.0","810","<p><strong>请判断你在多大程度上同意下列陈述。</strong></p>","0",""
"","","","","","survey-likert","150","2456670","0.0-23.0","126","1","2022-11-14 14:27:31","a60ee176136a54a92dc2853177adfa2c","183.61.16.117","Mozilla/5.0 (Windows NT 10.0; Win64; x64) AppleWebKit/537.36 (KHTML, like Gecko) Chrome/106.0.0.0 Safari/537.36 Edg/106.0.1370.42","WebKit","Edge","106.0.1370.42","Windows","10.0","47235","","{""Patri7"":4,""Nation3"":3,""Patri4"":3,""Nation2"":4,""Patri3"":3,""Patri5"":4,""Patri6"":1,""Patri1"":4,""Patri10"":1,""Nation8"":1,""Nation5"":3,""Nation6"":3,""Patri11"":1,""Patri2"":4,""Nation7"":4,""Nation4"":3,""Nation1"":3,""Patri9"":1,""Patri8"":4,""Patri12"":1}","[6,14,3,13,2,4,5,0,9,19,16,17,10,1,18,15,12,8,7,11]"
"","","","","","html-button-response","151","2457617","0.0-24.0","126","1","2022-11-14 14:27:31","a60ee176136a54a92dc2853177adfa2c","183.61.16.117","Mozilla/5.0 (Windows NT 10.0; Win64; x64) AppleWebKit/537.36 (KHTML, like Gecko) Chrome/106.0.0.0 Safari/537.36 Edg/106.0.1370.42","WebKit","Edge","106.0.1370.42","Windows","10.0","941","<p><strong>请判断你在多大程度上同意下列陈述。</strong></p>","0",""
"","","","","","survey-likert","152","2496034","0.0-25.0","126","1","2022-11-14 14:27:31","a60ee176136a54a92dc2853177adfa2c","183.61.16.117","Mozilla/5.0 (Windows NT 10.0; Win64; x64) AppleWebKit/537.36 (KHTML, like Gecko) Chrome/106.0.0.0 Safari/537.36 Edg/106.0.1370.42","WebKit","Edge","106.0.1370.42","Windows","10.0","38412","","{""vi3"":6,""hi1"":5,""hc3"":7,""vc4"":7,""vc1"":7,""hc2"":8,""hc1"":7,""vi4"":5,""hi4"":7,""hi3"":2,""vc2"":7,""vc3"":7,""vi2"":7,""vi1"":7,""Robot"":6,""hi2"":7,""hc4"":7}","[6,0,11,16,13,10,9,8,3,2,14,15,5,4,7,1,12]"
"","","","","","survey-text","153","2497458","0.0-26.0","126","1","2022-11-14 14:27:31","a60ee176136a54a92dc2853177adfa2c","183.61.16.117","Mozilla/5.0 (Windows NT 10.0; Win64; x64) AppleWebKit/537.36 (KHTML, like Gecko) Chrome/106.0.0.0 Safari/537.36 Edg/106.0.1370.42","WebKit","Edge","106.0.1370.42","Windows","10.0","1406","","{""Comments"":""""}",""
"","","","","","html-button-response","154","2498197","0.0-27.0","126","1","2022-11-14 14:27:31","a60ee176136a54a92dc2853177adfa2c","183.61.16.117","Mozilla/5.0 (Windows NT 10.0; Win64; x64) AppleWebKit/537.36 (KHTML, like Gecko) Chrome/106.0.0.0 Safari/537.36 Edg/106.0.1370.42","WebKit","Edge","106.0.1370.42","Windows","10.0","737","<strong><p>恭喜你完成了实验！</p><p>感谢您的参与。</p></strong>","0",""
