"success","timeout","failed_images","failed_audio","failed_video","trial_type","trial_index","time_elapsed","internal_node_id","run_id","condition","recorded_at","source_code_version","ip","user_agent","device","browser","browser_version","platform","platform_version","rt","stimulus","response","question_order"
"true","false","[]","[]","[]","preload","0","4056","0.0-0.0","130","1","2022-11-14 22:41:42","a60ee176136a54a92dc2853177adfa2c","219.142.99.24","Mozilla/5.0 (Macintosh; Intel Mac OS X 10_15_6) AppleWebKit/605.1.15 (KHTML, like Gecko) Version/14.0.1 Safari/605.1.15","Macintosh","Safari","14.0.1","OS X","10_15_6","","","",""
"true","","","","","fullscreen","1","10424","0.0-1.0","130","1","2022-11-14 22:41:42","a60ee176136a54a92dc2853177adfa2c","219.142.99.24","Mozilla/5.0 (Macintosh; Intel Mac OS X 10_15_6) AppleWebKit/605.1.15 (KHTML, like Gecko) Version/14.0.1 Safari/605.1.15","Macintosh","Safari","14.0.1","OS X","10_15_6","","","",""
"","","","","","html-button-response","2","13568","0.0-2.0","130","1","2022-11-14 22:41:42","a60ee176136a54a92dc2853177adfa2c","219.142.99.24","Mozilla/5.0 (Macintosh; Intel Mac OS X 10_15_6) AppleWebKit/605.1.15 (KHTML, like Gecko) Version/14.0.1 Safari/605.1.15","Macintosh","Safari","14.0.1","OS X","10_15_6","3136","<p style=""font-size:20px;font-weight:bold;"">实验知情同意书</p><p style=""text-align:left;""><strong>实验名称：</strong>社会冲突研究</p><p style=""text-align:left;""><strong>主要研究者：</strong>韩晓春副教授（北京师范大学心理学部）</p><p style=""text-align:left;""><strong>联系方式：</strong>发送邮件至xiaochun.han@bnu.edu.cn</p><p style=""text-align:left;""><strong>研究目的：</strong>研究旨在了解人类面对群体冲突时的决策方式，以及相关的心理学特质。实验调查大约需要20分钟。</p><p style=""text-align:left;""><strong>实验流程：</strong>实验包含两部分。第一部分呈现一系列群体冲突场景，请你决定如何对这些冲突进行反应，大约需要10分钟完成。第二部分包含一系列人口统计学信息收集和心理学问卷，大约需要10分钟完成。</p><p style=""text-align:left;""><strong>参加及退出规则：</strong>参加本实验完全取决于您的个人意愿。在参与过程中，您可以随时退出，并且不用承担任何后果。</p><p style=""text-align:left;""><strong>隐私：</strong>本实验完全匿名进行，不会收集您的姓名或其他能够识别您身份的信息。实验中收集的作答仅用作科学研究使用，可能会在学术期刊/书籍上发表，或者用于教学，您的数据未来可能会和其他研究者或实验室分享，但您的个人身份不会被识别。</p><p style=""text-align:left;""><strong>实验报酬：</strong>实验完成后，您将获得15元人民币报酬，以感谢您的时间和努力。调查问卷中包含几道题目用以测验您作答时的认真度。只有完成全部实验，并且正确回答认真度测验的被试才能获得实验报酬。实验报酬将通过支付宝转账发放。</p><p style=""text-align:left;font-size:20px;""><strong>如果您同意以上实验知情同意书的内容，请点击'同意并且开始实验'按钮；否则请关闭浏览器界面，退出实验。</strong></p>","0",""
"","","","","","html-button-response","3","20905","0.0-3.0","130","1","2022-11-14 22:41:42","a60ee176136a54a92dc2853177adfa2c","219.142.99.24","Mozilla/5.0 (Macintosh; Intel Mac OS X 10_15_6) AppleWebKit/605.1.15 (KHTML, like Gecko) Version/14.0.1 Safari/605.1.15","Macintosh","Safari","14.0.1","OS X","10_15_6","7332","<p ><strong>实验任务一：</strong></p><p>请想象你的国家与另一个国家发生了军事冲突。</p><p>你是国家军队的指挥官，你将如何在冲突中进行决策。</p><p>具体来说，作为军队指挥官，请你决定是否发射导弹进行打击。</p><p>接下来，你会面对一系列场景，请仔细阅读每个场景，然后进行决策。</p><p>这部分实验任务大约需要10分钟。</p><p><strong>实验过程中，请集中注意力。</strong></p>","0",""
"","","","","","html-keyboard-response","4","21909","0.0-4.0-0.0","130","1","2022-11-14 22:41:42","a60ee176136a54a92dc2853177adfa2c","219.142.99.24","Mozilla/5.0 (Macintosh; Intel Mac OS X 10_15_6) AppleWebKit/605.1.15 (KHTML, like Gecko) Version/14.0.1 Safari/605.1.15","Macintosh","Safari","14.0.1","OS X","10_15_6","null","<div style=""font-size:60px;"">+</div>","null",""
"","","","","","html-button-response","5","29661","0.0-4.0-1.0","130","1","2022-11-14 22:41:42","a60ee176136a54a92dc2853177adfa2c","219.142.99.24","Mozilla/5.0 (Macintosh; Intel Mac OS X 10_15_6) AppleWebKit/605.1.15 (KHTML, like Gecko) Version/14.0.1 Safari/605.1.15","Macintosh","Safari","14.0.1","OS X","10_15_6","7741","<p>作为军队的指挥官，你可以选择发射导弹杀死 <strong>8名</strong> 敌国士兵，但会误杀附近的 <strong>1名</strong> 敌国平民。</p> <p>平民照片如下图所示。</p> <p></p> <img src='stimuli/faces/PCF5.jpg', style='max-width: 30%;'> </img> <p><strong>你是否选择发射武器？</strong></p>","0",""
"","","","","","html-keyboard-response","6","30667","0.0-4.0-0.1","130","1","2022-11-14 22:41:42","a60ee176136a54a92dc2853177adfa2c","219.142.99.24","Mozilla/5.0 (Macintosh; Intel Mac OS X 10_15_6) AppleWebKit/605.1.15 (KHTML, like Gecko) Version/14.0.1 Safari/605.1.15","Macintosh","Safari","14.0.1","OS X","10_15_6","null","<div style=""font-size:60px;"">+</div>","null",""
"","","","","","html-button-response","7","35636","0.0-4.0-1.1","130","1","2022-11-14 22:41:42","a60ee176136a54a92dc2853177adfa2c","219.142.99.24","Mozilla/5.0 (Macintosh; Intel Mac OS X 10_15_6) AppleWebKit/605.1.15 (KHTML, like Gecko) Version/14.0.1 Safari/605.1.15","Macintosh","Safari","14.0.1","OS X","10_15_6","4961","<p>作为军队的指挥官，你可以选择发射导弹杀死 <strong>5名</strong> 敌国士兵，但会炸毁附近的 <strong>1棵</strong> 敌国树木。</p> <p>树木的照片如下图所示。</p> <p></p> <img src='stimuli/trees/16.png', style='max-width: 30%;'> </img> <p><strong>你是否选择发射武器？</strong></p>","0",""
"","","","","","html-keyboard-response","8","36641","0.0-4.0-0.2","130","1","2022-11-14 22:41:42","a60ee176136a54a92dc2853177adfa2c","219.142.99.24","Mozilla/5.0 (Macintosh; Intel Mac OS X 10_15_6) AppleWebKit/605.1.15 (KHTML, like Gecko) Version/14.0.1 Safari/605.1.15","Macintosh","Safari","14.0.1","OS X","10_15_6","null","<div style=""font-size:60px;"">+</div>","null",""
"","","","","","html-button-response","9","40441","0.0-4.0-1.2","130","1","2022-11-14 22:41:42","a60ee176136a54a92dc2853177adfa2c","219.142.99.24","Mozilla/5.0 (Macintosh; Intel Mac OS X 10_15_6) AppleWebKit/605.1.15 (KHTML, like Gecko) Version/14.0.1 Safari/605.1.15","Macintosh","Safari","14.0.1","OS X","10_15_6","3789","<p>作为军队的指挥官，你可以选择发射导弹杀死 <strong>9名</strong> 敌国士兵，但会误杀附近的 <strong>1名</strong> 敌国平民。</p> <p>平民照片如下图所示。</p> <p></p> <img src='stimuli/faces/PCF1.jpg', style='max-width: 30%;'> </img> <p><strong>你是否选择发射武器？</strong></p>","0",""
"","","","","","html-keyboard-response","10","41447","0.0-4.0-0.3","130","1","2022-11-14 22:41:42","a60ee176136a54a92dc2853177adfa2c","219.142.99.24","Mozilla/5.0 (Macintosh; Intel Mac OS X 10_15_6) AppleWebKit/605.1.15 (KHTML, like Gecko) Version/14.0.1 Safari/605.1.15","Macintosh","Safari","14.0.1","OS X","10_15_6","null","<div style=""font-size:60px;"">+</div>","null",""
"","","","","","html-button-response","11","44383","0.0-4.0-1.3","130","1","2022-11-14 22:41:42","a60ee176136a54a92dc2853177adfa2c","219.142.99.24","Mozilla/5.0 (Macintosh; Intel Mac OS X 10_15_6) AppleWebKit/605.1.15 (KHTML, like Gecko) Version/14.0.1 Safari/605.1.15","Macintosh","Safari","14.0.1","OS X","10_15_6","2927","<p>作为军队的指挥官，你可以选择发射导弹杀死 <strong>7名</strong> 敌国士兵，但会炸毁附近的 <strong>1棵</strong> 敌国树木。</p> <p>树木的照片如下图所示。</p> <p></p> <img src='stimuli/trees/10.png', style='max-width: 30%;'> </img> <p><strong>你是否选择发射武器？</strong></p>","0",""
"","","","","","html-keyboard-response","12","45388","0.0-4.0-0.4","130","1","2022-11-14 22:41:42","a60ee176136a54a92dc2853177adfa2c","219.142.99.24","Mozilla/5.0 (Macintosh; Intel Mac OS X 10_15_6) AppleWebKit/605.1.15 (KHTML, like Gecko) Version/14.0.1 Safari/605.1.15","Macintosh","Safari","14.0.1","OS X","10_15_6","null","<div style=""font-size:60px;"">+</div>","null",""
"","","","","","html-button-response","13","47551","0.0-4.0-1.4","130","1","2022-11-14 22:41:42","a60ee176136a54a92dc2853177adfa2c","219.142.99.24","Mozilla/5.0 (Macintosh; Intel Mac OS X 10_15_6) AppleWebKit/605.1.15 (KHTML, like Gecko) Version/14.0.1 Safari/605.1.15","Macintosh","Safari","14.0.1","OS X","10_15_6","2153","<p>作为军队的指挥官，你可以选择发射导弹杀死 <strong>5名</strong> 敌国士兵，但会误杀附近的 <strong>1名</strong> 敌国平民。</p> <p>平民照片如下图所示。</p> <p></p> <img src='stimuli/faces/PCF1.jpg', style='max-width: 30%;'> </img> <p><strong>你是否选择发射武器？</strong></p>","0",""
"","","","","","html-keyboard-response","14","48557","0.0-4.0-0.5","130","1","2022-11-14 22:41:42","a60ee176136a54a92dc2853177adfa2c","219.142.99.24","Mozilla/5.0 (Macintosh; Intel Mac OS X 10_15_6) AppleWebKit/605.1.15 (KHTML, like Gecko) Version/14.0.1 Safari/605.1.15","Macintosh","Safari","14.0.1","OS X","10_15_6","null","<div style=""font-size:60px;"">+</div>","null",""
"","","","","","html-button-response","15","50650","0.0-4.0-1.5","130","1","2022-11-14 22:41:42","a60ee176136a54a92dc2853177adfa2c","219.142.99.24","Mozilla/5.0 (Macintosh; Intel Mac OS X 10_15_6) AppleWebKit/605.1.15 (KHTML, like Gecko) Version/14.0.1 Safari/605.1.15","Macintosh","Safari","14.0.1","OS X","10_15_6","2082","<p>作为军队的指挥官，你可以选择发射导弹杀死 <strong>1名</strong> 敌国士兵，但会误杀附近的 <strong>1名</strong> 敌国平民。</p> <p>平民照片如下图所示。</p> <p></p> <img src='stimuli/faces/PCF8.jpg', style='max-width: 30%;'> </img> <p><strong>你是否选择发射武器？</strong></p>","1",""
"","","","","","html-keyboard-response","16","51656","0.0-4.0-0.6","130","1","2022-11-14 22:41:42","a60ee176136a54a92dc2853177adfa2c","219.142.99.24","Mozilla/5.0 (Macintosh; Intel Mac OS X 10_15_6) AppleWebKit/605.1.15 (KHTML, like Gecko) Version/14.0.1 Safari/605.1.15","Macintosh","Safari","14.0.1","OS X","10_15_6","null","<div style=""font-size:60px;"">+</div>","null",""
"","","","","","html-button-response","17","53241","0.0-4.0-1.6","130","1","2022-11-14 22:41:42","a60ee176136a54a92dc2853177adfa2c","219.142.99.24","Mozilla/5.0 (Macintosh; Intel Mac OS X 10_15_6) AppleWebKit/605.1.15 (KHTML, like Gecko) Version/14.0.1 Safari/605.1.15","Macintosh","Safari","14.0.1","OS X","10_15_6","1574","<p>作为军队的指挥官，你可以选择发射导弹杀死 <strong>8名</strong> 敌国士兵，但会炸毁附近的 <strong>1棵</strong> 敌国树木。</p> <p>树木的照片如下图所示。</p> <p></p> <img src='stimuli/trees/11.png', style='max-width: 30%;'> </img> <p><strong>你是否选择发射武器？</strong></p>","0",""
"","","","","","html-keyboard-response","18","54248","0.0-4.0-0.7","130","1","2022-11-14 22:41:42","a60ee176136a54a92dc2853177adfa2c","219.142.99.24","Mozilla/5.0 (Macintosh; Intel Mac OS X 10_15_6) AppleWebKit/605.1.15 (KHTML, like Gecko) Version/14.0.1 Safari/605.1.15","Macintosh","Safari","14.0.1","OS X","10_15_6","null","<div style=""font-size:60px;"">+</div>","null",""
"","","","","","html-button-response","19","56098","0.0-4.0-1.7","130","1","2022-11-14 22:41:42","a60ee176136a54a92dc2853177adfa2c","219.142.99.24","Mozilla/5.0 (Macintosh; Intel Mac OS X 10_15_6) AppleWebKit/605.1.15 (KHTML, like Gecko) Version/14.0.1 Safari/605.1.15","Macintosh","Safari","14.0.1","OS X","10_15_6","1840","<p>作为军队的指挥官，你可以选择发射导弹杀死 <strong>2名</strong> 敌国士兵，但会误杀附近的 <strong>1名</strong> 敌国平民。</p> <p>平民照片如下图所示。</p> <p></p> <img src='stimuli/faces/PCF5.jpg', style='max-width: 30%;'> </img> <p><strong>你是否选择发射武器？</strong></p>","1",""
"","","","","","html-keyboard-response","20","57105","0.0-4.0-0.8","130","1","2022-11-14 22:41:42","a60ee176136a54a92dc2853177adfa2c","219.142.99.24","Mozilla/5.0 (Macintosh; Intel Mac OS X 10_15_6) AppleWebKit/605.1.15 (KHTML, like Gecko) Version/14.0.1 Safari/605.1.15","Macintosh","Safari","14.0.1","OS X","10_15_6","null","<div style=""font-size:60px;"">+</div>","null",""
"","","","","","html-button-response","21","57929","0.0-4.0-1.8","130","1","2022-11-14 22:41:42","a60ee176136a54a92dc2853177adfa2c","219.142.99.24","Mozilla/5.0 (Macintosh; Intel Mac OS X 10_15_6) AppleWebKit/605.1.15 (KHTML, like Gecko) Version/14.0.1 Safari/605.1.15","Macintosh","Safari","14.0.1","OS X","10_15_6","812","<p>作为军队的指挥官，你可以选择发射导弹杀死 <strong>5名</strong> 敌国士兵，但会炸毁附近的 <strong>1棵</strong> 敌国树木。</p> <p>树木的照片如下图所示。</p> <p></p> <img src='stimuli/trees/13.png', style='max-width: 30%;'> </img> <p><strong>你是否选择发射武器？</strong></p>","0",""
"","","","","","html-keyboard-response","22","58934","0.0-4.0-0.9","130","1","2022-11-14 22:41:42","a60ee176136a54a92dc2853177adfa2c","219.142.99.24","Mozilla/5.0 (Macintosh; Intel Mac OS X 10_15_6) AppleWebKit/605.1.15 (KHTML, like Gecko) Version/14.0.1 Safari/605.1.15","Macintosh","Safari","14.0.1","OS X","10_15_6","null","<div style=""font-size:60px;"">+</div>","null",""
"","","","","","html-button-response","23","59863","0.0-4.0-1.9","130","1","2022-11-14 22:41:42","a60ee176136a54a92dc2853177adfa2c","219.142.99.24","Mozilla/5.0 (Macintosh; Intel Mac OS X 10_15_6) AppleWebKit/605.1.15 (KHTML, like Gecko) Version/14.0.1 Safari/605.1.15","Macintosh","Safari","14.0.1","OS X","10_15_6","917","<p>作为军队的指挥官，你可以选择发射导弹杀死 <strong>7名</strong> 敌国士兵，但会炸毁附近的 <strong>1棵</strong> 敌国树木。</p> <p>树木的照片如下图所示。</p> <p></p> <img src='stimuli/trees/13.png', style='max-width: 30%;'> </img> <p><strong>你是否选择发射武器？</strong></p>","0",""
"","","","","","html-keyboard-response","24","60872","0.0-4.0-0.10","130","1","2022-11-14 22:41:42","a60ee176136a54a92dc2853177adfa2c","219.142.99.24","Mozilla/5.0 (Macintosh; Intel Mac OS X 10_15_6) AppleWebKit/605.1.15 (KHTML, like Gecko) Version/14.0.1 Safari/605.1.15","Macintosh","Safari","14.0.1","OS X","10_15_6","null","<div style=""font-size:60px;"">+</div>","null",""
"","","","","","html-button-response","25","62980","0.0-4.0-1.10","130","1","2022-11-14 22:41:42","a60ee176136a54a92dc2853177adfa2c","219.142.99.24","Mozilla/5.0 (Macintosh; Intel Mac OS X 10_15_6) AppleWebKit/605.1.15 (KHTML, like Gecko) Version/14.0.1 Safari/605.1.15","Macintosh","Safari","14.0.1","OS X","10_15_6","2089","<p>作为军队的指挥官，你可以选择发射导弹杀死 <strong>2名</strong> 敌国士兵，但会误杀附近的 <strong>1名</strong> 敌国平民。</p> <p>平民照片如下图所示。</p> <p></p> <img src='stimuli/faces/PCM1.jpg', style='max-width: 30%;'> </img> <p><strong>你是否选择发射武器？</strong></p>","1",""
"","","","","","html-keyboard-response","26","63988","0.0-4.0-0.11","130","1","2022-11-14 22:41:42","a60ee176136a54a92dc2853177adfa2c","219.142.99.24","Mozilla/5.0 (Macintosh; Intel Mac OS X 10_15_6) AppleWebKit/605.1.15 (KHTML, like Gecko) Version/14.0.1 Safari/605.1.15","Macintosh","Safari","14.0.1","OS X","10_15_6","null","<div style=""font-size:60px;"">+</div>","null",""
"","","","","","html-button-response","27","64994","0.0-4.0-1.11","130","1","2022-11-14 22:41:42","a60ee176136a54a92dc2853177adfa2c","219.142.99.24","Mozilla/5.0 (Macintosh; Intel Mac OS X 10_15_6) AppleWebKit/605.1.15 (KHTML, like Gecko) Version/14.0.1 Safari/605.1.15","Macintosh","Safari","14.0.1","OS X","10_15_6","994","<p>作为军队的指挥官，你可以选择发射导弹杀死 <strong>1名</strong> 敌国士兵，但会误杀附近的 <strong>1名</strong> 敌国平民。</p> <p>平民照片如下图所示。</p> <p></p> <img src='stimuli/faces/PCF2.jpg', style='max-width: 30%;'> </img> <p><strong>你是否选择发射武器？</strong></p>","1",""
"","","","","","html-keyboard-response","28","66001","0.0-4.0-0.12","130","1","2022-11-14 22:41:42","a60ee176136a54a92dc2853177adfa2c","219.142.99.24","Mozilla/5.0 (Macintosh; Intel Mac OS X 10_15_6) AppleWebKit/605.1.15 (KHTML, like Gecko) Version/14.0.1 Safari/605.1.15","Macintosh","Safari","14.0.1","OS X","10_15_6","null","<div style=""font-size:60px;"">+</div>","null",""
"","","","","","html-button-response","29","67486","0.0-4.0-1.12","130","1","2022-11-14 22:41:42","a60ee176136a54a92dc2853177adfa2c","219.142.99.24","Mozilla/5.0 (Macintosh; Intel Mac OS X 10_15_6) AppleWebKit/605.1.15 (KHTML, like Gecko) Version/14.0.1 Safari/605.1.15","Macintosh","Safari","14.0.1","OS X","10_15_6","1474","<p>作为军队的指挥官，你可以选择发射导弹杀死 <strong>3名</strong> 敌国士兵，但会误杀附近的 <strong>1名</strong> 敌国平民。</p> <p>平民照片如下图所示。</p> <p></p> <img src='stimuli/faces/PCF4.jpg', style='max-width: 30%;'> </img> <p><strong>你是否选择发射武器？</strong></p>","0",""
"","","","","","html-keyboard-response","30","68493","0.0-4.0-0.13","130","1","2022-11-14 22:41:42","a60ee176136a54a92dc2853177adfa2c","219.142.99.24","Mozilla/5.0 (Macintosh; Intel Mac OS X 10_15_6) AppleWebKit/605.1.15 (KHTML, like Gecko) Version/14.0.1 Safari/605.1.15","Macintosh","Safari","14.0.1","OS X","10_15_6","null","<div style=""font-size:60px;"">+</div>","null",""
"","","","","","html-button-response","31","69697","0.0-4.0-1.13","130","1","2022-11-14 22:41:42","a60ee176136a54a92dc2853177adfa2c","219.142.99.24","Mozilla/5.0 (Macintosh; Intel Mac OS X 10_15_6) AppleWebKit/605.1.15 (KHTML, like Gecko) Version/14.0.1 Safari/605.1.15","Macintosh","Safari","14.0.1","OS X","10_15_6","1195","<p>作为军队的指挥官，你可以选择发射导弹杀死 <strong>1名</strong> 敌国士兵，但会炸毁附近的 <strong>1棵</strong> 敌国树木。</p> <p>树木的照片如下图所示。</p> <p></p> <img src='stimuli/trees/7.png', style='max-width: 30%;'> </img> <p><strong>你是否选择发射武器？</strong></p>","0",""
"","","","","","html-keyboard-response","32","70705","0.0-4.0-0.14","130","1","2022-11-14 22:41:42","a60ee176136a54a92dc2853177adfa2c","219.142.99.24","Mozilla/5.0 (Macintosh; Intel Mac OS X 10_15_6) AppleWebKit/605.1.15 (KHTML, like Gecko) Version/14.0.1 Safari/605.1.15","Macintosh","Safari","14.0.1","OS X","10_15_6","null","<div style=""font-size:60px;"">+</div>","null",""
"","","","","","html-button-response","33","72001","0.0-4.0-1.14","130","1","2022-11-14 22:41:42","a60ee176136a54a92dc2853177adfa2c","219.142.99.24","Mozilla/5.0 (Macintosh; Intel Mac OS X 10_15_6) AppleWebKit/605.1.15 (KHTML, like Gecko) Version/14.0.1 Safari/605.1.15","Macintosh","Safari","14.0.1","OS X","10_15_6","1285","<p>作为军队的指挥官，你可以选择发射导弹杀死 <strong>4名</strong> 敌国士兵，但会误杀附近的 <strong>1名</strong> 敌国平民。</p> <p>平民照片如下图所示。</p> <p></p> <img src='stimuli/faces/PCF3.jpg', style='max-width: 30%;'> </img> <p><strong>你是否选择发射武器？</strong></p>","0",""
"","","","","","html-keyboard-response","34","73009","0.0-4.0-0.15","130","1","2022-11-14 22:41:42","a60ee176136a54a92dc2853177adfa2c","219.142.99.24","Mozilla/5.0 (Macintosh; Intel Mac OS X 10_15_6) AppleWebKit/605.1.15 (KHTML, like Gecko) Version/14.0.1 Safari/605.1.15","Macintosh","Safari","14.0.1","OS X","10_15_6","null","<div style=""font-size:60px;"">+</div>","null",""
"","","","","","html-button-response","35","73942","0.0-4.0-1.15","130","1","2022-11-14 22:41:42","a60ee176136a54a92dc2853177adfa2c","219.142.99.24","Mozilla/5.0 (Macintosh; Intel Mac OS X 10_15_6) AppleWebKit/605.1.15 (KHTML, like Gecko) Version/14.0.1 Safari/605.1.15","Macintosh","Safari","14.0.1","OS X","10_15_6","921","<p>作为军队的指挥官，你可以选择发射导弹杀死 <strong>9名</strong> 敌国士兵，但会炸毁附近的 <strong>1棵</strong> 敌国树木。</p> <p>树木的照片如下图所示。</p> <p></p> <img src='stimuli/trees/3.png', style='max-width: 30%;'> </img> <p><strong>你是否选择发射武器？</strong></p>","0",""
"","","","","","html-keyboard-response","36","74949","0.0-4.0-0.16","130","1","2022-11-14 22:41:42","a60ee176136a54a92dc2853177adfa2c","219.142.99.24","Mozilla/5.0 (Macintosh; Intel Mac OS X 10_15_6) AppleWebKit/605.1.15 (KHTML, like Gecko) Version/14.0.1 Safari/605.1.15","Macintosh","Safari","14.0.1","OS X","10_15_6","null","<div style=""font-size:60px;"">+</div>","null",""
"","","","","","html-button-response","37","75666","0.0-4.0-1.16","130","1","2022-11-14 22:41:42","a60ee176136a54a92dc2853177adfa2c","219.142.99.24","Mozilla/5.0 (Macintosh; Intel Mac OS X 10_15_6) AppleWebKit/605.1.15 (KHTML, like Gecko) Version/14.0.1 Safari/605.1.15","Macintosh","Safari","14.0.1","OS X","10_15_6","709","<p>作为军队的指挥官，你可以选择发射导弹杀死 <strong>9名</strong> 敌国士兵，但会误杀附近的 <strong>1名</strong> 敌国平民。</p> <p>平民照片如下图所示。</p> <p></p> <img src='stimuli/faces/PCM8.jpg', style='max-width: 30%;'> </img> <p><strong>你是否选择发射武器？</strong></p>","0",""
"","","","","","html-keyboard-response","38","76674","0.0-4.0-0.17","130","1","2022-11-14 22:41:42","a60ee176136a54a92dc2853177adfa2c","219.142.99.24","Mozilla/5.0 (Macintosh; Intel Mac OS X 10_15_6) AppleWebKit/605.1.15 (KHTML, like Gecko) Version/14.0.1 Safari/605.1.15","Macintosh","Safari","14.0.1","OS X","10_15_6","null","<div style=""font-size:60px;"">+</div>","null",""
"","","","","","html-button-response","39","77441","0.0-4.0-1.17","130","1","2022-11-14 22:41:42","a60ee176136a54a92dc2853177adfa2c","219.142.99.24","Mozilla/5.0 (Macintosh; Intel Mac OS X 10_15_6) AppleWebKit/605.1.15 (KHTML, like Gecko) Version/14.0.1 Safari/605.1.15","Macintosh","Safari","14.0.1","OS X","10_15_6","756","<p>作为军队的指挥官，你可以选择发射导弹杀死 <strong>7名</strong> 敌国士兵，但会炸毁附近的 <strong>1棵</strong> 敌国树木。</p> <p>树木的照片如下图所示。</p> <p></p> <img src='stimuli/trees/14.png', style='max-width: 30%;'> </img> <p><strong>你是否选择发射武器？</strong></p>","0",""
"","","","","","html-keyboard-response","40","78449","0.0-4.0-0.18","130","1","2022-11-14 22:41:42","a60ee176136a54a92dc2853177adfa2c","219.142.99.24","Mozilla/5.0 (Macintosh; Intel Mac OS X 10_15_6) AppleWebKit/605.1.15 (KHTML, like Gecko) Version/14.0.1 Safari/605.1.15","Macintosh","Safari","14.0.1","OS X","10_15_6","null","<div style=""font-size:60px;"">+</div>","null",""
"","","","","","html-button-response","41","79282","0.0-4.0-1.18","130","1","2022-11-14 22:41:42","a60ee176136a54a92dc2853177adfa2c","219.142.99.24","Mozilla/5.0 (Macintosh; Intel Mac OS X 10_15_6) AppleWebKit/605.1.15 (KHTML, like Gecko) Version/14.0.1 Safari/605.1.15","Macintosh","Safari","14.0.1","OS X","10_15_6","821","<p>作为军队的指挥官，你可以选择发射导弹杀死 <strong>10名</strong> 敌国士兵，但会误杀附近的 <strong>1名</strong> 敌国平民。</p> <p>平民照片如下图所示。</p> <p></p> <img src='stimuli/faces/PCM5.jpg', style='max-width: 30%;'> </img> <p><strong>你是否选择发射武器？</strong></p>","0",""
"","","","","","html-keyboard-response","42","80290","0.0-4.0-0.19","130","1","2022-11-14 22:41:42","a60ee176136a54a92dc2853177adfa2c","219.142.99.24","Mozilla/5.0 (Macintosh; Intel Mac OS X 10_15_6) AppleWebKit/605.1.15 (KHTML, like Gecko) Version/14.0.1 Safari/605.1.15","Macintosh","Safari","14.0.1","OS X","10_15_6","null","<div style=""font-size:60px;"">+</div>","null",""
"","","","","","html-button-response","43","81440","0.0-4.0-1.19","130","1","2022-11-14 22:41:42","a60ee176136a54a92dc2853177adfa2c","219.142.99.24","Mozilla/5.0 (Macintosh; Intel Mac OS X 10_15_6) AppleWebKit/605.1.15 (KHTML, like Gecko) Version/14.0.1 Safari/605.1.15","Macintosh","Safari","14.0.1","OS X","10_15_6","1137","<p>作为军队的指挥官，你可以选择发射导弹杀死 <strong>2名</strong> 敌国士兵，但会炸毁附近的 <strong>1棵</strong> 敌国树木。</p> <p>树木的照片如下图所示。</p> <p></p> <img src='stimuli/trees/8.png', style='max-width: 30%;'> </img> <p><strong>你是否选择发射武器？</strong></p>","0",""
"","","","","","html-keyboard-response","44","82447","0.0-4.0-0.20","130","1","2022-11-14 22:41:42","a60ee176136a54a92dc2853177adfa2c","219.142.99.24","Mozilla/5.0 (Macintosh; Intel Mac OS X 10_15_6) AppleWebKit/605.1.15 (KHTML, like Gecko) Version/14.0.1 Safari/605.1.15","Macintosh","Safari","14.0.1","OS X","10_15_6","null","<div style=""font-size:60px;"">+</div>","null",""
"","","","","","html-button-response","45","83468","0.0-4.0-1.20","130","1","2022-11-14 22:41:42","a60ee176136a54a92dc2853177adfa2c","219.142.99.24","Mozilla/5.0 (Macintosh; Intel Mac OS X 10_15_6) AppleWebKit/605.1.15 (KHTML, like Gecko) Version/14.0.1 Safari/605.1.15","Macintosh","Safari","14.0.1","OS X","10_15_6","1008","<p>作为军队的指挥官，你可以选择发射导弹杀死 <strong>9名</strong> 敌国士兵，但会误杀附近的 <strong>1名</strong> 敌国平民。</p> <p>平民照片如下图所示。</p> <p></p> <img src='stimuli/faces/PCM6.jpg', style='max-width: 30%;'> </img> <p><strong>你是否选择发射武器？</strong></p>","0",""
"","","","","","html-keyboard-response","46","84477","0.0-4.0-0.21","130","1","2022-11-14 22:41:42","a60ee176136a54a92dc2853177adfa2c","219.142.99.24","Mozilla/5.0 (Macintosh; Intel Mac OS X 10_15_6) AppleWebKit/605.1.15 (KHTML, like Gecko) Version/14.0.1 Safari/605.1.15","Macintosh","Safari","14.0.1","OS X","10_15_6","null","<div style=""font-size:60px;"">+</div>","null",""
"","","","","","html-button-response","47","85433","0.0-4.0-1.21","130","1","2022-11-14 22:41:42","a60ee176136a54a92dc2853177adfa2c","219.142.99.24","Mozilla/5.0 (Macintosh; Intel Mac OS X 10_15_6) AppleWebKit/605.1.15 (KHTML, like Gecko) Version/14.0.1 Safari/605.1.15","Macintosh","Safari","14.0.1","OS X","10_15_6","944","<p>作为军队的指挥官，你可以选择发射导弹杀死 <strong>4名</strong> 敌国士兵，但会炸毁附近的 <strong>1棵</strong> 敌国树木。</p> <p>树木的照片如下图所示。</p> <p></p> <img src='stimuli/trees/1.png', style='max-width: 30%;'> </img> <p><strong>你是否选择发射武器？</strong></p>","0",""
"","","","","","html-keyboard-response","48","86442","0.0-4.0-0.22","130","1","2022-11-14 22:41:42","a60ee176136a54a92dc2853177adfa2c","219.142.99.24","Mozilla/5.0 (Macintosh; Intel Mac OS X 10_15_6) AppleWebKit/605.1.15 (KHTML, like Gecko) Version/14.0.1 Safari/605.1.15","Macintosh","Safari","14.0.1","OS X","10_15_6","null","<div style=""font-size:60px;"">+</div>","null",""
"","","","","","html-button-response","49","87038","0.0-4.0-1.22","130","1","2022-11-14 22:41:42","a60ee176136a54a92dc2853177adfa2c","219.142.99.24","Mozilla/5.0 (Macintosh; Intel Mac OS X 10_15_6) AppleWebKit/605.1.15 (KHTML, like Gecko) Version/14.0.1 Safari/605.1.15","Macintosh","Safari","14.0.1","OS X","10_15_6","576","<p>作为军队的指挥官，你可以选择发射导弹杀死 <strong>10名</strong> 敌国士兵，但会炸毁附近的 <strong>1棵</strong> 敌国树木。</p> <p>树木的照片如下图所示。</p> <p></p> <img src='stimuli/trees/4.png', style='max-width: 30%;'> </img> <p><strong>你是否选择发射武器？</strong></p>","0",""
"","","","","","html-keyboard-response","50","88047","0.0-4.0-0.23","130","1","2022-11-14 22:41:42","a60ee176136a54a92dc2853177adfa2c","219.142.99.24","Mozilla/5.0 (Macintosh; Intel Mac OS X 10_15_6) AppleWebKit/605.1.15 (KHTML, like Gecko) Version/14.0.1 Safari/605.1.15","Macintosh","Safari","14.0.1","OS X","10_15_6","null","<div style=""font-size:60px;"">+</div>","null",""
"","","","","","html-button-response","51","88796","0.0-4.0-1.23","130","1","2022-11-14 22:41:42","a60ee176136a54a92dc2853177adfa2c","219.142.99.24","Mozilla/5.0 (Macintosh; Intel Mac OS X 10_15_6) AppleWebKit/605.1.15 (KHTML, like Gecko) Version/14.0.1 Safari/605.1.15","Macintosh","Safari","14.0.1","OS X","10_15_6","735","<p>作为军队的指挥官，你可以选择发射导弹杀死 <strong>5名</strong> 敌国士兵，但会炸毁附近的 <strong>1棵</strong> 敌国树木。</p> <p>树木的照片如下图所示。</p> <p></p> <img src='stimuli/trees/2.png', style='max-width: 30%;'> </img> <p><strong>你是否选择发射武器？</strong></p>","0",""
"","","","","","html-keyboard-response","52","89805","0.0-4.0-0.24","130","1","2022-11-14 22:41:42","a60ee176136a54a92dc2853177adfa2c","219.142.99.24","Mozilla/5.0 (Macintosh; Intel Mac OS X 10_15_6) AppleWebKit/605.1.15 (KHTML, like Gecko) Version/14.0.1 Safari/605.1.15","Macintosh","Safari","14.0.1","OS X","10_15_6","null","<div style=""font-size:60px;"">+</div>","null",""
"","","","","","html-button-response","53","90520","0.0-4.0-1.24","130","1","2022-11-14 22:41:42","a60ee176136a54a92dc2853177adfa2c","219.142.99.24","Mozilla/5.0 (Macintosh; Intel Mac OS X 10_15_6) AppleWebKit/605.1.15 (KHTML, like Gecko) Version/14.0.1 Safari/605.1.15","Macintosh","Safari","14.0.1","OS X","10_15_6","701","<p>作为军队的指挥官，你可以选择发射导弹杀死 <strong>7名</strong> 敌国士兵，但会误杀附近的 <strong>1名</strong> 敌国平民。</p> <p>平民照片如下图所示。</p> <p></p> <img src='stimuli/faces/PCF8.jpg', style='max-width: 30%;'> </img> <p><strong>你是否选择发射武器？</strong></p>","0",""
"","","","","","html-keyboard-response","54","91528","0.0-4.0-0.25","130","1","2022-11-14 22:41:42","a60ee176136a54a92dc2853177adfa2c","219.142.99.24","Mozilla/5.0 (Macintosh; Intel Mac OS X 10_15_6) AppleWebKit/605.1.15 (KHTML, like Gecko) Version/14.0.1 Safari/605.1.15","Macintosh","Safari","14.0.1","OS X","10_15_6","null","<div style=""font-size:60px;"">+</div>","null",""
"","","","","","html-button-response","55","92219","0.0-4.0-1.25","130","1","2022-11-14 22:41:42","a60ee176136a54a92dc2853177adfa2c","219.142.99.24","Mozilla/5.0 (Macintosh; Intel Mac OS X 10_15_6) AppleWebKit/605.1.15 (KHTML, like Gecko) Version/14.0.1 Safari/605.1.15","Macintosh","Safari","14.0.1","OS X","10_15_6","677","<p>作为军队的指挥官，你可以选择发射导弹杀死 <strong>10名</strong> 敌国士兵，但会炸毁附近的 <strong>1棵</strong> 敌国树木。</p> <p>树木的照片如下图所示。</p> <p></p> <img src='stimuli/trees/12.png', style='max-width: 30%;'> </img> <p><strong>你是否选择发射武器？</strong></p>","0",""
"","","","","","html-keyboard-response","56","93227","0.0-4.0-0.26","130","1","2022-11-14 22:41:42","a60ee176136a54a92dc2853177adfa2c","219.142.99.24","Mozilla/5.0 (Macintosh; Intel Mac OS X 10_15_6) AppleWebKit/605.1.15 (KHTML, like Gecko) Version/14.0.1 Safari/605.1.15","Macintosh","Safari","14.0.1","OS X","10_15_6","null","<div style=""font-size:60px;"">+</div>","null",""
"","","","","","html-button-response","57","93899","0.0-4.0-1.26","130","1","2022-11-14 22:41:42","a60ee176136a54a92dc2853177adfa2c","219.142.99.24","Mozilla/5.0 (Macintosh; Intel Mac OS X 10_15_6) AppleWebKit/605.1.15 (KHTML, like Gecko) Version/14.0.1 Safari/605.1.15","Macintosh","Safari","14.0.1","OS X","10_15_6","657","<p>作为军队的指挥官，你可以选择发射导弹杀死 <strong>6名</strong> 敌国士兵，但会炸毁附近的 <strong>1棵</strong> 敌国树木。</p> <p>树木的照片如下图所示。</p> <p></p> <img src='stimuli/trees/6.png', style='max-width: 30%;'> </img> <p><strong>你是否选择发射武器？</strong></p>","0",""
"","","","","","html-keyboard-response","58","94908","0.0-4.0-0.27","130","1","2022-11-14 22:41:42","a60ee176136a54a92dc2853177adfa2c","219.142.99.24","Mozilla/5.0 (Macintosh; Intel Mac OS X 10_15_6) AppleWebKit/605.1.15 (KHTML, like Gecko) Version/14.0.1 Safari/605.1.15","Macintosh","Safari","14.0.1","OS X","10_15_6","null","<div style=""font-size:60px;"">+</div>","null",""
"","","","","","html-button-response","59","95735","0.0-4.0-1.27","130","1","2022-11-14 22:41:42","a60ee176136a54a92dc2853177adfa2c","219.142.99.24","Mozilla/5.0 (Macintosh; Intel Mac OS X 10_15_6) AppleWebKit/605.1.15 (KHTML, like Gecko) Version/14.0.1 Safari/605.1.15","Macintosh","Safari","14.0.1","OS X","10_15_6","812","<p>作为军队的指挥官，你可以选择发射导弹杀死 <strong>5名</strong> 敌国士兵，但会误杀附近的 <strong>1名</strong> 敌国平民。</p> <p>平民照片如下图所示。</p> <p></p> <img src='stimuli/faces/PCM4.jpg', style='max-width: 30%;'> </img> <p><strong>你是否选择发射武器？</strong></p>","0",""
"","","","","","html-keyboard-response","60","96744","0.0-4.0-0.28","130","1","2022-11-14 22:41:42","a60ee176136a54a92dc2853177adfa2c","219.142.99.24","Mozilla/5.0 (Macintosh; Intel Mac OS X 10_15_6) AppleWebKit/605.1.15 (KHTML, like Gecko) Version/14.0.1 Safari/605.1.15","Macintosh","Safari","14.0.1","OS X","10_15_6","null","<div style=""font-size:60px;"">+</div>","null",""
"","","","","","html-button-response","61","97435","0.0-4.0-1.28","130","1","2022-11-14 22:41:42","a60ee176136a54a92dc2853177adfa2c","219.142.99.24","Mozilla/5.0 (Macintosh; Intel Mac OS X 10_15_6) AppleWebKit/605.1.15 (KHTML, like Gecko) Version/14.0.1 Safari/605.1.15","Macintosh","Safari","14.0.1","OS X","10_15_6","671","<p>作为军队的指挥官，你可以选择发射导弹杀死 <strong>3名</strong> 敌国士兵，但会炸毁附近的 <strong>1棵</strong> 敌国树木。</p> <p>树木的照片如下图所示。</p> <p></p> <img src='stimuli/trees/10.png', style='max-width: 30%;'> </img> <p><strong>你是否选择发射武器？</strong></p>","0",""
"","","","","","html-keyboard-response","62","98444","0.0-4.0-0.29","130","1","2022-11-14 22:41:42","a60ee176136a54a92dc2853177adfa2c","219.142.99.24","Mozilla/5.0 (Macintosh; Intel Mac OS X 10_15_6) AppleWebKit/605.1.15 (KHTML, like Gecko) Version/14.0.1 Safari/605.1.15","Macintosh","Safari","14.0.1","OS X","10_15_6","null","<div style=""font-size:60px;"">+</div>","null",""
"","","","","","html-button-response","63","99151","0.0-4.0-1.29","130","1","2022-11-14 22:41:42","a60ee176136a54a92dc2853177adfa2c","219.142.99.24","Mozilla/5.0 (Macintosh; Intel Mac OS X 10_15_6) AppleWebKit/605.1.15 (KHTML, like Gecko) Version/14.0.1 Safari/605.1.15","Macintosh","Safari","14.0.1","OS X","10_15_6","693","<p>作为军队的指挥官，你可以选择发射导弹杀死 <strong>8名</strong> 敌国士兵，但会误杀附近的 <strong>1名</strong> 敌国平民。</p> <p>平民照片如下图所示。</p> <p></p> <img src='stimuli/faces/PCF3.jpg', style='max-width: 30%;'> </img> <p><strong>你是否选择发射武器？</strong></p>","0",""
"","","","","","html-keyboard-response","64","100160","0.0-4.0-0.30","130","1","2022-11-14 22:41:42","a60ee176136a54a92dc2853177adfa2c","219.142.99.24","Mozilla/5.0 (Macintosh; Intel Mac OS X 10_15_6) AppleWebKit/605.1.15 (KHTML, like Gecko) Version/14.0.1 Safari/605.1.15","Macintosh","Safari","14.0.1","OS X","10_15_6","null","<div style=""font-size:60px;"">+</div>","null",""
"","","","","","html-button-response","65","100825","0.0-4.0-1.30","130","1","2022-11-14 22:41:42","a60ee176136a54a92dc2853177adfa2c","219.142.99.24","Mozilla/5.0 (Macintosh; Intel Mac OS X 10_15_6) AppleWebKit/605.1.15 (KHTML, like Gecko) Version/14.0.1 Safari/605.1.15","Macintosh","Safari","14.0.1","OS X","10_15_6","649","<p>作为军队的指挥官，你可以选择发射导弹杀死 <strong>7名</strong> 敌国士兵，但会误杀附近的 <strong>1名</strong> 敌国平民。</p> <p>平民照片如下图所示。</p> <p></p> <img src='stimuli/faces/PCM4.jpg', style='max-width: 30%;'> </img> <p><strong>你是否选择发射武器？</strong></p>","0",""
"","","","","","html-keyboard-response","66","101835","0.0-4.0-0.31","130","1","2022-11-14 22:41:42","a60ee176136a54a92dc2853177adfa2c","219.142.99.24","Mozilla/5.0 (Macintosh; Intel Mac OS X 10_15_6) AppleWebKit/605.1.15 (KHTML, like Gecko) Version/14.0.1 Safari/605.1.15","Macintosh","Safari","14.0.1","OS X","10_15_6","null","<div style=""font-size:60px;"">+</div>","null",""
"","","","","","html-button-response","67","102496","0.0-4.0-1.31","130","1","2022-11-14 22:41:42","a60ee176136a54a92dc2853177adfa2c","219.142.99.24","Mozilla/5.0 (Macintosh; Intel Mac OS X 10_15_6) AppleWebKit/605.1.15 (KHTML, like Gecko) Version/14.0.1 Safari/605.1.15","Macintosh","Safari","14.0.1","OS X","10_15_6","646","<p>作为军队的指挥官，你可以选择发射导弹杀死 <strong>8名</strong> 敌国士兵，但会炸毁附近的 <strong>1棵</strong> 敌国树木。</p> <p>树木的照片如下图所示。</p> <p></p> <img src='stimuli/trees/16.png', style='max-width: 30%;'> </img> <p><strong>你是否选择发射武器？</strong></p>","0",""
"","","","","","html-keyboard-response","68","103505","0.0-4.0-0.32","130","1","2022-11-14 22:41:42","a60ee176136a54a92dc2853177adfa2c","219.142.99.24","Mozilla/5.0 (Macintosh; Intel Mac OS X 10_15_6) AppleWebKit/605.1.15 (KHTML, like Gecko) Version/14.0.1 Safari/605.1.15","Macintosh","Safari","14.0.1","OS X","10_15_6","null","<div style=""font-size:60px;"">+</div>","null",""
"","","","","","html-button-response","69","104165","0.0-4.0-1.32","130","1","2022-11-14 22:41:42","a60ee176136a54a92dc2853177adfa2c","219.142.99.24","Mozilla/5.0 (Macintosh; Intel Mac OS X 10_15_6) AppleWebKit/605.1.15 (KHTML, like Gecko) Version/14.0.1 Safari/605.1.15","Macintosh","Safari","14.0.1","OS X","10_15_6","645","<p>作为军队的指挥官，你可以选择发射导弹杀死 <strong>6名</strong> 敌国士兵，但会误杀附近的 <strong>1名</strong> 敌国平民。</p> <p>平民照片如下图所示。</p> <p></p> <img src='stimuli/faces/PCM2.jpg', style='max-width: 30%;'> </img> <p><strong>你是否选择发射武器？</strong></p>","0",""
"","","","","","html-keyboard-response","70","105182","0.0-4.0-0.33","130","1","2022-11-14 22:41:42","a60ee176136a54a92dc2853177adfa2c","219.142.99.24","Mozilla/5.0 (Macintosh; Intel Mac OS X 10_15_6) AppleWebKit/605.1.15 (KHTML, like Gecko) Version/14.0.1 Safari/605.1.15","Macintosh","Safari","14.0.1","OS X","10_15_6","null","<div style=""font-size:60px;"">+</div>","null",""
"","","","","","html-button-response","71","105749","0.0-4.0-1.33","130","1","2022-11-14 22:41:42","a60ee176136a54a92dc2853177adfa2c","219.142.99.24","Mozilla/5.0 (Macintosh; Intel Mac OS X 10_15_6) AppleWebKit/605.1.15 (KHTML, like Gecko) Version/14.0.1 Safari/605.1.15","Macintosh","Safari","14.0.1","OS X","10_15_6","553","<p>作为军队的指挥官，你可以选择发射导弹杀死 <strong>6名</strong> 敌国士兵，但会炸毁附近的 <strong>1棵</strong> 敌国树木。</p> <p>树木的照片如下图所示。</p> <p></p> <img src='stimuli/trees/7.png', style='max-width: 30%;'> </img> <p><strong>你是否选择发射武器？</strong></p>","0",""
"","","","","","html-keyboard-response","72","106759","0.0-4.0-0.34","130","1","2022-11-14 22:41:42","a60ee176136a54a92dc2853177adfa2c","219.142.99.24","Mozilla/5.0 (Macintosh; Intel Mac OS X 10_15_6) AppleWebKit/605.1.15 (KHTML, like Gecko) Version/14.0.1 Safari/605.1.15","Macintosh","Safari","14.0.1","OS X","10_15_6","null","<div style=""font-size:60px;"">+</div>","null",""
"","","","","","html-button-response","73","107462","0.0-4.0-1.34","130","1","2022-11-14 22:41:42","a60ee176136a54a92dc2853177adfa2c","219.142.99.24","Mozilla/5.0 (Macintosh; Intel Mac OS X 10_15_6) AppleWebKit/605.1.15 (KHTML, like Gecko) Version/14.0.1 Safari/605.1.15","Macintosh","Safari","14.0.1","OS X","10_15_6","687","<p>作为军队的指挥官，你可以选择发射导弹杀死 <strong>6名</strong> 敌国士兵，但会误杀附近的 <strong>1名</strong> 敌国平民。</p> <p>平民照片如下图所示。</p> <p></p> <img src='stimuli/faces/PCF7.jpg', style='max-width: 30%;'> </img> <p><strong>你是否选择发射武器？</strong></p>","0",""
"","","","","","html-keyboard-response","74","108471","0.0-4.0-0.35","130","1","2022-11-14 22:41:42","a60ee176136a54a92dc2853177adfa2c","219.142.99.24","Mozilla/5.0 (Macintosh; Intel Mac OS X 10_15_6) AppleWebKit/605.1.15 (KHTML, like Gecko) Version/14.0.1 Safari/605.1.15","Macintosh","Safari","14.0.1","OS X","10_15_6","null","<div style=""font-size:60px;"">+</div>","null",""
"","","","","","html-button-response","75","109062","0.0-4.0-1.35","130","1","2022-11-14 22:41:42","a60ee176136a54a92dc2853177adfa2c","219.142.99.24","Mozilla/5.0 (Macintosh; Intel Mac OS X 10_15_6) AppleWebKit/605.1.15 (KHTML, like Gecko) Version/14.0.1 Safari/605.1.15","Macintosh","Safari","14.0.1","OS X","10_15_6","574","<p>作为军队的指挥官，你可以选择发射导弹杀死 <strong>7名</strong> 敌国士兵，但会误杀附近的 <strong>1名</strong> 敌国平民。</p> <p>平民照片如下图所示。</p> <p></p> <img src='stimuli/faces/PCF2.jpg', style='max-width: 30%;'> </img> <p><strong>你是否选择发射武器？</strong></p>","0",""
"","","","","","html-keyboard-response","76","110071","0.0-4.0-0.36","130","1","2022-11-14 22:41:42","a60ee176136a54a92dc2853177adfa2c","219.142.99.24","Mozilla/5.0 (Macintosh; Intel Mac OS X 10_15_6) AppleWebKit/605.1.15 (KHTML, like Gecko) Version/14.0.1 Safari/605.1.15","Macintosh","Safari","14.0.1","OS X","10_15_6","null","<div style=""font-size:60px;"">+</div>","null",""
"","","","","","html-button-response","77","110694","0.0-4.0-1.36","130","1","2022-11-14 22:41:42","a60ee176136a54a92dc2853177adfa2c","219.142.99.24","Mozilla/5.0 (Macintosh; Intel Mac OS X 10_15_6) AppleWebKit/605.1.15 (KHTML, like Gecko) Version/14.0.1 Safari/605.1.15","Macintosh","Safari","14.0.1","OS X","10_15_6","601","<p>作为军队的指挥官，你可以选择发射导弹杀死 <strong>10名</strong> 敌国士兵，但会误杀附近的 <strong>1名</strong> 敌国平民。</p> <p>平民照片如下图所示。</p> <p></p> <img src='stimuli/faces/PCM3.jpg', style='max-width: 30%;'> </img> <p><strong>你是否选择发射武器？</strong></p>","0",""
"","","","","","html-keyboard-response","78","111703","0.0-4.0-0.37","130","1","2022-11-14 22:41:42","a60ee176136a54a92dc2853177adfa2c","219.142.99.24","Mozilla/5.0 (Macintosh; Intel Mac OS X 10_15_6) AppleWebKit/605.1.15 (KHTML, like Gecko) Version/14.0.1 Safari/605.1.15","Macintosh","Safari","14.0.1","OS X","10_15_6","null","<div style=""font-size:60px;"">+</div>","null",""
"","","","","","html-button-response","79","112313","0.0-4.0-1.37","130","1","2022-11-14 22:41:42","a60ee176136a54a92dc2853177adfa2c","219.142.99.24","Mozilla/5.0 (Macintosh; Intel Mac OS X 10_15_6) AppleWebKit/605.1.15 (KHTML, like Gecko) Version/14.0.1 Safari/605.1.15","Macintosh","Safari","14.0.1","OS X","10_15_6","593","<p>作为军队的指挥官，你可以选择发射导弹杀死 <strong>2名</strong> 敌国士兵，但会误杀附近的 <strong>1名</strong> 敌国平民。</p> <p>平民照片如下图所示。</p> <p></p> <img src='stimuli/faces/PCM6.jpg', style='max-width: 30%;'> </img> <p><strong>你是否选择发射武器？</strong></p>","0",""
"","","","","","html-keyboard-response","80","113323","0.0-4.0-0.38","130","1","2022-11-14 22:41:42","a60ee176136a54a92dc2853177adfa2c","219.142.99.24","Mozilla/5.0 (Macintosh; Intel Mac OS X 10_15_6) AppleWebKit/605.1.15 (KHTML, like Gecko) Version/14.0.1 Safari/605.1.15","Macintosh","Safari","14.0.1","OS X","10_15_6","null","<div style=""font-size:60px;"">+</div>","null",""
"","","","","","html-button-response","81","115651","0.0-4.0-1.38","130","1","2022-11-14 22:41:42","a60ee176136a54a92dc2853177adfa2c","219.142.99.24","Mozilla/5.0 (Macintosh; Intel Mac OS X 10_15_6) AppleWebKit/605.1.15 (KHTML, like Gecko) Version/14.0.1 Safari/605.1.15","Macintosh","Safari","14.0.1","OS X","10_15_6","2310","<p>作为军队的指挥官，你可以选择发射导弹杀死 <strong>2名</strong> 敌国士兵，但会炸毁附近的 <strong>1棵</strong> 敌国树木。</p> <p>树木的照片如下图所示。</p> <p></p> <img src='stimuli/trees/6.png', style='max-width: 30%;'> </img> <p><strong>你是否选择发射武器？</strong></p>","0",""
"","","","","","html-keyboard-response","82","116659","0.0-4.0-0.39","130","1","2022-11-14 22:41:42","a60ee176136a54a92dc2853177adfa2c","219.142.99.24","Mozilla/5.0 (Macintosh; Intel Mac OS X 10_15_6) AppleWebKit/605.1.15 (KHTML, like Gecko) Version/14.0.1 Safari/605.1.15","Macintosh","Safari","14.0.1","OS X","10_15_6","null","<div style=""font-size:60px;"">+</div>","null",""
"","","","","","html-button-response","83","117985","0.0-4.0-1.39","130","1","2022-11-14 22:41:42","a60ee176136a54a92dc2853177adfa2c","219.142.99.24","Mozilla/5.0 (Macintosh; Intel Mac OS X 10_15_6) AppleWebKit/605.1.15 (KHTML, like Gecko) Version/14.0.1 Safari/605.1.15","Macintosh","Safari","14.0.1","OS X","10_15_6","1309","<p>作为军队的指挥官，你可以选择发射导弹杀死 <strong>10名</strong> 敌国士兵，但会炸毁附近的 <strong>1棵</strong> 敌国树木。</p> <p>树木的照片如下图所示。</p> <p></p> <img src='stimuli/trees/1.png', style='max-width: 30%;'> </img> <p><strong>你是否选择发射武器？</strong></p>","0",""
"","","","","","html-keyboard-response","84","118995","0.0-4.0-0.40","130","1","2022-11-14 22:41:42","a60ee176136a54a92dc2853177adfa2c","219.142.99.24","Mozilla/5.0 (Macintosh; Intel Mac OS X 10_15_6) AppleWebKit/605.1.15 (KHTML, like Gecko) Version/14.0.1 Safari/605.1.15","Macintosh","Safari","14.0.1","OS X","10_15_6","null","<div style=""font-size:60px;"">+</div>","null",""
"","","","","","html-button-response","85","119995","0.0-4.0-1.40","130","1","2022-11-14 22:41:42","a60ee176136a54a92dc2853177adfa2c","219.142.99.24","Mozilla/5.0 (Macintosh; Intel Mac OS X 10_15_6) AppleWebKit/605.1.15 (KHTML, like Gecko) Version/14.0.1 Safari/605.1.15","Macintosh","Safari","14.0.1","OS X","10_15_6","983","<p>作为军队的指挥官，你可以选择发射导弹杀死 <strong>1名</strong> 敌国士兵，但会炸毁附近的 <strong>1棵</strong> 敌国树木。</p> <p>树木的照片如下图所示。</p> <p></p> <img src='stimuli/trees/11.png', style='max-width: 30%;'> </img> <p><strong>你是否选择发射武器？</strong></p>","0",""
"","","","","","html-keyboard-response","86","121006","0.0-4.0-0.41","130","1","2022-11-14 22:41:42","a60ee176136a54a92dc2853177adfa2c","219.142.99.24","Mozilla/5.0 (Macintosh; Intel Mac OS X 10_15_6) AppleWebKit/605.1.15 (KHTML, like Gecko) Version/14.0.1 Safari/605.1.15","Macintosh","Safari","14.0.1","OS X","10_15_6","null","<div style=""font-size:60px;"">+</div>","null",""
"","","","","","html-button-response","87","121780","0.0-4.0-1.41","130","1","2022-11-14 22:41:42","a60ee176136a54a92dc2853177adfa2c","219.142.99.24","Mozilla/5.0 (Macintosh; Intel Mac OS X 10_15_6) AppleWebKit/605.1.15 (KHTML, like Gecko) Version/14.0.1 Safari/605.1.15","Macintosh","Safari","14.0.1","OS X","10_15_6","756","<p>作为军队的指挥官，你可以选择发射导弹杀死 <strong>8名</strong> 敌国士兵，但会误杀附近的 <strong>1名</strong> 敌国平民。</p> <p>平民照片如下图所示。</p> <p></p> <img src='stimuli/faces/PCM7.jpg', style='max-width: 30%;'> </img> <p><strong>你是否选择发射武器？</strong></p>","0",""
"","","","","","html-keyboard-response","88","122790","0.0-4.0-0.42","130","1","2022-11-14 22:41:42","a60ee176136a54a92dc2853177adfa2c","219.142.99.24","Mozilla/5.0 (Macintosh; Intel Mac OS X 10_15_6) AppleWebKit/605.1.15 (KHTML, like Gecko) Version/14.0.1 Safari/605.1.15","Macintosh","Safari","14.0.1","OS X","10_15_6","null","<div style=""font-size:60px;"">+</div>","null",""
"","","","","","html-button-response","89","126575","0.0-4.0-1.42","130","1","2022-11-14 22:41:42","a60ee176136a54a92dc2853177adfa2c","219.142.99.24","Mozilla/5.0 (Macintosh; Intel Mac OS X 10_15_6) AppleWebKit/605.1.15 (KHTML, like Gecko) Version/14.0.1 Safari/605.1.15","Macintosh","Safari","14.0.1","OS X","10_15_6","3768","<p>作为军队的指挥官，你可以选择发射导弹杀死 <strong>1名</strong> 敌国士兵，但会误杀附近的 <strong>1名</strong> 敌国平民。</p> <p>平民照片如下图所示。</p> <p></p> <img src='stimuli/faces/PCM7.jpg', style='max-width: 30%;'> </img> <p><strong>你是否选择发射武器？</strong></p>","1",""
"","","","","","html-keyboard-response","90","127593","0.0-4.0-0.43","130","1","2022-11-14 22:41:42","a60ee176136a54a92dc2853177adfa2c","219.142.99.24","Mozilla/5.0 (Macintosh; Intel Mac OS X 10_15_6) AppleWebKit/605.1.15 (KHTML, like Gecko) Version/14.0.1 Safari/605.1.15","Macintosh","Safari","14.0.1","OS X","10_15_6","null","<div style=""font-size:60px;"">+</div>","null",""
"","","","","","html-button-response","91","129408","0.0-4.0-1.43","130","1","2022-11-14 22:41:42","a60ee176136a54a92dc2853177adfa2c","219.142.99.24","Mozilla/5.0 (Macintosh; Intel Mac OS X 10_15_6) AppleWebKit/605.1.15 (KHTML, like Gecko) Version/14.0.1 Safari/605.1.15","Macintosh","Safari","14.0.1","OS X","10_15_6","1799","<p>作为军队的指挥官，你可以选择发射导弹杀死 <strong>3名</strong> 敌国士兵，但会炸毁附近的 <strong>1棵</strong> 敌国树木。</p> <p>树木的照片如下图所示。</p> <p></p> <img src='stimuli/trees/12.png', style='max-width: 30%;'> </img> <p><strong>你是否选择发射武器？</strong></p>","0",""
"","","","","","html-keyboard-response","92","130419","0.0-4.0-0.44","130","1","2022-11-14 22:41:42","a60ee176136a54a92dc2853177adfa2c","219.142.99.24","Mozilla/5.0 (Macintosh; Intel Mac OS X 10_15_6) AppleWebKit/605.1.15 (KHTML, like Gecko) Version/14.0.1 Safari/605.1.15","Macintosh","Safari","14.0.1","OS X","10_15_6","null","<div style=""font-size:60px;"">+</div>","null",""
"","","","","","html-button-response","93","135147","0.0-4.0-1.44","130","1","2022-11-14 22:41:42","a60ee176136a54a92dc2853177adfa2c","219.142.99.24","Mozilla/5.0 (Macintosh; Intel Mac OS X 10_15_6) AppleWebKit/605.1.15 (KHTML, like Gecko) Version/14.0.1 Safari/605.1.15","Macintosh","Safari","14.0.1","OS X","10_15_6","4709","<p>作为军队的指挥官，你可以选择发射导弹杀死 <strong>6名</strong> 敌国士兵，但会炸毁附近的 <strong>1棵</strong> 敌国树木。</p> <p>树木的照片如下图所示。</p> <p></p> <img src='stimuli/trees/2.png', style='max-width: 30%;'> </img> <p><strong>你是否选择发射武器？</strong></p>","0",""
"","","","","","html-keyboard-response","94","136158","0.0-4.0-0.45","130","1","2022-11-14 22:41:42","a60ee176136a54a92dc2853177adfa2c","219.142.99.24","Mozilla/5.0 (Macintosh; Intel Mac OS X 10_15_6) AppleWebKit/605.1.15 (KHTML, like Gecko) Version/14.0.1 Safari/605.1.15","Macintosh","Safari","14.0.1","OS X","10_15_6","null","<div style=""font-size:60px;"">+</div>","null",""
"","","","","","html-button-response","95","137585","0.0-4.0-1.45","130","1","2022-11-14 22:41:42","a60ee176136a54a92dc2853177adfa2c","219.142.99.24","Mozilla/5.0 (Macintosh; Intel Mac OS X 10_15_6) AppleWebKit/605.1.15 (KHTML, like Gecko) Version/14.0.1 Safari/605.1.15","Macintosh","Safari","14.0.1","OS X","10_15_6","1408","<p>作为军队的指挥官，你可以选择发射导弹杀死 <strong>9名</strong> 敌国士兵，但会误杀附近的 <strong>1名</strong> 敌国平民。</p> <p>平民照片如下图所示。</p> <p></p> <img src='stimuli/faces/PCF6.jpg', style='max-width: 30%;'> </img> <p><strong>你是否选择发射武器？</strong></p>","0",""
"","","","","","html-keyboard-response","96","138596","0.0-4.0-0.46","130","1","2022-11-14 22:41:42","a60ee176136a54a92dc2853177adfa2c","219.142.99.24","Mozilla/5.0 (Macintosh; Intel Mac OS X 10_15_6) AppleWebKit/605.1.15 (KHTML, like Gecko) Version/14.0.1 Safari/605.1.15","Macintosh","Safari","14.0.1","OS X","10_15_6","null","<div style=""font-size:60px;"">+</div>","null",""
"","","","","","html-button-response","97","140129","0.0-4.0-1.46","130","1","2022-11-14 22:41:42","a60ee176136a54a92dc2853177adfa2c","219.142.99.24","Mozilla/5.0 (Macintosh; Intel Mac OS X 10_15_6) AppleWebKit/605.1.15 (KHTML, like Gecko) Version/14.0.1 Safari/605.1.15","Macintosh","Safari","14.0.1","OS X","10_15_6","1515","<p>作为军队的指挥官，你可以选择发射导弹杀死 <strong>1名</strong> 敌国士兵，但会误杀附近的 <strong>1名</strong> 敌国平民。</p> <p>平民照片如下图所示。</p> <p></p> <img src='stimuli/faces/PCF7.jpg', style='max-width: 30%;'> </img> <p><strong>你是否选择发射武器？</strong></p>","1",""
"","","","","","html-keyboard-response","98","141142","0.0-4.0-0.47","130","1","2022-11-14 22:41:42","a60ee176136a54a92dc2853177adfa2c","219.142.99.24","Mozilla/5.0 (Macintosh; Intel Mac OS X 10_15_6) AppleWebKit/605.1.15 (KHTML, like Gecko) Version/14.0.1 Safari/605.1.15","Macintosh","Safari","14.0.1","OS X","10_15_6","null","<div style=""font-size:60px;"">+</div>","null",""
"","","","","","html-button-response","99","142428","0.0-4.0-1.47","130","1","2022-11-14 22:41:42","a60ee176136a54a92dc2853177adfa2c","219.142.99.24","Mozilla/5.0 (Macintosh; Intel Mac OS X 10_15_6) AppleWebKit/605.1.15 (KHTML, like Gecko) Version/14.0.1 Safari/605.1.15","Macintosh","Safari","14.0.1","OS X","10_15_6","1270","<p>作为军队的指挥官，你可以选择发射导弹杀死 <strong>5名</strong> 敌国士兵，但会误杀附近的 <strong>1名</strong> 敌国平民。</p> <p>平民照片如下图所示。</p> <p></p> <img src='stimuli/faces/PCM3.jpg', style='max-width: 30%;'> </img> <p><strong>你是否选择发射武器？</strong></p>","0",""
"","","","","","html-keyboard-response","100","143441","0.0-4.0-0.48","130","1","2022-11-14 22:41:42","a60ee176136a54a92dc2853177adfa2c","219.142.99.24","Mozilla/5.0 (Macintosh; Intel Mac OS X 10_15_6) AppleWebKit/605.1.15 (KHTML, like Gecko) Version/14.0.1 Safari/605.1.15","Macintosh","Safari","14.0.1","OS X","10_15_6","null","<div style=""font-size:60px;"">+</div>","null",""
"","","","","","html-button-response","101","144927","0.0-4.0-1.48","130","1","2022-11-14 22:41:42","a60ee176136a54a92dc2853177adfa2c","219.142.99.24","Mozilla/5.0 (Macintosh; Intel Mac OS X 10_15_6) AppleWebKit/605.1.15 (KHTML, like Gecko) Version/14.0.1 Safari/605.1.15","Macintosh","Safari","14.0.1","OS X","10_15_6","1468","<p>作为军队的指挥官，你可以选择发射导弹杀死 <strong>10名</strong> 敌国士兵，但会炸毁附近的 <strong>1棵</strong> 敌国树木。</p> <p>树木的照片如下图所示。</p> <p></p> <img src='stimuli/trees/15.png', style='max-width: 30%;'> </img> <p><strong>你是否选择发射武器？</strong></p>","0",""
"","","","","","html-keyboard-response","102","145947","0.0-4.0-0.49","130","1","2022-11-14 22:41:42","a60ee176136a54a92dc2853177adfa2c","219.142.99.24","Mozilla/5.0 (Macintosh; Intel Mac OS X 10_15_6) AppleWebKit/605.1.15 (KHTML, like Gecko) Version/14.0.1 Safari/605.1.15","Macintosh","Safari","14.0.1","OS X","10_15_6","null","<div style=""font-size:60px;"">+</div>","null",""
"","","","","","html-button-response","103","147515","0.0-4.0-1.49","130","1","2022-11-14 22:41:42","a60ee176136a54a92dc2853177adfa2c","219.142.99.24","Mozilla/5.0 (Macintosh; Intel Mac OS X 10_15_6) AppleWebKit/605.1.15 (KHTML, like Gecko) Version/14.0.1 Safari/605.1.15","Macintosh","Safari","14.0.1","OS X","10_15_6","1551","<p>作为军队的指挥官，你可以选择发射导弹杀死 <strong>7名</strong> 敌国士兵，但会炸毁附近的 <strong>1棵</strong> 敌国树木。</p> <p>树木的照片如下图所示。</p> <p></p> <img src='stimuli/trees/5.png', style='max-width: 30%;'> </img> <p><strong>你是否选择发射武器？</strong></p>","0",""
"","","","","","html-keyboard-response","104","148526","0.0-4.0-0.50","130","1","2022-11-14 22:41:42","a60ee176136a54a92dc2853177adfa2c","219.142.99.24","Mozilla/5.0 (Macintosh; Intel Mac OS X 10_15_6) AppleWebKit/605.1.15 (KHTML, like Gecko) Version/14.0.1 Safari/605.1.15","Macintosh","Safari","14.0.1","OS X","10_15_6","null","<div style=""font-size:60px;"">+</div>","null",""
"","","","","","html-button-response","105","150368","0.0-4.0-1.50","130","1","2022-11-14 22:41:42","a60ee176136a54a92dc2853177adfa2c","219.142.99.24","Mozilla/5.0 (Macintosh; Intel Mac OS X 10_15_6) AppleWebKit/605.1.15 (KHTML, like Gecko) Version/14.0.1 Safari/605.1.15","Macintosh","Safari","14.0.1","OS X","10_15_6","1823","<p>作为军队的指挥官，你可以选择发射导弹杀死 <strong>1名</strong> 敌国士兵，但会误杀附近的 <strong>1名</strong> 敌国平民。</p> <p>平民照片如下图所示。</p> <p></p> <img src='stimuli/faces/PCM5.jpg', style='max-width: 30%;'> </img> <p><strong>你是否选择发射武器？</strong></p>","1",""
"","","","","","html-keyboard-response","106","151379","0.0-4.0-0.51","130","1","2022-11-14 22:41:42","a60ee176136a54a92dc2853177adfa2c","219.142.99.24","Mozilla/5.0 (Macintosh; Intel Mac OS X 10_15_6) AppleWebKit/605.1.15 (KHTML, like Gecko) Version/14.0.1 Safari/605.1.15","Macintosh","Safari","14.0.1","OS X","10_15_6","null","<div style=""font-size:60px;"">+</div>","null",""
"","","","","","html-button-response","107","153731","0.0-4.0-1.51","130","1","2022-11-14 22:41:42","a60ee176136a54a92dc2853177adfa2c","219.142.99.24","Mozilla/5.0 (Macintosh; Intel Mac OS X 10_15_6) AppleWebKit/605.1.15 (KHTML, like Gecko) Version/14.0.1 Safari/605.1.15","Macintosh","Safari","14.0.1","OS X","10_15_6","2331","<p>作为军队的指挥官，你可以选择发射导弹杀死 <strong>6名</strong> 敌国士兵，但会误杀附近的 <strong>1名</strong> 敌国平民。</p> <p>平民照片如下图所示。</p> <p></p> <img src='stimuli/faces/PCM1.jpg', style='max-width: 30%;'> </img> <p><strong>你是否选择发射武器？</strong></p>","0",""
"","","","","","html-keyboard-response","108","154743","0.0-4.0-0.52","130","1","2022-11-14 22:41:42","a60ee176136a54a92dc2853177adfa2c","219.142.99.24","Mozilla/5.0 (Macintosh; Intel Mac OS X 10_15_6) AppleWebKit/605.1.15 (KHTML, like Gecko) Version/14.0.1 Safari/605.1.15","Macintosh","Safari","14.0.1","OS X","10_15_6","null","<div style=""font-size:60px;"">+</div>","null",""
"","","","","","html-button-response","109","156356","0.0-4.0-1.52","130","1","2022-11-14 22:41:42","a60ee176136a54a92dc2853177adfa2c","219.142.99.24","Mozilla/5.0 (Macintosh; Intel Mac OS X 10_15_6) AppleWebKit/605.1.15 (KHTML, like Gecko) Version/14.0.1 Safari/605.1.15","Macintosh","Safari","14.0.1","OS X","10_15_6","1592","<p>作为军队的指挥官，你可以选择发射导弹杀死 <strong>9名</strong> 敌国士兵，但会误杀附近的 <strong>1名</strong> 敌国平民。</p> <p>平民照片如下图所示。</p> <p></p> <img src='stimuli/faces/PCF4.jpg', style='max-width: 30%;'> </img> <p><strong>你是否选择发射武器？</strong></p>","0",""
"","","","","","html-keyboard-response","110","157370","0.0-4.0-0.53","130","1","2022-11-14 22:41:42","a60ee176136a54a92dc2853177adfa2c","219.142.99.24","Mozilla/5.0 (Macintosh; Intel Mac OS X 10_15_6) AppleWebKit/605.1.15 (KHTML, like Gecko) Version/14.0.1 Safari/605.1.15","Macintosh","Safari","14.0.1","OS X","10_15_6","null","<div style=""font-size:60px;"">+</div>","null",""
"","","","","","html-button-response","111","159778","0.0-4.0-1.53","130","1","2022-11-14 22:41:42","a60ee176136a54a92dc2853177adfa2c","219.142.99.24","Mozilla/5.0 (Macintosh; Intel Mac OS X 10_15_6) AppleWebKit/605.1.15 (KHTML, like Gecko) Version/14.0.1 Safari/605.1.15","Macintosh","Safari","14.0.1","OS X","10_15_6","2388","<p>作为军队的指挥官，你可以选择发射导弹杀死 <strong>7名</strong> 敌国士兵，但会炸毁附近的 <strong>1棵</strong> 敌国树木。</p> <p>树木的照片如下图所示。</p> <p></p> <img src='stimuli/trees/9.png', style='max-width: 30%;'> </img> <p><strong>你是否选择发射武器？</strong></p>","0",""
"","","","","","html-keyboard-response","112","160790","0.0-4.0-0.54","130","1","2022-11-14 22:41:42","a60ee176136a54a92dc2853177adfa2c","219.142.99.24","Mozilla/5.0 (Macintosh; Intel Mac OS X 10_15_6) AppleWebKit/605.1.15 (KHTML, like Gecko) Version/14.0.1 Safari/605.1.15","Macintosh","Safari","14.0.1","OS X","10_15_6","null","<div style=""font-size:60px;"">+</div>","null",""
"","","","","","html-button-response","113","162322","0.0-4.0-1.54","130","1","2022-11-14 22:41:42","a60ee176136a54a92dc2853177adfa2c","219.142.99.24","Mozilla/5.0 (Macintosh; Intel Mac OS X 10_15_6) AppleWebKit/605.1.15 (KHTML, like Gecko) Version/14.0.1 Safari/605.1.15","Macintosh","Safari","14.0.1","OS X","10_15_6","1511","<p>作为军队的指挥官，你可以选择发射导弹杀死 <strong>5名</strong> 敌国士兵，但会炸毁附近的 <strong>1棵</strong> 敌国树木。</p> <p>树木的照片如下图所示。</p> <p></p> <img src='stimuli/trees/15.png', style='max-width: 30%;'> </img> <p><strong>你是否选择发射武器？</strong></p>","0",""
"","","","","","html-keyboard-response","114","163335","0.0-4.0-0.55","130","1","2022-11-14 22:41:42","a60ee176136a54a92dc2853177adfa2c","219.142.99.24","Mozilla/5.0 (Macintosh; Intel Mac OS X 10_15_6) AppleWebKit/605.1.15 (KHTML, like Gecko) Version/14.0.1 Safari/605.1.15","Macintosh","Safari","14.0.1","OS X","10_15_6","null","<div style=""font-size:60px;"">+</div>","null",""
"","","","","","html-button-response","115","164866","0.0-4.0-1.55","130","1","2022-11-14 22:41:42","a60ee176136a54a92dc2853177adfa2c","219.142.99.24","Mozilla/5.0 (Macintosh; Intel Mac OS X 10_15_6) AppleWebKit/605.1.15 (KHTML, like Gecko) Version/14.0.1 Safari/605.1.15","Macintosh","Safari","14.0.1","OS X","10_15_6","1507","<p>作为军队的指挥官，你可以选择发射导弹杀死 <strong>8名</strong> 敌国士兵，但会炸毁附近的 <strong>1棵</strong> 敌国树木。</p> <p>树木的照片如下图所示。</p> <p></p> <img src='stimuli/trees/8.png', style='max-width: 30%;'> </img> <p><strong>你是否选择发射武器？</strong></p>","0",""
"","","","","","html-keyboard-response","116","165877","0.0-4.0-0.56","130","1","2022-11-14 22:41:42","a60ee176136a54a92dc2853177adfa2c","219.142.99.24","Mozilla/5.0 (Macintosh; Intel Mac OS X 10_15_6) AppleWebKit/605.1.15 (KHTML, like Gecko) Version/14.0.1 Safari/605.1.15","Macintosh","Safari","14.0.1","OS X","10_15_6","null","<div style=""font-size:60px;"">+</div>","null",""
"","","","","","html-button-response","117","167570","0.0-4.0-1.56","130","1","2022-11-14 22:41:42","a60ee176136a54a92dc2853177adfa2c","219.142.99.24","Mozilla/5.0 (Macintosh; Intel Mac OS X 10_15_6) AppleWebKit/605.1.15 (KHTML, like Gecko) Version/14.0.1 Safari/605.1.15","Macintosh","Safari","14.0.1","OS X","10_15_6","1671","<p>作为军队的指挥官，你可以选择发射导弹杀死 <strong>3名</strong> 敌国士兵，但会炸毁附近的 <strong>1棵</strong> 敌国树木。</p> <p>树木的照片如下图所示。</p> <p></p> <img src='stimuli/trees/5.png', style='max-width: 30%;'> </img> <p><strong>你是否选择发射武器？</strong></p>","0",""
"","","","","","html-keyboard-response","118","168584","0.0-4.0-0.57","130","1","2022-11-14 22:41:42","a60ee176136a54a92dc2853177adfa2c","219.142.99.24","Mozilla/5.0 (Macintosh; Intel Mac OS X 10_15_6) AppleWebKit/605.1.15 (KHTML, like Gecko) Version/14.0.1 Safari/605.1.15","Macintosh","Safari","14.0.1","OS X","10_15_6","null","<div style=""font-size:60px;"">+</div>","null",""
"","","","","","html-button-response","119","169877","0.0-4.0-1.57","130","1","2022-11-14 22:41:42","a60ee176136a54a92dc2853177adfa2c","219.142.99.24","Mozilla/5.0 (Macintosh; Intel Mac OS X 10_15_6) AppleWebKit/605.1.15 (KHTML, like Gecko) Version/14.0.1 Safari/605.1.15","Macintosh","Safari","14.0.1","OS X","10_15_6","1269","<p>作为军队的指挥官，你可以选择发射导弹杀死 <strong>4名</strong> 敌国士兵，但会误杀附近的 <strong>1名</strong> 敌国平民。</p> <p>平民照片如下图所示。</p> <p></p> <img src='stimuli/faces/PCM8.jpg', style='max-width: 30%;'> </img> <p><strong>你是否选择发射武器？</strong></p>","0",""
"","","","","","html-keyboard-response","120","170891","0.0-4.0-0.58","130","1","2022-11-14 22:41:42","a60ee176136a54a92dc2853177adfa2c","219.142.99.24","Mozilla/5.0 (Macintosh; Intel Mac OS X 10_15_6) AppleWebKit/605.1.15 (KHTML, like Gecko) Version/14.0.1 Safari/605.1.15","Macintosh","Safari","14.0.1","OS X","10_15_6","null","<div style=""font-size:60px;"">+</div>","null",""
"","","","","","html-button-response","121","172043","0.0-4.0-1.58","130","1","2022-11-14 22:41:42","a60ee176136a54a92dc2853177adfa2c","219.142.99.24","Mozilla/5.0 (Macintosh; Intel Mac OS X 10_15_6) AppleWebKit/605.1.15 (KHTML, like Gecko) Version/14.0.1 Safari/605.1.15","Macintosh","Safari","14.0.1","OS X","10_15_6","1131","<p>作为军队的指挥官，你可以选择发射导弹杀死 <strong>3名</strong> 敌国士兵，但会炸毁附近的 <strong>1棵</strong> 敌国树木。</p> <p>树木的照片如下图所示。</p> <p></p> <img src='stimuli/trees/4.png', style='max-width: 30%;'> </img> <p><strong>你是否选择发射武器？</strong></p>","0",""
"","","","","","html-keyboard-response","122","173058","0.0-4.0-0.59","130","1","2022-11-14 22:41:42","a60ee176136a54a92dc2853177adfa2c","219.142.99.24","Mozilla/5.0 (Macintosh; Intel Mac OS X 10_15_6) AppleWebKit/605.1.15 (KHTML, like Gecko) Version/14.0.1 Safari/605.1.15","Macintosh","Safari","14.0.1","OS X","10_15_6","null","<div style=""font-size:60px;"">+</div>","null",""
"","","","","","html-button-response","123","174517","0.0-4.0-1.59","130","1","2022-11-14 22:41:42","a60ee176136a54a92dc2853177adfa2c","219.142.99.24","Mozilla/5.0 (Macintosh; Intel Mac OS X 10_15_6) AppleWebKit/605.1.15 (KHTML, like Gecko) Version/14.0.1 Safari/605.1.15","Macintosh","Safari","14.0.1","OS X","10_15_6","1441","<p>作为军队的指挥官，你可以选择发射导弹杀死 <strong>1名</strong> 敌国士兵，但会误杀附近的 <strong>1名</strong> 敌国平民。</p> <p>平民照片如下图所示。</p> <p></p> <img src='stimuli/faces/PCM2.jpg', style='max-width: 30%;'> </img> <p><strong>你是否选择发射武器？</strong></p>","1",""
"","","","","","html-keyboard-response","124","175532","0.0-4.0-0.60","130","1","2022-11-14 22:41:42","a60ee176136a54a92dc2853177adfa2c","219.142.99.24","Mozilla/5.0 (Macintosh; Intel Mac OS X 10_15_6) AppleWebKit/605.1.15 (KHTML, like Gecko) Version/14.0.1 Safari/605.1.15","Macintosh","Safari","14.0.1","OS X","10_15_6","null","<div style=""font-size:60px;"">+</div>","null",""
"","","","","","html-button-response","125","176896","0.0-4.0-1.60","130","1","2022-11-14 22:41:42","a60ee176136a54a92dc2853177adfa2c","219.142.99.24","Mozilla/5.0 (Macintosh; Intel Mac OS X 10_15_6) AppleWebKit/605.1.15 (KHTML, like Gecko) Version/14.0.1 Safari/605.1.15","Macintosh","Safari","14.0.1","OS X","10_15_6","1343","<p>作为军队的指挥官，你可以选择发射导弹杀死 <strong>1名</strong> 敌国士兵，但会炸毁附近的 <strong>1棵</strong> 敌国树木。</p> <p>树木的照片如下图所示。</p> <p></p> <img src='stimuli/trees/14.png', style='max-width: 30%;'> </img> <p><strong>你是否选择发射武器？</strong></p>","0",""
"","","","","","html-keyboard-response","126","177909","0.0-4.0-0.61","130","1","2022-11-14 22:41:42","a60ee176136a54a92dc2853177adfa2c","219.142.99.24","Mozilla/5.0 (Macintosh; Intel Mac OS X 10_15_6) AppleWebKit/605.1.15 (KHTML, like Gecko) Version/14.0.1 Safari/605.1.15","Macintosh","Safari","14.0.1","OS X","10_15_6","null","<div style=""font-size:60px;"">+</div>","null",""
"","","","","","html-button-response","127","179115","0.0-4.0-1.61","130","1","2022-11-14 22:41:42","a60ee176136a54a92dc2853177adfa2c","219.142.99.24","Mozilla/5.0 (Macintosh; Intel Mac OS X 10_15_6) AppleWebKit/605.1.15 (KHTML, like Gecko) Version/14.0.1 Safari/605.1.15","Macintosh","Safari","14.0.1","OS X","10_15_6","1185","<p>作为军队的指挥官，你可以选择发射导弹杀死 <strong>5名</strong> 敌国士兵，但会炸毁附近的 <strong>1棵</strong> 敌国树木。</p> <p>树木的照片如下图所示。</p> <p></p> <img src='stimuli/trees/3.png', style='max-width: 30%;'> </img> <p><strong>你是否选择发射武器？</strong></p>","0",""
"","","","","","html-keyboard-response","128","180130","0.0-4.0-0.62","130","1","2022-11-14 22:41:42","a60ee176136a54a92dc2853177adfa2c","219.142.99.24","Mozilla/5.0 (Macintosh; Intel Mac OS X 10_15_6) AppleWebKit/605.1.15 (KHTML, like Gecko) Version/14.0.1 Safari/605.1.15","Macintosh","Safari","14.0.1","OS X","10_15_6","null","<div style=""font-size:60px;"">+</div>","null",""
"","","","","","html-button-response","129","181769","0.0-4.0-1.62","130","1","2022-11-14 22:41:42","a60ee176136a54a92dc2853177adfa2c","219.142.99.24","Mozilla/5.0 (Macintosh; Intel Mac OS X 10_15_6) AppleWebKit/605.1.15 (KHTML, like Gecko) Version/14.0.1 Safari/605.1.15","Macintosh","Safari","14.0.1","OS X","10_15_6","1615","<p>作为军队的指挥官，你可以选择发射导弹杀死 <strong>3名</strong> 敌国士兵，但会误杀附近的 <strong>1名</strong> 敌国平民。</p> <p>平民照片如下图所示。</p> <p></p> <img src='stimuli/faces/PCF6.jpg', style='max-width: 30%;'> </img> <p><strong>你是否选择发射武器？</strong></p>","0",""
"","","","","","html-keyboard-response","130","182781","0.0-4.0-0.63","130","1","2022-11-14 22:41:42","a60ee176136a54a92dc2853177adfa2c","219.142.99.24","Mozilla/5.0 (Macintosh; Intel Mac OS X 10_15_6) AppleWebKit/605.1.15 (KHTML, like Gecko) Version/14.0.1 Safari/605.1.15","Macintosh","Safari","14.0.1","OS X","10_15_6","null","<div style=""font-size:60px;"">+</div>","null",""
"","","","","","html-button-response","131","183672","0.0-4.0-1.63","130","1","2022-11-14 22:41:42","a60ee176136a54a92dc2853177adfa2c","219.142.99.24","Mozilla/5.0 (Macintosh; Intel Mac OS X 10_15_6) AppleWebKit/605.1.15 (KHTML, like Gecko) Version/14.0.1 Safari/605.1.15","Macintosh","Safari","14.0.1","OS X","10_15_6","870","<p>作为军队的指挥官，你可以选择发射导弹杀死 <strong>3名</strong> 敌国士兵，但会炸毁附近的 <strong>1棵</strong> 敌国树木。</p> <p>树木的照片如下图所示。</p> <p></p> <img src='stimuli/trees/9.png', style='max-width: 30%;'> </img> <p><strong>你是否选择发射武器？</strong></p>","0",""
"","","","","","survey-multi-choice","132","215010","0.0-5.0","130","1","2022-11-14 22:41:42","a60ee176136a54a92dc2853177adfa2c","219.142.99.24","Mozilla/5.0 (Macintosh; Intel Mac OS X 10_15_6) AppleWebKit/605.1.15 (KHTML, like Gecko) Version/14.0.1 Safari/605.1.15","Macintosh","Safari","14.0.1","OS X","10_15_6","31314","","{""Attention1"":""""}","[0]"
"","","","","","html-button-response","133","218294","0.0-6.0","130","1","2022-11-14 22:41:42","a60ee176136a54a92dc2853177adfa2c","219.142.99.24","Mozilla/5.0 (Macintosh; Intel Mac OS X 10_15_6) AppleWebKit/605.1.15 (KHTML, like Gecko) Version/14.0.1 Safari/605.1.15","Macintosh","Safari","14.0.1","OS X","10_15_6","3281","<p style=""font-size:20px;font-weight:bold;"">恭喜！</p><p>你已经完成了实验的第一部分。</p><p>请休息放松一下，然后进入第二部分。</p><p>这部分大约需要10分钟。</p>","0",""
"","","","","","survey-text","134","249142","0.0-7.0","130","1","2022-11-14 22:41:42","a60ee176136a54a92dc2853177adfa2c","219.142.99.24","Mozilla/5.0 (Macintosh; Intel Mac OS X 10_15_6) AppleWebKit/605.1.15 (KHTML, like Gecko) Version/14.0.1 Safari/605.1.15","Macintosh","Safari","14.0.1","OS X","10_15_6","29804","","{""Age"":""23"",""Nation"":""中国"",""Born"":""山东省淄博市"",""Live"":""北京市"",""Ethnic"":""汉"",""Alipay"":""17600641623""}",""
"","","","","","survey-multi-choice","135","268229","0.0-8.0","130","1","2022-11-14 22:41:42","a60ee176136a54a92dc2853177adfa2c","219.142.99.24","Mozilla/5.0 (Macintosh; Intel Mac OS X 10_15_6) AppleWebKit/605.1.15 (KHTML, like Gecko) Version/14.0.1 Safari/605.1.15","Macintosh","Safari","14.0.1","OS X","10_15_6","19071","","{""Gender"":""男"",""Education"":""本科毕业"",""Income"":""￥270,000-￥489,999"",""Children"":""0"",""Race"":""亚洲人""}","[0,1,2,3,4]"
"","","","","","survey-multi-select","136","275027","0.0-9.0","130","1","2022-11-14 22:41:42","a60ee176136a54a92dc2853177adfa2c","219.142.99.24","Mozilla/5.0 (Macintosh; Intel Mac OS X 10_15_6) AppleWebKit/605.1.15 (KHTML, like Gecko) Version/14.0.1 Safari/605.1.15","Macintosh","Safari","14.0.1","OS X","10_15_6","6785","","{""Marriage"":[""未婚""],""Religion"":[""无宗教信仰""]}","[0,1]"
"","","","","","survey-multi-choice","137","284521","0.0-10.0","130","1","2022-11-14 22:41:42","a60ee176136a54a92dc2853177adfa2c","219.142.99.24","Mozilla/5.0 (Macintosh; Intel Mac OS X 10_15_6) AppleWebKit/605.1.15 (KHTML, like Gecko) Version/14.0.1 Safari/605.1.15","Macintosh","Safari","14.0.1","OS X","10_15_6","9481","","{""SES"":""7""}","[0]"
"","","","","","html-button-response","138","287037","0.0-11.0","130","1","2022-11-14 22:41:42","a60ee176136a54a92dc2853177adfa2c","219.142.99.24","Mozilla/5.0 (Macintosh; Intel Mac OS X 10_15_6) AppleWebKit/605.1.15 (KHTML, like Gecko) Version/14.0.1 Safari/605.1.15","Macintosh","Safari","14.0.1","OS X","10_15_6","2502","<p><strong>请判断下列陈述在多大程度上可以形容你？</p><p> (1 = ""和我一点都不像"" to 5 = ""非常像我"".)</strong></p>","0",""
"","","","","","survey-likert","139","335617","0.0-12.0","130","1","2022-11-14 22:41:42","a60ee176136a54a92dc2853177adfa2c","219.142.99.24","Mozilla/5.0 (Macintosh; Intel Mac OS X 10_15_6) AppleWebKit/605.1.15 (KHTML, like Gecko) Version/14.0.1 Safari/605.1.15","Macintosh","Safari","14.0.1","OS X","10_15_6","48561","","{""Aggression1"":3,""Aggression2"":3,""Aggression3"":4,""Aggression4"":2,""Aggression5"":4,""Aggression6"":2,""Aggression7"":3,""Aggression8"":3,""Aggression9"":0}","[0,1,2,3,4,5,6,7,8]"
"","","","","","html-button-response","140","337461","0.0-13.0","130","1","2022-11-14 22:41:42","a60ee176136a54a92dc2853177adfa2c","219.142.99.24","Mozilla/5.0 (Macintosh; Intel Mac OS X 10_15_6) AppleWebKit/605.1.15 (KHTML, like Gecko) Version/14.0.1 Safari/605.1.15","Macintosh","Safari","14.0.1","OS X","10_15_6","1839","<p><strong>请判断你在多大程度上同意下列陈述。</strong></p>","0",""
"","","","","","survey-likert","141","440579","0.0-14.0","130","1","2022-11-14 22:41:42","a60ee176136a54a92dc2853177adfa2c","219.142.99.24","Mozilla/5.0 (Macintosh; Intel Mac OS X 10_15_6) AppleWebKit/605.1.15 (KHTML, like Gecko) Version/14.0.1 Safari/605.1.15","Macintosh","Safari","14.0.1","OS X","10_15_6","103106","","{""scale15"":4,""scale26"":2,""scale22"":0,""scale27"":0,""scale25"":1,""scale23"":2,""scale6"":2,""scale10"":0,""scale3"":2,""scale2"":0,""scale18"":4,""scale14"":4,""scale16"":2,""scale7"":2,""scale9"":0,""scale1"":2,""scale11"":2,""scale8"":3,""scale19"":4,""scale4"":4,""scale28"":3,""scale20"":1,""scale13"":4,""scale17"":1,""scale24"":0,""scale21"":3,""scale12"":1,""scale5"":3}","[14,25,21,26,24,22,5,9,2,1,17,13,15,6,8,0,10,7,18,3,27,19,12,16,23,20,11,4]"
"","","","","","html-button-response","142","442144","0.0-15.0","130","1","2022-11-14 22:41:42","a60ee176136a54a92dc2853177adfa2c","219.142.99.24","Mozilla/5.0 (Macintosh; Intel Mac OS X 10_15_6) AppleWebKit/605.1.15 (KHTML, like Gecko) Version/14.0.1 Safari/605.1.15","Macintosh","Safari","14.0.1","OS X","10_15_6","1558","<p><strong>请判断你在多大程度上同意下列陈述。</strong></p>","0",""
"","","","","","survey-likert","143","559873","0.0-16.0","130","1","2022-11-14 22:41:42","a60ee176136a54a92dc2853177adfa2c","219.142.99.24","Mozilla/5.0 (Macintosh; Intel Mac OS X 10_15_6) AppleWebKit/605.1.15 (KHTML, like Gecko) Version/14.0.1 Safari/605.1.15","Macintosh","Safari","14.0.1","OS X","10_15_6","117718","","{""sdo13"":4,""sdo11"":4,""sdo7"":5,""sdo3"":4,""sdo4"":4,""sdo5"":6,""sdo14"":4,""sdo10"":4,""sdo2"":2,""sdo9"":2,""sdo8"":4,""sdo6"":5,""sdo16"":6,""sdo1"":4,""sdo12"":3,""sdo15"":4}","[12,10,6,2,3,4,13,9,1,8,7,5,15,0,11,14]"
"","","","","","html-button-response","144","561117","0.0-17.0","130","1","2022-11-14 22:41:42","a60ee176136a54a92dc2853177adfa2c","219.142.99.24","Mozilla/5.0 (Macintosh; Intel Mac OS X 10_15_6) AppleWebKit/605.1.15 (KHTML, like Gecko) Version/14.0.1 Safari/605.1.15","Macintosh","Safari","14.0.1","OS X","10_15_6","1237","<p><strong>请判断你在多大程度上同意下列陈述。</strong></p>","0",""
"","","","","","survey-likert","145","620390","0.0-18.0","130","1","2022-11-14 22:41:42","a60ee176136a54a92dc2853177adfa2c","219.142.99.24","Mozilla/5.0 (Macintosh; Intel Mac OS X 10_15_6) AppleWebKit/605.1.15 (KHTML, like Gecko) Version/14.0.1 Safari/605.1.15","Macintosh","Safari","14.0.1","OS X","10_15_6","59255","","{""caring1"":1,""liking1"":2,""caring2"":3,""protection1"":3,""liking2"":2,""caring3"":0,""protection2"":1,""liking3"":3,""protection3"":3,""caring4"":1,""liking4"":4,""protection4"":2,""caring5"":0,""liking5"":0,""protection5"":2}","[0,1,2,3,4,5,6,7,8,9,10,11,12,13,14]"
"","","","","","html-button-response","146","621880","0.0-19.0","130","1","2022-11-14 22:41:42","a60ee176136a54a92dc2853177adfa2c","219.142.99.24","Mozilla/5.0 (Macintosh; Intel Mac OS X 10_15_6) AppleWebKit/605.1.15 (KHTML, like Gecko) Version/14.0.1 Safari/605.1.15","Macintosh","Safari","14.0.1","OS X","10_15_6","1479","<p><strong>请判断下列场景中你的内心感受有多柔软。</strong></p>","0",""
"","","","","","survey-likert","147","653470","0.0-20.0","130","1","2022-11-14 22:41:42","a60ee176136a54a92dc2853177adfa2c","219.142.99.24","Mozilla/5.0 (Macintosh; Intel Mac OS X 10_15_6) AppleWebKit/605.1.15 (KHTML, like Gecko) Version/14.0.1 Safari/605.1.15","Macintosh","Safari","14.0.1","OS X","10_15_6","31578","","{""tenderness-positive1"":3,""tenderness-negative1"":1,""tenderness-negative2"":0,""tenderness-positive2"":3,""tenderness-positive3"":3,""tenderness-negative3"":1,""tenderness-positive4"":2,""tenderness-negative4"":1,""tenderness-negative5"":1,""tenderness-positive5"":3}","[0,1,2,3,4,5,6,7,8,9]"
"","","","","","survey-multi-choice","148","669122","0.0-21.0","130","1","2022-11-14 22:41:42","a60ee176136a54a92dc2853177adfa2c","219.142.99.24","Mozilla/5.0 (Macintosh; Intel Mac OS X 10_15_6) AppleWebKit/605.1.15 (KHTML, like Gecko) Version/14.0.1 Safari/605.1.15","Macintosh","Safari","14.0.1","OS X","10_15_6","15644","","{""Attention2"":""其他""}","[0]"
"","","","","","html-button-response","149","670454","0.0-22.0","130","1","2022-11-14 22:41:42","a60ee176136a54a92dc2853177adfa2c","219.142.99.24","Mozilla/5.0 (Macintosh; Intel Mac OS X 10_15_6) AppleWebKit/605.1.15 (KHTML, like Gecko) Version/14.0.1 Safari/605.1.15","Macintosh","Safari","14.0.1","OS X","10_15_6","1318","<p><strong>请判断你在多大程度上同意下列陈述。</strong></p>","0",""
"","","","","","survey-likert","150","735885","0.0-23.0","130","1","2022-11-14 22:41:42","a60ee176136a54a92dc2853177adfa2c","219.142.99.24","Mozilla/5.0 (Macintosh; Intel Mac OS X 10_15_6) AppleWebKit/605.1.15 (KHTML, like Gecko) Version/14.0.1 Safari/605.1.15","Macintosh","Safari","14.0.1","OS X","10_15_6","65416","","{""Patri1"":2,""Nation8"":3,""Nation4"":1,""Patri9"":4,""Patri12"":3,""Nation5"":0,""Patri8"":2,""Nation6"":3,""Patri11"":1,""Nation2"":3,""Nation1"":2,""Patri4"":4,""Patri5"":2,""Patri2"":2,""Patri7"":3,""Patri6"":4,""Patri10"":0,""Nation3"":3,""Nation7"":1,""Patri3"":3}","[0,19,15,8,11,16,7,17,10,13,12,3,4,1,6,5,9,14,18,2]"
"","","","","","html-button-response","151","736834","0.0-24.0","130","1","2022-11-14 22:41:42","a60ee176136a54a92dc2853177adfa2c","219.142.99.24","Mozilla/5.0 (Macintosh; Intel Mac OS X 10_15_6) AppleWebKit/605.1.15 (KHTML, like Gecko) Version/14.0.1 Safari/605.1.15","Macintosh","Safari","14.0.1","OS X","10_15_6","941","<p><strong>请判断你在多大程度上同意下列陈述。</strong></p>","0",""
"","","","","","survey-likert","152","782989","0.0-25.0","130","1","2022-11-14 22:41:42","a60ee176136a54a92dc2853177adfa2c","219.142.99.24","Mozilla/5.0 (Macintosh; Intel Mac OS X 10_15_6) AppleWebKit/605.1.15 (KHTML, like Gecko) Version/14.0.1 Safari/605.1.15","Macintosh","Safari","14.0.1","OS X","10_15_6","46130","","{""hi4"":8,""Robot"":6,""hi2"":8,""vi4"":2,""hc3"":5,""vc1"":5,""vc2"":1,""vi1"":6,""vc3"":5,""hi1"":8,""hc4"":5,""vi3"":8,""vi2"":5,""hc1"":4,""hc2"":3,""vc4"":4,""hi3"":8}","[3,7,1,8,11,13,14,4,15,0,12,6,5,9,10,16,2]"
"","","","","","survey-text","153","786646","0.0-26.0","130","1","2022-11-14 22:41:42","a60ee176136a54a92dc2853177adfa2c","219.142.99.24","Mozilla/5.0 (Macintosh; Intel Mac OS X 10_15_6) AppleWebKit/605.1.15 (KHTML, like Gecko) Version/14.0.1 Safari/605.1.15","Macintosh","Safari","14.0.1","OS X","10_15_6","3647","","{""Comments"":""无""}",""
"","","","","","html-button-response","154","787984","0.0-27.0","130","1","2022-11-14 22:41:42","a60ee176136a54a92dc2853177adfa2c","219.142.99.24","Mozilla/5.0 (Macintosh; Intel Mac OS X 10_15_6) AppleWebKit/605.1.15 (KHTML, like Gecko) Version/14.0.1 Safari/605.1.15","Macintosh","Safari","14.0.1","OS X","10_15_6","1326","<strong><p>恭喜你完成了实验！</p><p>感谢您的参与。</p></strong>","0",""
