"success","timeout","failed_images","failed_audio","failed_video","trial_type","trial_index","time_elapsed","internal_node_id","run_id","condition","recorded_at","source_code_version","ip","user_agent","device","browser","browser_version","platform","platform_version","rt","stimulus","response","question_order"
"true","false","[]","[]","[]","preload","0","4208","0.0-0.0","149","1","2022-11-21 07:25:10","d86feb85bbada8b86f8906979128e15d","219.142.99.13","Mozilla/5.0 (iPad; CPU OS 15_6_1 like Mac OS X) AppleWebKit/605.1.15 (KHTML, like Gecko) Mobile/15E148 MicroMessenger/8.0.29(0x18001d38) NetType/WIFI Language/zh_CN","iPad","Mozilla","","iOS","15_6_1","","","",""
"true","","","","","fullscreen","1","7544","0.0-1.0","149","1","2022-11-21 07:25:10","d86feb85bbada8b86f8906979128e15d","219.142.99.13","Mozilla/5.0 (iPad; CPU OS 15_6_1 like Mac OS X) AppleWebKit/605.1.15 (KHTML, like Gecko) Mobile/15E148 MicroMessenger/8.0.29(0x18001d38) NetType/WIFI Language/zh_CN","iPad","Mozilla","","iOS","15_6_1","","","",""
"","","","","","html-button-response","2","13143","0.0-2.0","149","1","2022-11-21 07:25:10","d86feb85bbada8b86f8906979128e15d","219.142.99.13","Mozilla/5.0 (iPad; CPU OS 15_6_1 like Mac OS X) AppleWebKit/605.1.15 (KHTML, like Gecko) Mobile/15E148 MicroMessenger/8.0.29(0x18001d38) NetType/WIFI Language/zh_CN","iPad","Mozilla","","iOS","15_6_1","5592","<p style=""font-size:20px;font-weight:bold;"">实验知情同意书</p><p style=""text-align:left;""><strong>实验名称：</strong>社会冲突研究</p><p style=""text-align:left;""><strong>主要研究者：</strong>韩晓春副教授（北京师范大学心理学部）</p><p style=""text-align:left;""><strong>联系方式：</strong>发送邮件至xiaochun.han@bnu.edu.cn</p><p style=""text-align:left;""><strong>研究目的：</strong>研究旨在了解人类面对群体冲突时的决策方式，以及相关的心理学特质。实验调查大约需要20分钟。</p><p style=""text-align:left;""><strong>实验流程：</strong>实验包含两部分。第一部分呈现一系列群体冲突场景，请你决定如何对这些冲突进行反应，大约需要10分钟完成。第二部分包含一系列人口统计学信息收集和心理学问卷，大约需要10分钟完成。</p><p style=""text-align:left;""><strong>参加及退出规则：</strong>参加本实验完全取决于您的个人意愿。在参与过程中，您可以随时退出，并且不用承担任何后果。</p><p style=""text-align:left;""><strong>隐私：</strong>本实验完全匿名进行，不会收集您的姓名或其他能够识别您身份的信息。实验中收集的作答仅用作科学研究使用，可能会在学术期刊/书籍上发表，或者用于教学，您的数据未来可能会和其他研究者或实验室分享，但您的个人身份不会被识别。</p><p style=""text-align:left;""><strong>实验报酬：</strong>实验完成后，您将获得15元人民币报酬，以感谢您的时间和努力。调查问卷中包含几道题目用以测验您作答时的认真度。只有完成全部实验，并且正确回答认真度测验的被试才能获得实验报酬。实验报酬将通过支付宝转账发放。</p><p style=""text-align:left;font-size:20px;""><strong>如果您同意以上实验知情同意书的内容，请点击'同意并且开始实验'按钮；否则请关闭浏览器界面，退出实验。</strong></p>","0",""
"","","","","","html-button-response","3","34537","0.0-3.0","149","1","2022-11-21 07:25:10","d86feb85bbada8b86f8906979128e15d","219.142.99.13","Mozilla/5.0 (iPad; CPU OS 15_6_1 like Mac OS X) AppleWebKit/605.1.15 (KHTML, like Gecko) Mobile/15E148 MicroMessenger/8.0.29(0x18001d38) NetType/WIFI Language/zh_CN","iPad","Mozilla","","iOS","15_6_1","21392","<p ><strong>实验任务一：</strong></p><p>请想象你的国家与另一个国家发生了军事冲突。</p><p>你是国家军队的指挥官，你将如何在冲突中进行决策。</p><p>具体来说，作为军队指挥官，请你决定是否发射导弹进行打击。</p><p>接下来，你会面对一系列场景，请仔细阅读每个场景，然后进行决策。</p><p>这部分实验任务大约需要10分钟。</p><p><strong>实验过程中，请集中注意力。</strong></p>","0",""
"","","","","","html-keyboard-response","4","35542","0.0-4.0-0.0","149","1","2022-11-21 07:25:10","d86feb85bbada8b86f8906979128e15d","219.142.99.13","Mozilla/5.0 (iPad; CPU OS 15_6_1 like Mac OS X) AppleWebKit/605.1.15 (KHTML, like Gecko) Mobile/15E148 MicroMessenger/8.0.29(0x18001d38) NetType/WIFI Language/zh_CN","iPad","Mozilla","","iOS","15_6_1","null","<div style=""font-size:60px;"">+</div>","null",""
"","","","","","html-button-response","5","50782","0.0-4.0-1.0","149","1","2022-11-21 07:25:10","d86feb85bbada8b86f8906979128e15d","219.142.99.13","Mozilla/5.0 (iPad; CPU OS 15_6_1 like Mac OS X) AppleWebKit/605.1.15 (KHTML, like Gecko) Mobile/15E148 MicroMessenger/8.0.29(0x18001d38) NetType/WIFI Language/zh_CN","iPad","Mozilla","","iOS","15_6_1","15231","<p>作为军队的指挥官，你可以选择发射导弹杀死 <strong>6名</strong> 敌国士兵，但会炸毁附近的 <strong>1棵</strong> 敌国树木。</p> <p>树木的照片如下图所示。</p> <p></p> <img src='stimuli/trees/15.png', style='max-width: 30%;'> </img> <p><strong>你是否选择发射武器？</strong></p>","0",""
"","","","","","html-keyboard-response","6","51785","0.0-4.0-0.1","149","1","2022-11-21 07:25:10","d86feb85bbada8b86f8906979128e15d","219.142.99.13","Mozilla/5.0 (iPad; CPU OS 15_6_1 like Mac OS X) AppleWebKit/605.1.15 (KHTML, like Gecko) Mobile/15E148 MicroMessenger/8.0.29(0x18001d38) NetType/WIFI Language/zh_CN","iPad","Mozilla","","iOS","15_6_1","null","<div style=""font-size:60px;"">+</div>","null",""
"","","","","","html-button-response","7","63199","0.0-4.0-1.1","149","1","2022-11-21 07:25:10","d86feb85bbada8b86f8906979128e15d","219.142.99.13","Mozilla/5.0 (iPad; CPU OS 15_6_1 like Mac OS X) AppleWebKit/605.1.15 (KHTML, like Gecko) Mobile/15E148 MicroMessenger/8.0.29(0x18001d38) NetType/WIFI Language/zh_CN","iPad","Mozilla","","iOS","15_6_1","11407","<p>作为军队的指挥官，你可以选择发射导弹杀死 <strong>3名</strong> 敌国士兵，但会炸毁附近的 <strong>1棵</strong> 敌国树木。</p> <p>树木的照片如下图所示。</p> <p></p> <img src='stimuli/trees/8.png', style='max-width: 30%;'> </img> <p><strong>你是否选择发射武器？</strong></p>","0",""
"","","","","","html-keyboard-response","8","64201","0.0-4.0-0.2","149","1","2022-11-21 07:25:10","d86feb85bbada8b86f8906979128e15d","219.142.99.13","Mozilla/5.0 (iPad; CPU OS 15_6_1 like Mac OS X) AppleWebKit/605.1.15 (KHTML, like Gecko) Mobile/15E148 MicroMessenger/8.0.29(0x18001d38) NetType/WIFI Language/zh_CN","iPad","Mozilla","","iOS","15_6_1","null","<div style=""font-size:60px;"">+</div>","null",""
"","","","","","html-button-response","9","101149","0.0-4.0-1.2","149","1","2022-11-21 07:25:10","d86feb85bbada8b86f8906979128e15d","219.142.99.13","Mozilla/5.0 (iPad; CPU OS 15_6_1 like Mac OS X) AppleWebKit/605.1.15 (KHTML, like Gecko) Mobile/15E148 MicroMessenger/8.0.29(0x18001d38) NetType/WIFI Language/zh_CN","iPad","Mozilla","","iOS","15_6_1","36942","<p>作为军队的指挥官，你可以选择发射导弹杀死 <strong>5名</strong> 敌国士兵，但会误杀附近的 <strong>1名</strong> 敌国平民。</p> <p>平民照片如下图所示。</p> <p></p> <img src='stimuli/faces/PCM2.jpg', style='max-width: 30%;'> </img> <p><strong>你是否选择发射武器？</strong></p>","0",""
"","","","","","html-keyboard-response","10","102154","0.0-4.0-0.3","149","1","2022-11-21 07:25:10","d86feb85bbada8b86f8906979128e15d","219.142.99.13","Mozilla/5.0 (iPad; CPU OS 15_6_1 like Mac OS X) AppleWebKit/605.1.15 (KHTML, like Gecko) Mobile/15E148 MicroMessenger/8.0.29(0x18001d38) NetType/WIFI Language/zh_CN","iPad","Mozilla","","iOS","15_6_1","null","<div style=""font-size:60px;"">+</div>","null",""
"","","","","","html-button-response","11","112014","0.0-4.0-1.3","149","1","2022-11-21 07:25:10","d86feb85bbada8b86f8906979128e15d","219.142.99.13","Mozilla/5.0 (iPad; CPU OS 15_6_1 like Mac OS X) AppleWebKit/605.1.15 (KHTML, like Gecko) Mobile/15E148 MicroMessenger/8.0.29(0x18001d38) NetType/WIFI Language/zh_CN","iPad","Mozilla","","iOS","15_6_1","9854","<p>作为军队的指挥官，你可以选择发射导弹杀死 <strong>3名</strong> 敌国士兵，但会炸毁附近的 <strong>1棵</strong> 敌国树木。</p> <p>树木的照片如下图所示。</p> <p></p> <img src='stimuli/trees/15.png', style='max-width: 30%;'> </img> <p><strong>你是否选择发射武器？</strong></p>","0",""
"","","","","","html-keyboard-response","12","113017","0.0-4.0-0.4","149","1","2022-11-21 07:25:10","d86feb85bbada8b86f8906979128e15d","219.142.99.13","Mozilla/5.0 (iPad; CPU OS 15_6_1 like Mac OS X) AppleWebKit/605.1.15 (KHTML, like Gecko) Mobile/15E148 MicroMessenger/8.0.29(0x18001d38) NetType/WIFI Language/zh_CN","iPad","Mozilla","","iOS","15_6_1","null","<div style=""font-size:60px;"">+</div>","null",""
"","","","","","html-button-response","13","115178","0.0-4.0-1.4","149","1","2022-11-21 07:25:10","d86feb85bbada8b86f8906979128e15d","219.142.99.13","Mozilla/5.0 (iPad; CPU OS 15_6_1 like Mac OS X) AppleWebKit/605.1.15 (KHTML, like Gecko) Mobile/15E148 MicroMessenger/8.0.29(0x18001d38) NetType/WIFI Language/zh_CN","iPad","Mozilla","","iOS","15_6_1","2152","<p>作为军队的指挥官，你可以选择发射导弹杀死 <strong>7名</strong> 敌国士兵，但会炸毁附近的 <strong>1棵</strong> 敌国树木。</p> <p>树木的照片如下图所示。</p> <p></p> <img src='stimuli/trees/12.png', style='max-width: 30%;'> </img> <p><strong>你是否选择发射武器？</strong></p>","0",""
"","","","","","html-keyboard-response","14","116181","0.0-4.0-0.5","149","1","2022-11-21 07:25:10","d86feb85bbada8b86f8906979128e15d","219.142.99.13","Mozilla/5.0 (iPad; CPU OS 15_6_1 like Mac OS X) AppleWebKit/605.1.15 (KHTML, like Gecko) Mobile/15E148 MicroMessenger/8.0.29(0x18001d38) NetType/WIFI Language/zh_CN","iPad","Mozilla","","iOS","15_6_1","null","<div style=""font-size:60px;"">+</div>","null",""
"","","","","","html-button-response","15","121189","0.0-4.0-1.5","149","1","2022-11-21 07:25:10","d86feb85bbada8b86f8906979128e15d","219.142.99.13","Mozilla/5.0 (iPad; CPU OS 15_6_1 like Mac OS X) AppleWebKit/605.1.15 (KHTML, like Gecko) Mobile/15E148 MicroMessenger/8.0.29(0x18001d38) NetType/WIFI Language/zh_CN","iPad","Mozilla","","iOS","15_6_1","5000","<p>作为军队的指挥官，你可以选择发射导弹杀死 <strong>1名</strong> 敌国士兵，但会炸毁附近的 <strong>1棵</strong> 敌国树木。</p> <p>树木的照片如下图所示。</p> <p></p> <img src='stimuli/trees/5.png', style='max-width: 30%;'> </img> <p><strong>你是否选择发射武器？</strong></p>","1",""
"","","","","","html-keyboard-response","16","122192","0.0-4.0-0.6","149","1","2022-11-21 07:25:10","d86feb85bbada8b86f8906979128e15d","219.142.99.13","Mozilla/5.0 (iPad; CPU OS 15_6_1 like Mac OS X) AppleWebKit/605.1.15 (KHTML, like Gecko) Mobile/15E148 MicroMessenger/8.0.29(0x18001d38) NetType/WIFI Language/zh_CN","iPad","Mozilla","","iOS","15_6_1","null","<div style=""font-size:60px;"">+</div>","null",""
"","","","","","html-button-response","17","123802","0.0-4.0-1.6","149","1","2022-11-21 07:25:10","d86feb85bbada8b86f8906979128e15d","219.142.99.13","Mozilla/5.0 (iPad; CPU OS 15_6_1 like Mac OS X) AppleWebKit/605.1.15 (KHTML, like Gecko) Mobile/15E148 MicroMessenger/8.0.29(0x18001d38) NetType/WIFI Language/zh_CN","iPad","Mozilla","","iOS","15_6_1","1608","<p>作为军队的指挥官，你可以选择发射导弹杀死 <strong>5名</strong> 敌国士兵，但会炸毁附近的 <strong>1棵</strong> 敌国树木。</p> <p>树木的照片如下图所示。</p> <p></p> <img src='stimuli/trees/12.png', style='max-width: 30%;'> </img> <p><strong>你是否选择发射武器？</strong></p>","0",""
"","","","","","html-keyboard-response","18","124806","0.0-4.0-0.7","149","1","2022-11-21 07:25:10","d86feb85bbada8b86f8906979128e15d","219.142.99.13","Mozilla/5.0 (iPad; CPU OS 15_6_1 like Mac OS X) AppleWebKit/605.1.15 (KHTML, like Gecko) Mobile/15E148 MicroMessenger/8.0.29(0x18001d38) NetType/WIFI Language/zh_CN","iPad","Mozilla","","iOS","15_6_1","null","<div style=""font-size:60px;"">+</div>","null",""
"","","","","","html-button-response","19","126479","0.0-4.0-1.7","149","1","2022-11-21 07:25:10","d86feb85bbada8b86f8906979128e15d","219.142.99.13","Mozilla/5.0 (iPad; CPU OS 15_6_1 like Mac OS X) AppleWebKit/605.1.15 (KHTML, like Gecko) Mobile/15E148 MicroMessenger/8.0.29(0x18001d38) NetType/WIFI Language/zh_CN","iPad","Mozilla","","iOS","15_6_1","1664","<p>作为军队的指挥官，你可以选择发射导弹杀死 <strong>8名</strong> 敌国士兵，但会误杀附近的 <strong>1名</strong> 敌国平民。</p> <p>平民照片如下图所示。</p> <p></p> <img src='stimuli/faces/PCM8.jpg', style='max-width: 30%;'> </img> <p><strong>你是否选择发射武器？</strong></p>","0",""
"","","","","","html-keyboard-response","20","127481","0.0-4.0-0.8","149","1","2022-11-21 07:25:10","d86feb85bbada8b86f8906979128e15d","219.142.99.13","Mozilla/5.0 (iPad; CPU OS 15_6_1 like Mac OS X) AppleWebKit/605.1.15 (KHTML, like Gecko) Mobile/15E148 MicroMessenger/8.0.29(0x18001d38) NetType/WIFI Language/zh_CN","iPad","Mozilla","","iOS","15_6_1","null","<div style=""font-size:60px;"">+</div>","null",""
"","","","","","html-button-response","21","129994","0.0-4.0-1.8","149","1","2022-11-21 07:25:10","d86feb85bbada8b86f8906979128e15d","219.142.99.13","Mozilla/5.0 (iPad; CPU OS 15_6_1 like Mac OS X) AppleWebKit/605.1.15 (KHTML, like Gecko) Mobile/15E148 MicroMessenger/8.0.29(0x18001d38) NetType/WIFI Language/zh_CN","iPad","Mozilla","","iOS","15_6_1","2505","<p>作为军队的指挥官，你可以选择发射导弹杀死 <strong>1名</strong> 敌国士兵，但会炸毁附近的 <strong>1棵</strong> 敌国树木。</p> <p>树木的照片如下图所示。</p> <p></p> <img src='stimuli/trees/7.png', style='max-width: 30%;'> </img> <p><strong>你是否选择发射武器？</strong></p>","1",""
"","","","","","html-keyboard-response","22","130998","0.0-4.0-0.9","149","1","2022-11-21 07:25:10","d86feb85bbada8b86f8906979128e15d","219.142.99.13","Mozilla/5.0 (iPad; CPU OS 15_6_1 like Mac OS X) AppleWebKit/605.1.15 (KHTML, like Gecko) Mobile/15E148 MicroMessenger/8.0.29(0x18001d38) NetType/WIFI Language/zh_CN","iPad","Mozilla","","iOS","15_6_1","null","<div style=""font-size:60px;"">+</div>","null",""
"","","","","","html-button-response","23","132355","0.0-4.0-1.9","149","1","2022-11-21 07:25:10","d86feb85bbada8b86f8906979128e15d","219.142.99.13","Mozilla/5.0 (iPad; CPU OS 15_6_1 like Mac OS X) AppleWebKit/605.1.15 (KHTML, like Gecko) Mobile/15E148 MicroMessenger/8.0.29(0x18001d38) NetType/WIFI Language/zh_CN","iPad","Mozilla","","iOS","15_6_1","1350","<p>作为军队的指挥官，你可以选择发射导弹杀死 <strong>7名</strong> 敌国士兵，但会炸毁附近的 <strong>1棵</strong> 敌国树木。</p> <p>树木的照片如下图所示。</p> <p></p> <img src='stimuli/trees/2.png', style='max-width: 30%;'> </img> <p><strong>你是否选择发射武器？</strong></p>","0",""
"","","","","","html-keyboard-response","24","133358","0.0-4.0-0.10","149","1","2022-11-21 07:25:10","d86feb85bbada8b86f8906979128e15d","219.142.99.13","Mozilla/5.0 (iPad; CPU OS 15_6_1 like Mac OS X) AppleWebKit/605.1.15 (KHTML, like Gecko) Mobile/15E148 MicroMessenger/8.0.29(0x18001d38) NetType/WIFI Language/zh_CN","iPad","Mozilla","","iOS","15_6_1","null","<div style=""font-size:60px;"">+</div>","null",""
"","","","","","html-button-response","25","135388","0.0-4.0-1.10","149","1","2022-11-21 07:25:10","d86feb85bbada8b86f8906979128e15d","219.142.99.13","Mozilla/5.0 (iPad; CPU OS 15_6_1 like Mac OS X) AppleWebKit/605.1.15 (KHTML, like Gecko) Mobile/15E148 MicroMessenger/8.0.29(0x18001d38) NetType/WIFI Language/zh_CN","iPad","Mozilla","","iOS","15_6_1","2015","<p>作为军队的指挥官，你可以选择发射导弹杀死 <strong>8名</strong> 敌国士兵，但会误杀附近的 <strong>1名</strong> 敌国平民。</p> <p>平民照片如下图所示。</p> <p></p> <img src='stimuli/faces/PCM4.jpg', style='max-width: 30%;'> </img> <p><strong>你是否选择发射武器？</strong></p>","0",""
"","","","","","html-keyboard-response","26","136392","0.0-4.0-0.11","149","1","2022-11-21 07:25:10","d86feb85bbada8b86f8906979128e15d","219.142.99.13","Mozilla/5.0 (iPad; CPU OS 15_6_1 like Mac OS X) AppleWebKit/605.1.15 (KHTML, like Gecko) Mobile/15E148 MicroMessenger/8.0.29(0x18001d38) NetType/WIFI Language/zh_CN","iPad","Mozilla","","iOS","15_6_1","null","<div style=""font-size:60px;"">+</div>","null",""
"","","","","","html-button-response","27","138257","0.0-4.0-1.11","149","1","2022-11-21 07:25:10","d86feb85bbada8b86f8906979128e15d","219.142.99.13","Mozilla/5.0 (iPad; CPU OS 15_6_1 like Mac OS X) AppleWebKit/605.1.15 (KHTML, like Gecko) Mobile/15E148 MicroMessenger/8.0.29(0x18001d38) NetType/WIFI Language/zh_CN","iPad","Mozilla","","iOS","15_6_1","1857","<p>作为军队的指挥官，你可以选择发射导弹杀死 <strong>9名</strong> 敌国士兵，但会炸毁附近的 <strong>1棵</strong> 敌国树木。</p> <p>树木的照片如下图所示。</p> <p></p> <img src='stimuli/trees/14.png', style='max-width: 30%;'> </img> <p><strong>你是否选择发射武器？</strong></p>","0",""
"","","","","","html-keyboard-response","28","139261","0.0-4.0-0.12","149","1","2022-11-21 07:25:10","d86feb85bbada8b86f8906979128e15d","219.142.99.13","Mozilla/5.0 (iPad; CPU OS 15_6_1 like Mac OS X) AppleWebKit/605.1.15 (KHTML, like Gecko) Mobile/15E148 MicroMessenger/8.0.29(0x18001d38) NetType/WIFI Language/zh_CN","iPad","Mozilla","","iOS","15_6_1","null","<div style=""font-size:60px;"">+</div>","null",""
"","","","","","html-button-response","29","142735","0.0-4.0-1.12","149","1","2022-11-21 07:25:10","d86feb85bbada8b86f8906979128e15d","219.142.99.13","Mozilla/5.0 (iPad; CPU OS 15_6_1 like Mac OS X) AppleWebKit/605.1.15 (KHTML, like Gecko) Mobile/15E148 MicroMessenger/8.0.29(0x18001d38) NetType/WIFI Language/zh_CN","iPad","Mozilla","","iOS","15_6_1","3467","<p>作为军队的指挥官，你可以选择发射导弹杀死 <strong>3名</strong> 敌国士兵，但会误杀附近的 <strong>1名</strong> 敌国平民。</p> <p>平民照片如下图所示。</p> <p></p> <img src='stimuli/faces/PCF8.jpg', style='max-width: 30%;'> </img> <p><strong>你是否选择发射武器？</strong></p>","0",""
"","","","","","html-keyboard-response","30","143738","0.0-4.0-0.13","149","1","2022-11-21 07:25:10","d86feb85bbada8b86f8906979128e15d","219.142.99.13","Mozilla/5.0 (iPad; CPU OS 15_6_1 like Mac OS X) AppleWebKit/605.1.15 (KHTML, like Gecko) Mobile/15E148 MicroMessenger/8.0.29(0x18001d38) NetType/WIFI Language/zh_CN","iPad","Mozilla","","iOS","15_6_1","null","<div style=""font-size:60px;"">+</div>","null",""
"","","","","","html-button-response","31","149843","0.0-4.0-1.13","149","1","2022-11-21 07:25:10","d86feb85bbada8b86f8906979128e15d","219.142.99.13","Mozilla/5.0 (iPad; CPU OS 15_6_1 like Mac OS X) AppleWebKit/605.1.15 (KHTML, like Gecko) Mobile/15E148 MicroMessenger/8.0.29(0x18001d38) NetType/WIFI Language/zh_CN","iPad","Mozilla","","iOS","15_6_1","6097","<p>作为军队的指挥官，你可以选择发射导弹杀死 <strong>2名</strong> 敌国士兵，但会炸毁附近的 <strong>1棵</strong> 敌国树木。</p> <p>树木的照片如下图所示。</p> <p></p> <img src='stimuli/trees/9.png', style='max-width: 30%;'> </img> <p><strong>你是否选择发射武器？</strong></p>","1",""
"","","","","","html-keyboard-response","32","150854","0.0-4.0-0.14","149","1","2022-11-21 07:25:10","d86feb85bbada8b86f8906979128e15d","219.142.99.13","Mozilla/5.0 (iPad; CPU OS 15_6_1 like Mac OS X) AppleWebKit/605.1.15 (KHTML, like Gecko) Mobile/15E148 MicroMessenger/8.0.29(0x18001d38) NetType/WIFI Language/zh_CN","iPad","Mozilla","","iOS","15_6_1","null","<div style=""font-size:60px;"">+</div>","null",""
"","","","","","html-button-response","33","152959","0.0-4.0-1.14","149","1","2022-11-21 07:25:10","d86feb85bbada8b86f8906979128e15d","219.142.99.13","Mozilla/5.0 (iPad; CPU OS 15_6_1 like Mac OS X) AppleWebKit/605.1.15 (KHTML, like Gecko) Mobile/15E148 MicroMessenger/8.0.29(0x18001d38) NetType/WIFI Language/zh_CN","iPad","Mozilla","","iOS","15_6_1","2099","<p>作为军队的指挥官，你可以选择发射导弹杀死 <strong>5名</strong> 敌国士兵，但会误杀附近的 <strong>1名</strong> 敌国平民。</p> <p>平民照片如下图所示。</p> <p></p> <img src='stimuli/faces/PCF6.jpg', style='max-width: 30%;'> </img> <p><strong>你是否选择发射武器？</strong></p>","0",""
"","","","","","html-keyboard-response","34","153962","0.0-4.0-0.15","149","1","2022-11-21 07:25:10","d86feb85bbada8b86f8906979128e15d","219.142.99.13","Mozilla/5.0 (iPad; CPU OS 15_6_1 like Mac OS X) AppleWebKit/605.1.15 (KHTML, like Gecko) Mobile/15E148 MicroMessenger/8.0.29(0x18001d38) NetType/WIFI Language/zh_CN","iPad","Mozilla","","iOS","15_6_1","null","<div style=""font-size:60px;"">+</div>","null",""
"","","","","","html-button-response","35","155348","0.0-4.0-1.15","149","1","2022-11-21 07:25:10","d86feb85bbada8b86f8906979128e15d","219.142.99.13","Mozilla/5.0 (iPad; CPU OS 15_6_1 like Mac OS X) AppleWebKit/605.1.15 (KHTML, like Gecko) Mobile/15E148 MicroMessenger/8.0.29(0x18001d38) NetType/WIFI Language/zh_CN","iPad","Mozilla","","iOS","15_6_1","1378","<p>作为军队的指挥官，你可以选择发射导弹杀死 <strong>8名</strong> 敌国士兵，但会炸毁附近的 <strong>1棵</strong> 敌国树木。</p> <p>树木的照片如下图所示。</p> <p></p> <img src='stimuli/trees/9.png', style='max-width: 30%;'> </img> <p><strong>你是否选择发射武器？</strong></p>","0",""
"","","","","","html-keyboard-response","36","156351","0.0-4.0-0.16","149","1","2022-11-21 07:25:10","d86feb85bbada8b86f8906979128e15d","219.142.99.13","Mozilla/5.0 (iPad; CPU OS 15_6_1 like Mac OS X) AppleWebKit/605.1.15 (KHTML, like Gecko) Mobile/15E148 MicroMessenger/8.0.29(0x18001d38) NetType/WIFI Language/zh_CN","iPad","Mozilla","","iOS","15_6_1","null","<div style=""font-size:60px;"">+</div>","null",""
"","","","","","html-button-response","37","157667","0.0-4.0-1.16","149","1","2022-11-21 07:25:10","d86feb85bbada8b86f8906979128e15d","219.142.99.13","Mozilla/5.0 (iPad; CPU OS 15_6_1 like Mac OS X) AppleWebKit/605.1.15 (KHTML, like Gecko) Mobile/15E148 MicroMessenger/8.0.29(0x18001d38) NetType/WIFI Language/zh_CN","iPad","Mozilla","","iOS","15_6_1","1307","<p>作为军队的指挥官，你可以选择发射导弹杀死 <strong>8名</strong> 敌国士兵，但会误杀附近的 <strong>1名</strong> 敌国平民。</p> <p>平民照片如下图所示。</p> <p></p> <img src='stimuli/faces/PCF5.jpg', style='max-width: 30%;'> </img> <p><strong>你是否选择发射武器？</strong></p>","0",""
"","","","","","html-keyboard-response","38","158670","0.0-4.0-0.17","149","1","2022-11-21 07:25:10","d86feb85bbada8b86f8906979128e15d","219.142.99.13","Mozilla/5.0 (iPad; CPU OS 15_6_1 like Mac OS X) AppleWebKit/605.1.15 (KHTML, like Gecko) Mobile/15E148 MicroMessenger/8.0.29(0x18001d38) NetType/WIFI Language/zh_CN","iPad","Mozilla","","iOS","15_6_1","null","<div style=""font-size:60px;"">+</div>","null",""
"","","","","","html-button-response","39","160077","0.0-4.0-1.17","149","1","2022-11-21 07:25:10","d86feb85bbada8b86f8906979128e15d","219.142.99.13","Mozilla/5.0 (iPad; CPU OS 15_6_1 like Mac OS X) AppleWebKit/605.1.15 (KHTML, like Gecko) Mobile/15E148 MicroMessenger/8.0.29(0x18001d38) NetType/WIFI Language/zh_CN","iPad","Mozilla","","iOS","15_6_1","1398","<p>作为军队的指挥官，你可以选择发射导弹杀死 <strong>5名</strong> 敌国士兵，但会误杀附近的 <strong>1名</strong> 敌国平民。</p> <p>平民照片如下图所示。</p> <p></p> <img src='stimuli/faces/PCM8.jpg', style='max-width: 30%;'> </img> <p><strong>你是否选择发射武器？</strong></p>","0",""
"","","","","","html-keyboard-response","40","161080","0.0-4.0-0.18","149","1","2022-11-21 07:25:10","d86feb85bbada8b86f8906979128e15d","219.142.99.13","Mozilla/5.0 (iPad; CPU OS 15_6_1 like Mac OS X) AppleWebKit/605.1.15 (KHTML, like Gecko) Mobile/15E148 MicroMessenger/8.0.29(0x18001d38) NetType/WIFI Language/zh_CN","iPad","Mozilla","","iOS","15_6_1","null","<div style=""font-size:60px;"">+</div>","null",""
"","","","","","html-button-response","41","162235","0.0-4.0-1.18","149","1","2022-11-21 07:25:10","d86feb85bbada8b86f8906979128e15d","219.142.99.13","Mozilla/5.0 (iPad; CPU OS 15_6_1 like Mac OS X) AppleWebKit/605.1.15 (KHTML, like Gecko) Mobile/15E148 MicroMessenger/8.0.29(0x18001d38) NetType/WIFI Language/zh_CN","iPad","Mozilla","","iOS","15_6_1","1147","<p>作为军队的指挥官，你可以选择发射导弹杀死 <strong>6名</strong> 敌国士兵，但会误杀附近的 <strong>1名</strong> 敌国平民。</p> <p>平民照片如下图所示。</p> <p></p> <img src='stimuli/faces/PCM2.jpg', style='max-width: 30%;'> </img> <p><strong>你是否选择发射武器？</strong></p>","0",""
"","","","","","html-keyboard-response","42","163238","0.0-4.0-0.19","149","1","2022-11-21 07:25:10","d86feb85bbada8b86f8906979128e15d","219.142.99.13","Mozilla/5.0 (iPad; CPU OS 15_6_1 like Mac OS X) AppleWebKit/605.1.15 (KHTML, like Gecko) Mobile/15E148 MicroMessenger/8.0.29(0x18001d38) NetType/WIFI Language/zh_CN","iPad","Mozilla","","iOS","15_6_1","null","<div style=""font-size:60px;"">+</div>","null",""
"","","","","","html-button-response","43","164223","0.0-4.0-1.19","149","1","2022-11-21 07:25:10","d86feb85bbada8b86f8906979128e15d","219.142.99.13","Mozilla/5.0 (iPad; CPU OS 15_6_1 like Mac OS X) AppleWebKit/605.1.15 (KHTML, like Gecko) Mobile/15E148 MicroMessenger/8.0.29(0x18001d38) NetType/WIFI Language/zh_CN","iPad","Mozilla","","iOS","15_6_1","976","<p>作为军队的指挥官，你可以选择发射导弹杀死 <strong>10名</strong> 敌国士兵，但会误杀附近的 <strong>1名</strong> 敌国平民。</p> <p>平民照片如下图所示。</p> <p></p> <img src='stimuli/faces/PCM7.jpg', style='max-width: 30%;'> </img> <p><strong>你是否选择发射武器？</strong></p>","0",""
"","","","","","html-keyboard-response","44","165226","0.0-4.0-0.20","149","1","2022-11-21 07:25:10","d86feb85bbada8b86f8906979128e15d","219.142.99.13","Mozilla/5.0 (iPad; CPU OS 15_6_1 like Mac OS X) AppleWebKit/605.1.15 (KHTML, like Gecko) Mobile/15E148 MicroMessenger/8.0.29(0x18001d38) NetType/WIFI Language/zh_CN","iPad","Mozilla","","iOS","15_6_1","null","<div style=""font-size:60px;"">+</div>","null",""
"","","","","","html-button-response","45","167508","0.0-4.0-1.20","149","1","2022-11-21 07:25:10","d86feb85bbada8b86f8906979128e15d","219.142.99.13","Mozilla/5.0 (iPad; CPU OS 15_6_1 like Mac OS X) AppleWebKit/605.1.15 (KHTML, like Gecko) Mobile/15E148 MicroMessenger/8.0.29(0x18001d38) NetType/WIFI Language/zh_CN","iPad","Mozilla","","iOS","15_6_1","2274","<p>作为军队的指挥官，你可以选择发射导弹杀死 <strong>9名</strong> 敌国士兵，但会炸毁附近的 <strong>1棵</strong> 敌国树木。</p> <p>树木的照片如下图所示。</p> <p></p> <img src='stimuli/trees/16.png', style='max-width: 30%;'> </img> <p><strong>你是否选择发射武器？</strong></p>","0",""
"","","","","","html-keyboard-response","46","168511","0.0-4.0-0.21","149","1","2022-11-21 07:25:10","d86feb85bbada8b86f8906979128e15d","219.142.99.13","Mozilla/5.0 (iPad; CPU OS 15_6_1 like Mac OS X) AppleWebKit/605.1.15 (KHTML, like Gecko) Mobile/15E148 MicroMessenger/8.0.29(0x18001d38) NetType/WIFI Language/zh_CN","iPad","Mozilla","","iOS","15_6_1","null","<div style=""font-size:60px;"">+</div>","null",""
"","","","","","html-button-response","47","171004","0.0-4.0-1.21","149","1","2022-11-21 07:25:10","d86feb85bbada8b86f8906979128e15d","219.142.99.13","Mozilla/5.0 (iPad; CPU OS 15_6_1 like Mac OS X) AppleWebKit/605.1.15 (KHTML, like Gecko) Mobile/15E148 MicroMessenger/8.0.29(0x18001d38) NetType/WIFI Language/zh_CN","iPad","Mozilla","","iOS","15_6_1","2484","<p>作为军队的指挥官，你可以选择发射导弹杀死 <strong>2名</strong> 敌国士兵，但会炸毁附近的 <strong>1棵</strong> 敌国树木。</p> <p>树木的照片如下图所示。</p> <p></p> <img src='stimuli/trees/10.png', style='max-width: 30%;'> </img> <p><strong>你是否选择发射武器？</strong></p>","1",""
"","","","","","html-keyboard-response","48","172007","0.0-4.0-0.22","149","1","2022-11-21 07:25:10","d86feb85bbada8b86f8906979128e15d","219.142.99.13","Mozilla/5.0 (iPad; CPU OS 15_6_1 like Mac OS X) AppleWebKit/605.1.15 (KHTML, like Gecko) Mobile/15E148 MicroMessenger/8.0.29(0x18001d38) NetType/WIFI Language/zh_CN","iPad","Mozilla","","iOS","15_6_1","null","<div style=""font-size:60px;"">+</div>","null",""
"","","","","","html-button-response","49","173394","0.0-4.0-1.22","149","1","2022-11-21 07:25:10","d86feb85bbada8b86f8906979128e15d","219.142.99.13","Mozilla/5.0 (iPad; CPU OS 15_6_1 like Mac OS X) AppleWebKit/605.1.15 (KHTML, like Gecko) Mobile/15E148 MicroMessenger/8.0.29(0x18001d38) NetType/WIFI Language/zh_CN","iPad","Mozilla","","iOS","15_6_1","1378","<p>作为军队的指挥官，你可以选择发射导弹杀死 <strong>1名</strong> 敌国士兵，但会炸毁附近的 <strong>1棵</strong> 敌国树木。</p> <p>树木的照片如下图所示。</p> <p></p> <img src='stimuli/trees/4.png', style='max-width: 30%;'> </img> <p><strong>你是否选择发射武器？</strong></p>","1",""
"","","","","","html-keyboard-response","50","174397","0.0-4.0-0.23","149","1","2022-11-21 07:25:10","d86feb85bbada8b86f8906979128e15d","219.142.99.13","Mozilla/5.0 (iPad; CPU OS 15_6_1 like Mac OS X) AppleWebKit/605.1.15 (KHTML, like Gecko) Mobile/15E148 MicroMessenger/8.0.29(0x18001d38) NetType/WIFI Language/zh_CN","iPad","Mozilla","","iOS","15_6_1","null","<div style=""font-size:60px;"">+</div>","null",""
"","","","","","html-button-response","51","175456","0.0-4.0-1.23","149","1","2022-11-21 07:25:10","d86feb85bbada8b86f8906979128e15d","219.142.99.13","Mozilla/5.0 (iPad; CPU OS 15_6_1 like Mac OS X) AppleWebKit/605.1.15 (KHTML, like Gecko) Mobile/15E148 MicroMessenger/8.0.29(0x18001d38) NetType/WIFI Language/zh_CN","iPad","Mozilla","","iOS","15_6_1","1053","<p>作为军队的指挥官，你可以选择发射导弹杀死 <strong>9名</strong> 敌国士兵，但会误杀附近的 <strong>1名</strong> 敌国平民。</p> <p>平民照片如下图所示。</p> <p></p> <img src='stimuli/faces/PCF6.jpg', style='max-width: 30%;'> </img> <p><strong>你是否选择发射武器？</strong></p>","0",""
"","","","","","html-keyboard-response","52","176459","0.0-4.0-0.24","149","1","2022-11-21 07:25:10","d86feb85bbada8b86f8906979128e15d","219.142.99.13","Mozilla/5.0 (iPad; CPU OS 15_6_1 like Mac OS X) AppleWebKit/605.1.15 (KHTML, like Gecko) Mobile/15E148 MicroMessenger/8.0.29(0x18001d38) NetType/WIFI Language/zh_CN","iPad","Mozilla","","iOS","15_6_1","null","<div style=""font-size:60px;"">+</div>","null",""
"","","","","","html-button-response","53","178488","0.0-4.0-1.24","149","1","2022-11-21 07:25:10","d86feb85bbada8b86f8906979128e15d","219.142.99.13","Mozilla/5.0 (iPad; CPU OS 15_6_1 like Mac OS X) AppleWebKit/605.1.15 (KHTML, like Gecko) Mobile/15E148 MicroMessenger/8.0.29(0x18001d38) NetType/WIFI Language/zh_CN","iPad","Mozilla","","iOS","15_6_1","2019","<p>作为军队的指挥官，你可以选择发射导弹杀死 <strong>4名</strong> 敌国士兵，但会误杀附近的 <strong>1名</strong> 敌国平民。</p> <p>平民照片如下图所示。</p> <p></p> <img src='stimuli/faces/PCF3.jpg', style='max-width: 30%;'> </img> <p><strong>你是否选择发射武器？</strong></p>","0",""
"","","","","","html-keyboard-response","54","179492","0.0-4.0-0.25","149","1","2022-11-21 07:25:10","d86feb85bbada8b86f8906979128e15d","219.142.99.13","Mozilla/5.0 (iPad; CPU OS 15_6_1 like Mac OS X) AppleWebKit/605.1.15 (KHTML, like Gecko) Mobile/15E148 MicroMessenger/8.0.29(0x18001d38) NetType/WIFI Language/zh_CN","iPad","Mozilla","","iOS","15_6_1","null","<div style=""font-size:60px;"">+</div>","null",""
"","","","","","html-button-response","55","181400","0.0-4.0-1.25","149","1","2022-11-21 07:25:10","d86feb85bbada8b86f8906979128e15d","219.142.99.13","Mozilla/5.0 (iPad; CPU OS 15_6_1 like Mac OS X) AppleWebKit/605.1.15 (KHTML, like Gecko) Mobile/15E148 MicroMessenger/8.0.29(0x18001d38) NetType/WIFI Language/zh_CN","iPad","Mozilla","","iOS","15_6_1","1898","<p>作为军队的指挥官，你可以选择发射导弹杀死 <strong>9名</strong> 敌国士兵，但会炸毁附近的 <strong>1棵</strong> 敌国树木。</p> <p>树木的照片如下图所示。</p> <p></p> <img src='stimuli/trees/8.png', style='max-width: 30%;'> </img> <p><strong>你是否选择发射武器？</strong></p>","0",""
"","","","","","html-keyboard-response","56","182403","0.0-4.0-0.26","149","1","2022-11-21 07:25:10","d86feb85bbada8b86f8906979128e15d","219.142.99.13","Mozilla/5.0 (iPad; CPU OS 15_6_1 like Mac OS X) AppleWebKit/605.1.15 (KHTML, like Gecko) Mobile/15E148 MicroMessenger/8.0.29(0x18001d38) NetType/WIFI Language/zh_CN","iPad","Mozilla","","iOS","15_6_1","null","<div style=""font-size:60px;"">+</div>","null",""
"","","","","","html-button-response","57","183649","0.0-4.0-1.26","149","1","2022-11-21 07:25:10","d86feb85bbada8b86f8906979128e15d","219.142.99.13","Mozilla/5.0 (iPad; CPU OS 15_6_1 like Mac OS X) AppleWebKit/605.1.15 (KHTML, like Gecko) Mobile/15E148 MicroMessenger/8.0.29(0x18001d38) NetType/WIFI Language/zh_CN","iPad","Mozilla","","iOS","15_6_1","1235","<p>作为军队的指挥官，你可以选择发射导弹杀死 <strong>10名</strong> 敌国士兵，但会误杀附近的 <strong>1名</strong> 敌国平民。</p> <p>平民照片如下图所示。</p> <p></p> <img src='stimuli/faces/PCF4.jpg', style='max-width: 30%;'> </img> <p><strong>你是否选择发射武器？</strong></p>","0",""
"","","","","","html-keyboard-response","58","184652","0.0-4.0-0.27","149","1","2022-11-21 07:25:10","d86feb85bbada8b86f8906979128e15d","219.142.99.13","Mozilla/5.0 (iPad; CPU OS 15_6_1 like Mac OS X) AppleWebKit/605.1.15 (KHTML, like Gecko) Mobile/15E148 MicroMessenger/8.0.29(0x18001d38) NetType/WIFI Language/zh_CN","iPad","Mozilla","","iOS","15_6_1","null","<div style=""font-size:60px;"">+</div>","null",""
"","","","","","html-button-response","59","185949","0.0-4.0-1.27","149","1","2022-11-21 07:25:10","d86feb85bbada8b86f8906979128e15d","219.142.99.13","Mozilla/5.0 (iPad; CPU OS 15_6_1 like Mac OS X) AppleWebKit/605.1.15 (KHTML, like Gecko) Mobile/15E148 MicroMessenger/8.0.29(0x18001d38) NetType/WIFI Language/zh_CN","iPad","Mozilla","","iOS","15_6_1","1287","<p>作为军队的指挥官，你可以选择发射导弹杀死 <strong>4名</strong> 敌国士兵，但会误杀附近的 <strong>1名</strong> 敌国平民。</p> <p>平民照片如下图所示。</p> <p></p> <img src='stimuli/faces/PCF4.jpg', style='max-width: 30%;'> </img> <p><strong>你是否选择发射武器？</strong></p>","0",""
"","","","","","html-keyboard-response","60","186952","0.0-4.0-0.28","149","1","2022-11-21 07:25:10","d86feb85bbada8b86f8906979128e15d","219.142.99.13","Mozilla/5.0 (iPad; CPU OS 15_6_1 like Mac OS X) AppleWebKit/605.1.15 (KHTML, like Gecko) Mobile/15E148 MicroMessenger/8.0.29(0x18001d38) NetType/WIFI Language/zh_CN","iPad","Mozilla","","iOS","15_6_1","null","<div style=""font-size:60px;"">+</div>","null",""
"","","","","","html-button-response","61","199827","0.0-4.0-1.28","149","1","2022-11-21 07:25:10","d86feb85bbada8b86f8906979128e15d","219.142.99.13","Mozilla/5.0 (iPad; CPU OS 15_6_1 like Mac OS X) AppleWebKit/605.1.15 (KHTML, like Gecko) Mobile/15E148 MicroMessenger/8.0.29(0x18001d38) NetType/WIFI Language/zh_CN","iPad","Mozilla","","iOS","15_6_1","12865","<p>作为军队的指挥官，你可以选择发射导弹杀死 <strong>10名</strong> 敌国士兵，但会误杀附近的 <strong>1名</strong> 敌国平民。</p> <p>平民照片如下图所示。</p> <p></p> <img src='stimuli/faces/PCM5.jpg', style='max-width: 30%;'> </img> <p><strong>你是否选择发射武器？</strong></p>","0",""
"","","","","","html-keyboard-response","62","200831","0.0-4.0-0.29","149","1","2022-11-21 07:25:10","d86feb85bbada8b86f8906979128e15d","219.142.99.13","Mozilla/5.0 (iPad; CPU OS 15_6_1 like Mac OS X) AppleWebKit/605.1.15 (KHTML, like Gecko) Mobile/15E148 MicroMessenger/8.0.29(0x18001d38) NetType/WIFI Language/zh_CN","iPad","Mozilla","","iOS","15_6_1","null","<div style=""font-size:60px;"">+</div>","null",""
"","","","","","html-button-response","63","203017","0.0-4.0-1.29","149","1","2022-11-21 07:25:10","d86feb85bbada8b86f8906979128e15d","219.142.99.13","Mozilla/5.0 (iPad; CPU OS 15_6_1 like Mac OS X) AppleWebKit/605.1.15 (KHTML, like Gecko) Mobile/15E148 MicroMessenger/8.0.29(0x18001d38) NetType/WIFI Language/zh_CN","iPad","Mozilla","","iOS","15_6_1","2175","<p>作为军队的指挥官，你可以选择发射导弹杀死 <strong>3名</strong> 敌国士兵，但会误杀附近的 <strong>1名</strong> 敌国平民。</p> <p>平民照片如下图所示。</p> <p></p> <img src='stimuli/faces/PCM1.jpg', style='max-width: 30%;'> </img> <p><strong>你是否选择发射武器？</strong></p>","0",""
"","","","","","html-keyboard-response","64","204021","0.0-4.0-0.30","149","1","2022-11-21 07:25:10","d86feb85bbada8b86f8906979128e15d","219.142.99.13","Mozilla/5.0 (iPad; CPU OS 15_6_1 like Mac OS X) AppleWebKit/605.1.15 (KHTML, like Gecko) Mobile/15E148 MicroMessenger/8.0.29(0x18001d38) NetType/WIFI Language/zh_CN","iPad","Mozilla","","iOS","15_6_1","null","<div style=""font-size:60px;"">+</div>","null",""
"","","","","","html-button-response","65","205138","0.0-4.0-1.30","149","1","2022-11-21 07:25:10","d86feb85bbada8b86f8906979128e15d","219.142.99.13","Mozilla/5.0 (iPad; CPU OS 15_6_1 like Mac OS X) AppleWebKit/605.1.15 (KHTML, like Gecko) Mobile/15E148 MicroMessenger/8.0.29(0x18001d38) NetType/WIFI Language/zh_CN","iPad","Mozilla","","iOS","15_6_1","1109","<p>作为军队的指挥官，你可以选择发射导弹杀死 <strong>3名</strong> 敌国士兵，但会误杀附近的 <strong>1名</strong> 敌国平民。</p> <p>平民照片如下图所示。</p> <p></p> <img src='stimuli/faces/PCF5.jpg', style='max-width: 30%;'> </img> <p><strong>你是否选择发射武器？</strong></p>","0",""
"","","","","","html-keyboard-response","66","206142","0.0-4.0-0.31","149","1","2022-11-21 07:25:10","d86feb85bbada8b86f8906979128e15d","219.142.99.13","Mozilla/5.0 (iPad; CPU OS 15_6_1 like Mac OS X) AppleWebKit/605.1.15 (KHTML, like Gecko) Mobile/15E148 MicroMessenger/8.0.29(0x18001d38) NetType/WIFI Language/zh_CN","iPad","Mozilla","","iOS","15_6_1","null","<div style=""font-size:60px;"">+</div>","null",""
"","","","","","html-button-response","67","207283","0.0-4.0-1.31","149","1","2022-11-21 07:25:10","d86feb85bbada8b86f8906979128e15d","219.142.99.13","Mozilla/5.0 (iPad; CPU OS 15_6_1 like Mac OS X) AppleWebKit/605.1.15 (KHTML, like Gecko) Mobile/15E148 MicroMessenger/8.0.29(0x18001d38) NetType/WIFI Language/zh_CN","iPad","Mozilla","","iOS","15_6_1","1130","<p>作为军队的指挥官，你可以选择发射导弹杀死 <strong>10名</strong> 敌国士兵，但会炸毁附近的 <strong>1棵</strong> 敌国树木。</p> <p>树木的照片如下图所示。</p> <p></p> <img src='stimuli/trees/3.png', style='max-width: 30%;'> </img> <p><strong>你是否选择发射武器？</strong></p>","0",""
"","","","","","html-keyboard-response","68","208286","0.0-4.0-0.32","149","1","2022-11-21 07:25:10","d86feb85bbada8b86f8906979128e15d","219.142.99.13","Mozilla/5.0 (iPad; CPU OS 15_6_1 like Mac OS X) AppleWebKit/605.1.15 (KHTML, like Gecko) Mobile/15E148 MicroMessenger/8.0.29(0x18001d38) NetType/WIFI Language/zh_CN","iPad","Mozilla","","iOS","15_6_1","null","<div style=""font-size:60px;"">+</div>","null",""
"","","","","","html-button-response","69","210627","0.0-4.0-1.32","149","1","2022-11-21 07:25:10","d86feb85bbada8b86f8906979128e15d","219.142.99.13","Mozilla/5.0 (iPad; CPU OS 15_6_1 like Mac OS X) AppleWebKit/605.1.15 (KHTML, like Gecko) Mobile/15E148 MicroMessenger/8.0.29(0x18001d38) NetType/WIFI Language/zh_CN","iPad","Mozilla","","iOS","15_6_1","2329","<p>作为军队的指挥官，你可以选择发射导弹杀死 <strong>5名</strong> 敌国士兵，但会炸毁附近的 <strong>1棵</strong> 敌国树木。</p> <p>树木的照片如下图所示。</p> <p></p> <img src='stimuli/trees/14.png', style='max-width: 30%;'> </img> <p><strong>你是否选择发射武器？</strong></p>","0",""
"","","","","","html-keyboard-response","70","211631","0.0-4.0-0.33","149","1","2022-11-21 07:25:10","d86feb85bbada8b86f8906979128e15d","219.142.99.13","Mozilla/5.0 (iPad; CPU OS 15_6_1 like Mac OS X) AppleWebKit/605.1.15 (KHTML, like Gecko) Mobile/15E148 MicroMessenger/8.0.29(0x18001d38) NetType/WIFI Language/zh_CN","iPad","Mozilla","","iOS","15_6_1","null","<div style=""font-size:60px;"">+</div>","null",""
"","","","","","html-button-response","71","212940","0.0-4.0-1.33","149","1","2022-11-21 07:25:10","d86feb85bbada8b86f8906979128e15d","219.142.99.13","Mozilla/5.0 (iPad; CPU OS 15_6_1 like Mac OS X) AppleWebKit/605.1.15 (KHTML, like Gecko) Mobile/15E148 MicroMessenger/8.0.29(0x18001d38) NetType/WIFI Language/zh_CN","iPad","Mozilla","","iOS","15_6_1","1292","<p>作为军队的指挥官，你可以选择发射导弹杀死 <strong>2名</strong> 敌国士兵，但会误杀附近的 <strong>1名</strong> 敌国平民。</p> <p>平民照片如下图所示。</p> <p></p> <img src='stimuli/faces/PCM6.jpg', style='max-width: 30%;'> </img> <p><strong>你是否选择发射武器？</strong></p>","1",""
"","","","","","html-keyboard-response","72","213944","0.0-4.0-0.34","149","1","2022-11-21 07:25:10","d86feb85bbada8b86f8906979128e15d","219.142.99.13","Mozilla/5.0 (iPad; CPU OS 15_6_1 like Mac OS X) AppleWebKit/605.1.15 (KHTML, like Gecko) Mobile/15E148 MicroMessenger/8.0.29(0x18001d38) NetType/WIFI Language/zh_CN","iPad","Mozilla","","iOS","15_6_1","null","<div style=""font-size:60px;"">+</div>","null",""
"","","","","","html-button-response","73","215119","0.0-4.0-1.34","149","1","2022-11-21 07:25:10","d86feb85bbada8b86f8906979128e15d","219.142.99.13","Mozilla/5.0 (iPad; CPU OS 15_6_1 like Mac OS X) AppleWebKit/605.1.15 (KHTML, like Gecko) Mobile/15E148 MicroMessenger/8.0.29(0x18001d38) NetType/WIFI Language/zh_CN","iPad","Mozilla","","iOS","15_6_1","1164","<p>作为军队的指挥官，你可以选择发射导弹杀死 <strong>10名</strong> 敌国士兵，但会误杀附近的 <strong>1名</strong> 敌国平民。</p> <p>平民照片如下图所示。</p> <p></p> <img src='stimuli/faces/PCM1.jpg', style='max-width: 30%;'> </img> <p><strong>你是否选择发射武器？</strong></p>","0",""
"","","","","","html-keyboard-response","74","216121","0.0-4.0-0.35","149","1","2022-11-21 07:25:10","d86feb85bbada8b86f8906979128e15d","219.142.99.13","Mozilla/5.0 (iPad; CPU OS 15_6_1 like Mac OS X) AppleWebKit/605.1.15 (KHTML, like Gecko) Mobile/15E148 MicroMessenger/8.0.29(0x18001d38) NetType/WIFI Language/zh_CN","iPad","Mozilla","","iOS","15_6_1","null","<div style=""font-size:60px;"">+</div>","null",""
"","","","","","html-button-response","75","216952","0.0-4.0-1.35","149","1","2022-11-21 07:25:10","d86feb85bbada8b86f8906979128e15d","219.142.99.13","Mozilla/5.0 (iPad; CPU OS 15_6_1 like Mac OS X) AppleWebKit/605.1.15 (KHTML, like Gecko) Mobile/15E148 MicroMessenger/8.0.29(0x18001d38) NetType/WIFI Language/zh_CN","iPad","Mozilla","","iOS","15_6_1","820","<p>作为军队的指挥官，你可以选择发射导弹杀死 <strong>7名</strong> 敌国士兵，但会炸毁附近的 <strong>1棵</strong> 敌国树木。</p> <p>树木的照片如下图所示。</p> <p></p> <img src='stimuli/trees/11.png', style='max-width: 30%;'> </img> <p><strong>你是否选择发射武器？</strong></p>","0",""
"","","","","","html-keyboard-response","76","217956","0.0-4.0-0.36","149","1","2022-11-21 07:25:10","d86feb85bbada8b86f8906979128e15d","219.142.99.13","Mozilla/5.0 (iPad; CPU OS 15_6_1 like Mac OS X) AppleWebKit/605.1.15 (KHTML, like Gecko) Mobile/15E148 MicroMessenger/8.0.29(0x18001d38) NetType/WIFI Language/zh_CN","iPad","Mozilla","","iOS","15_6_1","null","<div style=""font-size:60px;"">+</div>","null",""
"","","","","","html-button-response","77","218562","0.0-4.0-1.36","149","1","2022-11-21 07:25:10","d86feb85bbada8b86f8906979128e15d","219.142.99.13","Mozilla/5.0 (iPad; CPU OS 15_6_1 like Mac OS X) AppleWebKit/605.1.15 (KHTML, like Gecko) Mobile/15E148 MicroMessenger/8.0.29(0x18001d38) NetType/WIFI Language/zh_CN","iPad","Mozilla","","iOS","15_6_1","595","<p>作为军队的指挥官，你可以选择发射导弹杀死 <strong>7名</strong> 敌国士兵，但会误杀附近的 <strong>1名</strong> 敌国平民。</p> <p>平民照片如下图所示。</p> <p></p> <img src='stimuli/faces/PCF3.jpg', style='max-width: 30%;'> </img> <p><strong>你是否选择发射武器？</strong></p>","0",""
"","","","","","html-keyboard-response","78","219566","0.0-4.0-0.37","149","1","2022-11-21 07:25:10","d86feb85bbada8b86f8906979128e15d","219.142.99.13","Mozilla/5.0 (iPad; CPU OS 15_6_1 like Mac OS X) AppleWebKit/605.1.15 (KHTML, like Gecko) Mobile/15E148 MicroMessenger/8.0.29(0x18001d38) NetType/WIFI Language/zh_CN","iPad","Mozilla","","iOS","15_6_1","null","<div style=""font-size:60px;"">+</div>","null",""
"","","","","","html-button-response","79","220920","0.0-4.0-1.37","149","1","2022-11-21 07:25:10","d86feb85bbada8b86f8906979128e15d","219.142.99.13","Mozilla/5.0 (iPad; CPU OS 15_6_1 like Mac OS X) AppleWebKit/605.1.15 (KHTML, like Gecko) Mobile/15E148 MicroMessenger/8.0.29(0x18001d38) NetType/WIFI Language/zh_CN","iPad","Mozilla","","iOS","15_6_1","1341","<p>作为军队的指挥官，你可以选择发射导弹杀死 <strong>2名</strong> 敌国士兵，但会误杀附近的 <strong>1名</strong> 敌国平民。</p> <p>平民照片如下图所示。</p> <p></p> <img src='stimuli/faces/PCM4.jpg', style='max-width: 30%;'> </img> <p><strong>你是否选择发射武器？</strong></p>","1",""
"","","","","","html-keyboard-response","80","221925","0.0-4.0-0.38","149","1","2022-11-21 07:25:10","d86feb85bbada8b86f8906979128e15d","219.142.99.13","Mozilla/5.0 (iPad; CPU OS 15_6_1 like Mac OS X) AppleWebKit/605.1.15 (KHTML, like Gecko) Mobile/15E148 MicroMessenger/8.0.29(0x18001d38) NetType/WIFI Language/zh_CN","iPad","Mozilla","","iOS","15_6_1","null","<div style=""font-size:60px;"">+</div>","null",""
"","","","","","html-button-response","81","222665","0.0-4.0-1.38","149","1","2022-11-21 07:25:10","d86feb85bbada8b86f8906979128e15d","219.142.99.13","Mozilla/5.0 (iPad; CPU OS 15_6_1 like Mac OS X) AppleWebKit/605.1.15 (KHTML, like Gecko) Mobile/15E148 MicroMessenger/8.0.29(0x18001d38) NetType/WIFI Language/zh_CN","iPad","Mozilla","","iOS","15_6_1","727","<p>作为军队的指挥官，你可以选择发射导弹杀死 <strong>5名</strong> 敌国士兵，但会误杀附近的 <strong>1名</strong> 敌国平民。</p> <p>平民照片如下图所示。</p> <p></p> <img src='stimuli/faces/PCF2.jpg', style='max-width: 30%;'> </img> <p><strong>你是否选择发射武器？</strong></p>","0",""
"","","","","","html-keyboard-response","82","223670","0.0-4.0-0.39","149","1","2022-11-21 07:25:10","d86feb85bbada8b86f8906979128e15d","219.142.99.13","Mozilla/5.0 (iPad; CPU OS 15_6_1 like Mac OS X) AppleWebKit/605.1.15 (KHTML, like Gecko) Mobile/15E148 MicroMessenger/8.0.29(0x18001d38) NetType/WIFI Language/zh_CN","iPad","Mozilla","","iOS","15_6_1","null","<div style=""font-size:60px;"">+</div>","null",""
"","","","","","html-button-response","83","224632","0.0-4.0-1.39","149","1","2022-11-21 07:25:10","d86feb85bbada8b86f8906979128e15d","219.142.99.13","Mozilla/5.0 (iPad; CPU OS 15_6_1 like Mac OS X) AppleWebKit/605.1.15 (KHTML, like Gecko) Mobile/15E148 MicroMessenger/8.0.29(0x18001d38) NetType/WIFI Language/zh_CN","iPad","Mozilla","","iOS","15_6_1","952","<p>作为军队的指挥官，你可以选择发射导弹杀死 <strong>9名</strong> 敌国士兵，但会误杀附近的 <strong>1名</strong> 敌国平民。</p> <p>平民照片如下图所示。</p> <p></p> <img src='stimuli/faces/PCF7.jpg', style='max-width: 30%;'> </img> <p><strong>你是否选择发射武器？</strong></p>","0",""
"","","","","","html-keyboard-response","84","225636","0.0-4.0-0.40","149","1","2022-11-21 07:25:10","d86feb85bbada8b86f8906979128e15d","219.142.99.13","Mozilla/5.0 (iPad; CPU OS 15_6_1 like Mac OS X) AppleWebKit/605.1.15 (KHTML, like Gecko) Mobile/15E148 MicroMessenger/8.0.29(0x18001d38) NetType/WIFI Language/zh_CN","iPad","Mozilla","","iOS","15_6_1","null","<div style=""font-size:60px;"">+</div>","null",""
"","","","","","html-button-response","85","227157","0.0-4.0-1.40","149","1","2022-11-21 07:25:10","d86feb85bbada8b86f8906979128e15d","219.142.99.13","Mozilla/5.0 (iPad; CPU OS 15_6_1 like Mac OS X) AppleWebKit/605.1.15 (KHTML, like Gecko) Mobile/15E148 MicroMessenger/8.0.29(0x18001d38) NetType/WIFI Language/zh_CN","iPad","Mozilla","","iOS","15_6_1","1509","<p>作为军队的指挥官，你可以选择发射导弹杀死 <strong>2名</strong> 敌国士兵，但会炸毁附近的 <strong>1棵</strong> 敌国树木。</p> <p>树木的照片如下图所示。</p> <p></p> <img src='stimuli/trees/1.png', style='max-width: 30%;'> </img> <p><strong>你是否选择发射武器？</strong></p>","1",""
"","","","","","html-keyboard-response","86","228160","0.0-4.0-0.41","149","1","2022-11-21 07:25:10","d86feb85bbada8b86f8906979128e15d","219.142.99.13","Mozilla/5.0 (iPad; CPU OS 15_6_1 like Mac OS X) AppleWebKit/605.1.15 (KHTML, like Gecko) Mobile/15E148 MicroMessenger/8.0.29(0x18001d38) NetType/WIFI Language/zh_CN","iPad","Mozilla","","iOS","15_6_1","null","<div style=""font-size:60px;"">+</div>","null",""
"","","","","","html-button-response","87","228962","0.0-4.0-1.41","149","1","2022-11-21 07:25:10","d86feb85bbada8b86f8906979128e15d","219.142.99.13","Mozilla/5.0 (iPad; CPU OS 15_6_1 like Mac OS X) AppleWebKit/605.1.15 (KHTML, like Gecko) Mobile/15E148 MicroMessenger/8.0.29(0x18001d38) NetType/WIFI Language/zh_CN","iPad","Mozilla","","iOS","15_6_1","793","<p>作为军队的指挥官，你可以选择发射导弹杀死 <strong>6名</strong> 敌国士兵，但会炸毁附近的 <strong>1棵</strong> 敌国树木。</p> <p>树木的照片如下图所示。</p> <p></p> <img src='stimuli/trees/1.png', style='max-width: 30%;'> </img> <p><strong>你是否选择发射武器？</strong></p>","0",""
"","","","","","html-keyboard-response","88","229966","0.0-4.0-0.42","149","1","2022-11-21 07:25:10","d86feb85bbada8b86f8906979128e15d","219.142.99.13","Mozilla/5.0 (iPad; CPU OS 15_6_1 like Mac OS X) AppleWebKit/605.1.15 (KHTML, like Gecko) Mobile/15E148 MicroMessenger/8.0.29(0x18001d38) NetType/WIFI Language/zh_CN","iPad","Mozilla","","iOS","15_6_1","null","<div style=""font-size:60px;"">+</div>","null",""
"","","","","","html-button-response","89","230669","0.0-4.0-1.42","149","1","2022-11-21 07:25:10","d86feb85bbada8b86f8906979128e15d","219.142.99.13","Mozilla/5.0 (iPad; CPU OS 15_6_1 like Mac OS X) AppleWebKit/605.1.15 (KHTML, like Gecko) Mobile/15E148 MicroMessenger/8.0.29(0x18001d38) NetType/WIFI Language/zh_CN","iPad","Mozilla","","iOS","15_6_1","691","<p>作为军队的指挥官，你可以选择发射导弹杀死 <strong>10名</strong> 敌国士兵，但会误杀附近的 <strong>1名</strong> 敌国平民。</p> <p>平民照片如下图所示。</p> <p></p> <img src='stimuli/faces/PCF2.jpg', style='max-width: 30%;'> </img> <p><strong>你是否选择发射武器？</strong></p>","0",""
"","","","","","html-keyboard-response","90","231673","0.0-4.0-0.43","149","1","2022-11-21 07:25:10","d86feb85bbada8b86f8906979128e15d","219.142.99.13","Mozilla/5.0 (iPad; CPU OS 15_6_1 like Mac OS X) AppleWebKit/605.1.15 (KHTML, like Gecko) Mobile/15E148 MicroMessenger/8.0.29(0x18001d38) NetType/WIFI Language/zh_CN","iPad","Mozilla","","iOS","15_6_1","null","<div style=""font-size:60px;"">+</div>","null",""
"","","","","","html-button-response","91","232260","0.0-4.0-1.43","149","1","2022-11-21 07:25:10","d86feb85bbada8b86f8906979128e15d","219.142.99.13","Mozilla/5.0 (iPad; CPU OS 15_6_1 like Mac OS X) AppleWebKit/605.1.15 (KHTML, like Gecko) Mobile/15E148 MicroMessenger/8.0.29(0x18001d38) NetType/WIFI Language/zh_CN","iPad","Mozilla","","iOS","15_6_1","576","<p>作为军队的指挥官，你可以选择发射导弹杀死 <strong>10名</strong> 敌国士兵，但会误杀附近的 <strong>1名</strong> 敌国平民。</p> <p>平民照片如下图所示。</p> <p></p> <img src='stimuli/faces/PCF1.jpg', style='max-width: 30%;'> </img> <p><strong>你是否选择发射武器？</strong></p>","0",""
"","","","","","html-keyboard-response","92","233264","0.0-4.0-0.44","149","1","2022-11-21 07:25:10","d86feb85bbada8b86f8906979128e15d","219.142.99.13","Mozilla/5.0 (iPad; CPU OS 15_6_1 like Mac OS X) AppleWebKit/605.1.15 (KHTML, like Gecko) Mobile/15E148 MicroMessenger/8.0.29(0x18001d38) NetType/WIFI Language/zh_CN","iPad","Mozilla","","iOS","15_6_1","null","<div style=""font-size:60px;"">+</div>","null",""
"","","","","","html-button-response","93","234226","0.0-4.0-1.44","149","1","2022-11-21 07:25:10","d86feb85bbada8b86f8906979128e15d","219.142.99.13","Mozilla/5.0 (iPad; CPU OS 15_6_1 like Mac OS X) AppleWebKit/605.1.15 (KHTML, like Gecko) Mobile/15E148 MicroMessenger/8.0.29(0x18001d38) NetType/WIFI Language/zh_CN","iPad","Mozilla","","iOS","15_6_1","950","<p>作为军队的指挥官，你可以选择发射导弹杀死 <strong>5名</strong> 敌国士兵，但会炸毁附近的 <strong>1棵</strong> 敌国树木。</p> <p>树木的照片如下图所示。</p> <p></p> <img src='stimuli/trees/16.png', style='max-width: 30%;'> </img> <p><strong>你是否选择发射武器？</strong></p>","0",""
"","","","","","html-keyboard-response","94","235229","0.0-4.0-0.45","149","1","2022-11-21 07:25:10","d86feb85bbada8b86f8906979128e15d","219.142.99.13","Mozilla/5.0 (iPad; CPU OS 15_6_1 like Mac OS X) AppleWebKit/605.1.15 (KHTML, like Gecko) Mobile/15E148 MicroMessenger/8.0.29(0x18001d38) NetType/WIFI Language/zh_CN","iPad","Mozilla","","iOS","15_6_1","null","<div style=""font-size:60px;"">+</div>","null",""
"","","","","","html-button-response","95","236844","0.0-4.0-1.45","149","1","2022-11-21 07:25:10","d86feb85bbada8b86f8906979128e15d","219.142.99.13","Mozilla/5.0 (iPad; CPU OS 15_6_1 like Mac OS X) AppleWebKit/605.1.15 (KHTML, like Gecko) Mobile/15E148 MicroMessenger/8.0.29(0x18001d38) NetType/WIFI Language/zh_CN","iPad","Mozilla","","iOS","15_6_1","1602","<p>作为军队的指挥官，你可以选择发射导弹杀死 <strong>3名</strong> 敌国士兵，但会炸毁附近的 <strong>1棵</strong> 敌国树木。</p> <p>树木的照片如下图所示。</p> <p></p> <img src='stimuli/trees/3.png', style='max-width: 30%;'> </img> <p><strong>你是否选择发射武器？</strong></p>","0",""
"","","","","","html-keyboard-response","96","237848","0.0-4.0-0.46","149","1","2022-11-21 07:25:10","d86feb85bbada8b86f8906979128e15d","219.142.99.13","Mozilla/5.0 (iPad; CPU OS 15_6_1 like Mac OS X) AppleWebKit/605.1.15 (KHTML, like Gecko) Mobile/15E148 MicroMessenger/8.0.29(0x18001d38) NetType/WIFI Language/zh_CN","iPad","Mozilla","","iOS","15_6_1","null","<div style=""font-size:60px;"">+</div>","null",""
"","","","","","html-button-response","97","239203","0.0-4.0-1.46","149","1","2022-11-21 07:25:10","d86feb85bbada8b86f8906979128e15d","219.142.99.13","Mozilla/5.0 (iPad; CPU OS 15_6_1 like Mac OS X) AppleWebKit/605.1.15 (KHTML, like Gecko) Mobile/15E148 MicroMessenger/8.0.29(0x18001d38) NetType/WIFI Language/zh_CN","iPad","Mozilla","","iOS","15_6_1","1337","<p>作为军队的指挥官，你可以选择发射导弹杀死 <strong>1名</strong> 敌国士兵，但会误杀附近的 <strong>1名</strong> 敌国平民。</p> <p>平民照片如下图所示。</p> <p></p> <img src='stimuli/faces/PCM3.jpg', style='max-width: 30%;'> </img> <p><strong>你是否选择发射武器？</strong></p>","1",""
"","","","","","html-keyboard-response","98","240206","0.0-4.0-0.47","149","1","2022-11-21 07:25:10","d86feb85bbada8b86f8906979128e15d","219.142.99.13","Mozilla/5.0 (iPad; CPU OS 15_6_1 like Mac OS X) AppleWebKit/605.1.15 (KHTML, like Gecko) Mobile/15E148 MicroMessenger/8.0.29(0x18001d38) NetType/WIFI Language/zh_CN","iPad","Mozilla","","iOS","15_6_1","null","<div style=""font-size:60px;"">+</div>","null",""
"","","","","","html-button-response","99","241317","0.0-4.0-1.47","149","1","2022-11-21 07:25:10","d86feb85bbada8b86f8906979128e15d","219.142.99.13","Mozilla/5.0 (iPad; CPU OS 15_6_1 like Mac OS X) AppleWebKit/605.1.15 (KHTML, like Gecko) Mobile/15E148 MicroMessenger/8.0.29(0x18001d38) NetType/WIFI Language/zh_CN","iPad","Mozilla","","iOS","15_6_1","1099","<p>作为军队的指挥官，你可以选择发射导弹杀死 <strong>9名</strong> 敌国士兵，但会误杀附近的 <strong>1名</strong> 敌国平民。</p> <p>平民照片如下图所示。</p> <p></p> <img src='stimuli/faces/PCM3.jpg', style='max-width: 30%;'> </img> <p><strong>你是否选择发射武器？</strong></p>","0",""
"","","","","","html-keyboard-response","100","242322","0.0-4.0-0.48","149","1","2022-11-21 07:25:10","d86feb85bbada8b86f8906979128e15d","219.142.99.13","Mozilla/5.0 (iPad; CPU OS 15_6_1 like Mac OS X) AppleWebKit/605.1.15 (KHTML, like Gecko) Mobile/15E148 MicroMessenger/8.0.29(0x18001d38) NetType/WIFI Language/zh_CN","iPad","Mozilla","","iOS","15_6_1","null","<div style=""font-size:60px;"">+</div>","null",""
"","","","","","html-button-response","101","243592","0.0-4.0-1.48","149","1","2022-11-21 07:25:10","d86feb85bbada8b86f8906979128e15d","219.142.99.13","Mozilla/5.0 (iPad; CPU OS 15_6_1 like Mac OS X) AppleWebKit/605.1.15 (KHTML, like Gecko) Mobile/15E148 MicroMessenger/8.0.29(0x18001d38) NetType/WIFI Language/zh_CN","iPad","Mozilla","","iOS","15_6_1","1258","<p>作为军队的指挥官，你可以选择发射导弹杀死 <strong>4名</strong> 敌国士兵，但会误杀附近的 <strong>1名</strong> 敌国平民。</p> <p>平民照片如下图所示。</p> <p></p> <img src='stimuli/faces/PCF7.jpg', style='max-width: 30%;'> </img> <p><strong>你是否选择发射武器？</strong></p>","0",""
"","","","","","html-keyboard-response","102","244596","0.0-4.0-0.49","149","1","2022-11-21 07:25:10","d86feb85bbada8b86f8906979128e15d","219.142.99.13","Mozilla/5.0 (iPad; CPU OS 15_6_1 like Mac OS X) AppleWebKit/605.1.15 (KHTML, like Gecko) Mobile/15E148 MicroMessenger/8.0.29(0x18001d38) NetType/WIFI Language/zh_CN","iPad","Mozilla","","iOS","15_6_1","null","<div style=""font-size:60px;"">+</div>","null",""
"","","","","","html-button-response","103","246575","0.0-4.0-1.49","149","1","2022-11-21 07:25:10","d86feb85bbada8b86f8906979128e15d","219.142.99.13","Mozilla/5.0 (iPad; CPU OS 15_6_1 like Mac OS X) AppleWebKit/605.1.15 (KHTML, like Gecko) Mobile/15E148 MicroMessenger/8.0.29(0x18001d38) NetType/WIFI Language/zh_CN","iPad","Mozilla","","iOS","15_6_1","1963","<p>作为军队的指挥官，你可以选择发射导弹杀死 <strong>2名</strong> 敌国士兵，但会误杀附近的 <strong>1名</strong> 敌国平民。</p> <p>平民照片如下图所示。</p> <p></p> <img src='stimuli/faces/PCF1.jpg', style='max-width: 30%;'> </img> <p><strong>你是否选择发射武器？</strong></p>","1",""
"","","","","","html-keyboard-response","104","247580","0.0-4.0-0.50","149","1","2022-11-21 07:25:10","d86feb85bbada8b86f8906979128e15d","219.142.99.13","Mozilla/5.0 (iPad; CPU OS 15_6_1 like Mac OS X) AppleWebKit/605.1.15 (KHTML, like Gecko) Mobile/15E148 MicroMessenger/8.0.29(0x18001d38) NetType/WIFI Language/zh_CN","iPad","Mozilla","","iOS","15_6_1","null","<div style=""font-size:60px;"">+</div>","null",""
"","","","","","html-button-response","105","248440","0.0-4.0-1.50","149","1","2022-11-21 07:25:10","d86feb85bbada8b86f8906979128e15d","219.142.99.13","Mozilla/5.0 (iPad; CPU OS 15_6_1 like Mac OS X) AppleWebKit/605.1.15 (KHTML, like Gecko) Mobile/15E148 MicroMessenger/8.0.29(0x18001d38) NetType/WIFI Language/zh_CN","iPad","Mozilla","","iOS","15_6_1","846","<p>作为军队的指挥官，你可以选择发射导弹杀死 <strong>7名</strong> 敌国士兵，但会误杀附近的 <strong>1名</strong> 敌国平民。</p> <p>平民照片如下图所示。</p> <p></p> <img src='stimuli/faces/PCM6.jpg', style='max-width: 30%;'> </img> <p><strong>你是否选择发射武器？</strong></p>","0",""
"","","","","","html-keyboard-response","106","249444","0.0-4.0-0.51","149","1","2022-11-21 07:25:10","d86feb85bbada8b86f8906979128e15d","219.142.99.13","Mozilla/5.0 (iPad; CPU OS 15_6_1 like Mac OS X) AppleWebKit/605.1.15 (KHTML, like Gecko) Mobile/15E148 MicroMessenger/8.0.29(0x18001d38) NetType/WIFI Language/zh_CN","iPad","Mozilla","","iOS","15_6_1","null","<div style=""font-size:60px;"">+</div>","null",""
"","","","","","html-button-response","107","250046","0.0-4.0-1.51","149","1","2022-11-21 07:25:10","d86feb85bbada8b86f8906979128e15d","219.142.99.13","Mozilla/5.0 (iPad; CPU OS 15_6_1 like Mac OS X) AppleWebKit/605.1.15 (KHTML, like Gecko) Mobile/15E148 MicroMessenger/8.0.29(0x18001d38) NetType/WIFI Language/zh_CN","iPad","Mozilla","","iOS","15_6_1","591","<p>作为军队的指挥官，你可以选择发射导弹杀死 <strong>8名</strong> 敌国士兵，但会炸毁附近的 <strong>1棵</strong> 敌国树木。</p> <p>树木的照片如下图所示。</p> <p></p> <img src='stimuli/trees/4.png', style='max-width: 30%;'> </img> <p><strong>你是否选择发射武器？</strong></p>","0",""
"","","","","","html-keyboard-response","108","251050","0.0-4.0-0.52","149","1","2022-11-21 07:25:10","d86feb85bbada8b86f8906979128e15d","219.142.99.13","Mozilla/5.0 (iPad; CPU OS 15_6_1 like Mac OS X) AppleWebKit/605.1.15 (KHTML, like Gecko) Mobile/15E148 MicroMessenger/8.0.29(0x18001d38) NetType/WIFI Language/zh_CN","iPad","Mozilla","","iOS","15_6_1","null","<div style=""font-size:60px;"">+</div>","null",""
"","","","","","html-button-response","109","251705","0.0-4.0-1.52","149","1","2022-11-21 07:25:10","d86feb85bbada8b86f8906979128e15d","219.142.99.13","Mozilla/5.0 (iPad; CPU OS 15_6_1 like Mac OS X) AppleWebKit/605.1.15 (KHTML, like Gecko) Mobile/15E148 MicroMessenger/8.0.29(0x18001d38) NetType/WIFI Language/zh_CN","iPad","Mozilla","","iOS","15_6_1","643","<p>作为军队的指挥官，你可以选择发射导弹杀死 <strong>8名</strong> 敌国士兵，但会炸毁附近的 <strong>1棵</strong> 敌国树木。</p> <p>树木的照片如下图所示。</p> <p></p> <img src='stimuli/trees/7.png', style='max-width: 30%;'> </img> <p><strong>你是否选择发射武器？</strong></p>","0",""
"","","","","","html-keyboard-response","110","252710","0.0-4.0-0.53","149","1","2022-11-21 07:25:10","d86feb85bbada8b86f8906979128e15d","219.142.99.13","Mozilla/5.0 (iPad; CPU OS 15_6_1 like Mac OS X) AppleWebKit/605.1.15 (KHTML, like Gecko) Mobile/15E148 MicroMessenger/8.0.29(0x18001d38) NetType/WIFI Language/zh_CN","iPad","Mozilla","","iOS","15_6_1","null","<div style=""font-size:60px;"">+</div>","null",""
"","","","","","html-button-response","111","253876","0.0-4.0-1.53","149","1","2022-11-21 07:25:10","d86feb85bbada8b86f8906979128e15d","219.142.99.13","Mozilla/5.0 (iPad; CPU OS 15_6_1 like Mac OS X) AppleWebKit/605.1.15 (KHTML, like Gecko) Mobile/15E148 MicroMessenger/8.0.29(0x18001d38) NetType/WIFI Language/zh_CN","iPad","Mozilla","","iOS","15_6_1","1153","<p>作为军队的指挥官，你可以选择发射导弹杀死 <strong>7名</strong> 敌国士兵，但会炸毁附近的 <strong>1棵</strong> 敌国树木。</p> <p>树木的照片如下图所示。</p> <p></p> <img src='stimuli/trees/13.png', style='max-width: 30%;'> </img> <p><strong>你是否选择发射武器？</strong></p>","0",""
"","","","","","html-keyboard-response","112","254880","0.0-4.0-0.54","149","1","2022-11-21 07:25:10","d86feb85bbada8b86f8906979128e15d","219.142.99.13","Mozilla/5.0 (iPad; CPU OS 15_6_1 like Mac OS X) AppleWebKit/605.1.15 (KHTML, like Gecko) Mobile/15E148 MicroMessenger/8.0.29(0x18001d38) NetType/WIFI Language/zh_CN","iPad","Mozilla","","iOS","15_6_1","null","<div style=""font-size:60px;"">+</div>","null",""
"","","","","","html-button-response","113","255996","0.0-4.0-1.54","149","1","2022-11-21 07:25:10","d86feb85bbada8b86f8906979128e15d","219.142.99.13","Mozilla/5.0 (iPad; CPU OS 15_6_1 like Mac OS X) AppleWebKit/605.1.15 (KHTML, like Gecko) Mobile/15E148 MicroMessenger/8.0.29(0x18001d38) NetType/WIFI Language/zh_CN","iPad","Mozilla","","iOS","15_6_1","1102","<p>作为军队的指挥官，你可以选择发射导弹杀死 <strong>1名</strong> 敌国士兵，但会误杀附近的 <strong>1名</strong> 敌国平民。</p> <p>平民照片如下图所示。</p> <p></p> <img src='stimuli/faces/PCM7.jpg', style='max-width: 30%;'> </img> <p><strong>你是否选择发射武器？</strong></p>","1",""
"","","","","","html-keyboard-response","114","257001","0.0-4.0-0.55","149","1","2022-11-21 07:25:10","d86feb85bbada8b86f8906979128e15d","219.142.99.13","Mozilla/5.0 (iPad; CPU OS 15_6_1 like Mac OS X) AppleWebKit/605.1.15 (KHTML, like Gecko) Mobile/15E148 MicroMessenger/8.0.29(0x18001d38) NetType/WIFI Language/zh_CN","iPad","Mozilla","","iOS","15_6_1","null","<div style=""font-size:60px;"">+</div>","null",""
"","","","","","html-button-response","115","257842","0.0-4.0-1.55","149","1","2022-11-21 07:25:10","d86feb85bbada8b86f8906979128e15d","219.142.99.13","Mozilla/5.0 (iPad; CPU OS 15_6_1 like Mac OS X) AppleWebKit/605.1.15 (KHTML, like Gecko) Mobile/15E148 MicroMessenger/8.0.29(0x18001d38) NetType/WIFI Language/zh_CN","iPad","Mozilla","","iOS","15_6_1","823","<p>作为军队的指挥官，你可以选择发射导弹杀死 <strong>10名</strong> 敌国士兵，但会炸毁附近的 <strong>1棵</strong> 敌国树木。</p> <p>树木的照片如下图所示。</p> <p></p> <img src='stimuli/trees/5.png', style='max-width: 30%;'> </img> <p><strong>你是否选择发射武器？</strong></p>","0",""
"","","","","","html-keyboard-response","116","258847","0.0-4.0-0.56","149","1","2022-11-21 07:25:10","d86feb85bbada8b86f8906979128e15d","219.142.99.13","Mozilla/5.0 (iPad; CPU OS 15_6_1 like Mac OS X) AppleWebKit/605.1.15 (KHTML, like Gecko) Mobile/15E148 MicroMessenger/8.0.29(0x18001d38) NetType/WIFI Language/zh_CN","iPad","Mozilla","","iOS","15_6_1","null","<div style=""font-size:60px;"">+</div>","null",""
"","","","","","html-button-response","117","259562","0.0-4.0-1.56","149","1","2022-11-21 07:25:10","d86feb85bbada8b86f8906979128e15d","219.142.99.13","Mozilla/5.0 (iPad; CPU OS 15_6_1 like Mac OS X) AppleWebKit/605.1.15 (KHTML, like Gecko) Mobile/15E148 MicroMessenger/8.0.29(0x18001d38) NetType/WIFI Language/zh_CN","iPad","Mozilla","","iOS","15_6_1","702","<p>作为军队的指挥官，你可以选择发射导弹杀死 <strong>3名</strong> 敌国士兵，但会炸毁附近的 <strong>1棵</strong> 敌国树木。</p> <p>树木的照片如下图所示。</p> <p></p> <img src='stimuli/trees/6.png', style='max-width: 30%;'> </img> <p><strong>你是否选择发射武器？</strong></p>","0",""
"","","","","","html-keyboard-response","118","260566","0.0-4.0-0.57","149","1","2022-11-21 07:25:10","d86feb85bbada8b86f8906979128e15d","219.142.99.13","Mozilla/5.0 (iPad; CPU OS 15_6_1 like Mac OS X) AppleWebKit/605.1.15 (KHTML, like Gecko) Mobile/15E148 MicroMessenger/8.0.29(0x18001d38) NetType/WIFI Language/zh_CN","iPad","Mozilla","","iOS","15_6_1","null","<div style=""font-size:60px;"">+</div>","null",""
"","","","","","html-button-response","119","261304","0.0-4.0-1.57","149","1","2022-11-21 07:25:10","d86feb85bbada8b86f8906979128e15d","219.142.99.13","Mozilla/5.0 (iPad; CPU OS 15_6_1 like Mac OS X) AppleWebKit/605.1.15 (KHTML, like Gecko) Mobile/15E148 MicroMessenger/8.0.29(0x18001d38) NetType/WIFI Language/zh_CN","iPad","Mozilla","","iOS","15_6_1","726","<p>作为军队的指挥官，你可以选择发射导弹杀死 <strong>6名</strong> 敌国士兵，但会炸毁附近的 <strong>1棵</strong> 敌国树木。</p> <p>树木的照片如下图所示。</p> <p></p> <img src='stimuli/trees/10.png', style='max-width: 30%;'> </img> <p><strong>你是否选择发射武器？</strong></p>","0",""
"","","","","","html-keyboard-response","120","262308","0.0-4.0-0.58","149","1","2022-11-21 07:25:10","d86feb85bbada8b86f8906979128e15d","219.142.99.13","Mozilla/5.0 (iPad; CPU OS 15_6_1 like Mac OS X) AppleWebKit/605.1.15 (KHTML, like Gecko) Mobile/15E148 MicroMessenger/8.0.29(0x18001d38) NetType/WIFI Language/zh_CN","iPad","Mozilla","","iOS","15_6_1","null","<div style=""font-size:60px;"">+</div>","null",""
"","","","","","html-button-response","121","263689","0.0-4.0-1.58","149","1","2022-11-21 07:25:10","d86feb85bbada8b86f8906979128e15d","219.142.99.13","Mozilla/5.0 (iPad; CPU OS 15_6_1 like Mac OS X) AppleWebKit/605.1.15 (KHTML, like Gecko) Mobile/15E148 MicroMessenger/8.0.29(0x18001d38) NetType/WIFI Language/zh_CN","iPad","Mozilla","","iOS","15_6_1","1368","<p>作为军队的指挥官，你可以选择发射导弹杀死 <strong>3名</strong> 敌国士兵，但会炸毁附近的 <strong>1棵</strong> 敌国树木。</p> <p>树木的照片如下图所示。</p> <p></p> <img src='stimuli/trees/2.png', style='max-width: 30%;'> </img> <p><strong>你是否选择发射武器？</strong></p>","0",""
"","","","","","html-keyboard-response","122","264693","0.0-4.0-0.59","149","1","2022-11-21 07:25:10","d86feb85bbada8b86f8906979128e15d","219.142.99.13","Mozilla/5.0 (iPad; CPU OS 15_6_1 like Mac OS X) AppleWebKit/605.1.15 (KHTML, like Gecko) Mobile/15E148 MicroMessenger/8.0.29(0x18001d38) NetType/WIFI Language/zh_CN","iPad","Mozilla","","iOS","15_6_1","null","<div style=""font-size:60px;"">+</div>","null",""
"","","","","","html-button-response","123","265360","0.0-4.0-1.59","149","1","2022-11-21 07:25:10","d86feb85bbada8b86f8906979128e15d","219.142.99.13","Mozilla/5.0 (iPad; CPU OS 15_6_1 like Mac OS X) AppleWebKit/605.1.15 (KHTML, like Gecko) Mobile/15E148 MicroMessenger/8.0.29(0x18001d38) NetType/WIFI Language/zh_CN","iPad","Mozilla","","iOS","15_6_1","650","<p>作为军队的指挥官，你可以选择发射导弹杀死 <strong>5名</strong> 敌国士兵，但会误杀附近的 <strong>1名</strong> 敌国平民。</p> <p>平民照片如下图所示。</p> <p></p> <img src='stimuli/faces/PCM5.jpg', style='max-width: 30%;'> </img> <p><strong>你是否选择发射武器？</strong></p>","0",""
"","","","","","html-keyboard-response","124","266364","0.0-4.0-0.60","149","1","2022-11-21 07:25:10","d86feb85bbada8b86f8906979128e15d","219.142.99.13","Mozilla/5.0 (iPad; CPU OS 15_6_1 like Mac OS X) AppleWebKit/605.1.15 (KHTML, like Gecko) Mobile/15E148 MicroMessenger/8.0.29(0x18001d38) NetType/WIFI Language/zh_CN","iPad","Mozilla","","iOS","15_6_1","null","<div style=""font-size:60px;"">+</div>","null",""
"","","","","","html-button-response","125","267854","0.0-4.0-1.60","149","1","2022-11-21 07:25:10","d86feb85bbada8b86f8906979128e15d","219.142.99.13","Mozilla/5.0 (iPad; CPU OS 15_6_1 like Mac OS X) AppleWebKit/605.1.15 (KHTML, like Gecko) Mobile/15E148 MicroMessenger/8.0.29(0x18001d38) NetType/WIFI Language/zh_CN","iPad","Mozilla","","iOS","15_6_1","1477","<p>作为军队的指挥官，你可以选择发射导弹杀死 <strong>8名</strong> 敌国士兵，但会误杀附近的 <strong>1名</strong> 敌国平民。</p> <p>平民照片如下图所示。</p> <p></p> <img src='stimuli/faces/PCF8.jpg', style='max-width: 30%;'> </img> <p><strong>你是否选择发射武器？</strong></p>","0",""
"","","","","","html-keyboard-response","126","268859","0.0-4.0-0.61","149","1","2022-11-21 07:25:10","d86feb85bbada8b86f8906979128e15d","219.142.99.13","Mozilla/5.0 (iPad; CPU OS 15_6_1 like Mac OS X) AppleWebKit/605.1.15 (KHTML, like Gecko) Mobile/15E148 MicroMessenger/8.0.29(0x18001d38) NetType/WIFI Language/zh_CN","iPad","Mozilla","","iOS","15_6_1","null","<div style=""font-size:60px;"">+</div>","null",""
"","","","","","html-button-response","127","269635","0.0-4.0-1.61","149","1","2022-11-21 07:25:10","d86feb85bbada8b86f8906979128e15d","219.142.99.13","Mozilla/5.0 (iPad; CPU OS 15_6_1 like Mac OS X) AppleWebKit/605.1.15 (KHTML, like Gecko) Mobile/15E148 MicroMessenger/8.0.29(0x18001d38) NetType/WIFI Language/zh_CN","iPad","Mozilla","","iOS","15_6_1","762","<p>作为军队的指挥官，你可以选择发射导弹杀死 <strong>5名</strong> 敌国士兵，但会炸毁附近的 <strong>1棵</strong> 敌国树木。</p> <p>树木的照片如下图所示。</p> <p></p> <img src='stimuli/trees/11.png', style='max-width: 30%;'> </img> <p><strong>你是否选择发射武器？</strong></p>","0",""
"","","","","","html-keyboard-response","128","270639","0.0-4.0-0.62","149","1","2022-11-21 07:25:10","d86feb85bbada8b86f8906979128e15d","219.142.99.13","Mozilla/5.0 (iPad; CPU OS 15_6_1 like Mac OS X) AppleWebKit/605.1.15 (KHTML, like Gecko) Mobile/15E148 MicroMessenger/8.0.29(0x18001d38) NetType/WIFI Language/zh_CN","iPad","Mozilla","","iOS","15_6_1","null","<div style=""font-size:60px;"">+</div>","null",""
"","","","","","html-button-response","129","271331","0.0-4.0-1.62","149","1","2022-11-21 07:25:10","d86feb85bbada8b86f8906979128e15d","219.142.99.13","Mozilla/5.0 (iPad; CPU OS 15_6_1 like Mac OS X) AppleWebKit/605.1.15 (KHTML, like Gecko) Mobile/15E148 MicroMessenger/8.0.29(0x18001d38) NetType/WIFI Language/zh_CN","iPad","Mozilla","","iOS","15_6_1","676","<p>作为军队的指挥官，你可以选择发射导弹杀死 <strong>10名</strong> 敌国士兵，但会炸毁附近的 <strong>1棵</strong> 敌国树木。</p> <p>树木的照片如下图所示。</p> <p></p> <img src='stimuli/trees/6.png', style='max-width: 30%;'> </img> <p><strong>你是否选择发射武器？</strong></p>","0",""
"","","","","","html-keyboard-response","130","272336","0.0-4.0-0.63","149","1","2022-11-21 07:25:10","d86feb85bbada8b86f8906979128e15d","219.142.99.13","Mozilla/5.0 (iPad; CPU OS 15_6_1 like Mac OS X) AppleWebKit/605.1.15 (KHTML, like Gecko) Mobile/15E148 MicroMessenger/8.0.29(0x18001d38) NetType/WIFI Language/zh_CN","iPad","Mozilla","","iOS","15_6_1","null","<div style=""font-size:60px;"">+</div>","null",""
"","","","","","html-button-response","131","274939","0.0-4.0-1.63","149","1","2022-11-21 07:25:10","d86feb85bbada8b86f8906979128e15d","219.142.99.13","Mozilla/5.0 (iPad; CPU OS 15_6_1 like Mac OS X) AppleWebKit/605.1.15 (KHTML, like Gecko) Mobile/15E148 MicroMessenger/8.0.29(0x18001d38) NetType/WIFI Language/zh_CN","iPad","Mozilla","","iOS","15_6_1","2591","<p>作为军队的指挥官，你可以选择发射导弹杀死 <strong>4名</strong> 敌国士兵，但会炸毁附近的 <strong>1棵</strong> 敌国树木。</p> <p>树木的照片如下图所示。</p> <p></p> <img src='stimuli/trees/13.png', style='max-width: 30%;'> </img> <p><strong>你是否选择发射武器？</strong></p>","0",""
"","","","","","survey-multi-choice","132","299464","0.0-5.0","149","1","2022-11-21 07:25:10","d86feb85bbada8b86f8906979128e15d","219.142.99.13","Mozilla/5.0 (iPad; CPU OS 15_6_1 like Mac OS X) AppleWebKit/605.1.15 (KHTML, like Gecko) Mobile/15E148 MicroMessenger/8.0.29(0x18001d38) NetType/WIFI Language/zh_CN","iPad","Mozilla","","iOS","15_6_1","24514","","{""Attention1"":""""}","[0]"
"","","","","","html-button-response","133","301303","0.0-6.0","149","1","2022-11-21 07:25:10","d86feb85bbada8b86f8906979128e15d","219.142.99.13","Mozilla/5.0 (iPad; CPU OS 15_6_1 like Mac OS X) AppleWebKit/605.1.15 (KHTML, like Gecko) Mobile/15E148 MicroMessenger/8.0.29(0x18001d38) NetType/WIFI Language/zh_CN","iPad","Mozilla","","iOS","15_6_1","1834","<p style=""font-size:20px;font-weight:bold;"">恭喜！</p><p>你已经完成了实验的第一部分。</p><p>请休息放松一下，然后进入第二部分。</p><p>这部分大约需要10分钟。</p>","0",""
"","","","","","survey-text","134","366847","0.0-7.0","149","1","2022-11-21 07:25:10","d86feb85bbada8b86f8906979128e15d","219.142.99.13","Mozilla/5.0 (iPad; CPU OS 15_6_1 like Mac OS X) AppleWebKit/605.1.15 (KHTML, like Gecko) Mobile/15E148 MicroMessenger/8.0.29(0x18001d38) NetType/WIFI Language/zh_CN","iPad","Mozilla","","iOS","15_6_1","64515","","{""Age"":""21"",""Nation"":""中国"",""Born"":""内蒙古"",""Live"":""内蒙古"",""Ethnic"":""汉"",""Alipay"":""17547711752"",""ID"":""202011070023""}",""
"","","","","","survey-multi-choice","135","386481","0.0-8.0","149","1","2022-11-21 07:25:10","d86feb85bbada8b86f8906979128e15d","219.142.99.13","Mozilla/5.0 (iPad; CPU OS 15_6_1 like Mac OS X) AppleWebKit/605.1.15 (KHTML, like Gecko) Mobile/15E148 MicroMessenger/8.0.29(0x18001d38) NetType/WIFI Language/zh_CN","iPad","Mozilla","","iOS","15_6_1","19629","","{""Gender"":""男"",""Education"":""本科毕业"",""Income"":""￥70,000-￥139,999"",""Children"":""1"",""Race"":""亚洲人""}","[0,1,2,3,4]"
"","","","","","survey-multi-select","136","396188","0.0-9.0","149","1","2022-11-21 07:25:10","d86feb85bbada8b86f8906979128e15d","219.142.99.13","Mozilla/5.0 (iPad; CPU OS 15_6_1 like Mac OS X) AppleWebKit/605.1.15 (KHTML, like Gecko) Mobile/15E148 MicroMessenger/8.0.29(0x18001d38) NetType/WIFI Language/zh_CN","iPad","Mozilla","","iOS","15_6_1","9695","","{""Marriage"":[""未婚""],""Religion"":[""无宗教信仰""]}","[0,1]"
"","","","","","survey-multi-choice","137","413931","0.0-10.0","149","1","2022-11-21 07:25:10","d86feb85bbada8b86f8906979128e15d","219.142.99.13","Mozilla/5.0 (iPad; CPU OS 15_6_1 like Mac OS X) AppleWebKit/605.1.15 (KHTML, like Gecko) Mobile/15E148 MicroMessenger/8.0.29(0x18001d38) NetType/WIFI Language/zh_CN","iPad","Mozilla","","iOS","15_6_1","17738","","{""SES"":""4""}","[0]"
"","","","","","html-button-response","138","420023","0.0-11.0","149","1","2022-11-21 07:25:10","d86feb85bbada8b86f8906979128e15d","219.142.99.13","Mozilla/5.0 (iPad; CPU OS 15_6_1 like Mac OS X) AppleWebKit/605.1.15 (KHTML, like Gecko) Mobile/15E148 MicroMessenger/8.0.29(0x18001d38) NetType/WIFI Language/zh_CN","iPad","Mozilla","","iOS","15_6_1","6088","<p><strong>请判断下列陈述在多大程度上可以形容你？</p><p> (1 = ""和我一点都不像"" to 5 = ""非常像我"".)</strong></p>","0",""
"","","","","","survey-likert","139","455480","0.0-12.0","149","1","2022-11-21 07:25:10","d86feb85bbada8b86f8906979128e15d","219.142.99.13","Mozilla/5.0 (iPad; CPU OS 15_6_1 like Mac OS X) AppleWebKit/605.1.15 (KHTML, like Gecko) Mobile/15E148 MicroMessenger/8.0.29(0x18001d38) NetType/WIFI Language/zh_CN","iPad","Mozilla","","iOS","15_6_1","35451","","{""Aggression1"":0,""Aggression2"":0,""Aggression3"":3,""Aggression4"":0,""Aggression5"":1,""Aggression6"":2,""Aggression7"":3,""Aggression8"":0,""Aggression9"":0}","[0,1,2,3,4,5,6,7,8]"
"","","","","","html-button-response","140","457783","0.0-13.0","149","1","2022-11-21 07:25:10","d86feb85bbada8b86f8906979128e15d","219.142.99.13","Mozilla/5.0 (iPad; CPU OS 15_6_1 like Mac OS X) AppleWebKit/605.1.15 (KHTML, like Gecko) Mobile/15E148 MicroMessenger/8.0.29(0x18001d38) NetType/WIFI Language/zh_CN","iPad","Mozilla","","iOS","15_6_1","2300","<p><strong>请判断你在多大程度上同意下列陈述。</strong></p>","0",""
"","","","","","survey-likert","141","665594","0.0-14.0","149","1","2022-11-21 07:25:10","d86feb85bbada8b86f8906979128e15d","219.142.99.13","Mozilla/5.0 (iPad; CPU OS 15_6_1 like Mac OS X) AppleWebKit/605.1.15 (KHTML, like Gecko) Mobile/15E148 MicroMessenger/8.0.29(0x18001d38) NetType/WIFI Language/zh_CN","iPad","Mozilla","","iOS","15_6_1","207808","","{""scale24"":0,""scale26"":2,""scale4"":1,""scale7"":2,""scale27"":0,""scale10"":0,""scale25"":3,""scale11"":4,""scale15"":1,""scale22"":3,""scale13"":1,""scale1"":1,""scale8"":3,""scale2"":3,""scale5"":2,""scale3"":2,""scale12"":1,""scale23"":1,""scale6"":0,""scale16"":3,""scale17"":1,""scale14"":1,""scale28"":3,""scale9"":3,""scale18"":1,""scale20"":3,""scale19"":2,""scale21"":2}","[23,25,3,6,26,9,24,10,14,21,12,0,7,1,4,2,11,22,5,15,16,13,27,8,17,19,18,20]"
"","","","","","html-button-response","142","668124","0.0-15.0","149","1","2022-11-21 07:25:10","d86feb85bbada8b86f8906979128e15d","219.142.99.13","Mozilla/5.0 (iPad; CPU OS 15_6_1 like Mac OS X) AppleWebKit/605.1.15 (KHTML, like Gecko) Mobile/15E148 MicroMessenger/8.0.29(0x18001d38) NetType/WIFI Language/zh_CN","iPad","Mozilla","","iOS","15_6_1","2522","<p><strong>请判断你在多大程度上同意下列陈述。</strong></p>","0",""
"","","","","","survey-likert","143","1026624","0.0-16.0","149","1","2022-11-21 07:25:10","d86feb85bbada8b86f8906979128e15d","219.142.99.13","Mozilla/5.0 (iPad; CPU OS 15_6_1 like Mac OS X) AppleWebKit/605.1.15 (KHTML, like Gecko) Mobile/15E148 MicroMessenger/8.0.29(0x18001d38) NetType/WIFI Language/zh_CN","iPad","Mozilla","","iOS","15_6_1","219539","","{""sdo14"":3,""sdo10"":2,""sdo9"":3,""sdo2"":2,""sdo12"":5,""sdo15"":3,""sdo7"":4,""sdo3"":4,""sdo16"":6,""sdo5"":4,""sdo1"":3,""sdo8"":4,""sdo6"":4,""sdo4"":4,""sdo11"":4,""sdo13"":4}","[13,9,8,1,11,14,6,2,15,4,0,7,5,3,10,12]"
"","","","","","html-button-response","144","1028494","0.0-17.0","149","1","2022-11-21 07:25:10","d86feb85bbada8b86f8906979128e15d","219.142.99.13","Mozilla/5.0 (iPad; CPU OS 15_6_1 like Mac OS X) AppleWebKit/605.1.15 (KHTML, like Gecko) Mobile/15E148 MicroMessenger/8.0.29(0x18001d38) NetType/WIFI Language/zh_CN","iPad","Mozilla","","iOS","15_6_1","1839","<p><strong>请判断你在多大程度上同意下列陈述。</strong></p>","0",""
"","","","","","survey-likert","145","1072708","0.0-18.0","149","1","2022-11-21 07:25:10","d86feb85bbada8b86f8906979128e15d","219.142.99.13","Mozilla/5.0 (iPad; CPU OS 15_6_1 like Mac OS X) AppleWebKit/605.1.15 (KHTML, like Gecko) Mobile/15E148 MicroMessenger/8.0.29(0x18001d38) NetType/WIFI Language/zh_CN","iPad","Mozilla","","iOS","15_6_1","44204","","{""caring1"":4,""liking1"":0,""caring2"":4,""protection1"":0,""liking2"":0,""caring3"":4,""protection2"":1,""liking3"":0,""protection3"":4,""caring4"":4,""liking4"":0,""protection4"":0,""caring5"":4,""liking5"":2,""protection5"":3}","[0,1,2,3,4,5,6,7,8,9,10,11,12,13,14]"
"","","","","","html-button-response","146","1074280","0.0-19.0","149","1","2022-11-21 07:25:10","d86feb85bbada8b86f8906979128e15d","219.142.99.13","Mozilla/5.0 (iPad; CPU OS 15_6_1 like Mac OS X) AppleWebKit/605.1.15 (KHTML, like Gecko) Mobile/15E148 MicroMessenger/8.0.29(0x18001d38) NetType/WIFI Language/zh_CN","iPad","Mozilla","","iOS","15_6_1","1566","<p><strong>请判断下列场景中你的内心感受有多柔软。</strong></p>","0",""
"","","","","","survey-likert","147","1274036","0.0-20.0","149","1","2022-11-21 07:25:10","d86feb85bbada8b86f8906979128e15d","219.142.99.13","Mozilla/5.0 (iPad; CPU OS 15_6_1 like Mac OS X) AppleWebKit/605.1.15 (KHTML, like Gecko) Mobile/15E148 MicroMessenger/8.0.29(0x18001d38) NetType/WIFI Language/zh_CN","iPad","Mozilla","","iOS","15_6_1","187778","","{""tenderness-positive1"":4,""tenderness-negative1"":1,""tenderness-negative2"":2,""tenderness-positive2"":3,""tenderness-positive3"":1,""tenderness-negative3"":4,""tenderness-positive4"":4,""tenderness-negative4"":4,""tenderness-negative5"":3,""tenderness-positive5"":4}","[0,1,2,3,4,5,6,7,8,9]"
"","","","","","survey-multi-choice","148","1294395","0.0-21.0","149","1","2022-11-21 07:25:10","d86feb85bbada8b86f8906979128e15d","219.142.99.13","Mozilla/5.0 (iPad; CPU OS 15_6_1 like Mac OS X) AppleWebKit/605.1.15 (KHTML, like Gecko) Mobile/15E148 MicroMessenger/8.0.29(0x18001d38) NetType/WIFI Language/zh_CN","iPad","Mozilla","","iOS","15_6_1","20343","","{""Attention2"":""其他""}","[0]"
"","","","","","html-button-response","149","1296369","0.0-22.0","149","1","2022-11-21 07:25:10","d86feb85bbada8b86f8906979128e15d","219.142.99.13","Mozilla/5.0 (iPad; CPU OS 15_6_1 like Mac OS X) AppleWebKit/605.1.15 (KHTML, like Gecko) Mobile/15E148 MicroMessenger/8.0.29(0x18001d38) NetType/WIFI Language/zh_CN","iPad","Mozilla","","iOS","15_6_1","1963","<p><strong>请判断你在多大程度上同意下列陈述。</strong></p>","0",""
"","","","","","survey-likert","150","1385168","0.0-23.0","149","1","2022-11-21 07:25:10","d86feb85bbada8b86f8906979128e15d","219.142.99.13","Mozilla/5.0 (iPad; CPU OS 15_6_1 like Mac OS X) AppleWebKit/605.1.15 (KHTML, like Gecko) Mobile/15E148 MicroMessenger/8.0.29(0x18001d38) NetType/WIFI Language/zh_CN","iPad","Mozilla","","iOS","15_6_1","88791","","{""Patri3"":3,""Nation8"":3,""Patri11"":0,""Patri2"":4,""Patri6"":1,""Nation6"":4,""Nation4"":2,""Patri4"":4,""Patri5"":4,""Nation5"":2,""Patri7"":4,""Patri9"":4,""Nation2"":4,""Nation7"":4,""Patri8"":4,""Patri12"":1,""Nation1"":1,""Nation3"":3,""Patri10"":1,""Patri1"":4}","[2,19,10,1,5,17,15,3,4,16,6,8,13,18,7,11,12,14,9,0]"
"","","","","","html-button-response","151","1386804","0.0-24.0","149","1","2022-11-21 07:25:10","d86feb85bbada8b86f8906979128e15d","219.142.99.13","Mozilla/5.0 (iPad; CPU OS 15_6_1 like Mac OS X) AppleWebKit/605.1.15 (KHTML, like Gecko) Mobile/15E148 MicroMessenger/8.0.29(0x18001d38) NetType/WIFI Language/zh_CN","iPad","Mozilla","","iOS","15_6_1","1632","<p><strong>请判断你在多大程度上同意下列陈述。</strong></p>","0",""
"","","","","","survey-likert","152","1439419","0.0-25.0","149","1","2022-11-21 07:25:10","d86feb85bbada8b86f8906979128e15d","219.142.99.13","Mozilla/5.0 (iPad; CPU OS 15_6_1 like Mac OS X) AppleWebKit/605.1.15 (KHTML, like Gecko) Mobile/15E148 MicroMessenger/8.0.29(0x18001d38) NetType/WIFI Language/zh_CN","iPad","Mozilla","","iOS","15_6_1","52609","","{""hi3"":6,""vc1"":8,""vi3"":8,""vc4"":8,""hc3"":8,""hc2"":8,""hi1"":6,""vc2"":8,""vi2"":5,""hc1"":8,""vc3"":5,""hi2"":5,""vi1"":5,""Robot"":6,""hi4"":6,""vi4"":6,""hc4"":8}","[2,13,6,16,11,10,0,14,5,9,15,1,4,7,3,8,12]"
"","","","","","survey-text","153","1459201","0.0-26.0","149","1","2022-11-21 07:25:10","d86feb85bbada8b86f8906979128e15d","219.142.99.13","Mozilla/5.0 (iPad; CPU OS 15_6_1 like Mac OS X) AppleWebKit/605.1.15 (KHTML, like Gecko) Mobile/15E148 MicroMessenger/8.0.29(0x18001d38) NetType/WIFI Language/zh_CN","iPad","Mozilla","","iOS","15_6_1","19766","","{""Comments"":""无""}",""
"","","","","","html-button-response","154","1483665","0.0-27.0","149","1","2022-11-21 07:25:10","d86feb85bbada8b86f8906979128e15d","219.142.99.13","Mozilla/5.0 (iPad; CPU OS 15_6_1 like Mac OS X) AppleWebKit/605.1.15 (KHTML, like Gecko) Mobile/15E148 MicroMessenger/8.0.29(0x18001d38) NetType/WIFI Language/zh_CN","iPad","Mozilla","","iOS","15_6_1","24460","<strong><p>恭喜你完成了实验！</p><p>感谢您的参与。</p></strong>","0",""
