"success","timeout","failed_images","failed_audio","failed_video","trial_type","trial_index","time_elapsed","internal_node_id","run_id","condition","recorded_at","source_code_version","ip","user_agent","device","browser","browser_version","platform","platform_version","rt","stimulus","response","question_order"
"true","false","[]","[]","[]","preload","0","2344","0.0-0.0","164","1","2022-11-21 09:29:41","7b1eb8be57ff77859c7d9ac988e43411","219.142.99.15","Mozilla/5.0 (Windows NT 10.0; Win64; x64; rv:107.0) Gecko/20100101 Firefox/107.0","","Firefox","107.0","Windows","10.0","","","",""
"true","","","","","fullscreen","1","5071","0.0-1.0","164","1","2022-11-21 09:29:41","7b1eb8be57ff77859c7d9ac988e43411","219.142.99.15","Mozilla/5.0 (Windows NT 10.0; Win64; x64; rv:107.0) Gecko/20100101 Firefox/107.0","","Firefox","107.0","Windows","10.0","","","",""
"","","","","","html-button-response","2","8069","0.0-2.0","164","1","2022-11-21 09:29:41","7b1eb8be57ff77859c7d9ac988e43411","219.142.99.15","Mozilla/5.0 (Windows NT 10.0; Win64; x64; rv:107.0) Gecko/20100101 Firefox/107.0","","Firefox","107.0","Windows","10.0","2995","<p style=""font-size:20px;font-weight:bold;"">实验知情同意书</p><p style=""text-align:left;""><strong>实验名称：</strong>社会冲突研究</p><p style=""text-align:left;""><strong>主要研究者：</strong>韩晓春副教授（北京师范大学心理学部）</p><p style=""text-align:left;""><strong>联系方式：</strong>发送邮件至xiaochun.han@bnu.edu.cn</p><p style=""text-align:left;""><strong>研究目的：</strong>研究旨在了解人类面对群体冲突时的决策方式，以及相关的心理学特质。实验调查大约需要20分钟。</p><p style=""text-align:left;""><strong>实验流程：</strong>实验包含两部分。第一部分呈现一系列群体冲突场景，请你决定如何对这些冲突进行反应，大约需要10分钟完成。第二部分包含一系列人口统计学信息收集和心理学问卷，大约需要10分钟完成。</p><p style=""text-align:left;""><strong>参加及退出规则：</strong>参加本实验完全取决于您的个人意愿。在参与过程中，您可以随时退出，并且不用承担任何后果。</p><p style=""text-align:left;""><strong>隐私：</strong>本实验完全匿名进行，不会收集您的姓名或其他能够识别您身份的信息。实验中收集的作答仅用作科学研究使用，可能会在学术期刊/书籍上发表，或者用于教学，您的数据未来可能会和其他研究者或实验室分享，但您的个人身份不会被识别。</p><p style=""text-align:left;""><strong>实验报酬：</strong>实验完成后，您将获得15元人民币报酬，以感谢您的时间和努力。调查问卷中包含几道题目用以测验您作答时的认真度。只有完成全部实验，并且正确回答认真度测验的被试才能获得实验报酬。实验报酬将通过支付宝转账发放。</p><p style=""text-align:left;font-size:20px;""><strong>如果您同意以上实验知情同意书的内容，请点击'同意并且开始实验'按钮；否则请关闭浏览器界面，退出实验。</strong></p>","0",""
"","","","","","html-button-response","3","21437","0.0-3.0","164","1","2022-11-21 09:29:41","7b1eb8be57ff77859c7d9ac988e43411","219.142.99.15","Mozilla/5.0 (Windows NT 10.0; Win64; x64; rv:107.0) Gecko/20100101 Firefox/107.0","","Firefox","107.0","Windows","10.0","13366","<p ><strong>实验任务一：</strong></p><p>请想象你的国家与另一个国家发生了军事冲突。</p><p>你是国家军队的指挥官，你将如何在冲突中进行决策。</p><p>具体来说，作为军队指挥官，请你决定是否发射导弹进行打击。</p><p>接下来，你会面对一系列场景，请仔细阅读每个场景，然后进行决策。</p><p>这部分实验任务大约需要10分钟。</p><p><strong>实验过程中，请集中注意力。</strong></p>","0",""
"","","","","","html-keyboard-response","4","22451","0.0-4.0-0.0","164","1","2022-11-21 09:29:41","7b1eb8be57ff77859c7d9ac988e43411","219.142.99.15","Mozilla/5.0 (Windows NT 10.0; Win64; x64; rv:107.0) Gecko/20100101 Firefox/107.0","","Firefox","107.0","Windows","10.0","null","<div style=""font-size:60px;"">+</div>","null",""
"","","","","","html-button-response","5","26034","0.0-4.0-1.0","164","1","2022-11-21 09:29:41","7b1eb8be57ff77859c7d9ac988e43411","219.142.99.15","Mozilla/5.0 (Windows NT 10.0; Win64; x64; rv:107.0) Gecko/20100101 Firefox/107.0","","Firefox","107.0","Windows","10.0","3582","<p>作为军队的指挥官，你可以选择发射导弹杀死 <strong>2名</strong> 敌国士兵，但会炸毁附近的 <strong>1棵</strong> 敌国树木。</p> <p>树木的照片如下图所示。</p> <p></p> <img src='stimuli/trees/4.png', style='max-width: 30%;'> </img> <p><strong>你是否选择发射武器？</strong></p>","0",""
"","","","","","html-keyboard-response","6","27046","0.0-4.0-0.1","164","1","2022-11-21 09:29:41","7b1eb8be57ff77859c7d9ac988e43411","219.142.99.15","Mozilla/5.0 (Windows NT 10.0; Win64; x64; rv:107.0) Gecko/20100101 Firefox/107.0","","Firefox","107.0","Windows","10.0","null","<div style=""font-size:60px;"">+</div>","null",""
"","","","","","html-button-response","7","36013","0.0-4.0-1.1","164","1","2022-11-21 09:29:41","7b1eb8be57ff77859c7d9ac988e43411","219.142.99.15","Mozilla/5.0 (Windows NT 10.0; Win64; x64; rv:107.0) Gecko/20100101 Firefox/107.0","","Firefox","107.0","Windows","10.0","8965","<p>作为军队的指挥官，你可以选择发射导弹杀死 <strong>7名</strong> 敌国士兵，但会误杀附近的 <strong>1名</strong> 敌国平民。</p> <p>平民照片如下图所示。</p> <p></p> <img src='stimuli/faces/PCM1.jpg', style='max-width: 30%;'> </img> <p><strong>你是否选择发射武器？</strong></p>","0",""
"","","","","","html-keyboard-response","8","37015","0.0-4.0-0.2","164","1","2022-11-21 09:29:41","7b1eb8be57ff77859c7d9ac988e43411","219.142.99.15","Mozilla/5.0 (Windows NT 10.0; Win64; x64; rv:107.0) Gecko/20100101 Firefox/107.0","","Firefox","107.0","Windows","10.0","null","<div style=""font-size:60px;"">+</div>","null",""
"","","","","","html-button-response","9","39805","0.0-4.0-1.2","164","1","2022-11-21 09:29:41","7b1eb8be57ff77859c7d9ac988e43411","219.142.99.15","Mozilla/5.0 (Windows NT 10.0; Win64; x64; rv:107.0) Gecko/20100101 Firefox/107.0","","Firefox","107.0","Windows","10.0","2789","<p>作为军队的指挥官，你可以选择发射导弹杀死 <strong>8名</strong> 敌国士兵，但会炸毁附近的 <strong>1棵</strong> 敌国树木。</p> <p>树木的照片如下图所示。</p> <p></p> <img src='stimuli/trees/2.png', style='max-width: 30%;'> </img> <p><strong>你是否选择发射武器？</strong></p>","0",""
"","","","","","html-keyboard-response","10","40812","0.0-4.0-0.3","164","1","2022-11-21 09:29:41","7b1eb8be57ff77859c7d9ac988e43411","219.142.99.15","Mozilla/5.0 (Windows NT 10.0; Win64; x64; rv:107.0) Gecko/20100101 Firefox/107.0","","Firefox","107.0","Windows","10.0","null","<div style=""font-size:60px;"">+</div>","null",""
"","","","","","html-button-response","11","43499","0.0-4.0-1.3","164","1","2022-11-21 09:29:41","7b1eb8be57ff77859c7d9ac988e43411","219.142.99.15","Mozilla/5.0 (Windows NT 10.0; Win64; x64; rv:107.0) Gecko/20100101 Firefox/107.0","","Firefox","107.0","Windows","10.0","2686","<p>作为军队的指挥官，你可以选择发射导弹杀死 <strong>1名</strong> 敌国士兵，但会炸毁附近的 <strong>1棵</strong> 敌国树木。</p> <p>树木的照片如下图所示。</p> <p></p> <img src='stimuli/trees/13.png', style='max-width: 30%;'> </img> <p><strong>你是否选择发射武器？</strong></p>","0",""
"","","","","","html-keyboard-response","12","44509","0.0-4.0-0.4","164","1","2022-11-21 09:29:41","7b1eb8be57ff77859c7d9ac988e43411","219.142.99.15","Mozilla/5.0 (Windows NT 10.0; Win64; x64; rv:107.0) Gecko/20100101 Firefox/107.0","","Firefox","107.0","Windows","10.0","null","<div style=""font-size:60px;"">+</div>","null",""
"","","","","","html-button-response","13","47381","0.0-4.0-1.4","164","1","2022-11-21 09:29:41","7b1eb8be57ff77859c7d9ac988e43411","219.142.99.15","Mozilla/5.0 (Windows NT 10.0; Win64; x64; rv:107.0) Gecko/20100101 Firefox/107.0","","Firefox","107.0","Windows","10.0","2871","<p>作为军队的指挥官，你可以选择发射导弹杀死 <strong>7名</strong> 敌国士兵，但会炸毁附近的 <strong>1棵</strong> 敌国树木。</p> <p>树木的照片如下图所示。</p> <p></p> <img src='stimuli/trees/12.png', style='max-width: 30%;'> </img> <p><strong>你是否选择发射武器？</strong></p>","0",""
"","","","","","html-keyboard-response","14","48389","0.0-4.0-0.5","164","1","2022-11-21 09:29:41","7b1eb8be57ff77859c7d9ac988e43411","219.142.99.15","Mozilla/5.0 (Windows NT 10.0; Win64; x64; rv:107.0) Gecko/20100101 Firefox/107.0","","Firefox","107.0","Windows","10.0","null","<div style=""font-size:60px;"">+</div>","null",""
"","","","","","html-button-response","15","50413","0.0-4.0-1.5","164","1","2022-11-21 09:29:41","7b1eb8be57ff77859c7d9ac988e43411","219.142.99.15","Mozilla/5.0 (Windows NT 10.0; Win64; x64; rv:107.0) Gecko/20100101 Firefox/107.0","","Firefox","107.0","Windows","10.0","2022","<p>作为军队的指挥官，你可以选择发射导弹杀死 <strong>10名</strong> 敌国士兵，但会炸毁附近的 <strong>1棵</strong> 敌国树木。</p> <p>树木的照片如下图所示。</p> <p></p> <img src='stimuli/trees/1.png', style='max-width: 30%;'> </img> <p><strong>你是否选择发射武器？</strong></p>","0",""
"","","","","","html-keyboard-response","16","51416","0.0-4.0-0.6","164","1","2022-11-21 09:29:41","7b1eb8be57ff77859c7d9ac988e43411","219.142.99.15","Mozilla/5.0 (Windows NT 10.0; Win64; x64; rv:107.0) Gecko/20100101 Firefox/107.0","","Firefox","107.0","Windows","10.0","null","<div style=""font-size:60px;"">+</div>","null",""
"","","","","","html-button-response","17","56851","0.0-4.0-1.6","164","1","2022-11-21 09:29:41","7b1eb8be57ff77859c7d9ac988e43411","219.142.99.15","Mozilla/5.0 (Windows NT 10.0; Win64; x64; rv:107.0) Gecko/20100101 Firefox/107.0","","Firefox","107.0","Windows","10.0","5434","<p>作为军队的指挥官，你可以选择发射导弹杀死 <strong>2名</strong> 敌国士兵，但会炸毁附近的 <strong>1棵</strong> 敌国树木。</p> <p>树木的照片如下图所示。</p> <p></p> <img src='stimuli/trees/6.png', style='max-width: 30%;'> </img> <p><strong>你是否选择发射武器？</strong></p>","0",""
"","","","","","html-keyboard-response","18","57865","0.0-4.0-0.7","164","1","2022-11-21 09:29:41","7b1eb8be57ff77859c7d9ac988e43411","219.142.99.15","Mozilla/5.0 (Windows NT 10.0; Win64; x64; rv:107.0) Gecko/20100101 Firefox/107.0","","Firefox","107.0","Windows","10.0","null","<div style=""font-size:60px;"">+</div>","null",""
"","","","","","html-button-response","19","60635","0.0-4.0-1.7","164","1","2022-11-21 09:29:41","7b1eb8be57ff77859c7d9ac988e43411","219.142.99.15","Mozilla/5.0 (Windows NT 10.0; Win64; x64; rv:107.0) Gecko/20100101 Firefox/107.0","","Firefox","107.0","Windows","10.0","2769","<p>作为军队的指挥官，你可以选择发射导弹杀死 <strong>6名</strong> 敌国士兵，但会炸毁附近的 <strong>1棵</strong> 敌国树木。</p> <p>树木的照片如下图所示。</p> <p></p> <img src='stimuli/trees/11.png', style='max-width: 30%;'> </img> <p><strong>你是否选择发射武器？</strong></p>","0",""
"","","","","","html-keyboard-response","20","61649","0.0-4.0-0.8","164","1","2022-11-21 09:29:41","7b1eb8be57ff77859c7d9ac988e43411","219.142.99.15","Mozilla/5.0 (Windows NT 10.0; Win64; x64; rv:107.0) Gecko/20100101 Firefox/107.0","","Firefox","107.0","Windows","10.0","null","<div style=""font-size:60px;"">+</div>","null",""
"","","","","","html-button-response","21","63301","0.0-4.0-1.8","164","1","2022-11-21 09:29:41","7b1eb8be57ff77859c7d9ac988e43411","219.142.99.15","Mozilla/5.0 (Windows NT 10.0; Win64; x64; rv:107.0) Gecko/20100101 Firefox/107.0","","Firefox","107.0","Windows","10.0","1650","<p>作为军队的指挥官，你可以选择发射导弹杀死 <strong>2名</strong> 敌国士兵，但会炸毁附近的 <strong>1棵</strong> 敌国树木。</p> <p>树木的照片如下图所示。</p> <p></p> <img src='stimuli/trees/3.png', style='max-width: 30%;'> </img> <p><strong>你是否选择发射武器？</strong></p>","0",""
"","","","","","html-keyboard-response","22","64306","0.0-4.0-0.9","164","1","2022-11-21 09:29:41","7b1eb8be57ff77859c7d9ac988e43411","219.142.99.15","Mozilla/5.0 (Windows NT 10.0; Win64; x64; rv:107.0) Gecko/20100101 Firefox/107.0","","Firefox","107.0","Windows","10.0","null","<div style=""font-size:60px;"">+</div>","null",""
"","","","","","html-button-response","23","69111","0.0-4.0-1.9","164","1","2022-11-21 09:29:41","7b1eb8be57ff77859c7d9ac988e43411","219.142.99.15","Mozilla/5.0 (Windows NT 10.0; Win64; x64; rv:107.0) Gecko/20100101 Firefox/107.0","","Firefox","107.0","Windows","10.0","4803","<p>作为军队的指挥官，你可以选择发射导弹杀死 <strong>5名</strong> 敌国士兵，但会炸毁附近的 <strong>1棵</strong> 敌国树木。</p> <p>树木的照片如下图所示。</p> <p></p> <img src='stimuli/trees/8.png', style='max-width: 30%;'> </img> <p><strong>你是否选择发射武器？</strong></p>","0",""
"","","","","","html-keyboard-response","24","70125","0.0-4.0-0.10","164","1","2022-11-21 09:29:41","7b1eb8be57ff77859c7d9ac988e43411","219.142.99.15","Mozilla/5.0 (Windows NT 10.0; Win64; x64; rv:107.0) Gecko/20100101 Firefox/107.0","","Firefox","107.0","Windows","10.0","null","<div style=""font-size:60px;"">+</div>","null",""
"","","","","","html-button-response","25","73203","0.0-4.0-1.10","164","1","2022-11-21 09:29:41","7b1eb8be57ff77859c7d9ac988e43411","219.142.99.15","Mozilla/5.0 (Windows NT 10.0; Win64; x64; rv:107.0) Gecko/20100101 Firefox/107.0","","Firefox","107.0","Windows","10.0","3075","<p>作为军队的指挥官，你可以选择发射导弹杀死 <strong>9名</strong> 敌国士兵，但会误杀附近的 <strong>1名</strong> 敌国平民。</p> <p>平民照片如下图所示。</p> <p></p> <img src='stimuli/faces/PCM2.jpg', style='max-width: 30%;'> </img> <p><strong>你是否选择发射武器？</strong></p>","0",""
"","","","","","html-keyboard-response","26","74219","0.0-4.0-0.11","164","1","2022-11-21 09:29:41","7b1eb8be57ff77859c7d9ac988e43411","219.142.99.15","Mozilla/5.0 (Windows NT 10.0; Win64; x64; rv:107.0) Gecko/20100101 Firefox/107.0","","Firefox","107.0","Windows","10.0","null","<div style=""font-size:60px;"">+</div>","null",""
"","","","","","html-button-response","27","75885","0.0-4.0-1.11","164","1","2022-11-21 09:29:41","7b1eb8be57ff77859c7d9ac988e43411","219.142.99.15","Mozilla/5.0 (Windows NT 10.0; Win64; x64; rv:107.0) Gecko/20100101 Firefox/107.0","","Firefox","107.0","Windows","10.0","1664","<p>作为军队的指挥官，你可以选择发射导弹杀死 <strong>5名</strong> 敌国士兵，但会误杀附近的 <strong>1名</strong> 敌国平民。</p> <p>平民照片如下图所示。</p> <p></p> <img src='stimuli/faces/PCM2.jpg', style='max-width: 30%;'> </img> <p><strong>你是否选择发射武器？</strong></p>","0",""
"","","","","","html-keyboard-response","28","76900","0.0-4.0-0.12","164","1","2022-11-21 09:29:41","7b1eb8be57ff77859c7d9ac988e43411","219.142.99.15","Mozilla/5.0 (Windows NT 10.0; Win64; x64; rv:107.0) Gecko/20100101 Firefox/107.0","","Firefox","107.0","Windows","10.0","null","<div style=""font-size:60px;"">+</div>","null",""
"","","","","","html-button-response","29","78573","0.0-4.0-1.12","164","1","2022-11-21 09:29:41","7b1eb8be57ff77859c7d9ac988e43411","219.142.99.15","Mozilla/5.0 (Windows NT 10.0; Win64; x64; rv:107.0) Gecko/20100101 Firefox/107.0","","Firefox","107.0","Windows","10.0","1672","<p>作为军队的指挥官，你可以选择发射导弹杀死 <strong>6名</strong> 敌国士兵，但会炸毁附近的 <strong>1棵</strong> 敌国树木。</p> <p>树木的照片如下图所示。</p> <p></p> <img src='stimuli/trees/15.png', style='max-width: 30%;'> </img> <p><strong>你是否选择发射武器？</strong></p>","0",""
"","","","","","html-keyboard-response","30","79582","0.0-4.0-0.13","164","1","2022-11-21 09:29:41","7b1eb8be57ff77859c7d9ac988e43411","219.142.99.15","Mozilla/5.0 (Windows NT 10.0; Win64; x64; rv:107.0) Gecko/20100101 Firefox/107.0","","Firefox","107.0","Windows","10.0","null","<div style=""font-size:60px;"">+</div>","null",""
"","","","","","html-button-response","31","82449","0.0-4.0-1.13","164","1","2022-11-21 09:29:41","7b1eb8be57ff77859c7d9ac988e43411","219.142.99.15","Mozilla/5.0 (Windows NT 10.0; Win64; x64; rv:107.0) Gecko/20100101 Firefox/107.0","","Firefox","107.0","Windows","10.0","2866","<p>作为军队的指挥官，你可以选择发射导弹杀死 <strong>8名</strong> 敌国士兵，但会误杀附近的 <strong>1名</strong> 敌国平民。</p> <p>平民照片如下图所示。</p> <p></p> <img src='stimuli/faces/PCF1.jpg', style='max-width: 30%;'> </img> <p><strong>你是否选择发射武器？</strong></p>","0",""
"","","","","","html-keyboard-response","32","83451","0.0-4.0-0.14","164","1","2022-11-21 09:29:41","7b1eb8be57ff77859c7d9ac988e43411","219.142.99.15","Mozilla/5.0 (Windows NT 10.0; Win64; x64; rv:107.0) Gecko/20100101 Firefox/107.0","","Firefox","107.0","Windows","10.0","null","<div style=""font-size:60px;"">+</div>","null",""
"","","","","","html-button-response","33","84587","0.0-4.0-1.14","164","1","2022-11-21 09:29:41","7b1eb8be57ff77859c7d9ac988e43411","219.142.99.15","Mozilla/5.0 (Windows NT 10.0; Win64; x64; rv:107.0) Gecko/20100101 Firefox/107.0","","Firefox","107.0","Windows","10.0","1133","<p>作为军队的指挥官，你可以选择发射导弹杀死 <strong>7名</strong> 敌国士兵，但会炸毁附近的 <strong>1棵</strong> 敌国树木。</p> <p>树木的照片如下图所示。</p> <p></p> <img src='stimuli/trees/3.png', style='max-width: 30%;'> </img> <p><strong>你是否选择发射武器？</strong></p>","0",""
"","","","","","html-keyboard-response","34","85590","0.0-4.0-0.15","164","1","2022-11-21 09:29:41","7b1eb8be57ff77859c7d9ac988e43411","219.142.99.15","Mozilla/5.0 (Windows NT 10.0; Win64; x64; rv:107.0) Gecko/20100101 Firefox/107.0","","Firefox","107.0","Windows","10.0","null","<div style=""font-size:60px;"">+</div>","null",""
"","","","","","html-button-response","35","87159","0.0-4.0-1.15","164","1","2022-11-21 09:29:41","7b1eb8be57ff77859c7d9ac988e43411","219.142.99.15","Mozilla/5.0 (Windows NT 10.0; Win64; x64; rv:107.0) Gecko/20100101 Firefox/107.0","","Firefox","107.0","Windows","10.0","1568","<p>作为军队的指挥官，你可以选择发射导弹杀死 <strong>7名</strong> 敌国士兵，但会误杀附近的 <strong>1名</strong> 敌国平民。</p> <p>平民照片如下图所示。</p> <p></p> <img src='stimuli/faces/PCM8.jpg', style='max-width: 30%;'> </img> <p><strong>你是否选择发射武器？</strong></p>","0",""
"","","","","","html-keyboard-response","36","88167","0.0-4.0-0.16","164","1","2022-11-21 09:29:41","7b1eb8be57ff77859c7d9ac988e43411","219.142.99.15","Mozilla/5.0 (Windows NT 10.0; Win64; x64; rv:107.0) Gecko/20100101 Firefox/107.0","","Firefox","107.0","Windows","10.0","null","<div style=""font-size:60px;"">+</div>","null",""
"","","","","","html-button-response","37","89515","0.0-4.0-1.16","164","1","2022-11-21 09:29:41","7b1eb8be57ff77859c7d9ac988e43411","219.142.99.15","Mozilla/5.0 (Windows NT 10.0; Win64; x64; rv:107.0) Gecko/20100101 Firefox/107.0","","Firefox","107.0","Windows","10.0","1346","<p>作为军队的指挥官，你可以选择发射导弹杀死 <strong>8名</strong> 敌国士兵，但会炸毁附近的 <strong>1棵</strong> 敌国树木。</p> <p>树木的照片如下图所示。</p> <p></p> <img src='stimuli/trees/5.png', style='max-width: 30%;'> </img> <p><strong>你是否选择发射武器？</strong></p>","0",""
"","","","","","html-keyboard-response","38","90519","0.0-4.0-0.17","164","1","2022-11-21 09:29:41","7b1eb8be57ff77859c7d9ac988e43411","219.142.99.15","Mozilla/5.0 (Windows NT 10.0; Win64; x64; rv:107.0) Gecko/20100101 Firefox/107.0","","Firefox","107.0","Windows","10.0","null","<div style=""font-size:60px;"">+</div>","null",""
"","","","","","html-button-response","39","91501","0.0-4.0-1.17","164","1","2022-11-21 09:29:41","7b1eb8be57ff77859c7d9ac988e43411","219.142.99.15","Mozilla/5.0 (Windows NT 10.0; Win64; x64; rv:107.0) Gecko/20100101 Firefox/107.0","","Firefox","107.0","Windows","10.0","980","<p>作为军队的指挥官，你可以选择发射导弹杀死 <strong>9名</strong> 敌国士兵，但会炸毁附近的 <strong>1棵</strong> 敌国树木。</p> <p>树木的照片如下图所示。</p> <p></p> <img src='stimuli/trees/6.png', style='max-width: 30%;'> </img> <p><strong>你是否选择发射武器？</strong></p>","0",""
"","","","","","html-keyboard-response","40","92503","0.0-4.0-0.18","164","1","2022-11-21 09:29:41","7b1eb8be57ff77859c7d9ac988e43411","219.142.99.15","Mozilla/5.0 (Windows NT 10.0; Win64; x64; rv:107.0) Gecko/20100101 Firefox/107.0","","Firefox","107.0","Windows","10.0","null","<div style=""font-size:60px;"">+</div>","null",""
"","","","","","html-button-response","41","93557","0.0-4.0-1.18","164","1","2022-11-21 09:29:41","7b1eb8be57ff77859c7d9ac988e43411","219.142.99.15","Mozilla/5.0 (Windows NT 10.0; Win64; x64; rv:107.0) Gecko/20100101 Firefox/107.0","","Firefox","107.0","Windows","10.0","1053","<p>作为军队的指挥官，你可以选择发射导弹杀死 <strong>7名</strong> 敌国士兵，但会误杀附近的 <strong>1名</strong> 敌国平民。</p> <p>平民照片如下图所示。</p> <p></p> <img src='stimuli/faces/PCF3.jpg', style='max-width: 30%;'> </img> <p><strong>你是否选择发射武器？</strong></p>","0",""
"","","","","","html-keyboard-response","42","94562","0.0-4.0-0.19","164","1","2022-11-21 09:29:41","7b1eb8be57ff77859c7d9ac988e43411","219.142.99.15","Mozilla/5.0 (Windows NT 10.0; Win64; x64; rv:107.0) Gecko/20100101 Firefox/107.0","","Firefox","107.0","Windows","10.0","null","<div style=""font-size:60px;"">+</div>","null",""
"","","","","","html-button-response","43","95928","0.0-4.0-1.19","164","1","2022-11-21 09:29:41","7b1eb8be57ff77859c7d9ac988e43411","219.142.99.15","Mozilla/5.0 (Windows NT 10.0; Win64; x64; rv:107.0) Gecko/20100101 Firefox/107.0","","Firefox","107.0","Windows","10.0","1365","<p>作为军队的指挥官，你可以选择发射导弹杀死 <strong>3名</strong> 敌国士兵，但会炸毁附近的 <strong>1棵</strong> 敌国树木。</p> <p>树木的照片如下图所示。</p> <p></p> <img src='stimuli/trees/2.png', style='max-width: 30%;'> </img> <p><strong>你是否选择发射武器？</strong></p>","0",""
"","","","","","html-keyboard-response","44","96932","0.0-4.0-0.20","164","1","2022-11-21 09:29:41","7b1eb8be57ff77859c7d9ac988e43411","219.142.99.15","Mozilla/5.0 (Windows NT 10.0; Win64; x64; rv:107.0) Gecko/20100101 Firefox/107.0","","Firefox","107.0","Windows","10.0","null","<div style=""font-size:60px;"">+</div>","null",""
"","","","","","html-button-response","45","97998","0.0-4.0-1.20","164","1","2022-11-21 09:29:41","7b1eb8be57ff77859c7d9ac988e43411","219.142.99.15","Mozilla/5.0 (Windows NT 10.0; Win64; x64; rv:107.0) Gecko/20100101 Firefox/107.0","","Firefox","107.0","Windows","10.0","1065","<p>作为军队的指挥官，你可以选择发射导弹杀死 <strong>7名</strong> 敌国士兵，但会误杀附近的 <strong>1名</strong> 敌国平民。</p> <p>平民照片如下图所示。</p> <p></p> <img src='stimuli/faces/PCM3.jpg', style='max-width: 30%;'> </img> <p><strong>你是否选择发射武器？</strong></p>","0",""
"","","","","","html-keyboard-response","46","99015","0.0-4.0-0.21","164","1","2022-11-21 09:29:41","7b1eb8be57ff77859c7d9ac988e43411","219.142.99.15","Mozilla/5.0 (Windows NT 10.0; Win64; x64; rv:107.0) Gecko/20100101 Firefox/107.0","","Firefox","107.0","Windows","10.0","null","<div style=""font-size:60px;"">+</div>","null",""
"","","","","","html-button-response","47","100363","0.0-4.0-1.21","164","1","2022-11-21 09:29:41","7b1eb8be57ff77859c7d9ac988e43411","219.142.99.15","Mozilla/5.0 (Windows NT 10.0; Win64; x64; rv:107.0) Gecko/20100101 Firefox/107.0","","Firefox","107.0","Windows","10.0","1346","<p>作为军队的指挥官，你可以选择发射导弹杀死 <strong>1名</strong> 敌国士兵，但会误杀附近的 <strong>1名</strong> 敌国平民。</p> <p>平民照片如下图所示。</p> <p></p> <img src='stimuli/faces/PCF8.jpg', style='max-width: 30%;'> </img> <p><strong>你是否选择发射武器？</strong></p>","0",""
"","","","","","html-keyboard-response","48","101370","0.0-4.0-0.22","164","1","2022-11-21 09:29:41","7b1eb8be57ff77859c7d9ac988e43411","219.142.99.15","Mozilla/5.0 (Windows NT 10.0; Win64; x64; rv:107.0) Gecko/20100101 Firefox/107.0","","Firefox","107.0","Windows","10.0","null","<div style=""font-size:60px;"">+</div>","null",""
"","","","","","html-button-response","49","103311","0.0-4.0-1.22","164","1","2022-11-21 09:29:41","7b1eb8be57ff77859c7d9ac988e43411","219.142.99.15","Mozilla/5.0 (Windows NT 10.0; Win64; x64; rv:107.0) Gecko/20100101 Firefox/107.0","","Firefox","107.0","Windows","10.0","1940","<p>作为军队的指挥官，你可以选择发射导弹杀死 <strong>2名</strong> 敌国士兵，但会误杀附近的 <strong>1名</strong> 敌国平民。</p> <p>平民照片如下图所示。</p> <p></p> <img src='stimuli/faces/PCF1.jpg', style='max-width: 30%;'> </img> <p><strong>你是否选择发射武器？</strong></p>","0",""
"","","","","","html-keyboard-response","50","104319","0.0-4.0-0.23","164","1","2022-11-21 09:29:41","7b1eb8be57ff77859c7d9ac988e43411","219.142.99.15","Mozilla/5.0 (Windows NT 10.0; Win64; x64; rv:107.0) Gecko/20100101 Firefox/107.0","","Firefox","107.0","Windows","10.0","null","<div style=""font-size:60px;"">+</div>","null",""
"","","","","","html-button-response","51","105160","0.0-4.0-1.23","164","1","2022-11-21 09:29:41","7b1eb8be57ff77859c7d9ac988e43411","219.142.99.15","Mozilla/5.0 (Windows NT 10.0; Win64; x64; rv:107.0) Gecko/20100101 Firefox/107.0","","Firefox","107.0","Windows","10.0","840","<p>作为军队的指挥官，你可以选择发射导弹杀死 <strong>5名</strong> 敌国士兵，但会炸毁附近的 <strong>1棵</strong> 敌国树木。</p> <p>树木的照片如下图所示。</p> <p></p> <img src='stimuli/trees/7.png', style='max-width: 30%;'> </img> <p><strong>你是否选择发射武器？</strong></p>","0",""
"","","","","","html-keyboard-response","52","106167","0.0-4.0-0.24","164","1","2022-11-21 09:29:41","7b1eb8be57ff77859c7d9ac988e43411","219.142.99.15","Mozilla/5.0 (Windows NT 10.0; Win64; x64; rv:107.0) Gecko/20100101 Firefox/107.0","","Firefox","107.0","Windows","10.0","null","<div style=""font-size:60px;"">+</div>","null",""
"","","","","","html-button-response","53","107125","0.0-4.0-1.24","164","1","2022-11-21 09:29:41","7b1eb8be57ff77859c7d9ac988e43411","219.142.99.15","Mozilla/5.0 (Windows NT 10.0; Win64; x64; rv:107.0) Gecko/20100101 Firefox/107.0","","Firefox","107.0","Windows","10.0","955","<p>作为军队的指挥官，你可以选择发射导弹杀死 <strong>6名</strong> 敌国士兵，但会炸毁附近的 <strong>1棵</strong> 敌国树木。</p> <p>树木的照片如下图所示。</p> <p></p> <img src='stimuli/trees/10.png', style='max-width: 30%;'> </img> <p><strong>你是否选择发射武器？</strong></p>","0",""
"","","","","","html-keyboard-response","54","108140","0.0-4.0-0.25","164","1","2022-11-21 09:29:41","7b1eb8be57ff77859c7d9ac988e43411","219.142.99.15","Mozilla/5.0 (Windows NT 10.0; Win64; x64; rv:107.0) Gecko/20100101 Firefox/107.0","","Firefox","107.0","Windows","10.0","null","<div style=""font-size:60px;"">+</div>","null",""
"","","","","","html-button-response","55","109381","0.0-4.0-1.25","164","1","2022-11-21 09:29:41","7b1eb8be57ff77859c7d9ac988e43411","219.142.99.15","Mozilla/5.0 (Windows NT 10.0; Win64; x64; rv:107.0) Gecko/20100101 Firefox/107.0","","Firefox","107.0","Windows","10.0","1240","<p>作为军队的指挥官，你可以选择发射导弹杀死 <strong>1名</strong> 敌国士兵，但会误杀附近的 <strong>1名</strong> 敌国平民。</p> <p>平民照片如下图所示。</p> <p></p> <img src='stimuli/faces/PCM8.jpg', style='max-width: 30%;'> </img> <p><strong>你是否选择发射武器？</strong></p>","0",""
"","","","","","html-keyboard-response","56","110391","0.0-4.0-0.26","164","1","2022-11-21 09:29:41","7b1eb8be57ff77859c7d9ac988e43411","219.142.99.15","Mozilla/5.0 (Windows NT 10.0; Win64; x64; rv:107.0) Gecko/20100101 Firefox/107.0","","Firefox","107.0","Windows","10.0","null","<div style=""font-size:60px;"">+</div>","null",""
"","","","","","html-button-response","57","111731","0.0-4.0-1.26","164","1","2022-11-21 09:29:41","7b1eb8be57ff77859c7d9ac988e43411","219.142.99.15","Mozilla/5.0 (Windows NT 10.0; Win64; x64; rv:107.0) Gecko/20100101 Firefox/107.0","","Firefox","107.0","Windows","10.0","1338","<p>作为军队的指挥官，你可以选择发射导弹杀死 <strong>1名</strong> 敌国士兵，但会误杀附近的 <strong>1名</strong> 敌国平民。</p> <p>平民照片如下图所示。</p> <p></p> <img src='stimuli/faces/PCM3.jpg', style='max-width: 30%;'> </img> <p><strong>你是否选择发射武器？</strong></p>","0",""
"","","","","","html-keyboard-response","58","112739","0.0-4.0-0.27","164","1","2022-11-21 09:29:41","7b1eb8be57ff77859c7d9ac988e43411","219.142.99.15","Mozilla/5.0 (Windows NT 10.0; Win64; x64; rv:107.0) Gecko/20100101 Firefox/107.0","","Firefox","107.0","Windows","10.0","null","<div style=""font-size:60px;"">+</div>","null",""
"","","","","","html-button-response","59","114079","0.0-4.0-1.27","164","1","2022-11-21 09:29:41","7b1eb8be57ff77859c7d9ac988e43411","219.142.99.15","Mozilla/5.0 (Windows NT 10.0; Win64; x64; rv:107.0) Gecko/20100101 Firefox/107.0","","Firefox","107.0","Windows","10.0","1339","<p>作为军队的指挥官，你可以选择发射导弹杀死 <strong>6名</strong> 敌国士兵，但会误杀附近的 <strong>1名</strong> 敌国平民。</p> <p>平民照片如下图所示。</p> <p></p> <img src='stimuli/faces/PCF6.jpg', style='max-width: 30%;'> </img> <p><strong>你是否选择发射武器？</strong></p>","0",""
"","","","","","html-keyboard-response","60","115081","0.0-4.0-0.28","164","1","2022-11-21 09:29:41","7b1eb8be57ff77859c7d9ac988e43411","219.142.99.15","Mozilla/5.0 (Windows NT 10.0; Win64; x64; rv:107.0) Gecko/20100101 Firefox/107.0","","Firefox","107.0","Windows","10.0","null","<div style=""font-size:60px;"">+</div>","null",""
"","","","","","html-button-response","61","116455","0.0-4.0-1.28","164","1","2022-11-21 09:29:41","7b1eb8be57ff77859c7d9ac988e43411","219.142.99.15","Mozilla/5.0 (Windows NT 10.0; Win64; x64; rv:107.0) Gecko/20100101 Firefox/107.0","","Firefox","107.0","Windows","10.0","1372","<p>作为军队的指挥官，你可以选择发射导弹杀死 <strong>3名</strong> 敌国士兵，但会炸毁附近的 <strong>1棵</strong> 敌国树木。</p> <p>树木的照片如下图所示。</p> <p></p> <img src='stimuli/trees/9.png', style='max-width: 30%;'> </img> <p><strong>你是否选择发射武器？</strong></p>","0",""
"","","","","","html-keyboard-response","62","117457","0.0-4.0-0.29","164","1","2022-11-21 09:29:41","7b1eb8be57ff77859c7d9ac988e43411","219.142.99.15","Mozilla/5.0 (Windows NT 10.0; Win64; x64; rv:107.0) Gecko/20100101 Firefox/107.0","","Firefox","107.0","Windows","10.0","null","<div style=""font-size:60px;"">+</div>","null",""
"","","","","","html-button-response","63","119020","0.0-4.0-1.29","164","1","2022-11-21 09:29:41","7b1eb8be57ff77859c7d9ac988e43411","219.142.99.15","Mozilla/5.0 (Windows NT 10.0; Win64; x64; rv:107.0) Gecko/20100101 Firefox/107.0","","Firefox","107.0","Windows","10.0","1563","<p>作为军队的指挥官，你可以选择发射导弹杀死 <strong>8名</strong> 敌国士兵，但会炸毁附近的 <strong>1棵</strong> 敌国树木。</p> <p>树木的照片如下图所示。</p> <p></p> <img src='stimuli/trees/13.png', style='max-width: 30%;'> </img> <p><strong>你是否选择发射武器？</strong></p>","0",""
"","","","","","html-keyboard-response","64","120029","0.0-4.0-0.30","164","1","2022-11-21 09:29:41","7b1eb8be57ff77859c7d9ac988e43411","219.142.99.15","Mozilla/5.0 (Windows NT 10.0; Win64; x64; rv:107.0) Gecko/20100101 Firefox/107.0","","Firefox","107.0","Windows","10.0","null","<div style=""font-size:60px;"">+</div>","null",""
"","","","","","html-button-response","65","121229","0.0-4.0-1.30","164","1","2022-11-21 09:29:41","7b1eb8be57ff77859c7d9ac988e43411","219.142.99.15","Mozilla/5.0 (Windows NT 10.0; Win64; x64; rv:107.0) Gecko/20100101 Firefox/107.0","","Firefox","107.0","Windows","10.0","1198","<p>作为军队的指挥官，你可以选择发射导弹杀死 <strong>2名</strong> 敌国士兵，但会误杀附近的 <strong>1名</strong> 敌国平民。</p> <p>平民照片如下图所示。</p> <p></p> <img src='stimuli/faces/PCF6.jpg', style='max-width: 30%;'> </img> <p><strong>你是否选择发射武器？</strong></p>","0",""
"","","","","","html-keyboard-response","66","122234","0.0-4.0-0.31","164","1","2022-11-21 09:29:41","7b1eb8be57ff77859c7d9ac988e43411","219.142.99.15","Mozilla/5.0 (Windows NT 10.0; Win64; x64; rv:107.0) Gecko/20100101 Firefox/107.0","","Firefox","107.0","Windows","10.0","null","<div style=""font-size:60px;"">+</div>","null",""
"","","","","","html-button-response","67","124097","0.0-4.0-1.31","164","1","2022-11-21 09:29:41","7b1eb8be57ff77859c7d9ac988e43411","219.142.99.15","Mozilla/5.0 (Windows NT 10.0; Win64; x64; rv:107.0) Gecko/20100101 Firefox/107.0","","Firefox","107.0","Windows","10.0","1861","<p>作为军队的指挥官，你可以选择发射导弹杀死 <strong>8名</strong> 敌国士兵，但会炸毁附近的 <strong>1棵</strong> 敌国树木。</p> <p>树木的照片如下图所示。</p> <p></p> <img src='stimuli/trees/8.png', style='max-width: 30%;'> </img> <p><strong>你是否选择发射武器？</strong></p>","0",""
"","","","","","html-keyboard-response","68","125098","0.0-4.0-0.32","164","1","2022-11-21 09:29:41","7b1eb8be57ff77859c7d9ac988e43411","219.142.99.15","Mozilla/5.0 (Windows NT 10.0; Win64; x64; rv:107.0) Gecko/20100101 Firefox/107.0","","Firefox","107.0","Windows","10.0","null","<div style=""font-size:60px;"">+</div>","null",""
"","","","","","html-button-response","69","126719","0.0-4.0-1.32","164","1","2022-11-21 09:29:41","7b1eb8be57ff77859c7d9ac988e43411","219.142.99.15","Mozilla/5.0 (Windows NT 10.0; Win64; x64; rv:107.0) Gecko/20100101 Firefox/107.0","","Firefox","107.0","Windows","10.0","1618","<p>作为军队的指挥官，你可以选择发射导弹杀死 <strong>3名</strong> 敌国士兵，但会炸毁附近的 <strong>1棵</strong> 敌国树木。</p> <p>树木的照片如下图所示。</p> <p></p> <img src='stimuli/trees/16.png', style='max-width: 30%;'> </img> <p><strong>你是否选择发射武器？</strong></p>","0",""
"","","","","","html-keyboard-response","70","127728","0.0-4.0-0.33","164","1","2022-11-21 09:29:41","7b1eb8be57ff77859c7d9ac988e43411","219.142.99.15","Mozilla/5.0 (Windows NT 10.0; Win64; x64; rv:107.0) Gecko/20100101 Firefox/107.0","","Firefox","107.0","Windows","10.0","null","<div style=""font-size:60px;"">+</div>","null",""
"","","","","","html-button-response","71","128743","0.0-4.0-1.33","164","1","2022-11-21 09:29:41","7b1eb8be57ff77859c7d9ac988e43411","219.142.99.15","Mozilla/5.0 (Windows NT 10.0; Win64; x64; rv:107.0) Gecko/20100101 Firefox/107.0","","Firefox","107.0","Windows","10.0","1013","<p>作为军队的指挥官，你可以选择发射导弹杀死 <strong>4名</strong> 敌国士兵，但会误杀附近的 <strong>1名</strong> 敌国平民。</p> <p>平民照片如下图所示。</p> <p></p> <img src='stimuli/faces/PCM4.jpg', style='max-width: 30%;'> </img> <p><strong>你是否选择发射武器？</strong></p>","0",""
"","","","","","html-keyboard-response","72","129754","0.0-4.0-0.34","164","1","2022-11-21 09:29:41","7b1eb8be57ff77859c7d9ac988e43411","219.142.99.15","Mozilla/5.0 (Windows NT 10.0; Win64; x64; rv:107.0) Gecko/20100101 Firefox/107.0","","Firefox","107.0","Windows","10.0","null","<div style=""font-size:60px;"">+</div>","null",""
"","","","","","html-button-response","73","130830","0.0-4.0-1.34","164","1","2022-11-21 09:29:41","7b1eb8be57ff77859c7d9ac988e43411","219.142.99.15","Mozilla/5.0 (Windows NT 10.0; Win64; x64; rv:107.0) Gecko/20100101 Firefox/107.0","","Firefox","107.0","Windows","10.0","1074","<p>作为军队的指挥官，你可以选择发射导弹杀死 <strong>3名</strong> 敌国士兵，但会误杀附近的 <strong>1名</strong> 敌国平民。</p> <p>平民照片如下图所示。</p> <p></p> <img src='stimuli/faces/PCM7.jpg', style='max-width: 30%;'> </img> <p><strong>你是否选择发射武器？</strong></p>","0",""
"","","","","","html-keyboard-response","74","131833","0.0-4.0-0.35","164","1","2022-11-21 09:29:41","7b1eb8be57ff77859c7d9ac988e43411","219.142.99.15","Mozilla/5.0 (Windows NT 10.0; Win64; x64; rv:107.0) Gecko/20100101 Firefox/107.0","","Firefox","107.0","Windows","10.0","null","<div style=""font-size:60px;"">+</div>","null",""
"","","","","","html-button-response","75","133577","0.0-4.0-1.35","164","1","2022-11-21 09:29:41","7b1eb8be57ff77859c7d9ac988e43411","219.142.99.15","Mozilla/5.0 (Windows NT 10.0; Win64; x64; rv:107.0) Gecko/20100101 Firefox/107.0","","Firefox","107.0","Windows","10.0","1738","<p>作为军队的指挥官，你可以选择发射导弹杀死 <strong>6名</strong> 敌国士兵，但会误杀附近的 <strong>1名</strong> 敌国平民。</p> <p>平民照片如下图所示。</p> <p></p> <img src='stimuli/faces/PCF4.jpg', style='max-width: 30%;'> </img> <p><strong>你是否选择发射武器？</strong></p>","0",""
"","","","","","html-keyboard-response","76","134586","0.0-4.0-0.36","164","1","2022-11-21 09:29:41","7b1eb8be57ff77859c7d9ac988e43411","219.142.99.15","Mozilla/5.0 (Windows NT 10.0; Win64; x64; rv:107.0) Gecko/20100101 Firefox/107.0","","Firefox","107.0","Windows","10.0","null","<div style=""font-size:60px;"">+</div>","null",""
"","","","","","html-button-response","77","135533","0.0-4.0-1.36","164","1","2022-11-21 09:29:41","7b1eb8be57ff77859c7d9ac988e43411","219.142.99.15","Mozilla/5.0 (Windows NT 10.0; Win64; x64; rv:107.0) Gecko/20100101 Firefox/107.0","","Firefox","107.0","Windows","10.0","944","<p>作为军队的指挥官，你可以选择发射导弹杀死 <strong>2名</strong> 敌国士兵，但会误杀附近的 <strong>1名</strong> 敌国平民。</p> <p>平民照片如下图所示。</p> <p></p> <img src='stimuli/faces/PCF5.jpg', style='max-width: 30%;'> </img> <p><strong>你是否选择发射武器？</strong></p>","0",""
"","","","","","html-keyboard-response","78","136537","0.0-4.0-0.37","164","1","2022-11-21 09:29:41","7b1eb8be57ff77859c7d9ac988e43411","219.142.99.15","Mozilla/5.0 (Windows NT 10.0; Win64; x64; rv:107.0) Gecko/20100101 Firefox/107.0","","Firefox","107.0","Windows","10.0","null","<div style=""font-size:60px;"">+</div>","null",""
"","","","","","html-button-response","79","137773","0.0-4.0-1.37","164","1","2022-11-21 09:29:41","7b1eb8be57ff77859c7d9ac988e43411","219.142.99.15","Mozilla/5.0 (Windows NT 10.0; Win64; x64; rv:107.0) Gecko/20100101 Firefox/107.0","","Firefox","107.0","Windows","10.0","1232","<p>作为军队的指挥官，你可以选择发射导弹杀死 <strong>2名</strong> 敌国士兵，但会炸毁附近的 <strong>1棵</strong> 敌国树木。</p> <p>树木的照片如下图所示。</p> <p></p> <img src='stimuli/trees/12.png', style='max-width: 30%;'> </img> <p><strong>你是否选择发射武器？</strong></p>","0",""
"","","","","","html-keyboard-response","80","138784","0.0-4.0-0.38","164","1","2022-11-21 09:29:41","7b1eb8be57ff77859c7d9ac988e43411","219.142.99.15","Mozilla/5.0 (Windows NT 10.0; Win64; x64; rv:107.0) Gecko/20100101 Firefox/107.0","","Firefox","107.0","Windows","10.0","null","<div style=""font-size:60px;"">+</div>","null",""
"","","","","","html-button-response","81","140663","0.0-4.0-1.38","164","1","2022-11-21 09:29:41","7b1eb8be57ff77859c7d9ac988e43411","219.142.99.15","Mozilla/5.0 (Windows NT 10.0; Win64; x64; rv:107.0) Gecko/20100101 Firefox/107.0","","Firefox","107.0","Windows","10.0","1875","<p>作为军队的指挥官，你可以选择发射导弹杀死 <strong>6名</strong> 敌国士兵，但会炸毁附近的 <strong>1棵</strong> 敌国树木。</p> <p>树木的照片如下图所示。</p> <p></p> <img src='stimuli/trees/9.png', style='max-width: 30%;'> </img> <p><strong>你是否选择发射武器？</strong></p>","0",""
"","","","","","html-keyboard-response","82","141673","0.0-4.0-0.39","164","1","2022-11-21 09:29:41","7b1eb8be57ff77859c7d9ac988e43411","219.142.99.15","Mozilla/5.0 (Windows NT 10.0; Win64; x64; rv:107.0) Gecko/20100101 Firefox/107.0","","Firefox","107.0","Windows","10.0","null","<div style=""font-size:60px;"">+</div>","null",""
"","","","","","html-button-response","83","142683","0.0-4.0-1.39","164","1","2022-11-21 09:29:41","7b1eb8be57ff77859c7d9ac988e43411","219.142.99.15","Mozilla/5.0 (Windows NT 10.0; Win64; x64; rv:107.0) Gecko/20100101 Firefox/107.0","","Firefox","107.0","Windows","10.0","1009","<p>作为军队的指挥官，你可以选择发射导弹杀死 <strong>3名</strong> 敌国士兵，但会炸毁附近的 <strong>1棵</strong> 敌国树木。</p> <p>树木的照片如下图所示。</p> <p></p> <img src='stimuli/trees/15.png', style='max-width: 30%;'> </img> <p><strong>你是否选择发射武器？</strong></p>","0",""
"","","","","","html-keyboard-response","84","143686","0.0-4.0-0.40","164","1","2022-11-21 09:29:41","7b1eb8be57ff77859c7d9ac988e43411","219.142.99.15","Mozilla/5.0 (Windows NT 10.0; Win64; x64; rv:107.0) Gecko/20100101 Firefox/107.0","","Firefox","107.0","Windows","10.0","null","<div style=""font-size:60px;"">+</div>","null",""
"","","","","","html-button-response","85","145035","0.0-4.0-1.40","164","1","2022-11-21 09:29:41","7b1eb8be57ff77859c7d9ac988e43411","219.142.99.15","Mozilla/5.0 (Windows NT 10.0; Win64; x64; rv:107.0) Gecko/20100101 Firefox/107.0","","Firefox","107.0","Windows","10.0","1347","<p>作为军队的指挥官，你可以选择发射导弹杀死 <strong>7名</strong> 敌国士兵，但会误杀附近的 <strong>1名</strong> 敌国平民。</p> <p>平民照片如下图所示。</p> <p></p> <img src='stimuli/faces/PCF8.jpg', style='max-width: 30%;'> </img> <p><strong>你是否选择发射武器？</strong></p>","0",""
"","","","","","html-keyboard-response","86","146042","0.0-4.0-0.41","164","1","2022-11-21 09:29:41","7b1eb8be57ff77859c7d9ac988e43411","219.142.99.15","Mozilla/5.0 (Windows NT 10.0; Win64; x64; rv:107.0) Gecko/20100101 Firefox/107.0","","Firefox","107.0","Windows","10.0","null","<div style=""font-size:60px;"">+</div>","null",""
"","","","","","html-button-response","87","148405","0.0-4.0-1.41","164","1","2022-11-21 09:29:41","7b1eb8be57ff77859c7d9ac988e43411","219.142.99.15","Mozilla/5.0 (Windows NT 10.0; Win64; x64; rv:107.0) Gecko/20100101 Firefox/107.0","","Firefox","107.0","Windows","10.0","2361","<p>作为军队的指挥官，你可以选择发射导弹杀死 <strong>3名</strong> 敌国士兵，但会炸毁附近的 <strong>1棵</strong> 敌国树木。</p> <p>树木的照片如下图所示。</p> <p></p> <img src='stimuli/trees/14.png', style='max-width: 30%;'> </img> <p><strong>你是否选择发射武器？</strong></p>","0",""
"","","","","","html-keyboard-response","88","149412","0.0-4.0-0.42","164","1","2022-11-21 09:29:41","7b1eb8be57ff77859c7d9ac988e43411","219.142.99.15","Mozilla/5.0 (Windows NT 10.0; Win64; x64; rv:107.0) Gecko/20100101 Firefox/107.0","","Firefox","107.0","Windows","10.0","null","<div style=""font-size:60px;"">+</div>","null",""
"","","","","","html-button-response","89","150909","0.0-4.0-1.42","164","1","2022-11-21 09:29:41","7b1eb8be57ff77859c7d9ac988e43411","219.142.99.15","Mozilla/5.0 (Windows NT 10.0; Win64; x64; rv:107.0) Gecko/20100101 Firefox/107.0","","Firefox","107.0","Windows","10.0","1495","<p>作为军队的指挥官，你可以选择发射导弹杀死 <strong>8名</strong> 敌国士兵，但会误杀附近的 <strong>1名</strong> 敌国平民。</p> <p>平民照片如下图所示。</p> <p></p> <img src='stimuli/faces/PCF7.jpg', style='max-width: 30%;'> </img> <p><strong>你是否选择发射武器？</strong></p>","0",""
"","","","","","html-keyboard-response","90","151922","0.0-4.0-0.43","164","1","2022-11-21 09:29:41","7b1eb8be57ff77859c7d9ac988e43411","219.142.99.15","Mozilla/5.0 (Windows NT 10.0; Win64; x64; rv:107.0) Gecko/20100101 Firefox/107.0","","Firefox","107.0","Windows","10.0","null","<div style=""font-size:60px;"">+</div>","null",""
"","","","","","html-button-response","91","153653","0.0-4.0-1.43","164","1","2022-11-21 09:29:41","7b1eb8be57ff77859c7d9ac988e43411","219.142.99.15","Mozilla/5.0 (Windows NT 10.0; Win64; x64; rv:107.0) Gecko/20100101 Firefox/107.0","","Firefox","107.0","Windows","10.0","1728","<p>作为军队的指挥官，你可以选择发射导弹杀死 <strong>1名</strong> 敌国士兵，但会误杀附近的 <strong>1名</strong> 敌国平民。</p> <p>平民照片如下图所示。</p> <p></p> <img src='stimuli/faces/PCF2.jpg', style='max-width: 30%;'> </img> <p><strong>你是否选择发射武器？</strong></p>","0",""
"","","","","","html-keyboard-response","92","154660","0.0-4.0-0.44","164","1","2022-11-21 09:29:41","7b1eb8be57ff77859c7d9ac988e43411","219.142.99.15","Mozilla/5.0 (Windows NT 10.0; Win64; x64; rv:107.0) Gecko/20100101 Firefox/107.0","","Firefox","107.0","Windows","10.0","null","<div style=""font-size:60px;"">+</div>","null",""
"","","","","","html-button-response","93","156139","0.0-4.0-1.44","164","1","2022-11-21 09:29:41","7b1eb8be57ff77859c7d9ac988e43411","219.142.99.15","Mozilla/5.0 (Windows NT 10.0; Win64; x64; rv:107.0) Gecko/20100101 Firefox/107.0","","Firefox","107.0","Windows","10.0","1476","<p>作为军队的指挥官，你可以选择发射导弹杀死 <strong>6名</strong> 敌国士兵，但会炸毁附近的 <strong>1棵</strong> 敌国树木。</p> <p>树木的照片如下图所示。</p> <p></p> <img src='stimuli/trees/7.png', style='max-width: 30%;'> </img> <p><strong>你是否选择发射武器？</strong></p>","0",""
"","","","","","html-keyboard-response","94","157143","0.0-4.0-0.45","164","1","2022-11-21 09:29:41","7b1eb8be57ff77859c7d9ac988e43411","219.142.99.15","Mozilla/5.0 (Windows NT 10.0; Win64; x64; rv:107.0) Gecko/20100101 Firefox/107.0","","Firefox","107.0","Windows","10.0","null","<div style=""font-size:60px;"">+</div>","null",""
"","","","","","html-button-response","95","158502","0.0-4.0-1.45","164","1","2022-11-21 09:29:41","7b1eb8be57ff77859c7d9ac988e43411","219.142.99.15","Mozilla/5.0 (Windows NT 10.0; Win64; x64; rv:107.0) Gecko/20100101 Firefox/107.0","","Firefox","107.0","Windows","10.0","1356","<p>作为军队的指挥官，你可以选择发射导弹杀死 <strong>1名</strong> 敌国士兵，但会误杀附近的 <strong>1名</strong> 敌国平民。</p> <p>平民照片如下图所示。</p> <p></p> <img src='stimuli/faces/PCF3.jpg', style='max-width: 30%;'> </img> <p><strong>你是否选择发射武器？</strong></p>","0",""
"","","","","","html-keyboard-response","96","159504","0.0-4.0-0.46","164","1","2022-11-21 09:29:41","7b1eb8be57ff77859c7d9ac988e43411","219.142.99.15","Mozilla/5.0 (Windows NT 10.0; Win64; x64; rv:107.0) Gecko/20100101 Firefox/107.0","","Firefox","107.0","Windows","10.0","null","<div style=""font-size:60px;"">+</div>","null",""
"","","","","","html-button-response","97","161886","0.0-4.0-1.46","164","1","2022-11-21 09:29:41","7b1eb8be57ff77859c7d9ac988e43411","219.142.99.15","Mozilla/5.0 (Windows NT 10.0; Win64; x64; rv:107.0) Gecko/20100101 Firefox/107.0","","Firefox","107.0","Windows","10.0","2380","<p>作为军队的指挥官，你可以选择发射导弹杀死 <strong>9名</strong> 敌国士兵，但会误杀附近的 <strong>1名</strong> 敌国平民。</p> <p>平民照片如下图所示。</p> <p></p> <img src='stimuli/faces/PCM4.jpg', style='max-width: 30%;'> </img> <p><strong>你是否选择发射武器？</strong></p>","0",""
"","","","","","html-keyboard-response","98","162896","0.0-4.0-0.47","164","1","2022-11-21 09:29:41","7b1eb8be57ff77859c7d9ac988e43411","219.142.99.15","Mozilla/5.0 (Windows NT 10.0; Win64; x64; rv:107.0) Gecko/20100101 Firefox/107.0","","Firefox","107.0","Windows","10.0","null","<div style=""font-size:60px;"">+</div>","null",""
"","","","","","html-button-response","99","166485","0.0-4.0-1.47","164","1","2022-11-21 09:29:41","7b1eb8be57ff77859c7d9ac988e43411","219.142.99.15","Mozilla/5.0 (Windows NT 10.0; Win64; x64; rv:107.0) Gecko/20100101 Firefox/107.0","","Firefox","107.0","Windows","10.0","3587","<p>作为军队的指挥官，你可以选择发射导弹杀死 <strong>6名</strong> 敌国士兵，但会炸毁附近的 <strong>1棵</strong> 敌国树木。</p> <p>树木的照片如下图所示。</p> <p></p> <img src='stimuli/trees/14.png', style='max-width: 30%;'> </img> <p><strong>你是否选择发射武器？</strong></p>","0",""
"","","","","","html-keyboard-response","100","167489","0.0-4.0-0.48","164","1","2022-11-21 09:29:41","7b1eb8be57ff77859c7d9ac988e43411","219.142.99.15","Mozilla/5.0 (Windows NT 10.0; Win64; x64; rv:107.0) Gecko/20100101 Firefox/107.0","","Firefox","107.0","Windows","10.0","null","<div style=""font-size:60px;"">+</div>","null",""
"","","","","","html-button-response","101","172563","0.0-4.0-1.48","164","1","2022-11-21 09:29:41","7b1eb8be57ff77859c7d9ac988e43411","219.142.99.15","Mozilla/5.0 (Windows NT 10.0; Win64; x64; rv:107.0) Gecko/20100101 Firefox/107.0","","Firefox","107.0","Windows","10.0","5072","<p>作为军队的指挥官，你可以选择发射导弹杀死 <strong>4名</strong> 敌国士兵，但会误杀附近的 <strong>1名</strong> 敌国平民。</p> <p>平民照片如下图所示。</p> <p></p> <img src='stimuli/faces/PCF4.jpg', style='max-width: 30%;'> </img> <p><strong>你是否选择发射武器？</strong></p>","0",""
"","","","","","html-keyboard-response","102","173569","0.0-4.0-0.49","164","1","2022-11-21 09:29:41","7b1eb8be57ff77859c7d9ac988e43411","219.142.99.15","Mozilla/5.0 (Windows NT 10.0; Win64; x64; rv:107.0) Gecko/20100101 Firefox/107.0","","Firefox","107.0","Windows","10.0","null","<div style=""font-size:60px;"">+</div>","null",""
"","","","","","html-button-response","103","175115","0.0-4.0-1.49","164","1","2022-11-21 09:29:41","7b1eb8be57ff77859c7d9ac988e43411","219.142.99.15","Mozilla/5.0 (Windows NT 10.0; Win64; x64; rv:107.0) Gecko/20100101 Firefox/107.0","","Firefox","107.0","Windows","10.0","1544","<p>作为军队的指挥官，你可以选择发射导弹杀死 <strong>6名</strong> 敌国士兵，但会误杀附近的 <strong>1名</strong> 敌国平民。</p> <p>平民照片如下图所示。</p> <p></p> <img src='stimuli/faces/PCM7.jpg', style='max-width: 30%;'> </img> <p><strong>你是否选择发射武器？</strong></p>","0",""
"","","","","","html-keyboard-response","104","176130","0.0-4.0-0.50","164","1","2022-11-21 09:29:41","7b1eb8be57ff77859c7d9ac988e43411","219.142.99.15","Mozilla/5.0 (Windows NT 10.0; Win64; x64; rv:107.0) Gecko/20100101 Firefox/107.0","","Firefox","107.0","Windows","10.0","null","<div style=""font-size:60px;"">+</div>","null",""
"","","","","","html-button-response","105","177133","0.0-4.0-1.50","164","1","2022-11-21 09:29:41","7b1eb8be57ff77859c7d9ac988e43411","219.142.99.15","Mozilla/5.0 (Windows NT 10.0; Win64; x64; rv:107.0) Gecko/20100101 Firefox/107.0","","Firefox","107.0","Windows","10.0","1000","<p>作为军队的指挥官，你可以选择发射导弹杀死 <strong>4名</strong> 敌国士兵，但会误杀附近的 <strong>1名</strong> 敌国平民。</p> <p>平民照片如下图所示。</p> <p></p> <img src='stimuli/faces/PCM6.jpg', style='max-width: 30%;'> </img> <p><strong>你是否选择发射武器？</strong></p>","0",""
"","","","","","html-keyboard-response","106","178145","0.0-4.0-0.51","164","1","2022-11-21 09:29:41","7b1eb8be57ff77859c7d9ac988e43411","219.142.99.15","Mozilla/5.0 (Windows NT 10.0; Win64; x64; rv:107.0) Gecko/20100101 Firefox/107.0","","Firefox","107.0","Windows","10.0","null","<div style=""font-size:60px;"">+</div>","null",""
"","","","","","html-button-response","107","179385","0.0-4.0-1.51","164","1","2022-11-21 09:29:41","7b1eb8be57ff77859c7d9ac988e43411","219.142.99.15","Mozilla/5.0 (Windows NT 10.0; Win64; x64; rv:107.0) Gecko/20100101 Firefox/107.0","","Firefox","107.0","Windows","10.0","1238","<p>作为军队的指挥官，你可以选择发射导弹杀死 <strong>3名</strong> 敌国士兵，但会误杀附近的 <strong>1名</strong> 敌国平民。</p> <p>平民照片如下图所示。</p> <p></p> <img src='stimuli/faces/PCF7.jpg', style='max-width: 30%;'> </img> <p><strong>你是否选择发射武器？</strong></p>","0",""
"","","","","","html-keyboard-response","108","180396","0.0-4.0-0.52","164","1","2022-11-21 09:29:41","7b1eb8be57ff77859c7d9ac988e43411","219.142.99.15","Mozilla/5.0 (Windows NT 10.0; Win64; x64; rv:107.0) Gecko/20100101 Firefox/107.0","","Firefox","107.0","Windows","10.0","null","<div style=""font-size:60px;"">+</div>","null",""
"","","","","","html-button-response","109","181992","0.0-4.0-1.52","164","1","2022-11-21 09:29:41","7b1eb8be57ff77859c7d9ac988e43411","219.142.99.15","Mozilla/5.0 (Windows NT 10.0; Win64; x64; rv:107.0) Gecko/20100101 Firefox/107.0","","Firefox","107.0","Windows","10.0","1595","<p>作为军队的指挥官，你可以选择发射导弹杀死 <strong>5名</strong> 敌国士兵，但会误杀附近的 <strong>1名</strong> 敌国平民。</p> <p>平民照片如下图所示。</p> <p></p> <img src='stimuli/faces/PCM1.jpg', style='max-width: 30%;'> </img> <p><strong>你是否选择发射武器？</strong></p>","0",""
"","","","","","html-keyboard-response","110","183003","0.0-4.0-0.53","164","1","2022-11-21 09:29:41","7b1eb8be57ff77859c7d9ac988e43411","219.142.99.15","Mozilla/5.0 (Windows NT 10.0; Win64; x64; rv:107.0) Gecko/20100101 Firefox/107.0","","Firefox","107.0","Windows","10.0","null","<div style=""font-size:60px;"">+</div>","null",""
"","","","","","html-button-response","111","184023","0.0-4.0-1.53","164","1","2022-11-21 09:29:41","7b1eb8be57ff77859c7d9ac988e43411","219.142.99.15","Mozilla/5.0 (Windows NT 10.0; Win64; x64; rv:107.0) Gecko/20100101 Firefox/107.0","","Firefox","107.0","Windows","10.0","1018","<p>作为军队的指挥官，你可以选择发射导弹杀死 <strong>7名</strong> 敌国士兵，但会误杀附近的 <strong>1名</strong> 敌国平民。</p> <p>平民照片如下图所示。</p> <p></p> <img src='stimuli/faces/PCF5.jpg', style='max-width: 30%;'> </img> <p><strong>你是否选择发射武器？</strong></p>","0",""
"","","","","","html-keyboard-response","112","185036","0.0-4.0-0.54","164","1","2022-11-21 09:29:41","7b1eb8be57ff77859c7d9ac988e43411","219.142.99.15","Mozilla/5.0 (Windows NT 10.0; Win64; x64; rv:107.0) Gecko/20100101 Firefox/107.0","","Firefox","107.0","Windows","10.0","null","<div style=""font-size:60px;"">+</div>","null",""
"","","","","","html-button-response","113","186271","0.0-4.0-1.54","164","1","2022-11-21 09:29:41","7b1eb8be57ff77859c7d9ac988e43411","219.142.99.15","Mozilla/5.0 (Windows NT 10.0; Win64; x64; rv:107.0) Gecko/20100101 Firefox/107.0","","Firefox","107.0","Windows","10.0","1233","<p>作为军队的指挥官，你可以选择发射导弹杀死 <strong>10名</strong> 敌国士兵，但会误杀附近的 <strong>1名</strong> 敌国平民。</p> <p>平民照片如下图所示。</p> <p></p> <img src='stimuli/faces/PCF2.jpg', style='max-width: 30%;'> </img> <p><strong>你是否选择发射武器？</strong></p>","0",""
"","","","","","html-keyboard-response","114","187285","0.0-4.0-0.55","164","1","2022-11-21 09:29:41","7b1eb8be57ff77859c7d9ac988e43411","219.142.99.15","Mozilla/5.0 (Windows NT 10.0; Win64; x64; rv:107.0) Gecko/20100101 Firefox/107.0","","Firefox","107.0","Windows","10.0","null","<div style=""font-size:60px;"">+</div>","null",""
"","","","","","html-button-response","115","188183","0.0-4.0-1.55","164","1","2022-11-21 09:29:41","7b1eb8be57ff77859c7d9ac988e43411","219.142.99.15","Mozilla/5.0 (Windows NT 10.0; Win64; x64; rv:107.0) Gecko/20100101 Firefox/107.0","","Firefox","107.0","Windows","10.0","896","<p>作为军队的指挥官，你可以选择发射导弹杀死 <strong>8名</strong> 敌国士兵，但会误杀附近的 <strong>1名</strong> 敌国平民。</p> <p>平民照片如下图所示。</p> <p></p> <img src='stimuli/faces/PCM5.jpg', style='max-width: 30%;'> </img> <p><strong>你是否选择发射武器？</strong></p>","0",""
"","","","","","html-keyboard-response","116","189188","0.0-4.0-0.56","164","1","2022-11-21 09:29:41","7b1eb8be57ff77859c7d9ac988e43411","219.142.99.15","Mozilla/5.0 (Windows NT 10.0; Win64; x64; rv:107.0) Gecko/20100101 Firefox/107.0","","Firefox","107.0","Windows","10.0","null","<div style=""font-size:60px;"">+</div>","null",""
"","","","","","html-button-response","117","190564","0.0-4.0-1.56","164","1","2022-11-21 09:29:41","7b1eb8be57ff77859c7d9ac988e43411","219.142.99.15","Mozilla/5.0 (Windows NT 10.0; Win64; x64; rv:107.0) Gecko/20100101 Firefox/107.0","","Firefox","107.0","Windows","10.0","1373","<p>作为军队的指挥官，你可以选择发射导弹杀死 <strong>5名</strong> 敌国士兵，但会炸毁附近的 <strong>1棵</strong> 敌国树木。</p> <p>树木的照片如下图所示。</p> <p></p> <img src='stimuli/trees/1.png', style='max-width: 30%;'> </img> <p><strong>你是否选择发射武器？</strong></p>","0",""
"","","","","","html-keyboard-response","118","191576","0.0-4.0-0.57","164","1","2022-11-21 09:29:41","7b1eb8be57ff77859c7d9ac988e43411","219.142.99.15","Mozilla/5.0 (Windows NT 10.0; Win64; x64; rv:107.0) Gecko/20100101 Firefox/107.0","","Firefox","107.0","Windows","10.0","null","<div style=""font-size:60px;"">+</div>","null",""
"","","","","","html-button-response","119","192937","0.0-4.0-1.57","164","1","2022-11-21 09:29:41","7b1eb8be57ff77859c7d9ac988e43411","219.142.99.15","Mozilla/5.0 (Windows NT 10.0; Win64; x64; rv:107.0) Gecko/20100101 Firefox/107.0","","Firefox","107.0","Windows","10.0","1358","<p>作为军队的指挥官，你可以选择发射导弹杀死 <strong>3名</strong> 敌国士兵，但会误杀附近的 <strong>1名</strong> 敌国平民。</p> <p>平民照片如下图所示。</p> <p></p> <img src='stimuli/faces/PCM5.jpg', style='max-width: 30%;'> </img> <p><strong>你是否选择发射武器？</strong></p>","0",""
"","","","","","html-keyboard-response","120","193953","0.0-4.0-0.58","164","1","2022-11-21 09:29:41","7b1eb8be57ff77859c7d9ac988e43411","219.142.99.15","Mozilla/5.0 (Windows NT 10.0; Win64; x64; rv:107.0) Gecko/20100101 Firefox/107.0","","Firefox","107.0","Windows","10.0","null","<div style=""font-size:60px;"">+</div>","null",""
"","","","","","html-button-response","121","195197","0.0-4.0-1.58","164","1","2022-11-21 09:29:41","7b1eb8be57ff77859c7d9ac988e43411","219.142.99.15","Mozilla/5.0 (Windows NT 10.0; Win64; x64; rv:107.0) Gecko/20100101 Firefox/107.0","","Firefox","107.0","Windows","10.0","1241","<p>作为军队的指挥官，你可以选择发射导弹杀死 <strong>6名</strong> 敌国士兵，但会炸毁附近的 <strong>1棵</strong> 敌国树木。</p> <p>树木的照片如下图所示。</p> <p></p> <img src='stimuli/trees/4.png', style='max-width: 30%;'> </img> <p><strong>你是否选择发射武器？</strong></p>","0",""
"","","","","","html-keyboard-response","122","196204","0.0-4.0-0.59","164","1","2022-11-21 09:29:41","7b1eb8be57ff77859c7d9ac988e43411","219.142.99.15","Mozilla/5.0 (Windows NT 10.0; Win64; x64; rv:107.0) Gecko/20100101 Firefox/107.0","","Firefox","107.0","Windows","10.0","null","<div style=""font-size:60px;"">+</div>","null",""
"","","","","","html-button-response","123","197637","0.0-4.0-1.59","164","1","2022-11-21 09:29:41","7b1eb8be57ff77859c7d9ac988e43411","219.142.99.15","Mozilla/5.0 (Windows NT 10.0; Win64; x64; rv:107.0) Gecko/20100101 Firefox/107.0","","Firefox","107.0","Windows","10.0","1426","<p>作为军队的指挥官，你可以选择发射导弹杀死 <strong>2名</strong> 敌国士兵，但会炸毁附近的 <strong>1棵</strong> 敌国树木。</p> <p>树木的照片如下图所示。</p> <p></p> <img src='stimuli/trees/5.png', style='max-width: 30%;'> </img> <p><strong>你是否选择发射武器？</strong></p>","0",""
"","","","","","html-keyboard-response","124","198655","0.0-4.0-0.60","164","1","2022-11-21 09:29:41","7b1eb8be57ff77859c7d9ac988e43411","219.142.99.15","Mozilla/5.0 (Windows NT 10.0; Win64; x64; rv:107.0) Gecko/20100101 Firefox/107.0","","Firefox","107.0","Windows","10.0","null","<div style=""font-size:60px;"">+</div>","null",""
"","","","","","html-button-response","125","200631","0.0-4.0-1.60","164","1","2022-11-21 09:29:41","7b1eb8be57ff77859c7d9ac988e43411","219.142.99.15","Mozilla/5.0 (Windows NT 10.0; Win64; x64; rv:107.0) Gecko/20100101 Firefox/107.0","","Firefox","107.0","Windows","10.0","1973","<p>作为军队的指挥官，你可以选择发射导弹杀死 <strong>6名</strong> 敌国士兵，但会误杀附近的 <strong>1名</strong> 敌国平民。</p> <p>平民照片如下图所示。</p> <p></p> <img src='stimuli/faces/PCM6.jpg', style='max-width: 30%;'> </img> <p><strong>你是否选择发射武器？</strong></p>","0",""
"","","","","","html-keyboard-response","126","201638","0.0-4.0-0.61","164","1","2022-11-21 09:29:41","7b1eb8be57ff77859c7d9ac988e43411","219.142.99.15","Mozilla/5.0 (Windows NT 10.0; Win64; x64; rv:107.0) Gecko/20100101 Firefox/107.0","","Firefox","107.0","Windows","10.0","null","<div style=""font-size:60px;"">+</div>","null",""
"","","","","","html-button-response","127","202834","0.0-4.0-1.61","164","1","2022-11-21 09:29:41","7b1eb8be57ff77859c7d9ac988e43411","219.142.99.15","Mozilla/5.0 (Windows NT 10.0; Win64; x64; rv:107.0) Gecko/20100101 Firefox/107.0","","Firefox","107.0","Windows","10.0","1193","<p>作为军队的指挥官，你可以选择发射导弹杀死 <strong>3名</strong> 敌国士兵，但会炸毁附近的 <strong>1棵</strong> 敌国树木。</p> <p>树木的照片如下图所示。</p> <p></p> <img src='stimuli/trees/10.png', style='max-width: 30%;'> </img> <p><strong>你是否选择发射武器？</strong></p>","0",""
"","","","","","html-keyboard-response","128","203840","0.0-4.0-0.62","164","1","2022-11-21 09:29:41","7b1eb8be57ff77859c7d9ac988e43411","219.142.99.15","Mozilla/5.0 (Windows NT 10.0; Win64; x64; rv:107.0) Gecko/20100101 Firefox/107.0","","Firefox","107.0","Windows","10.0","null","<div style=""font-size:60px;"">+</div>","null",""
"","","","","","html-button-response","129","204887","0.0-4.0-1.62","164","1","2022-11-21 09:29:41","7b1eb8be57ff77859c7d9ac988e43411","219.142.99.15","Mozilla/5.0 (Windows NT 10.0; Win64; x64; rv:107.0) Gecko/20100101 Firefox/107.0","","Firefox","107.0","Windows","10.0","1044","<p>作为军队的指挥官，你可以选择发射导弹杀死 <strong>5名</strong> 敌国士兵，但会炸毁附近的 <strong>1棵</strong> 敌国树木。</p> <p>树木的照片如下图所示。</p> <p></p> <img src='stimuli/trees/11.png', style='max-width: 30%;'> </img> <p><strong>你是否选择发射武器？</strong></p>","0",""
"","","","","","html-keyboard-response","130","205890","0.0-4.0-0.63","164","1","2022-11-21 09:29:41","7b1eb8be57ff77859c7d9ac988e43411","219.142.99.15","Mozilla/5.0 (Windows NT 10.0; Win64; x64; rv:107.0) Gecko/20100101 Firefox/107.0","","Firefox","107.0","Windows","10.0","null","<div style=""font-size:60px;"">+</div>","null",""
"","","","","","html-button-response","131","207181","0.0-4.0-1.63","164","1","2022-11-21 09:29:41","7b1eb8be57ff77859c7d9ac988e43411","219.142.99.15","Mozilla/5.0 (Windows NT 10.0; Win64; x64; rv:107.0) Gecko/20100101 Firefox/107.0","","Firefox","107.0","Windows","10.0","1286","<p>作为军队的指挥官，你可以选择发射导弹杀死 <strong>7名</strong> 敌国士兵，但会炸毁附近的 <strong>1棵</strong> 敌国树木。</p> <p>树木的照片如下图所示。</p> <p></p> <img src='stimuli/trees/16.png', style='max-width: 30%;'> </img> <p><strong>你是否选择发射武器？</strong></p>","0",""
"","","","","","survey-multi-choice","132","228497","0.0-5.0","164","1","2022-11-21 09:29:41","7b1eb8be57ff77859c7d9ac988e43411","219.142.99.15","Mozilla/5.0 (Windows NT 10.0; Win64; x64; rv:107.0) Gecko/20100101 Firefox/107.0","","Firefox","107.0","Windows","10.0","21313","","{""Attention1"":""""}","[0]"
"","","","","","html-button-response","133","230215","0.0-6.0","164","1","2022-11-21 09:29:41","7b1eb8be57ff77859c7d9ac988e43411","219.142.99.15","Mozilla/5.0 (Windows NT 10.0; Win64; x64; rv:107.0) Gecko/20100101 Firefox/107.0","","Firefox","107.0","Windows","10.0","1713","<p style=""font-size:20px;font-weight:bold;"">恭喜！</p><p>你已经完成了实验的第一部分。</p><p>请休息放松一下，然后进入第二部分。</p><p>这部分大约需要10分钟。</p>","0",""
"","","","","","survey-text","134","330948","0.0-7.0","164","1","2022-11-21 09:29:41","7b1eb8be57ff77859c7d9ac988e43411","219.142.99.15","Mozilla/5.0 (Windows NT 10.0; Win64; x64; rv:107.0) Gecko/20100101 Firefox/107.0","","Firefox","107.0","Windows","10.0","99725","","{""Age"":""20"",""Nation"":""中国"",""Born"":""安徽省合肥市巢湖市"",""Live"":""安徽省合肥市巢湖市"",""Ethnic"":""汉族"",""Alipay"":""15056258183"",""ID"":""202011150062""}",""
"","","","","","survey-multi-choice","135","366698","0.0-8.0","164","1","2022-11-21 09:29:41","7b1eb8be57ff77859c7d9ac988e43411","219.142.99.15","Mozilla/5.0 (Windows NT 10.0; Win64; x64; rv:107.0) Gecko/20100101 Firefox/107.0","","Firefox","107.0","Windows","10.0","35740","","{""Gender"":""男"",""Education"":""高中毕业"",""Income"":""￥35,000-￥69,999"",""Children"":""0"",""Race"":""亚洲人""}","[0,1,2,3,4]"
"","","","","","survey-multi-select","136","378202","0.0-9.0","164","1","2022-11-21 09:29:41","7b1eb8be57ff77859c7d9ac988e43411","219.142.99.15","Mozilla/5.0 (Windows NT 10.0; Win64; x64; rv:107.0) Gecko/20100101 Firefox/107.0","","Firefox","107.0","Windows","10.0","11497","","{""Marriage"":[""未婚""],""Religion"":[""无宗教信仰""]}","[0,1]"
"","","","","","survey-multi-choice","137","390636","0.0-10.0","164","1","2022-11-21 09:29:41","7b1eb8be57ff77859c7d9ac988e43411","219.142.99.15","Mozilla/5.0 (Windows NT 10.0; Win64; x64; rv:107.0) Gecko/20100101 Firefox/107.0","","Firefox","107.0","Windows","10.0","12429","","{""SES"":""2""}","[0]"
"","","","","","html-button-response","138","396165","0.0-11.0","164","1","2022-11-21 09:29:41","7b1eb8be57ff77859c7d9ac988e43411","219.142.99.15","Mozilla/5.0 (Windows NT 10.0; Win64; x64; rv:107.0) Gecko/20100101 Firefox/107.0","","Firefox","107.0","Windows","10.0","5525","<p><strong>请判断下列陈述在多大程度上可以形容你？</p><p> (1 = ""和我一点都不像"" to 5 = ""非常像我"".)</strong></p>","0",""
"","","","","","survey-likert","139","453678","0.0-12.0","164","1","2022-11-21 09:29:41","7b1eb8be57ff77859c7d9ac988e43411","219.142.99.15","Mozilla/5.0 (Windows NT 10.0; Win64; x64; rv:107.0) Gecko/20100101 Firefox/107.0","","Firefox","107.0","Windows","10.0","57510","","{""Aggression1"":2,""Aggression2"":2,""Aggression3"":3,""Aggression4"":1,""Aggression5"":4,""Aggression6"":2,""Aggression7"":0,""Aggression8"":3,""Aggression9"":3}","[0,1,2,3,4,5,6,7,8]"
"","","","","","html-button-response","140","455153","0.0-13.0","164","1","2022-11-21 09:29:41","7b1eb8be57ff77859c7d9ac988e43411","219.142.99.15","Mozilla/5.0 (Windows NT 10.0; Win64; x64; rv:107.0) Gecko/20100101 Firefox/107.0","","Firefox","107.0","Windows","10.0","1471","<p><strong>请判断你在多大程度上同意下列陈述。</strong></p>","0",""
"","","","","","survey-likert","141","568063","0.0-14.0","164","1","2022-11-21 09:29:41","7b1eb8be57ff77859c7d9ac988e43411","219.142.99.15","Mozilla/5.0 (Windows NT 10.0; Win64; x64; rv:107.0) Gecko/20100101 Firefox/107.0","","Firefox","107.0","Windows","10.0","112906","","{""scale12"":1,""scale13"":1,""scale10"":3,""scale19"":2,""scale27"":1,""scale9"":3,""scale26"":4,""scale17"":3,""scale22"":1,""scale25"":1,""scale18"":1,""scale2"":3,""scale1"":3,""scale3"":3,""scale15"":2,""scale5"":4,""scale14"":1,""scale6"":3,""scale20"":3,""scale28"":2,""scale4"":3,""scale23"":3,""scale21"":3,""scale8"":1,""scale7"":1,""scale16"":1,""scale11"":2,""scale24"":1}","[11,12,9,18,26,8,25,16,21,24,17,1,0,2,14,4,13,5,19,27,3,22,20,7,6,15,10,23]"
"","","","","","html-button-response","142","569252","0.0-15.0","164","1","2022-11-21 09:29:41","7b1eb8be57ff77859c7d9ac988e43411","219.142.99.15","Mozilla/5.0 (Windows NT 10.0; Win64; x64; rv:107.0) Gecko/20100101 Firefox/107.0","","Firefox","107.0","Windows","10.0","1187","<p><strong>请判断你在多大程度上同意下列陈述。</strong></p>","0",""
"","","","","","survey-likert","143","673140","0.0-16.0","164","1","2022-11-21 09:29:41","7b1eb8be57ff77859c7d9ac988e43411","219.142.99.15","Mozilla/5.0 (Windows NT 10.0; Win64; x64; rv:107.0) Gecko/20100101 Firefox/107.0","","Firefox","107.0","Windows","10.0","103885","","{""sdo4"":5,""sdo7"":0,""sdo8"":1,""sdo16"":6,""sdo5"":0,""sdo6"":0,""sdo14"":6,""sdo12"":6,""sdo11"":6,""sdo15"":6,""sdo9"":6,""sdo1"":0,""sdo13"":6,""sdo3"":1,""sdo2"":5,""sdo10"":6}","[3,6,7,15,4,5,13,11,10,14,8,0,12,2,1,9]"
"","","","","","html-button-response","144","674535","0.0-17.0","164","1","2022-11-21 09:29:41","7b1eb8be57ff77859c7d9ac988e43411","219.142.99.15","Mozilla/5.0 (Windows NT 10.0; Win64; x64; rv:107.0) Gecko/20100101 Firefox/107.0","","Firefox","107.0","Windows","10.0","1390","<p><strong>请判断你在多大程度上同意下列陈述。</strong></p>","0",""
"","","","","","survey-likert","145","760193","0.0-18.0","164","1","2022-11-21 09:29:41","7b1eb8be57ff77859c7d9ac988e43411","219.142.99.15","Mozilla/5.0 (Windows NT 10.0; Win64; x64; rv:107.0) Gecko/20100101 Firefox/107.0","","Firefox","107.0","Windows","10.0","85654","","{""caring1"":1,""liking1"":2,""caring2"":3,""protection1"":3,""liking2"":1,""caring3"":2,""protection2"":2,""liking3"":2,""protection3"":3,""caring4"":3,""liking4"":1,""protection4"":3,""caring5"":2,""liking5"":3,""protection5"":3}","[0,1,2,3,4,5,6,7,8,9,10,11,12,13,14]"
"","","","","","html-button-response","146","761426","0.0-19.0","164","1","2022-11-21 09:29:41","7b1eb8be57ff77859c7d9ac988e43411","219.142.99.15","Mozilla/5.0 (Windows NT 10.0; Win64; x64; rv:107.0) Gecko/20100101 Firefox/107.0","","Firefox","107.0","Windows","10.0","1231","<p><strong>请判断下列场景中你的内心感受有多柔软。</strong></p>","0",""
"","","","","","survey-likert","147","802960","0.0-20.0","164","1","2022-11-21 09:29:41","7b1eb8be57ff77859c7d9ac988e43411","219.142.99.15","Mozilla/5.0 (Windows NT 10.0; Win64; x64; rv:107.0) Gecko/20100101 Firefox/107.0","","Firefox","107.0","Windows","10.0","41530","","{""tenderness-positive1"":3,""tenderness-negative1"":2,""tenderness-negative2"":1,""tenderness-positive2"":3,""tenderness-positive3"":3,""tenderness-negative3"":2,""tenderness-positive4"":3,""tenderness-negative4"":2,""tenderness-negative5"":2,""tenderness-positive5"":3}","[0,1,2,3,4,5,6,7,8,9]"
"","","","","","survey-multi-choice","148","810373","0.0-21.0","164","1","2022-11-21 09:29:41","7b1eb8be57ff77859c7d9ac988e43411","219.142.99.15","Mozilla/5.0 (Windows NT 10.0; Win64; x64; rv:107.0) Gecko/20100101 Firefox/107.0","","Firefox","107.0","Windows","10.0","7410","","{""Attention2"":""其他""}","[0]"
"","","","","","html-button-response","149","811537","0.0-22.0","164","1","2022-11-21 09:29:41","7b1eb8be57ff77859c7d9ac988e43411","219.142.99.15","Mozilla/5.0 (Windows NT 10.0; Win64; x64; rv:107.0) Gecko/20100101 Firefox/107.0","","Firefox","107.0","Windows","10.0","1160","<p><strong>请判断你在多大程度上同意下列陈述。</strong></p>","0",""
"","","","","","survey-likert","150","944245","0.0-23.0","164","1","2022-11-21 09:29:41","7b1eb8be57ff77859c7d9ac988e43411","219.142.99.15","Mozilla/5.0 (Windows NT 10.0; Win64; x64; rv:107.0) Gecko/20100101 Firefox/107.0","","Firefox","107.0","Windows","10.0","132705","","{""Patri11"":1,""Patri8"":3,""Nation5"":2,""Patri9"":2,""Nation8"":2,""Nation6"":2,""Patri6"":1,""Patri4"":3,""Patri12"":2,""Nation3"":2,""Nation7"":2,""Nation1"":2,""Patri1"":3,""Patri3"":3,""Nation4"":2,""Nation2"":2,""Patri2"":3,""Patri10"":1,""Patri5"":3,""Patri7"":3}","[10,7,16,8,19,17,5,3,11,14,18,12,0,2,15,13,1,9,4,6]"
"","","","","","html-button-response","151","945406","0.0-24.0","164","1","2022-11-21 09:29:41","7b1eb8be57ff77859c7d9ac988e43411","219.142.99.15","Mozilla/5.0 (Windows NT 10.0; Win64; x64; rv:107.0) Gecko/20100101 Firefox/107.0","","Firefox","107.0","Windows","10.0","1158","<p><strong>请判断你在多大程度上同意下列陈述。</strong></p>","0",""
"","","","","","survey-likert","152","1019065","0.0-25.0","164","1","2022-11-21 09:29:41","7b1eb8be57ff77859c7d9ac988e43411","219.142.99.15","Mozilla/5.0 (Windows NT 10.0; Win64; x64; rv:107.0) Gecko/20100101 Firefox/107.0","","Firefox","107.0","Windows","10.0","73655","","{""hi3"":6,""vi1"":6,""hc2"":6,""vi3"":8,""vi2"":6,""vi4"":6,""hi4"":7,""vc2"":4,""hi2"":4,""hi1"":6,""vc3"":6,""hc3"":6,""Robot"":6,""hc1"":6,""vc4"":6,""hc4"":4,""vc1"":6}","[2,4,10,6,5,8,3,14,1,0,15,11,7,9,16,12,13]"
"","","","","","survey-text","153","1064891","0.0-26.0","164","1","2022-11-21 09:29:41","7b1eb8be57ff77859c7d9ac988e43411","219.142.99.15","Mozilla/5.0 (Windows NT 10.0; Win64; x64; rv:107.0) Gecko/20100101 Firefox/107.0","","Firefox","107.0","Windows","10.0","45821","","{""Comments"":""重复问题挺多的，与其他实验有很多相似的问题""}",""
"","","","","","html-button-response","154","1066053","0.0-27.0","164","1","2022-11-21 09:29:41","7b1eb8be57ff77859c7d9ac988e43411","219.142.99.15","Mozilla/5.0 (Windows NT 10.0; Win64; x64; rv:107.0) Gecko/20100101 Firefox/107.0","","Firefox","107.0","Windows","10.0","1158","<strong><p>恭喜你完成了实验！</p><p>感谢您的参与。</p></strong>","0",""
