"success","timeout","failed_images","failed_audio","failed_video","trial_type","trial_index","time_elapsed","internal_node_id","run_id","condition","recorded_at","source_code_version","ip","user_agent","device","browser","browser_version","platform","platform_version","rt","stimulus","response","question_order"
"true","false","[]","[]","[]","preload","0","3640","0.0-0.0","177","1","2022-11-21 11:59:05","7b1eb8be57ff77859c7d9ac988e43411","219.142.99.7","Mozilla/5.0 (Windows NT 6.1; WOW64) AppleWebKit/537.36 (KHTML, like Gecko) Chrome/81.0.4044.138 Safari/537.36 NetType/WIFI MicroMessenger/7.0.20.1781(0x6700143B) WindowsWechat(0x63080029)","WebKit","Chrome","81.0.4044.138","Windows","6.1","","","",""
"true","","","","","fullscreen","1","1134331","0.0-1.0","177","1","2022-11-21 11:59:05","7b1eb8be57ff77859c7d9ac988e43411","219.142.99.7","Mozilla/5.0 (Windows NT 6.1; WOW64) AppleWebKit/537.36 (KHTML, like Gecko) Chrome/81.0.4044.138 Safari/537.36 NetType/WIFI MicroMessenger/7.0.20.1781(0x6700143B) WindowsWechat(0x63080029)","WebKit","Chrome","81.0.4044.138","Windows","6.1","","","",""
"","","","","","html-button-response","2","1150560","0.0-2.0","177","1","2022-11-21 11:59:05","7b1eb8be57ff77859c7d9ac988e43411","219.142.99.7","Mozilla/5.0 (Windows NT 6.1; WOW64) AppleWebKit/537.36 (KHTML, like Gecko) Chrome/81.0.4044.138 Safari/537.36 NetType/WIFI MicroMessenger/7.0.20.1781(0x6700143B) WindowsWechat(0x63080029)","WebKit","Chrome","81.0.4044.138","Windows","6.1","16228","<p style=""font-size:20px;font-weight:bold;"">实验知情同意书</p><p style=""text-align:left;""><strong>实验名称：</strong>社会冲突研究</p><p style=""text-align:left;""><strong>主要研究者：</strong>韩晓春副教授（北京师范大学心理学部）</p><p style=""text-align:left;""><strong>联系方式：</strong>发送邮件至xiaochun.han@bnu.edu.cn</p><p style=""text-align:left;""><strong>研究目的：</strong>研究旨在了解人类面对群体冲突时的决策方式，以及相关的心理学特质。实验调查大约需要20分钟。</p><p style=""text-align:left;""><strong>实验流程：</strong>实验包含两部分。第一部分呈现一系列群体冲突场景，请你决定如何对这些冲突进行反应，大约需要10分钟完成。第二部分包含一系列人口统计学信息收集和心理学问卷，大约需要10分钟完成。</p><p style=""text-align:left;""><strong>参加及退出规则：</strong>参加本实验完全取决于您的个人意愿。在参与过程中，您可以随时退出，并且不用承担任何后果。</p><p style=""text-align:left;""><strong>隐私：</strong>本实验完全匿名进行，不会收集您的姓名或其他能够识别您身份的信息。实验中收集的作答仅用作科学研究使用，可能会在学术期刊/书籍上发表，或者用于教学，您的数据未来可能会和其他研究者或实验室分享，但您的个人身份不会被识别。</p><p style=""text-align:left;""><strong>实验报酬：</strong>实验完成后，您将获得15元人民币报酬，以感谢您的时间和努力。调查问卷中包含几道题目用以测验您作答时的认真度。只有完成全部实验，并且正确回答认真度测验的被试才能获得实验报酬。实验报酬将通过支付宝转账发放。</p><p style=""text-align:left;font-size:20px;""><strong>如果您同意以上实验知情同意书的内容，请点击'同意并且开始实验'按钮；否则请关闭浏览器界面，退出实验。</strong></p>","0",""
"","","","","","html-button-response","3","1175097","0.0-3.0","177","1","2022-11-21 11:59:05","7b1eb8be57ff77859c7d9ac988e43411","219.142.99.7","Mozilla/5.0 (Windows NT 6.1; WOW64) AppleWebKit/537.36 (KHTML, like Gecko) Chrome/81.0.4044.138 Safari/537.36 NetType/WIFI MicroMessenger/7.0.20.1781(0x6700143B) WindowsWechat(0x63080029)","WebKit","Chrome","81.0.4044.138","Windows","6.1","24535","<p ><strong>实验任务一：</strong></p><p>请想象你的国家与另一个国家发生了军事冲突。</p><p>你是国家军队的指挥官，你将如何在冲突中进行决策。</p><p>具体来说，作为军队指挥官，请你决定是否发射导弹进行打击。</p><p>接下来，你会面对一系列场景，请仔细阅读每个场景，然后进行决策。</p><p>这部分实验任务大约需要10分钟。</p><p><strong>实验过程中，请集中注意力。</strong></p>","0",""
"","","","","","html-keyboard-response","4","1176099","0.0-4.0-0.0","177","1","2022-11-21 11:59:05","7b1eb8be57ff77859c7d9ac988e43411","219.142.99.7","Mozilla/5.0 (Windows NT 6.1; WOW64) AppleWebKit/537.36 (KHTML, like Gecko) Chrome/81.0.4044.138 Safari/537.36 NetType/WIFI MicroMessenger/7.0.20.1781(0x6700143B) WindowsWechat(0x63080029)","WebKit","Chrome","81.0.4044.138","Windows","6.1","null","<div style=""font-size:60px;"">+</div>","null",""
"","","","","","html-button-response","5","1187152","0.0-4.0-1.0","177","1","2022-11-21 11:59:05","7b1eb8be57ff77859c7d9ac988e43411","219.142.99.7","Mozilla/5.0 (Windows NT 6.1; WOW64) AppleWebKit/537.36 (KHTML, like Gecko) Chrome/81.0.4044.138 Safari/537.36 NetType/WIFI MicroMessenger/7.0.20.1781(0x6700143B) WindowsWechat(0x63080029)","WebKit","Chrome","81.0.4044.138","Windows","6.1","11051","<p>作为军队的指挥官，你可以选择发射导弹杀死 <strong>9名</strong> 敌国士兵，但会炸毁附近的 <strong>1棵</strong> 敌国树木。</p> <p>树木的照片如下图所示。</p> <p></p> <img src='stimuli/trees/11.png', style='max-width: 30%;'> </img> <p><strong>你是否选择发射武器？</strong></p>","0",""
"","","","","","html-keyboard-response","6","1188154","0.0-4.0-0.1","177","1","2022-11-21 11:59:05","7b1eb8be57ff77859c7d9ac988e43411","219.142.99.7","Mozilla/5.0 (Windows NT 6.1; WOW64) AppleWebKit/537.36 (KHTML, like Gecko) Chrome/81.0.4044.138 Safari/537.36 NetType/WIFI MicroMessenger/7.0.20.1781(0x6700143B) WindowsWechat(0x63080029)","WebKit","Chrome","81.0.4044.138","Windows","6.1","null","<div style=""font-size:60px;"">+</div>","null",""
"","","","","","html-button-response","7","1198754","0.0-4.0-1.1","177","1","2022-11-21 11:59:05","7b1eb8be57ff77859c7d9ac988e43411","219.142.99.7","Mozilla/5.0 (Windows NT 6.1; WOW64) AppleWebKit/537.36 (KHTML, like Gecko) Chrome/81.0.4044.138 Safari/537.36 NetType/WIFI MicroMessenger/7.0.20.1781(0x6700143B) WindowsWechat(0x63080029)","WebKit","Chrome","81.0.4044.138","Windows","6.1","10612","<p>作为军队的指挥官，你可以选择发射导弹杀死 <strong>4名</strong> 敌国士兵，但会误杀附近的 <strong>1名</strong> 敌国平民。</p> <p>平民照片如下图所示。</p> <p></p> <img src='stimuli/faces/PCM1.jpg', style='max-width: 30%;'> </img> <p><strong>你是否选择发射武器？</strong></p>","1",""
"","","","","","html-keyboard-response","8","1199756","0.0-4.0-0.2","177","1","2022-11-21 11:59:05","7b1eb8be57ff77859c7d9ac988e43411","219.142.99.7","Mozilla/5.0 (Windows NT 6.1; WOW64) AppleWebKit/537.36 (KHTML, like Gecko) Chrome/81.0.4044.138 Safari/537.36 NetType/WIFI MicroMessenger/7.0.20.1781(0x6700143B) WindowsWechat(0x63080029)","WebKit","Chrome","81.0.4044.138","Windows","6.1","null","<div style=""font-size:60px;"">+</div>","null",""
"","","","","","html-button-response","9","1205852","0.0-4.0-1.2","177","1","2022-11-21 11:59:05","7b1eb8be57ff77859c7d9ac988e43411","219.142.99.7","Mozilla/5.0 (Windows NT 6.1; WOW64) AppleWebKit/537.36 (KHTML, like Gecko) Chrome/81.0.4044.138 Safari/537.36 NetType/WIFI MicroMessenger/7.0.20.1781(0x6700143B) WindowsWechat(0x63080029)","WebKit","Chrome","81.0.4044.138","Windows","6.1","6094","<p>作为军队的指挥官，你可以选择发射导弹杀死 <strong>9名</strong> 敌国士兵，但会炸毁附近的 <strong>1棵</strong> 敌国树木。</p> <p>树木的照片如下图所示。</p> <p></p> <img src='stimuli/trees/6.png', style='max-width: 30%;'> </img> <p><strong>你是否选择发射武器？</strong></p>","0",""
"","","","","","html-keyboard-response","10","1206854","0.0-4.0-0.3","177","1","2022-11-21 11:59:05","7b1eb8be57ff77859c7d9ac988e43411","219.142.99.7","Mozilla/5.0 (Windows NT 6.1; WOW64) AppleWebKit/537.36 (KHTML, like Gecko) Chrome/81.0.4044.138 Safari/537.36 NetType/WIFI MicroMessenger/7.0.20.1781(0x6700143B) WindowsWechat(0x63080029)","WebKit","Chrome","81.0.4044.138","Windows","6.1","null","<div style=""font-size:60px;"">+</div>","null",""
"","","","","","html-button-response","11","1210693","0.0-4.0-1.3","177","1","2022-11-21 11:59:05","7b1eb8be57ff77859c7d9ac988e43411","219.142.99.7","Mozilla/5.0 (Windows NT 6.1; WOW64) AppleWebKit/537.36 (KHTML, like Gecko) Chrome/81.0.4044.138 Safari/537.36 NetType/WIFI MicroMessenger/7.0.20.1781(0x6700143B) WindowsWechat(0x63080029)","WebKit","Chrome","81.0.4044.138","Windows","6.1","3838","<p>作为军队的指挥官，你可以选择发射导弹杀死 <strong>9名</strong> 敌国士兵，但会炸毁附近的 <strong>1棵</strong> 敌国树木。</p> <p>树木的照片如下图所示。</p> <p></p> <img src='stimuli/trees/7.png', style='max-width: 30%;'> </img> <p><strong>你是否选择发射武器？</strong></p>","0",""
"","","","","","html-keyboard-response","12","1211696","0.0-4.0-0.4","177","1","2022-11-21 11:59:05","7b1eb8be57ff77859c7d9ac988e43411","219.142.99.7","Mozilla/5.0 (Windows NT 6.1; WOW64) AppleWebKit/537.36 (KHTML, like Gecko) Chrome/81.0.4044.138 Safari/537.36 NetType/WIFI MicroMessenger/7.0.20.1781(0x6700143B) WindowsWechat(0x63080029)","WebKit","Chrome","81.0.4044.138","Windows","6.1","null","<div style=""font-size:60px;"">+</div>","null",""
"","","","","","html-button-response","13","1214012","0.0-4.0-1.4","177","1","2022-11-21 11:59:05","7b1eb8be57ff77859c7d9ac988e43411","219.142.99.7","Mozilla/5.0 (Windows NT 6.1; WOW64) AppleWebKit/537.36 (KHTML, like Gecko) Chrome/81.0.4044.138 Safari/537.36 NetType/WIFI MicroMessenger/7.0.20.1781(0x6700143B) WindowsWechat(0x63080029)","WebKit","Chrome","81.0.4044.138","Windows","6.1","2314","<p>作为军队的指挥官，你可以选择发射导弹杀死 <strong>7名</strong> 敌国士兵，但会炸毁附近的 <strong>1棵</strong> 敌国树木。</p> <p>树木的照片如下图所示。</p> <p></p> <img src='stimuli/trees/3.png', style='max-width: 30%;'> </img> <p><strong>你是否选择发射武器？</strong></p>","0",""
"","","","","","html-keyboard-response","14","1215015","0.0-4.0-0.5","177","1","2022-11-21 11:59:05","7b1eb8be57ff77859c7d9ac988e43411","219.142.99.7","Mozilla/5.0 (Windows NT 6.1; WOW64) AppleWebKit/537.36 (KHTML, like Gecko) Chrome/81.0.4044.138 Safari/537.36 NetType/WIFI MicroMessenger/7.0.20.1781(0x6700143B) WindowsWechat(0x63080029)","WebKit","Chrome","81.0.4044.138","Windows","6.1","null","<div style=""font-size:60px;"">+</div>","null",""
"","","","","","html-button-response","15","1218882","0.0-4.0-1.5","177","1","2022-11-21 11:59:05","7b1eb8be57ff77859c7d9ac988e43411","219.142.99.7","Mozilla/5.0 (Windows NT 6.1; WOW64) AppleWebKit/537.36 (KHTML, like Gecko) Chrome/81.0.4044.138 Safari/537.36 NetType/WIFI MicroMessenger/7.0.20.1781(0x6700143B) WindowsWechat(0x63080029)","WebKit","Chrome","81.0.4044.138","Windows","6.1","3865","<p>作为军队的指挥官，你可以选择发射导弹杀死 <strong>8名</strong> 敌国士兵，但会炸毁附近的 <strong>1棵</strong> 敌国树木。</p> <p>树木的照片如下图所示。</p> <p></p> <img src='stimuli/trees/8.png', style='max-width: 30%;'> </img> <p><strong>你是否选择发射武器？</strong></p>","0",""
"","","","","","html-keyboard-response","16","1219884","0.0-4.0-0.6","177","1","2022-11-21 11:59:05","7b1eb8be57ff77859c7d9ac988e43411","219.142.99.7","Mozilla/5.0 (Windows NT 6.1; WOW64) AppleWebKit/537.36 (KHTML, like Gecko) Chrome/81.0.4044.138 Safari/537.36 NetType/WIFI MicroMessenger/7.0.20.1781(0x6700143B) WindowsWechat(0x63080029)","WebKit","Chrome","81.0.4044.138","Windows","6.1","null","<div style=""font-size:60px;"">+</div>","null",""
"","","","","","html-button-response","17","1223121","0.0-4.0-1.6","177","1","2022-11-21 11:59:05","7b1eb8be57ff77859c7d9ac988e43411","219.142.99.7","Mozilla/5.0 (Windows NT 6.1; WOW64) AppleWebKit/537.36 (KHTML, like Gecko) Chrome/81.0.4044.138 Safari/537.36 NetType/WIFI MicroMessenger/7.0.20.1781(0x6700143B) WindowsWechat(0x63080029)","WebKit","Chrome","81.0.4044.138","Windows","6.1","3235","<p>作为军队的指挥官，你可以选择发射导弹杀死 <strong>8名</strong> 敌国士兵，但会炸毁附近的 <strong>1棵</strong> 敌国树木。</p> <p>树木的照片如下图所示。</p> <p></p> <img src='stimuli/trees/4.png', style='max-width: 30%;'> </img> <p><strong>你是否选择发射武器？</strong></p>","0",""
"","","","","","html-keyboard-response","18","1224123","0.0-4.0-0.7","177","1","2022-11-21 11:59:05","7b1eb8be57ff77859c7d9ac988e43411","219.142.99.7","Mozilla/5.0 (Windows NT 6.1; WOW64) AppleWebKit/537.36 (KHTML, like Gecko) Chrome/81.0.4044.138 Safari/537.36 NetType/WIFI MicroMessenger/7.0.20.1781(0x6700143B) WindowsWechat(0x63080029)","WebKit","Chrome","81.0.4044.138","Windows","6.1","null","<div style=""font-size:60px;"">+</div>","null",""
"","","","","","html-button-response","19","1228556","0.0-4.0-1.7","177","1","2022-11-21 11:59:05","7b1eb8be57ff77859c7d9ac988e43411","219.142.99.7","Mozilla/5.0 (Windows NT 6.1; WOW64) AppleWebKit/537.36 (KHTML, like Gecko) Chrome/81.0.4044.138 Safari/537.36 NetType/WIFI MicroMessenger/7.0.20.1781(0x6700143B) WindowsWechat(0x63080029)","WebKit","Chrome","81.0.4044.138","Windows","6.1","4431","<p>作为军队的指挥官，你可以选择发射导弹杀死 <strong>6名</strong> 敌国士兵，但会误杀附近的 <strong>1名</strong> 敌国平民。</p> <p>平民照片如下图所示。</p> <p></p> <img src='stimuli/faces/PCF3.jpg', style='max-width: 30%;'> </img> <p><strong>你是否选择发射武器？</strong></p>","1",""
"","","","","","html-keyboard-response","20","1229557","0.0-4.0-0.8","177","1","2022-11-21 11:59:05","7b1eb8be57ff77859c7d9ac988e43411","219.142.99.7","Mozilla/5.0 (Windows NT 6.1; WOW64) AppleWebKit/537.36 (KHTML, like Gecko) Chrome/81.0.4044.138 Safari/537.36 NetType/WIFI MicroMessenger/7.0.20.1781(0x6700143B) WindowsWechat(0x63080029)","WebKit","Chrome","81.0.4044.138","Windows","6.1","null","<div style=""font-size:60px;"">+</div>","null",""
"","","","","","html-button-response","21","1233179","0.0-4.0-1.8","177","1","2022-11-21 11:59:05","7b1eb8be57ff77859c7d9ac988e43411","219.142.99.7","Mozilla/5.0 (Windows NT 6.1; WOW64) AppleWebKit/537.36 (KHTML, like Gecko) Chrome/81.0.4044.138 Safari/537.36 NetType/WIFI MicroMessenger/7.0.20.1781(0x6700143B) WindowsWechat(0x63080029)","WebKit","Chrome","81.0.4044.138","Windows","6.1","3621","<p>作为军队的指挥官，你可以选择发射导弹杀死 <strong>6名</strong> 敌国士兵，但会误杀附近的 <strong>1名</strong> 敌国平民。</p> <p>平民照片如下图所示。</p> <p></p> <img src='stimuli/faces/PCM3.jpg', style='max-width: 30%;'> </img> <p><strong>你是否选择发射武器？</strong></p>","1",""
"","","","","","html-keyboard-response","22","1234181","0.0-4.0-0.9","177","1","2022-11-21 11:59:05","7b1eb8be57ff77859c7d9ac988e43411","219.142.99.7","Mozilla/5.0 (Windows NT 6.1; WOW64) AppleWebKit/537.36 (KHTML, like Gecko) Chrome/81.0.4044.138 Safari/537.36 NetType/WIFI MicroMessenger/7.0.20.1781(0x6700143B) WindowsWechat(0x63080029)","WebKit","Chrome","81.0.4044.138","Windows","6.1","null","<div style=""font-size:60px;"">+</div>","null",""
"","","","","","html-button-response","23","1238055","0.0-4.0-1.9","177","1","2022-11-21 11:59:05","7b1eb8be57ff77859c7d9ac988e43411","219.142.99.7","Mozilla/5.0 (Windows NT 6.1; WOW64) AppleWebKit/537.36 (KHTML, like Gecko) Chrome/81.0.4044.138 Safari/537.36 NetType/WIFI MicroMessenger/7.0.20.1781(0x6700143B) WindowsWechat(0x63080029)","WebKit","Chrome","81.0.4044.138","Windows","6.1","3872","<p>作为军队的指挥官，你可以选择发射导弹杀死 <strong>1名</strong> 敌国士兵，但会炸毁附近的 <strong>1棵</strong> 敌国树木。</p> <p>树木的照片如下图所示。</p> <p></p> <img src='stimuli/trees/8.png', style='max-width: 30%;'> </img> <p><strong>你是否选择发射武器？</strong></p>","1",""
"","","","","","html-keyboard-response","24","1239056","0.0-4.0-0.10","177","1","2022-11-21 11:59:05","7b1eb8be57ff77859c7d9ac988e43411","219.142.99.7","Mozilla/5.0 (Windows NT 6.1; WOW64) AppleWebKit/537.36 (KHTML, like Gecko) Chrome/81.0.4044.138 Safari/537.36 NetType/WIFI MicroMessenger/7.0.20.1781(0x6700143B) WindowsWechat(0x63080029)","WebKit","Chrome","81.0.4044.138","Windows","6.1","null","<div style=""font-size:60px;"">+</div>","null",""
"","","","","","html-button-response","25","1241503","0.0-4.0-1.10","177","1","2022-11-21 11:59:05","7b1eb8be57ff77859c7d9ac988e43411","219.142.99.7","Mozilla/5.0 (Windows NT 6.1; WOW64) AppleWebKit/537.36 (KHTML, like Gecko) Chrome/81.0.4044.138 Safari/537.36 NetType/WIFI MicroMessenger/7.0.20.1781(0x6700143B) WindowsWechat(0x63080029)","WebKit","Chrome","81.0.4044.138","Windows","6.1","2446","<p>作为军队的指挥官，你可以选择发射导弹杀死 <strong>4名</strong> 敌国士兵，但会误杀附近的 <strong>1名</strong> 敌国平民。</p> <p>平民照片如下图所示。</p> <p></p> <img src='stimuli/faces/PCM6.jpg', style='max-width: 30%;'> </img> <p><strong>你是否选择发射武器？</strong></p>","1",""
"","","","","","html-keyboard-response","26","1242506","0.0-4.0-0.11","177","1","2022-11-21 11:59:05","7b1eb8be57ff77859c7d9ac988e43411","219.142.99.7","Mozilla/5.0 (Windows NT 6.1; WOW64) AppleWebKit/537.36 (KHTML, like Gecko) Chrome/81.0.4044.138 Safari/537.36 NetType/WIFI MicroMessenger/7.0.20.1781(0x6700143B) WindowsWechat(0x63080029)","WebKit","Chrome","81.0.4044.138","Windows","6.1","null","<div style=""font-size:60px;"">+</div>","null",""
"","","","","","html-button-response","27","1244719","0.0-4.0-1.11","177","1","2022-11-21 11:59:05","7b1eb8be57ff77859c7d9ac988e43411","219.142.99.7","Mozilla/5.0 (Windows NT 6.1; WOW64) AppleWebKit/537.36 (KHTML, like Gecko) Chrome/81.0.4044.138 Safari/537.36 NetType/WIFI MicroMessenger/7.0.20.1781(0x6700143B) WindowsWechat(0x63080029)","WebKit","Chrome","81.0.4044.138","Windows","6.1","2211","<p>作为军队的指挥官，你可以选择发射导弹杀死 <strong>4名</strong> 敌国士兵，但会炸毁附近的 <strong>1棵</strong> 敌国树木。</p> <p>树木的照片如下图所示。</p> <p></p> <img src='stimuli/trees/2.png', style='max-width: 30%;'> </img> <p><strong>你是否选择发射武器？</strong></p>","0",""
"","","","","","html-keyboard-response","28","1245721","0.0-4.0-0.12","177","1","2022-11-21 11:59:05","7b1eb8be57ff77859c7d9ac988e43411","219.142.99.7","Mozilla/5.0 (Windows NT 6.1; WOW64) AppleWebKit/537.36 (KHTML, like Gecko) Chrome/81.0.4044.138 Safari/537.36 NetType/WIFI MicroMessenger/7.0.20.1781(0x6700143B) WindowsWechat(0x63080029)","WebKit","Chrome","81.0.4044.138","Windows","6.1","null","<div style=""font-size:60px;"">+</div>","null",""
"","","","","","html-button-response","29","1252003","0.0-4.0-1.12","177","1","2022-11-21 11:59:05","7b1eb8be57ff77859c7d9ac988e43411","219.142.99.7","Mozilla/5.0 (Windows NT 6.1; WOW64) AppleWebKit/537.36 (KHTML, like Gecko) Chrome/81.0.4044.138 Safari/537.36 NetType/WIFI MicroMessenger/7.0.20.1781(0x6700143B) WindowsWechat(0x63080029)","WebKit","Chrome","81.0.4044.138","Windows","6.1","6281","<p>作为军队的指挥官，你可以选择发射导弹杀死 <strong>10名</strong> 敌国士兵，但会误杀附近的 <strong>1名</strong> 敌国平民。</p> <p>平民照片如下图所示。</p> <p></p> <img src='stimuli/faces/PCM7.jpg', style='max-width: 30%;'> </img> <p><strong>你是否选择发射武器？</strong></p>","1",""
"","","","","","html-keyboard-response","30","1253006","0.0-4.0-0.13","177","1","2022-11-21 11:59:05","7b1eb8be57ff77859c7d9ac988e43411","219.142.99.7","Mozilla/5.0 (Windows NT 6.1; WOW64) AppleWebKit/537.36 (KHTML, like Gecko) Chrome/81.0.4044.138 Safari/537.36 NetType/WIFI MicroMessenger/7.0.20.1781(0x6700143B) WindowsWechat(0x63080029)","WebKit","Chrome","81.0.4044.138","Windows","6.1","null","<div style=""font-size:60px;"">+</div>","null",""
"","","","","","html-button-response","31","1257870","0.0-4.0-1.13","177","1","2022-11-21 11:59:05","7b1eb8be57ff77859c7d9ac988e43411","219.142.99.7","Mozilla/5.0 (Windows NT 6.1; WOW64) AppleWebKit/537.36 (KHTML, like Gecko) Chrome/81.0.4044.138 Safari/537.36 NetType/WIFI MicroMessenger/7.0.20.1781(0x6700143B) WindowsWechat(0x63080029)","WebKit","Chrome","81.0.4044.138","Windows","6.1","4862","<p>作为军队的指挥官，你可以选择发射导弹杀死 <strong>2名</strong> 敌国士兵，但会炸毁附近的 <strong>1棵</strong> 敌国树木。</p> <p>树木的照片如下图所示。</p> <p></p> <img src='stimuli/trees/14.png', style='max-width: 30%;'> </img> <p><strong>你是否选择发射武器？</strong></p>","1",""
"","","","","","html-keyboard-response","32","1258862","0.0-4.0-0.14","177","1","2022-11-21 11:59:05","7b1eb8be57ff77859c7d9ac988e43411","219.142.99.7","Mozilla/5.0 (Windows NT 6.1; WOW64) AppleWebKit/537.36 (KHTML, like Gecko) Chrome/81.0.4044.138 Safari/537.36 NetType/WIFI MicroMessenger/7.0.20.1781(0x6700143B) WindowsWechat(0x63080029)","WebKit","Chrome","81.0.4044.138","Windows","6.1","null","<div style=""font-size:60px;"">+</div>","null",""
"","","","","","html-button-response","33","1261223","0.0-4.0-1.14","177","1","2022-11-21 11:59:05","7b1eb8be57ff77859c7d9ac988e43411","219.142.99.7","Mozilla/5.0 (Windows NT 6.1; WOW64) AppleWebKit/537.36 (KHTML, like Gecko) Chrome/81.0.4044.138 Safari/537.36 NetType/WIFI MicroMessenger/7.0.20.1781(0x6700143B) WindowsWechat(0x63080029)","WebKit","Chrome","81.0.4044.138","Windows","6.1","2359","<p>作为军队的指挥官，你可以选择发射导弹杀死 <strong>2名</strong> 敌国士兵，但会炸毁附近的 <strong>1棵</strong> 敌国树木。</p> <p>树木的照片如下图所示。</p> <p></p> <img src='stimuli/trees/12.png', style='max-width: 30%;'> </img> <p><strong>你是否选择发射武器？</strong></p>","1",""
"","","","","","html-keyboard-response","34","1262225","0.0-4.0-0.15","177","1","2022-11-21 11:59:05","7b1eb8be57ff77859c7d9ac988e43411","219.142.99.7","Mozilla/5.0 (Windows NT 6.1; WOW64) AppleWebKit/537.36 (KHTML, like Gecko) Chrome/81.0.4044.138 Safari/537.36 NetType/WIFI MicroMessenger/7.0.20.1781(0x6700143B) WindowsWechat(0x63080029)","WebKit","Chrome","81.0.4044.138","Windows","6.1","null","<div style=""font-size:60px;"">+</div>","null",""
"","","","","","html-button-response","35","1263969","0.0-4.0-1.15","177","1","2022-11-21 11:59:05","7b1eb8be57ff77859c7d9ac988e43411","219.142.99.7","Mozilla/5.0 (Windows NT 6.1; WOW64) AppleWebKit/537.36 (KHTML, like Gecko) Chrome/81.0.4044.138 Safari/537.36 NetType/WIFI MicroMessenger/7.0.20.1781(0x6700143B) WindowsWechat(0x63080029)","WebKit","Chrome","81.0.4044.138","Windows","6.1","1743","<p>作为军队的指挥官，你可以选择发射导弹杀死 <strong>1名</strong> 敌国士兵，但会炸毁附近的 <strong>1棵</strong> 敌国树木。</p> <p>树木的照片如下图所示。</p> <p></p> <img src='stimuli/trees/13.png', style='max-width: 30%;'> </img> <p><strong>你是否选择发射武器？</strong></p>","1",""
"","","","","","html-keyboard-response","36","1264971","0.0-4.0-0.16","177","1","2022-11-21 11:59:05","7b1eb8be57ff77859c7d9ac988e43411","219.142.99.7","Mozilla/5.0 (Windows NT 6.1; WOW64) AppleWebKit/537.36 (KHTML, like Gecko) Chrome/81.0.4044.138 Safari/537.36 NetType/WIFI MicroMessenger/7.0.20.1781(0x6700143B) WindowsWechat(0x63080029)","WebKit","Chrome","81.0.4044.138","Windows","6.1","null","<div style=""font-size:60px;"">+</div>","null",""
"","","","","","html-button-response","37","1267649","0.0-4.0-1.16","177","1","2022-11-21 11:59:05","7b1eb8be57ff77859c7d9ac988e43411","219.142.99.7","Mozilla/5.0 (Windows NT 6.1; WOW64) AppleWebKit/537.36 (KHTML, like Gecko) Chrome/81.0.4044.138 Safari/537.36 NetType/WIFI MicroMessenger/7.0.20.1781(0x6700143B) WindowsWechat(0x63080029)","WebKit","Chrome","81.0.4044.138","Windows","6.1","2676","<p>作为军队的指挥官，你可以选择发射导弹杀死 <strong>8名</strong> 敌国士兵，但会误杀附近的 <strong>1名</strong> 敌国平民。</p> <p>平民照片如下图所示。</p> <p></p> <img src='stimuli/faces/PCF4.jpg', style='max-width: 30%;'> </img> <p><strong>你是否选择发射武器？</strong></p>","1",""
"","","","","","html-keyboard-response","38","1268650","0.0-4.0-0.17","177","1","2022-11-21 11:59:05","7b1eb8be57ff77859c7d9ac988e43411","219.142.99.7","Mozilla/5.0 (Windows NT 6.1; WOW64) AppleWebKit/537.36 (KHTML, like Gecko) Chrome/81.0.4044.138 Safari/537.36 NetType/WIFI MicroMessenger/7.0.20.1781(0x6700143B) WindowsWechat(0x63080029)","WebKit","Chrome","81.0.4044.138","Windows","6.1","null","<div style=""font-size:60px;"">+</div>","null",""
"","","","","","html-button-response","39","1272424","0.0-4.0-1.17","177","1","2022-11-21 11:59:05","7b1eb8be57ff77859c7d9ac988e43411","219.142.99.7","Mozilla/5.0 (Windows NT 6.1; WOW64) AppleWebKit/537.36 (KHTML, like Gecko) Chrome/81.0.4044.138 Safari/537.36 NetType/WIFI MicroMessenger/7.0.20.1781(0x6700143B) WindowsWechat(0x63080029)","WebKit","Chrome","81.0.4044.138","Windows","6.1","3772","<p>作为军队的指挥官，你可以选择发射导弹杀死 <strong>4名</strong> 敌国士兵，但会误杀附近的 <strong>1名</strong> 敌国平民。</p> <p>平民照片如下图所示。</p> <p></p> <img src='stimuli/faces/PCF2.jpg', style='max-width: 30%;'> </img> <p><strong>你是否选择发射武器？</strong></p>","1",""
"","","","","","html-keyboard-response","40","1273426","0.0-4.0-0.18","177","1","2022-11-21 11:59:05","7b1eb8be57ff77859c7d9ac988e43411","219.142.99.7","Mozilla/5.0 (Windows NT 6.1; WOW64) AppleWebKit/537.36 (KHTML, like Gecko) Chrome/81.0.4044.138 Safari/537.36 NetType/WIFI MicroMessenger/7.0.20.1781(0x6700143B) WindowsWechat(0x63080029)","WebKit","Chrome","81.0.4044.138","Windows","6.1","null","<div style=""font-size:60px;"">+</div>","null",""
"","","","","","html-button-response","41","1275199","0.0-4.0-1.18","177","1","2022-11-21 11:59:05","7b1eb8be57ff77859c7d9ac988e43411","219.142.99.7","Mozilla/5.0 (Windows NT 6.1; WOW64) AppleWebKit/537.36 (KHTML, like Gecko) Chrome/81.0.4044.138 Safari/537.36 NetType/WIFI MicroMessenger/7.0.20.1781(0x6700143B) WindowsWechat(0x63080029)","WebKit","Chrome","81.0.4044.138","Windows","6.1","1771","<p>作为军队的指挥官，你可以选择发射导弹杀死 <strong>1名</strong> 敌国士兵，但会误杀附近的 <strong>1名</strong> 敌国平民。</p> <p>平民照片如下图所示。</p> <p></p> <img src='stimuli/faces/PCF1.jpg', style='max-width: 30%;'> </img> <p><strong>你是否选择发射武器？</strong></p>","1",""
"","","","","","html-keyboard-response","42","1276201","0.0-4.0-0.19","177","1","2022-11-21 11:59:05","7b1eb8be57ff77859c7d9ac988e43411","219.142.99.7","Mozilla/5.0 (Windows NT 6.1; WOW64) AppleWebKit/537.36 (KHTML, like Gecko) Chrome/81.0.4044.138 Safari/537.36 NetType/WIFI MicroMessenger/7.0.20.1781(0x6700143B) WindowsWechat(0x63080029)","WebKit","Chrome","81.0.4044.138","Windows","6.1","null","<div style=""font-size:60px;"">+</div>","null",""
"","","","","","html-button-response","43","1278147","0.0-4.0-1.19","177","1","2022-11-21 11:59:05","7b1eb8be57ff77859c7d9ac988e43411","219.142.99.7","Mozilla/5.0 (Windows NT 6.1; WOW64) AppleWebKit/537.36 (KHTML, like Gecko) Chrome/81.0.4044.138 Safari/537.36 NetType/WIFI MicroMessenger/7.0.20.1781(0x6700143B) WindowsWechat(0x63080029)","WebKit","Chrome","81.0.4044.138","Windows","6.1","1944","<p>作为军队的指挥官，你可以选择发射导弹杀死 <strong>8名</strong> 敌国士兵，但会炸毁附近的 <strong>1棵</strong> 敌国树木。</p> <p>树木的照片如下图所示。</p> <p></p> <img src='stimuli/trees/16.png', style='max-width: 30%;'> </img> <p><strong>你是否选择发射武器？</strong></p>","0",""
"","","","","","html-keyboard-response","44","1279150","0.0-4.0-0.20","177","1","2022-11-21 11:59:05","7b1eb8be57ff77859c7d9ac988e43411","219.142.99.7","Mozilla/5.0 (Windows NT 6.1; WOW64) AppleWebKit/537.36 (KHTML, like Gecko) Chrome/81.0.4044.138 Safari/537.36 NetType/WIFI MicroMessenger/7.0.20.1781(0x6700143B) WindowsWechat(0x63080029)","WebKit","Chrome","81.0.4044.138","Windows","6.1","null","<div style=""font-size:60px;"">+</div>","null",""
"","","","","","html-button-response","45","1280662","0.0-4.0-1.20","177","1","2022-11-21 11:59:05","7b1eb8be57ff77859c7d9ac988e43411","219.142.99.7","Mozilla/5.0 (Windows NT 6.1; WOW64) AppleWebKit/537.36 (KHTML, like Gecko) Chrome/81.0.4044.138 Safari/537.36 NetType/WIFI MicroMessenger/7.0.20.1781(0x6700143B) WindowsWechat(0x63080029)","WebKit","Chrome","81.0.4044.138","Windows","6.1","1510","<p>作为军队的指挥官，你可以选择发射导弹杀死 <strong>8名</strong> 敌国士兵，但会误杀附近的 <strong>1名</strong> 敌国平民。</p> <p>平民照片如下图所示。</p> <p></p> <img src='stimuli/faces/PCF5.jpg', style='max-width: 30%;'> </img> <p><strong>你是否选择发射武器？</strong></p>","1",""
"","","","","","html-keyboard-response","46","1281664","0.0-4.0-0.21","177","1","2022-11-21 11:59:05","7b1eb8be57ff77859c7d9ac988e43411","219.142.99.7","Mozilla/5.0 (Windows NT 6.1; WOW64) AppleWebKit/537.36 (KHTML, like Gecko) Chrome/81.0.4044.138 Safari/537.36 NetType/WIFI MicroMessenger/7.0.20.1781(0x6700143B) WindowsWechat(0x63080029)","WebKit","Chrome","81.0.4044.138","Windows","6.1","null","<div style=""font-size:60px;"">+</div>","null",""
"","","","","","html-button-response","47","1284307","0.0-4.0-1.21","177","1","2022-11-21 11:59:05","7b1eb8be57ff77859c7d9ac988e43411","219.142.99.7","Mozilla/5.0 (Windows NT 6.1; WOW64) AppleWebKit/537.36 (KHTML, like Gecko) Chrome/81.0.4044.138 Safari/537.36 NetType/WIFI MicroMessenger/7.0.20.1781(0x6700143B) WindowsWechat(0x63080029)","WebKit","Chrome","81.0.4044.138","Windows","6.1","2641","<p>作为军队的指挥官，你可以选择发射导弹杀死 <strong>3名</strong> 敌国士兵，但会误杀附近的 <strong>1名</strong> 敌国平民。</p> <p>平民照片如下图所示。</p> <p></p> <img src='stimuli/faces/PCF4.jpg', style='max-width: 30%;'> </img> <p><strong>你是否选择发射武器？</strong></p>","1",""
"","","","","","html-keyboard-response","48","1285310","0.0-4.0-0.22","177","1","2022-11-21 11:59:05","7b1eb8be57ff77859c7d9ac988e43411","219.142.99.7","Mozilla/5.0 (Windows NT 6.1; WOW64) AppleWebKit/537.36 (KHTML, like Gecko) Chrome/81.0.4044.138 Safari/537.36 NetType/WIFI MicroMessenger/7.0.20.1781(0x6700143B) WindowsWechat(0x63080029)","WebKit","Chrome","81.0.4044.138","Windows","6.1","null","<div style=""font-size:60px;"">+</div>","null",""
"","","","","","html-button-response","49","1287191","0.0-4.0-1.22","177","1","2022-11-21 11:59:05","7b1eb8be57ff77859c7d9ac988e43411","219.142.99.7","Mozilla/5.0 (Windows NT 6.1; WOW64) AppleWebKit/537.36 (KHTML, like Gecko) Chrome/81.0.4044.138 Safari/537.36 NetType/WIFI MicroMessenger/7.0.20.1781(0x6700143B) WindowsWechat(0x63080029)","WebKit","Chrome","81.0.4044.138","Windows","6.1","1879","<p>作为军队的指挥官，你可以选择发射导弹杀死 <strong>8名</strong> 敌国士兵，但会炸毁附近的 <strong>1棵</strong> 敌国树木。</p> <p>树木的照片如下图所示。</p> <p></p> <img src='stimuli/trees/1.png', style='max-width: 30%;'> </img> <p><strong>你是否选择发射武器？</strong></p>","0",""
"","","","","","html-keyboard-response","50","1288193","0.0-4.0-0.23","177","1","2022-11-21 11:59:05","7b1eb8be57ff77859c7d9ac988e43411","219.142.99.7","Mozilla/5.0 (Windows NT 6.1; WOW64) AppleWebKit/537.36 (KHTML, like Gecko) Chrome/81.0.4044.138 Safari/537.36 NetType/WIFI MicroMessenger/7.0.20.1781(0x6700143B) WindowsWechat(0x63080029)","WebKit","Chrome","81.0.4044.138","Windows","6.1","null","<div style=""font-size:60px;"">+</div>","null",""
"","","","","","html-button-response","51","1290569","0.0-4.0-1.23","177","1","2022-11-21 11:59:05","7b1eb8be57ff77859c7d9ac988e43411","219.142.99.7","Mozilla/5.0 (Windows NT 6.1; WOW64) AppleWebKit/537.36 (KHTML, like Gecko) Chrome/81.0.4044.138 Safari/537.36 NetType/WIFI MicroMessenger/7.0.20.1781(0x6700143B) WindowsWechat(0x63080029)","WebKit","Chrome","81.0.4044.138","Windows","6.1","2375","<p>作为军队的指挥官，你可以选择发射导弹杀死 <strong>10名</strong> 敌国士兵，但会误杀附近的 <strong>1名</strong> 敌国平民。</p> <p>平民照片如下图所示。</p> <p></p> <img src='stimuli/faces/PCM1.jpg', style='max-width: 30%;'> </img> <p><strong>你是否选择发射武器？</strong></p>","1",""
"","","","","","html-keyboard-response","52","1291571","0.0-4.0-0.24","177","1","2022-11-21 11:59:05","7b1eb8be57ff77859c7d9ac988e43411","219.142.99.7","Mozilla/5.0 (Windows NT 6.1; WOW64) AppleWebKit/537.36 (KHTML, like Gecko) Chrome/81.0.4044.138 Safari/537.36 NetType/WIFI MicroMessenger/7.0.20.1781(0x6700143B) WindowsWechat(0x63080029)","WebKit","Chrome","81.0.4044.138","Windows","6.1","null","<div style=""font-size:60px;"">+</div>","null",""
"","","","","","html-button-response","53","1293837","0.0-4.0-1.24","177","1","2022-11-21 11:59:05","7b1eb8be57ff77859c7d9ac988e43411","219.142.99.7","Mozilla/5.0 (Windows NT 6.1; WOW64) AppleWebKit/537.36 (KHTML, like Gecko) Chrome/81.0.4044.138 Safari/537.36 NetType/WIFI MicroMessenger/7.0.20.1781(0x6700143B) WindowsWechat(0x63080029)","WebKit","Chrome","81.0.4044.138","Windows","6.1","2265","<p>作为军队的指挥官，你可以选择发射导弹杀死 <strong>1名</strong> 敌国士兵，但会误杀附近的 <strong>1名</strong> 敌国平民。</p> <p>平民照片如下图所示。</p> <p></p> <img src='stimuli/faces/PCF3.jpg', style='max-width: 30%;'> </img> <p><strong>你是否选择发射武器？</strong></p>","1",""
"","","","","","html-keyboard-response","54","1294841","0.0-4.0-0.25","177","1","2022-11-21 11:59:05","7b1eb8be57ff77859c7d9ac988e43411","219.142.99.7","Mozilla/5.0 (Windows NT 6.1; WOW64) AppleWebKit/537.36 (KHTML, like Gecko) Chrome/81.0.4044.138 Safari/537.36 NetType/WIFI MicroMessenger/7.0.20.1781(0x6700143B) WindowsWechat(0x63080029)","WebKit","Chrome","81.0.4044.138","Windows","6.1","null","<div style=""font-size:60px;"">+</div>","null",""
"","","","","","html-button-response","55","1297143","0.0-4.0-1.25","177","1","2022-11-21 11:59:05","7b1eb8be57ff77859c7d9ac988e43411","219.142.99.7","Mozilla/5.0 (Windows NT 6.1; WOW64) AppleWebKit/537.36 (KHTML, like Gecko) Chrome/81.0.4044.138 Safari/537.36 NetType/WIFI MicroMessenger/7.0.20.1781(0x6700143B) WindowsWechat(0x63080029)","WebKit","Chrome","81.0.4044.138","Windows","6.1","2299","<p>作为军队的指挥官，你可以选择发射导弹杀死 <strong>4名</strong> 敌国士兵，但会误杀附近的 <strong>1名</strong> 敌国平民。</p> <p>平民照片如下图所示。</p> <p></p> <img src='stimuli/faces/PCF7.jpg', style='max-width: 30%;'> </img> <p><strong>你是否选择发射武器？</strong></p>","1",""
"","","","","","html-keyboard-response","56","1298145","0.0-4.0-0.26","177","1","2022-11-21 11:59:05","7b1eb8be57ff77859c7d9ac988e43411","219.142.99.7","Mozilla/5.0 (Windows NT 6.1; WOW64) AppleWebKit/537.36 (KHTML, like Gecko) Chrome/81.0.4044.138 Safari/537.36 NetType/WIFI MicroMessenger/7.0.20.1781(0x6700143B) WindowsWechat(0x63080029)","WebKit","Chrome","81.0.4044.138","Windows","6.1","null","<div style=""font-size:60px;"">+</div>","null",""
"","","","","","html-button-response","57","1301086","0.0-4.0-1.26","177","1","2022-11-21 11:59:05","7b1eb8be57ff77859c7d9ac988e43411","219.142.99.7","Mozilla/5.0 (Windows NT 6.1; WOW64) AppleWebKit/537.36 (KHTML, like Gecko) Chrome/81.0.4044.138 Safari/537.36 NetType/WIFI MicroMessenger/7.0.20.1781(0x6700143B) WindowsWechat(0x63080029)","WebKit","Chrome","81.0.4044.138","Windows","6.1","2938","<p>作为军队的指挥官，你可以选择发射导弹杀死 <strong>5名</strong> 敌国士兵，但会炸毁附近的 <strong>1棵</strong> 敌国树木。</p> <p>树木的照片如下图所示。</p> <p></p> <img src='stimuli/trees/4.png', style='max-width: 30%;'> </img> <p><strong>你是否选择发射武器？</strong></p>","0",""
"","","","","","html-keyboard-response","58","1302088","0.0-4.0-0.27","177","1","2022-11-21 11:59:05","7b1eb8be57ff77859c7d9ac988e43411","219.142.99.7","Mozilla/5.0 (Windows NT 6.1; WOW64) AppleWebKit/537.36 (KHTML, like Gecko) Chrome/81.0.4044.138 Safari/537.36 NetType/WIFI MicroMessenger/7.0.20.1781(0x6700143B) WindowsWechat(0x63080029)","WebKit","Chrome","81.0.4044.138","Windows","6.1","null","<div style=""font-size:60px;"">+</div>","null",""
"","","","","","html-button-response","59","1303783","0.0-4.0-1.27","177","1","2022-11-21 11:59:05","7b1eb8be57ff77859c7d9ac988e43411","219.142.99.7","Mozilla/5.0 (Windows NT 6.1; WOW64) AppleWebKit/537.36 (KHTML, like Gecko) Chrome/81.0.4044.138 Safari/537.36 NetType/WIFI MicroMessenger/7.0.20.1781(0x6700143B) WindowsWechat(0x63080029)","WebKit","Chrome","81.0.4044.138","Windows","6.1","1693","<p>作为军队的指挥官，你可以选择发射导弹杀死 <strong>5名</strong> 敌国士兵，但会炸毁附近的 <strong>1棵</strong> 敌国树木。</p> <p>树木的照片如下图所示。</p> <p></p> <img src='stimuli/trees/15.png', style='max-width: 30%;'> </img> <p><strong>你是否选择发射武器？</strong></p>","0",""
"","","","","","html-keyboard-response","60","1304784","0.0-4.0-0.28","177","1","2022-11-21 11:59:05","7b1eb8be57ff77859c7d9ac988e43411","219.142.99.7","Mozilla/5.0 (Windows NT 6.1; WOW64) AppleWebKit/537.36 (KHTML, like Gecko) Chrome/81.0.4044.138 Safari/537.36 NetType/WIFI MicroMessenger/7.0.20.1781(0x6700143B) WindowsWechat(0x63080029)","WebKit","Chrome","81.0.4044.138","Windows","6.1","null","<div style=""font-size:60px;"">+</div>","null",""
"","","","","","html-button-response","61","1306753","0.0-4.0-1.28","177","1","2022-11-21 11:59:05","7b1eb8be57ff77859c7d9ac988e43411","219.142.99.7","Mozilla/5.0 (Windows NT 6.1; WOW64) AppleWebKit/537.36 (KHTML, like Gecko) Chrome/81.0.4044.138 Safari/537.36 NetType/WIFI MicroMessenger/7.0.20.1781(0x6700143B) WindowsWechat(0x63080029)","WebKit","Chrome","81.0.4044.138","Windows","6.1","1967","<p>作为军队的指挥官，你可以选择发射导弹杀死 <strong>7名</strong> 敌国士兵，但会误杀附近的 <strong>1名</strong> 敌国平民。</p> <p>平民照片如下图所示。</p> <p></p> <img src='stimuli/faces/PCF6.jpg', style='max-width: 30%;'> </img> <p><strong>你是否选择发射武器？</strong></p>","1",""
"","","","","","html-keyboard-response","62","1307756","0.0-4.0-0.29","177","1","2022-11-21 11:59:05","7b1eb8be57ff77859c7d9ac988e43411","219.142.99.7","Mozilla/5.0 (Windows NT 6.1; WOW64) AppleWebKit/537.36 (KHTML, like Gecko) Chrome/81.0.4044.138 Safari/537.36 NetType/WIFI MicroMessenger/7.0.20.1781(0x6700143B) WindowsWechat(0x63080029)","WebKit","Chrome","81.0.4044.138","Windows","6.1","null","<div style=""font-size:60px;"">+</div>","null",""
"","","","","","html-button-response","63","1309172","0.0-4.0-1.29","177","1","2022-11-21 11:59:05","7b1eb8be57ff77859c7d9ac988e43411","219.142.99.7","Mozilla/5.0 (Windows NT 6.1; WOW64) AppleWebKit/537.36 (KHTML, like Gecko) Chrome/81.0.4044.138 Safari/537.36 NetType/WIFI MicroMessenger/7.0.20.1781(0x6700143B) WindowsWechat(0x63080029)","WebKit","Chrome","81.0.4044.138","Windows","6.1","1415","<p>作为军队的指挥官，你可以选择发射导弹杀死 <strong>9名</strong> 敌国士兵，但会炸毁附近的 <strong>1棵</strong> 敌国树木。</p> <p>树木的照片如下图所示。</p> <p></p> <img src='stimuli/trees/14.png', style='max-width: 30%;'> </img> <p><strong>你是否选择发射武器？</strong></p>","0",""
"","","","","","html-keyboard-response","64","1310176","0.0-4.0-0.30","177","1","2022-11-21 11:59:05","7b1eb8be57ff77859c7d9ac988e43411","219.142.99.7","Mozilla/5.0 (Windows NT 6.1; WOW64) AppleWebKit/537.36 (KHTML, like Gecko) Chrome/81.0.4044.138 Safari/537.36 NetType/WIFI MicroMessenger/7.0.20.1781(0x6700143B) WindowsWechat(0x63080029)","WebKit","Chrome","81.0.4044.138","Windows","6.1","null","<div style=""font-size:60px;"">+</div>","null",""
"","","","","","html-button-response","65","1311752","0.0-4.0-1.30","177","1","2022-11-21 11:59:05","7b1eb8be57ff77859c7d9ac988e43411","219.142.99.7","Mozilla/5.0 (Windows NT 6.1; WOW64) AppleWebKit/537.36 (KHTML, like Gecko) Chrome/81.0.4044.138 Safari/537.36 NetType/WIFI MicroMessenger/7.0.20.1781(0x6700143B) WindowsWechat(0x63080029)","WebKit","Chrome","81.0.4044.138","Windows","6.1","1574","<p>作为军队的指挥官，你可以选择发射导弹杀死 <strong>1名</strong> 敌国士兵，但会炸毁附近的 <strong>1棵</strong> 敌国树木。</p> <p>树木的照片如下图所示。</p> <p></p> <img src='stimuli/trees/7.png', style='max-width: 30%;'> </img> <p><strong>你是否选择发射武器？</strong></p>","1",""
"","","","","","html-keyboard-response","66","1312754","0.0-4.0-0.31","177","1","2022-11-21 11:59:05","7b1eb8be57ff77859c7d9ac988e43411","219.142.99.7","Mozilla/5.0 (Windows NT 6.1; WOW64) AppleWebKit/537.36 (KHTML, like Gecko) Chrome/81.0.4044.138 Safari/537.36 NetType/WIFI MicroMessenger/7.0.20.1781(0x6700143B) WindowsWechat(0x63080029)","WebKit","Chrome","81.0.4044.138","Windows","6.1","null","<div style=""font-size:60px;"">+</div>","null",""
"","","","","","html-button-response","67","1314245","0.0-4.0-1.31","177","1","2022-11-21 11:59:05","7b1eb8be57ff77859c7d9ac988e43411","219.142.99.7","Mozilla/5.0 (Windows NT 6.1; WOW64) AppleWebKit/537.36 (KHTML, like Gecko) Chrome/81.0.4044.138 Safari/537.36 NetType/WIFI MicroMessenger/7.0.20.1781(0x6700143B) WindowsWechat(0x63080029)","WebKit","Chrome","81.0.4044.138","Windows","6.1","1489","<p>作为军队的指挥官，你可以选择发射导弹杀死 <strong>9名</strong> 敌国士兵，但会误杀附近的 <strong>1名</strong> 敌国平民。</p> <p>平民照片如下图所示。</p> <p></p> <img src='stimuli/faces/PCM4.jpg', style='max-width: 30%;'> </img> <p><strong>你是否选择发射武器？</strong></p>","1",""
"","","","","","html-keyboard-response","68","1315247","0.0-4.0-0.32","177","1","2022-11-21 11:59:05","7b1eb8be57ff77859c7d9ac988e43411","219.142.99.7","Mozilla/5.0 (Windows NT 6.1; WOW64) AppleWebKit/537.36 (KHTML, like Gecko) Chrome/81.0.4044.138 Safari/537.36 NetType/WIFI MicroMessenger/7.0.20.1781(0x6700143B) WindowsWechat(0x63080029)","WebKit","Chrome","81.0.4044.138","Windows","6.1","null","<div style=""font-size:60px;"">+</div>","null",""
"","","","","","html-button-response","69","1316710","0.0-4.0-1.32","177","1","2022-11-21 11:59:05","7b1eb8be57ff77859c7d9ac988e43411","219.142.99.7","Mozilla/5.0 (Windows NT 6.1; WOW64) AppleWebKit/537.36 (KHTML, like Gecko) Chrome/81.0.4044.138 Safari/537.36 NetType/WIFI MicroMessenger/7.0.20.1781(0x6700143B) WindowsWechat(0x63080029)","WebKit","Chrome","81.0.4044.138","Windows","6.1","1461","<p>作为军队的指挥官，你可以选择发射导弹杀死 <strong>2名</strong> 敌国士兵，但会误杀附近的 <strong>1名</strong> 敌国平民。</p> <p>平民照片如下图所示。</p> <p></p> <img src='stimuli/faces/PCM8.jpg', style='max-width: 30%;'> </img> <p><strong>你是否选择发射武器？</strong></p>","1",""
"","","","","","html-keyboard-response","70","1317712","0.0-4.0-0.33","177","1","2022-11-21 11:59:05","7b1eb8be57ff77859c7d9ac988e43411","219.142.99.7","Mozilla/5.0 (Windows NT 6.1; WOW64) AppleWebKit/537.36 (KHTML, like Gecko) Chrome/81.0.4044.138 Safari/537.36 NetType/WIFI MicroMessenger/7.0.20.1781(0x6700143B) WindowsWechat(0x63080029)","WebKit","Chrome","81.0.4044.138","Windows","6.1","null","<div style=""font-size:60px;"">+</div>","null",""
"","","","","","html-button-response","71","1319494","0.0-4.0-1.33","177","1","2022-11-21 11:59:05","7b1eb8be57ff77859c7d9ac988e43411","219.142.99.7","Mozilla/5.0 (Windows NT 6.1; WOW64) AppleWebKit/537.36 (KHTML, like Gecko) Chrome/81.0.4044.138 Safari/537.36 NetType/WIFI MicroMessenger/7.0.20.1781(0x6700143B) WindowsWechat(0x63080029)","WebKit","Chrome","81.0.4044.138","Windows","6.1","1790","<p>作为军队的指挥官，你可以选择发射导弹杀死 <strong>4名</strong> 敌国士兵，但会炸毁附近的 <strong>1棵</strong> 敌国树木。</p> <p>树木的照片如下图所示。</p> <p></p> <img src='stimuli/trees/6.png', style='max-width: 30%;'> </img> <p><strong>你是否选择发射武器？</strong></p>","0",""
"","","","","","html-keyboard-response","72","1320496","0.0-4.0-0.34","177","1","2022-11-21 11:59:05","7b1eb8be57ff77859c7d9ac988e43411","219.142.99.7","Mozilla/5.0 (Windows NT 6.1; WOW64) AppleWebKit/537.36 (KHTML, like Gecko) Chrome/81.0.4044.138 Safari/537.36 NetType/WIFI MicroMessenger/7.0.20.1781(0x6700143B) WindowsWechat(0x63080029)","WebKit","Chrome","81.0.4044.138","Windows","6.1","null","<div style=""font-size:60px;"">+</div>","null",""
"","","","","","html-button-response","73","1321966","0.0-4.0-1.34","177","1","2022-11-21 11:59:05","7b1eb8be57ff77859c7d9ac988e43411","219.142.99.7","Mozilla/5.0 (Windows NT 6.1; WOW64) AppleWebKit/537.36 (KHTML, like Gecko) Chrome/81.0.4044.138 Safari/537.36 NetType/WIFI MicroMessenger/7.0.20.1781(0x6700143B) WindowsWechat(0x63080029)","WebKit","Chrome","81.0.4044.138","Windows","6.1","1467","<p>作为军队的指挥官，你可以选择发射导弹杀死 <strong>9名</strong> 敌国士兵，但会炸毁附近的 <strong>1棵</strong> 敌国树木。</p> <p>树木的照片如下图所示。</p> <p></p> <img src='stimuli/trees/13.png', style='max-width: 30%;'> </img> <p><strong>你是否选择发射武器？</strong></p>","0",""
"","","","","","html-keyboard-response","74","1322968","0.0-4.0-0.35","177","1","2022-11-21 11:59:05","7b1eb8be57ff77859c7d9ac988e43411","219.142.99.7","Mozilla/5.0 (Windows NT 6.1; WOW64) AppleWebKit/537.36 (KHTML, like Gecko) Chrome/81.0.4044.138 Safari/537.36 NetType/WIFI MicroMessenger/7.0.20.1781(0x6700143B) WindowsWechat(0x63080029)","WebKit","Chrome","81.0.4044.138","Windows","6.1","null","<div style=""font-size:60px;"">+</div>","null",""
"","","","","","html-button-response","75","1324882","0.0-4.0-1.35","177","1","2022-11-21 11:59:05","7b1eb8be57ff77859c7d9ac988e43411","219.142.99.7","Mozilla/5.0 (Windows NT 6.1; WOW64) AppleWebKit/537.36 (KHTML, like Gecko) Chrome/81.0.4044.138 Safari/537.36 NetType/WIFI MicroMessenger/7.0.20.1781(0x6700143B) WindowsWechat(0x63080029)","WebKit","Chrome","81.0.4044.138","Windows","6.1","1912","<p>作为军队的指挥官，你可以选择发射导弹杀死 <strong>6名</strong> 敌国士兵，但会误杀附近的 <strong>1名</strong> 敌国平民。</p> <p>平民照片如下图所示。</p> <p></p> <img src='stimuli/faces/PCM6.jpg', style='max-width: 30%;'> </img> <p><strong>你是否选择发射武器？</strong></p>","1",""
"","","","","","html-keyboard-response","76","1325885","0.0-4.0-0.36","177","1","2022-11-21 11:59:05","7b1eb8be57ff77859c7d9ac988e43411","219.142.99.7","Mozilla/5.0 (Windows NT 6.1; WOW64) AppleWebKit/537.36 (KHTML, like Gecko) Chrome/81.0.4044.138 Safari/537.36 NetType/WIFI MicroMessenger/7.0.20.1781(0x6700143B) WindowsWechat(0x63080029)","WebKit","Chrome","81.0.4044.138","Windows","6.1","null","<div style=""font-size:60px;"">+</div>","null",""
"","","","","","html-button-response","77","1328383","0.0-4.0-1.36","177","1","2022-11-21 11:59:05","7b1eb8be57ff77859c7d9ac988e43411","219.142.99.7","Mozilla/5.0 (Windows NT 6.1; WOW64) AppleWebKit/537.36 (KHTML, like Gecko) Chrome/81.0.4044.138 Safari/537.36 NetType/WIFI MicroMessenger/7.0.20.1781(0x6700143B) WindowsWechat(0x63080029)","WebKit","Chrome","81.0.4044.138","Windows","6.1","2496","<p>作为军队的指挥官，你可以选择发射导弹杀死 <strong>4名</strong> 敌国士兵，但会误杀附近的 <strong>1名</strong> 敌国平民。</p> <p>平民照片如下图所示。</p> <p></p> <img src='stimuli/faces/PCM5.jpg', style='max-width: 30%;'> </img> <p><strong>你是否选择发射武器？</strong></p>","1",""
"","","","","","html-keyboard-response","78","1329385","0.0-4.0-0.37","177","1","2022-11-21 11:59:05","7b1eb8be57ff77859c7d9ac988e43411","219.142.99.7","Mozilla/5.0 (Windows NT 6.1; WOW64) AppleWebKit/537.36 (KHTML, like Gecko) Chrome/81.0.4044.138 Safari/537.36 NetType/WIFI MicroMessenger/7.0.20.1781(0x6700143B) WindowsWechat(0x63080029)","WebKit","Chrome","81.0.4044.138","Windows","6.1","null","<div style=""font-size:60px;"">+</div>","null",""
"","","","","","html-button-response","79","1330814","0.0-4.0-1.37","177","1","2022-11-21 11:59:05","7b1eb8be57ff77859c7d9ac988e43411","219.142.99.7","Mozilla/5.0 (Windows NT 6.1; WOW64) AppleWebKit/537.36 (KHTML, like Gecko) Chrome/81.0.4044.138 Safari/537.36 NetType/WIFI MicroMessenger/7.0.20.1781(0x6700143B) WindowsWechat(0x63080029)","WebKit","Chrome","81.0.4044.138","Windows","6.1","1427","<p>作为军队的指挥官，你可以选择发射导弹杀死 <strong>1名</strong> 敌国士兵，但会误杀附近的 <strong>1名</strong> 敌国平民。</p> <p>平民照片如下图所示。</p> <p></p> <img src='stimuli/faces/PCF6.jpg', style='max-width: 30%;'> </img> <p><strong>你是否选择发射武器？</strong></p>","1",""
"","","","","","html-keyboard-response","80","1331817","0.0-4.0-0.38","177","1","2022-11-21 11:59:05","7b1eb8be57ff77859c7d9ac988e43411","219.142.99.7","Mozilla/5.0 (Windows NT 6.1; WOW64) AppleWebKit/537.36 (KHTML, like Gecko) Chrome/81.0.4044.138 Safari/537.36 NetType/WIFI MicroMessenger/7.0.20.1781(0x6700143B) WindowsWechat(0x63080029)","WebKit","Chrome","81.0.4044.138","Windows","6.1","null","<div style=""font-size:60px;"">+</div>","null",""
"","","","","","html-button-response","81","1333145","0.0-4.0-1.38","177","1","2022-11-21 11:59:05","7b1eb8be57ff77859c7d9ac988e43411","219.142.99.7","Mozilla/5.0 (Windows NT 6.1; WOW64) AppleWebKit/537.36 (KHTML, like Gecko) Chrome/81.0.4044.138 Safari/537.36 NetType/WIFI MicroMessenger/7.0.20.1781(0x6700143B) WindowsWechat(0x63080029)","WebKit","Chrome","81.0.4044.138","Windows","6.1","1326","<p>作为军队的指挥官，你可以选择发射导弹杀死 <strong>1名</strong> 敌国士兵，但会炸毁附近的 <strong>1棵</strong> 敌国树木。</p> <p>树木的照片如下图所示。</p> <p></p> <img src='stimuli/trees/11.png', style='max-width: 30%;'> </img> <p><strong>你是否选择发射武器？</strong></p>","1",""
"","","","","","html-keyboard-response","82","1334147","0.0-4.0-0.39","177","1","2022-11-21 11:59:05","7b1eb8be57ff77859c7d9ac988e43411","219.142.99.7","Mozilla/5.0 (Windows NT 6.1; WOW64) AppleWebKit/537.36 (KHTML, like Gecko) Chrome/81.0.4044.138 Safari/537.36 NetType/WIFI MicroMessenger/7.0.20.1781(0x6700143B) WindowsWechat(0x63080029)","WebKit","Chrome","81.0.4044.138","Windows","6.1","null","<div style=""font-size:60px;"">+</div>","null",""
"","","","","","html-button-response","83","1335618","0.0-4.0-1.39","177","1","2022-11-21 11:59:05","7b1eb8be57ff77859c7d9ac988e43411","219.142.99.7","Mozilla/5.0 (Windows NT 6.1; WOW64) AppleWebKit/537.36 (KHTML, like Gecko) Chrome/81.0.4044.138 Safari/537.36 NetType/WIFI MicroMessenger/7.0.20.1781(0x6700143B) WindowsWechat(0x63080029)","WebKit","Chrome","81.0.4044.138","Windows","6.1","1469","<p>作为军队的指挥官，你可以选择发射导弹杀死 <strong>6名</strong> 敌国士兵，但会误杀附近的 <strong>1名</strong> 敌国平民。</p> <p>平民照片如下图所示。</p> <p></p> <img src='stimuli/faces/PCF2.jpg', style='max-width: 30%;'> </img> <p><strong>你是否选择发射武器？</strong></p>","1",""
"","","","","","html-keyboard-response","84","1336620","0.0-4.0-0.40","177","1","2022-11-21 11:59:05","7b1eb8be57ff77859c7d9ac988e43411","219.142.99.7","Mozilla/5.0 (Windows NT 6.1; WOW64) AppleWebKit/537.36 (KHTML, like Gecko) Chrome/81.0.4044.138 Safari/537.36 NetType/WIFI MicroMessenger/7.0.20.1781(0x6700143B) WindowsWechat(0x63080029)","WebKit","Chrome","81.0.4044.138","Windows","6.1","null","<div style=""font-size:60px;"">+</div>","null",""
"","","","","","html-button-response","85","1337862","0.0-4.0-1.40","177","1","2022-11-21 11:59:05","7b1eb8be57ff77859c7d9ac988e43411","219.142.99.7","Mozilla/5.0 (Windows NT 6.1; WOW64) AppleWebKit/537.36 (KHTML, like Gecko) Chrome/81.0.4044.138 Safari/537.36 NetType/WIFI MicroMessenger/7.0.20.1781(0x6700143B) WindowsWechat(0x63080029)","WebKit","Chrome","81.0.4044.138","Windows","6.1","1240","<p>作为军队的指挥官，你可以选择发射导弹杀死 <strong>9名</strong> 敌国士兵，但会炸毁附近的 <strong>1棵</strong> 敌国树木。</p> <p>树木的照片如下图所示。</p> <p></p> <img src='stimuli/trees/10.png', style='max-width: 30%;'> </img> <p><strong>你是否选择发射武器？</strong></p>","0",""
"","","","","","html-keyboard-response","86","1338865","0.0-4.0-0.41","177","1","2022-11-21 11:59:05","7b1eb8be57ff77859c7d9ac988e43411","219.142.99.7","Mozilla/5.0 (Windows NT 6.1; WOW64) AppleWebKit/537.36 (KHTML, like Gecko) Chrome/81.0.4044.138 Safari/537.36 NetType/WIFI MicroMessenger/7.0.20.1781(0x6700143B) WindowsWechat(0x63080029)","WebKit","Chrome","81.0.4044.138","Windows","6.1","null","<div style=""font-size:60px;"">+</div>","null",""
"","","","","","html-button-response","87","1339960","0.0-4.0-1.41","177","1","2022-11-21 11:59:05","7b1eb8be57ff77859c7d9ac988e43411","219.142.99.7","Mozilla/5.0 (Windows NT 6.1; WOW64) AppleWebKit/537.36 (KHTML, like Gecko) Chrome/81.0.4044.138 Safari/537.36 NetType/WIFI MicroMessenger/7.0.20.1781(0x6700143B) WindowsWechat(0x63080029)","WebKit","Chrome","81.0.4044.138","Windows","6.1","1093","<p>作为军队的指挥官，你可以选择发射导弹杀死 <strong>10名</strong> 敌国士兵，但会误杀附近的 <strong>1名</strong> 敌国平民。</p> <p>平民照片如下图所示。</p> <p></p> <img src='stimuli/faces/PCF8.jpg', style='max-width: 30%;'> </img> <p><strong>你是否选择发射武器？</strong></p>","1",""
"","","","","","html-keyboard-response","88","1340962","0.0-4.0-0.42","177","1","2022-11-21 11:59:05","7b1eb8be57ff77859c7d9ac988e43411","219.142.99.7","Mozilla/5.0 (Windows NT 6.1; WOW64) AppleWebKit/537.36 (KHTML, like Gecko) Chrome/81.0.4044.138 Safari/537.36 NetType/WIFI MicroMessenger/7.0.20.1781(0x6700143B) WindowsWechat(0x63080029)","WebKit","Chrome","81.0.4044.138","Windows","6.1","null","<div style=""font-size:60px;"">+</div>","null",""
"","","","","","html-button-response","89","1342324","0.0-4.0-1.42","177","1","2022-11-21 11:59:05","7b1eb8be57ff77859c7d9ac988e43411","219.142.99.7","Mozilla/5.0 (Windows NT 6.1; WOW64) AppleWebKit/537.36 (KHTML, like Gecko) Chrome/81.0.4044.138 Safari/537.36 NetType/WIFI MicroMessenger/7.0.20.1781(0x6700143B) WindowsWechat(0x63080029)","WebKit","Chrome","81.0.4044.138","Windows","6.1","1360","<p>作为军队的指挥官，你可以选择发射导弹杀死 <strong>4名</strong> 敌国士兵，但会炸毁附近的 <strong>1棵</strong> 敌国树木。</p> <p>树木的照片如下图所示。</p> <p></p> <img src='stimuli/trees/3.png', style='max-width: 30%;'> </img> <p><strong>你是否选择发射武器？</strong></p>","0",""
"","","","","","html-keyboard-response","90","1343328","0.0-4.0-0.43","177","1","2022-11-21 11:59:05","7b1eb8be57ff77859c7d9ac988e43411","219.142.99.7","Mozilla/5.0 (Windows NT 6.1; WOW64) AppleWebKit/537.36 (KHTML, like Gecko) Chrome/81.0.4044.138 Safari/537.36 NetType/WIFI MicroMessenger/7.0.20.1781(0x6700143B) WindowsWechat(0x63080029)","WebKit","Chrome","81.0.4044.138","Windows","6.1","null","<div style=""font-size:60px;"">+</div>","null",""
"","","","","","html-button-response","91","1344854","0.0-4.0-1.43","177","1","2022-11-21 11:59:05","7b1eb8be57ff77859c7d9ac988e43411","219.142.99.7","Mozilla/5.0 (Windows NT 6.1; WOW64) AppleWebKit/537.36 (KHTML, like Gecko) Chrome/81.0.4044.138 Safari/537.36 NetType/WIFI MicroMessenger/7.0.20.1781(0x6700143B) WindowsWechat(0x63080029)","WebKit","Chrome","81.0.4044.138","Windows","6.1","1524","<p>作为军队的指挥官，你可以选择发射导弹杀死 <strong>6名</strong> 敌国士兵，但会炸毁附近的 <strong>1棵</strong> 敌国树木。</p> <p>树木的照片如下图所示。</p> <p></p> <img src='stimuli/trees/12.png', style='max-width: 30%;'> </img> <p><strong>你是否选择发射武器？</strong></p>","0",""
"","","","","","html-keyboard-response","92","1345856","0.0-4.0-0.44","177","1","2022-11-21 11:59:05","7b1eb8be57ff77859c7d9ac988e43411","219.142.99.7","Mozilla/5.0 (Windows NT 6.1; WOW64) AppleWebKit/537.36 (KHTML, like Gecko) Chrome/81.0.4044.138 Safari/537.36 NetType/WIFI MicroMessenger/7.0.20.1781(0x6700143B) WindowsWechat(0x63080029)","WebKit","Chrome","81.0.4044.138","Windows","6.1","null","<div style=""font-size:60px;"">+</div>","null",""
"","","","","","html-button-response","93","1347308","0.0-4.0-1.44","177","1","2022-11-21 11:59:05","7b1eb8be57ff77859c7d9ac988e43411","219.142.99.7","Mozilla/5.0 (Windows NT 6.1; WOW64) AppleWebKit/537.36 (KHTML, like Gecko) Chrome/81.0.4044.138 Safari/537.36 NetType/WIFI MicroMessenger/7.0.20.1781(0x6700143B) WindowsWechat(0x63080029)","WebKit","Chrome","81.0.4044.138","Windows","6.1","1449","<p>作为军队的指挥官，你可以选择发射导弹杀死 <strong>6名</strong> 敌国士兵，但会误杀附近的 <strong>1名</strong> 敌国平民。</p> <p>平民照片如下图所示。</p> <p></p> <img src='stimuli/faces/PCM8.jpg', style='max-width: 30%;'> </img> <p><strong>你是否选择发射武器？</strong></p>","1",""
"","","","","","html-keyboard-response","94","1348311","0.0-4.0-0.45","177","1","2022-11-21 11:59:05","7b1eb8be57ff77859c7d9ac988e43411","219.142.99.7","Mozilla/5.0 (Windows NT 6.1; WOW64) AppleWebKit/537.36 (KHTML, like Gecko) Chrome/81.0.4044.138 Safari/537.36 NetType/WIFI MicroMessenger/7.0.20.1781(0x6700143B) WindowsWechat(0x63080029)","WebKit","Chrome","81.0.4044.138","Windows","6.1","null","<div style=""font-size:60px;"">+</div>","null",""
"","","","","","html-button-response","95","1349992","0.0-4.0-1.45","177","1","2022-11-21 11:59:05","7b1eb8be57ff77859c7d9ac988e43411","219.142.99.7","Mozilla/5.0 (Windows NT 6.1; WOW64) AppleWebKit/537.36 (KHTML, like Gecko) Chrome/81.0.4044.138 Safari/537.36 NetType/WIFI MicroMessenger/7.0.20.1781(0x6700143B) WindowsWechat(0x63080029)","WebKit","Chrome","81.0.4044.138","Windows","6.1","1679","<p>作为军队的指挥官，你可以选择发射导弹杀死 <strong>4名</strong> 敌国士兵，但会误杀附近的 <strong>1名</strong> 敌国平民。</p> <p>平民照片如下图所示。</p> <p></p> <img src='stimuli/faces/PCF8.jpg', style='max-width: 30%;'> </img> <p><strong>你是否选择发射武器？</strong></p>","1",""
"","","","","","html-keyboard-response","96","1350994","0.0-4.0-0.46","177","1","2022-11-21 11:59:05","7b1eb8be57ff77859c7d9ac988e43411","219.142.99.7","Mozilla/5.0 (Windows NT 6.1; WOW64) AppleWebKit/537.36 (KHTML, like Gecko) Chrome/81.0.4044.138 Safari/537.36 NetType/WIFI MicroMessenger/7.0.20.1781(0x6700143B) WindowsWechat(0x63080029)","WebKit","Chrome","81.0.4044.138","Windows","6.1","null","<div style=""font-size:60px;"">+</div>","null",""
"","","","","","html-button-response","97","1355461","0.0-4.0-1.46","177","1","2022-11-21 11:59:05","7b1eb8be57ff77859c7d9ac988e43411","219.142.99.7","Mozilla/5.0 (Windows NT 6.1; WOW64) AppleWebKit/537.36 (KHTML, like Gecko) Chrome/81.0.4044.138 Safari/537.36 NetType/WIFI MicroMessenger/7.0.20.1781(0x6700143B) WindowsWechat(0x63080029)","WebKit","Chrome","81.0.4044.138","Windows","6.1","4465","<p>作为军队的指挥官，你可以选择发射导弹杀死 <strong>8名</strong> 敌国士兵，但会炸毁附近的 <strong>1棵</strong> 敌国树木。</p> <p>树木的照片如下图所示。</p> <p></p> <img src='stimuli/trees/15.png', style='max-width: 30%;'> </img> <p><strong>你是否选择发射武器？</strong></p>","0",""
"","","","","","html-keyboard-response","98","1356465","0.0-4.0-0.47","177","1","2022-11-21 11:59:05","7b1eb8be57ff77859c7d9ac988e43411","219.142.99.7","Mozilla/5.0 (Windows NT 6.1; WOW64) AppleWebKit/537.36 (KHTML, like Gecko) Chrome/81.0.4044.138 Safari/537.36 NetType/WIFI MicroMessenger/7.0.20.1781(0x6700143B) WindowsWechat(0x63080029)","WebKit","Chrome","81.0.4044.138","Windows","6.1","null","<div style=""font-size:60px;"">+</div>","null",""
"","","","","","html-button-response","99","1357951","0.0-4.0-1.47","177","1","2022-11-21 11:59:05","7b1eb8be57ff77859c7d9ac988e43411","219.142.99.7","Mozilla/5.0 (Windows NT 6.1; WOW64) AppleWebKit/537.36 (KHTML, like Gecko) Chrome/81.0.4044.138 Safari/537.36 NetType/WIFI MicroMessenger/7.0.20.1781(0x6700143B) WindowsWechat(0x63080029)","WebKit","Chrome","81.0.4044.138","Windows","6.1","1484","<p>作为军队的指挥官，你可以选择发射导弹杀死 <strong>5名</strong> 敌国士兵，但会炸毁附近的 <strong>1棵</strong> 敌国树木。</p> <p>树木的照片如下图所示。</p> <p></p> <img src='stimuli/trees/1.png', style='max-width: 30%;'> </img> <p><strong>你是否选择发射武器？</strong></p>","0",""
"","","","","","html-keyboard-response","100","1358955","0.0-4.0-0.48","177","1","2022-11-21 11:59:05","7b1eb8be57ff77859c7d9ac988e43411","219.142.99.7","Mozilla/5.0 (Windows NT 6.1; WOW64) AppleWebKit/537.36 (KHTML, like Gecko) Chrome/81.0.4044.138 Safari/537.36 NetType/WIFI MicroMessenger/7.0.20.1781(0x6700143B) WindowsWechat(0x63080029)","WebKit","Chrome","81.0.4044.138","Windows","6.1","null","<div style=""font-size:60px;"">+</div>","null",""
"","","","","","html-button-response","101","1360152","0.0-4.0-1.48","177","1","2022-11-21 11:59:05","7b1eb8be57ff77859c7d9ac988e43411","219.142.99.7","Mozilla/5.0 (Windows NT 6.1; WOW64) AppleWebKit/537.36 (KHTML, like Gecko) Chrome/81.0.4044.138 Safari/537.36 NetType/WIFI MicroMessenger/7.0.20.1781(0x6700143B) WindowsWechat(0x63080029)","WebKit","Chrome","81.0.4044.138","Windows","6.1","1195","<p>作为军队的指挥官，你可以选择发射导弹杀死 <strong>7名</strong> 敌国士兵，但会炸毁附近的 <strong>1棵</strong> 敌国树木。</p> <p>树木的照片如下图所示。</p> <p></p> <img src='stimuli/trees/2.png', style='max-width: 30%;'> </img> <p><strong>你是否选择发射武器？</strong></p>","0",""
"","","","","","html-keyboard-response","102","1361154","0.0-4.0-0.49","177","1","2022-11-21 11:59:05","7b1eb8be57ff77859c7d9ac988e43411","219.142.99.7","Mozilla/5.0 (Windows NT 6.1; WOW64) AppleWebKit/537.36 (KHTML, like Gecko) Chrome/81.0.4044.138 Safari/537.36 NetType/WIFI MicroMessenger/7.0.20.1781(0x6700143B) WindowsWechat(0x63080029)","WebKit","Chrome","81.0.4044.138","Windows","6.1","null","<div style=""font-size:60px;"">+</div>","null",""
"","","","","","html-button-response","103","1362348","0.0-4.0-1.49","177","1","2022-11-21 11:59:05","7b1eb8be57ff77859c7d9ac988e43411","219.142.99.7","Mozilla/5.0 (Windows NT 6.1; WOW64) AppleWebKit/537.36 (KHTML, like Gecko) Chrome/81.0.4044.138 Safari/537.36 NetType/WIFI MicroMessenger/7.0.20.1781(0x6700143B) WindowsWechat(0x63080029)","WebKit","Chrome","81.0.4044.138","Windows","6.1","1191","<p>作为军队的指挥官，你可以选择发射导弹杀死 <strong>4名</strong> 敌国士兵，但会炸毁附近的 <strong>1棵</strong> 敌国树木。</p> <p>树木的照片如下图所示。</p> <p></p> <img src='stimuli/trees/16.png', style='max-width: 30%;'> </img> <p><strong>你是否选择发射武器？</strong></p>","0",""
"","","","","","html-keyboard-response","104","1363350","0.0-4.0-0.50","177","1","2022-11-21 11:59:05","7b1eb8be57ff77859c7d9ac988e43411","219.142.99.7","Mozilla/5.0 (Windows NT 6.1; WOW64) AppleWebKit/537.36 (KHTML, like Gecko) Chrome/81.0.4044.138 Safari/537.36 NetType/WIFI MicroMessenger/7.0.20.1781(0x6700143B) WindowsWechat(0x63080029)","WebKit","Chrome","81.0.4044.138","Windows","6.1","null","<div style=""font-size:60px;"">+</div>","null",""
"","","","","","html-button-response","105","1364744","0.0-4.0-1.50","177","1","2022-11-21 11:59:05","7b1eb8be57ff77859c7d9ac988e43411","219.142.99.7","Mozilla/5.0 (Windows NT 6.1; WOW64) AppleWebKit/537.36 (KHTML, like Gecko) Chrome/81.0.4044.138 Safari/537.36 NetType/WIFI MicroMessenger/7.0.20.1781(0x6700143B) WindowsWechat(0x63080029)","WebKit","Chrome","81.0.4044.138","Windows","6.1","1391","<p>作为军队的指挥官，你可以选择发射导弹杀死 <strong>6名</strong> 敌国士兵，但会误杀附近的 <strong>1名</strong> 敌国平民。</p> <p>平民照片如下图所示。</p> <p></p> <img src='stimuli/faces/PCM2.jpg', style='max-width: 30%;'> </img> <p><strong>你是否选择发射武器？</strong></p>","1",""
"","","","","","html-keyboard-response","106","1365747","0.0-4.0-0.51","177","1","2022-11-21 11:59:05","7b1eb8be57ff77859c7d9ac988e43411","219.142.99.7","Mozilla/5.0 (Windows NT 6.1; WOW64) AppleWebKit/537.36 (KHTML, like Gecko) Chrome/81.0.4044.138 Safari/537.36 NetType/WIFI MicroMessenger/7.0.20.1781(0x6700143B) WindowsWechat(0x63080029)","WebKit","Chrome","81.0.4044.138","Windows","6.1","null","<div style=""font-size:60px;"">+</div>","null",""
"","","","","","html-button-response","107","1366984","0.0-4.0-1.51","177","1","2022-11-21 11:59:05","7b1eb8be57ff77859c7d9ac988e43411","219.142.99.7","Mozilla/5.0 (Windows NT 6.1; WOW64) AppleWebKit/537.36 (KHTML, like Gecko) Chrome/81.0.4044.138 Safari/537.36 NetType/WIFI MicroMessenger/7.0.20.1781(0x6700143B) WindowsWechat(0x63080029)","WebKit","Chrome","81.0.4044.138","Windows","6.1","1234","<p>作为军队的指挥官，你可以选择发射导弹杀死 <strong>1名</strong> 敌国士兵，但会误杀附近的 <strong>1名</strong> 敌国平民。</p> <p>平民照片如下图所示。</p> <p></p> <img src='stimuli/faces/PCM2.jpg', style='max-width: 30%;'> </img> <p><strong>你是否选择发射武器？</strong></p>","1",""
"","","","","","html-keyboard-response","108","1367986","0.0-4.0-0.52","177","1","2022-11-21 11:59:05","7b1eb8be57ff77859c7d9ac988e43411","219.142.99.7","Mozilla/5.0 (Windows NT 6.1; WOW64) AppleWebKit/537.36 (KHTML, like Gecko) Chrome/81.0.4044.138 Safari/537.36 NetType/WIFI MicroMessenger/7.0.20.1781(0x6700143B) WindowsWechat(0x63080029)","WebKit","Chrome","81.0.4044.138","Windows","6.1","null","<div style=""font-size:60px;"">+</div>","null",""
"","","","","","html-button-response","109","1368956","0.0-4.0-1.52","177","1","2022-11-21 11:59:05","7b1eb8be57ff77859c7d9ac988e43411","219.142.99.7","Mozilla/5.0 (Windows NT 6.1; WOW64) AppleWebKit/537.36 (KHTML, like Gecko) Chrome/81.0.4044.138 Safari/537.36 NetType/WIFI MicroMessenger/7.0.20.1781(0x6700143B) WindowsWechat(0x63080029)","WebKit","Chrome","81.0.4044.138","Windows","6.1","967","<p>作为军队的指挥官，你可以选择发射导弹杀死 <strong>4名</strong> 敌国士兵，但会炸毁附近的 <strong>1棵</strong> 敌国树木。</p> <p>树木的照片如下图所示。</p> <p></p> <img src='stimuli/trees/10.png', style='max-width: 30%;'> </img> <p><strong>你是否选择发射武器？</strong></p>","0",""
"","","","","","html-keyboard-response","110","1369959","0.0-4.0-0.53","177","1","2022-11-21 11:59:05","7b1eb8be57ff77859c7d9ac988e43411","219.142.99.7","Mozilla/5.0 (Windows NT 6.1; WOW64) AppleWebKit/537.36 (KHTML, like Gecko) Chrome/81.0.4044.138 Safari/537.36 NetType/WIFI MicroMessenger/7.0.20.1781(0x6700143B) WindowsWechat(0x63080029)","WebKit","Chrome","81.0.4044.138","Windows","6.1","null","<div style=""font-size:60px;"">+</div>","null",""
"","","","","","html-button-response","111","1370891","0.0-4.0-1.53","177","1","2022-11-21 11:59:05","7b1eb8be57ff77859c7d9ac988e43411","219.142.99.7","Mozilla/5.0 (Windows NT 6.1; WOW64) AppleWebKit/537.36 (KHTML, like Gecko) Chrome/81.0.4044.138 Safari/537.36 NetType/WIFI MicroMessenger/7.0.20.1781(0x6700143B) WindowsWechat(0x63080029)","WebKit","Chrome","81.0.4044.138","Windows","6.1","930","<p>作为军队的指挥官，你可以选择发射导弹杀死 <strong>2名</strong> 敌国士兵，但会误杀附近的 <strong>1名</strong> 敌国平民。</p> <p>平民照片如下图所示。</p> <p></p> <img src='stimuli/faces/PCM3.jpg', style='max-width: 30%;'> </img> <p><strong>你是否选择发射武器？</strong></p>","1",""
"","","","","","html-keyboard-response","112","1371895","0.0-4.0-0.54","177","1","2022-11-21 11:59:05","7b1eb8be57ff77859c7d9ac988e43411","219.142.99.7","Mozilla/5.0 (Windows NT 6.1; WOW64) AppleWebKit/537.36 (KHTML, like Gecko) Chrome/81.0.4044.138 Safari/537.36 NetType/WIFI MicroMessenger/7.0.20.1781(0x6700143B) WindowsWechat(0x63080029)","WebKit","Chrome","81.0.4044.138","Windows","6.1","null","<div style=""font-size:60px;"">+</div>","null",""
"","","","","","html-button-response","113","1372915","0.0-4.0-1.54","177","1","2022-11-21 11:59:05","7b1eb8be57ff77859c7d9ac988e43411","219.142.99.7","Mozilla/5.0 (Windows NT 6.1; WOW64) AppleWebKit/537.36 (KHTML, like Gecko) Chrome/81.0.4044.138 Safari/537.36 NetType/WIFI MicroMessenger/7.0.20.1781(0x6700143B) WindowsWechat(0x63080029)","WebKit","Chrome","81.0.4044.138","Windows","6.1","1019","<p>作为军队的指挥官，你可以选择发射导弹杀死 <strong>8名</strong> 敌国士兵，但会炸毁附近的 <strong>1棵</strong> 敌国树木。</p> <p>树木的照片如下图所示。</p> <p></p> <img src='stimuli/trees/9.png', style='max-width: 30%;'> </img> <p><strong>你是否选择发射武器？</strong></p>","0",""
"","","","","","html-keyboard-response","114","1373918","0.0-4.0-0.55","177","1","2022-11-21 11:59:05","7b1eb8be57ff77859c7d9ac988e43411","219.142.99.7","Mozilla/5.0 (Windows NT 6.1; WOW64) AppleWebKit/537.36 (KHTML, like Gecko) Chrome/81.0.4044.138 Safari/537.36 NetType/WIFI MicroMessenger/7.0.20.1781(0x6700143B) WindowsWechat(0x63080029)","WebKit","Chrome","81.0.4044.138","Windows","6.1","null","<div style=""font-size:60px;"">+</div>","null",""
"","","","","","html-button-response","115","1375091","0.0-4.0-1.55","177","1","2022-11-21 11:59:05","7b1eb8be57ff77859c7d9ac988e43411","219.142.99.7","Mozilla/5.0 (Windows NT 6.1; WOW64) AppleWebKit/537.36 (KHTML, like Gecko) Chrome/81.0.4044.138 Safari/537.36 NetType/WIFI MicroMessenger/7.0.20.1781(0x6700143B) WindowsWechat(0x63080029)","WebKit","Chrome","81.0.4044.138","Windows","6.1","1170","<p>作为军队的指挥官，你可以选择发射导弹杀死 <strong>3名</strong> 敌国士兵，但会炸毁附近的 <strong>1棵</strong> 敌国树木。</p> <p>树木的照片如下图所示。</p> <p></p> <img src='stimuli/trees/9.png', style='max-width: 30%;'> </img> <p><strong>你是否选择发射武器？</strong></p>","0",""
"","","","","","html-keyboard-response","116","1376093","0.0-4.0-0.56","177","1","2022-11-21 11:59:05","7b1eb8be57ff77859c7d9ac988e43411","219.142.99.7","Mozilla/5.0 (Windows NT 6.1; WOW64) AppleWebKit/537.36 (KHTML, like Gecko) Chrome/81.0.4044.138 Safari/537.36 NetType/WIFI MicroMessenger/7.0.20.1781(0x6700143B) WindowsWechat(0x63080029)","WebKit","Chrome","81.0.4044.138","Windows","6.1","null","<div style=""font-size:60px;"">+</div>","null",""
"","","","","","html-button-response","117","1377433","0.0-4.0-1.56","177","1","2022-11-21 11:59:05","7b1eb8be57ff77859c7d9ac988e43411","219.142.99.7","Mozilla/5.0 (Windows NT 6.1; WOW64) AppleWebKit/537.36 (KHTML, like Gecko) Chrome/81.0.4044.138 Safari/537.36 NetType/WIFI MicroMessenger/7.0.20.1781(0x6700143B) WindowsWechat(0x63080029)","WebKit","Chrome","81.0.4044.138","Windows","6.1","1337","<p>作为军队的指挥官，你可以选择发射导弹杀死 <strong>9名</strong> 敌国士兵，但会炸毁附近的 <strong>1棵</strong> 敌国树木。</p> <p>树木的照片如下图所示。</p> <p></p> <img src='stimuli/trees/5.png', style='max-width: 30%;'> </img> <p><strong>你是否选择发射武器？</strong></p>","0",""
"","","","","","html-keyboard-response","118","1378435","0.0-4.0-0.57","177","1","2022-11-21 11:59:05","7b1eb8be57ff77859c7d9ac988e43411","219.142.99.7","Mozilla/5.0 (Windows NT 6.1; WOW64) AppleWebKit/537.36 (KHTML, like Gecko) Chrome/81.0.4044.138 Safari/537.36 NetType/WIFI MicroMessenger/7.0.20.1781(0x6700143B) WindowsWechat(0x63080029)","WebKit","Chrome","81.0.4044.138","Windows","6.1","null","<div style=""font-size:60px;"">+</div>","null",""
"","","","","","html-button-response","119","1379532","0.0-4.0-1.57","177","1","2022-11-21 11:59:05","7b1eb8be57ff77859c7d9ac988e43411","219.142.99.7","Mozilla/5.0 (Windows NT 6.1; WOW64) AppleWebKit/537.36 (KHTML, like Gecko) Chrome/81.0.4044.138 Safari/537.36 NetType/WIFI MicroMessenger/7.0.20.1781(0x6700143B) WindowsWechat(0x63080029)","WebKit","Chrome","81.0.4044.138","Windows","6.1","1106","<p>作为军队的指挥官，你可以选择发射导弹杀死 <strong>10名</strong> 敌国士兵，但会误杀附近的 <strong>1名</strong> 敌国平民。</p> <p>平民照片如下图所示。</p> <p></p> <img src='stimuli/faces/PCF7.jpg', style='max-width: 30%;'> </img> <p><strong>你是否选择发射武器？</strong></p>","1",""
"","","","","","html-keyboard-response","120","1380535","0.0-4.0-0.58","177","1","2022-11-21 11:59:05","7b1eb8be57ff77859c7d9ac988e43411","219.142.99.7","Mozilla/5.0 (Windows NT 6.1; WOW64) AppleWebKit/537.36 (KHTML, like Gecko) Chrome/81.0.4044.138 Safari/537.36 NetType/WIFI MicroMessenger/7.0.20.1781(0x6700143B) WindowsWechat(0x63080029)","WebKit","Chrome","81.0.4044.138","Windows","6.1","null","<div style=""font-size:60px;"">+</div>","null",""
"","","","","","html-button-response","121","1381736","0.0-4.0-1.58","177","1","2022-11-21 11:59:05","7b1eb8be57ff77859c7d9ac988e43411","219.142.99.7","Mozilla/5.0 (Windows NT 6.1; WOW64) AppleWebKit/537.36 (KHTML, like Gecko) Chrome/81.0.4044.138 Safari/537.36 NetType/WIFI MicroMessenger/7.0.20.1781(0x6700143B) WindowsWechat(0x63080029)","WebKit","Chrome","81.0.4044.138","Windows","6.1","1199","<p>作为军队的指挥官，你可以选择发射导弹杀死 <strong>3名</strong> 敌国士兵，但会误杀附近的 <strong>1名</strong> 敌国平民。</p> <p>平民照片如下图所示。</p> <p></p> <img src='stimuli/faces/PCF5.jpg', style='max-width: 30%;'> </img> <p><strong>你是否选择发射武器？</strong></p>","1",""
"","","","","","html-keyboard-response","122","1382739","0.0-4.0-0.59","177","1","2022-11-21 11:59:05","7b1eb8be57ff77859c7d9ac988e43411","219.142.99.7","Mozilla/5.0 (Windows NT 6.1; WOW64) AppleWebKit/537.36 (KHTML, like Gecko) Chrome/81.0.4044.138 Safari/537.36 NetType/WIFI MicroMessenger/7.0.20.1781(0x6700143B) WindowsWechat(0x63080029)","WebKit","Chrome","81.0.4044.138","Windows","6.1","null","<div style=""font-size:60px;"">+</div>","null",""
"","","","","","html-button-response","123","1384145","0.0-4.0-1.59","177","1","2022-11-21 11:59:05","7b1eb8be57ff77859c7d9ac988e43411","219.142.99.7","Mozilla/5.0 (Windows NT 6.1; WOW64) AppleWebKit/537.36 (KHTML, like Gecko) Chrome/81.0.4044.138 Safari/537.36 NetType/WIFI MicroMessenger/7.0.20.1781(0x6700143B) WindowsWechat(0x63080029)","WebKit","Chrome","81.0.4044.138","Windows","6.1","1403","<p>作为军队的指挥官，你可以选择发射导弹杀死 <strong>3名</strong> 敌国士兵，但会误杀附近的 <strong>1名</strong> 敌国平民。</p> <p>平民照片如下图所示。</p> <p></p> <img src='stimuli/faces/PCM4.jpg', style='max-width: 30%;'> </img> <p><strong>你是否选择发射武器？</strong></p>","1",""
"","","","","","html-keyboard-response","124","1385147","0.0-4.0-0.60","177","1","2022-11-21 11:59:05","7b1eb8be57ff77859c7d9ac988e43411","219.142.99.7","Mozilla/5.0 (Windows NT 6.1; WOW64) AppleWebKit/537.36 (KHTML, like Gecko) Chrome/81.0.4044.138 Safari/537.36 NetType/WIFI MicroMessenger/7.0.20.1781(0x6700143B) WindowsWechat(0x63080029)","WebKit","Chrome","81.0.4044.138","Windows","6.1","null","<div style=""font-size:60px;"">+</div>","null",""
"","","","","","html-button-response","125","1387001","0.0-4.0-1.60","177","1","2022-11-21 11:59:05","7b1eb8be57ff77859c7d9ac988e43411","219.142.99.7","Mozilla/5.0 (Windows NT 6.1; WOW64) AppleWebKit/537.36 (KHTML, like Gecko) Chrome/81.0.4044.138 Safari/537.36 NetType/WIFI MicroMessenger/7.0.20.1781(0x6700143B) WindowsWechat(0x63080029)","WebKit","Chrome","81.0.4044.138","Windows","6.1","1851","<p>作为军队的指挥官，你可以选择发射导弹杀死 <strong>10名</strong> 敌国士兵，但会误杀附近的 <strong>1名</strong> 敌国平民。</p> <p>平民照片如下图所示。</p> <p></p> <img src='stimuli/faces/PCF1.jpg', style='max-width: 30%;'> </img> <p><strong>你是否选择发射武器？</strong></p>","1",""
"","","","","","html-keyboard-response","126","1388004","0.0-4.0-0.61","177","1","2022-11-21 11:59:05","7b1eb8be57ff77859c7d9ac988e43411","219.142.99.7","Mozilla/5.0 (Windows NT 6.1; WOW64) AppleWebKit/537.36 (KHTML, like Gecko) Chrome/81.0.4044.138 Safari/537.36 NetType/WIFI MicroMessenger/7.0.20.1781(0x6700143B) WindowsWechat(0x63080029)","WebKit","Chrome","81.0.4044.138","Windows","6.1","null","<div style=""font-size:60px;"">+</div>","null",""
"","","","","","html-button-response","127","1389139","0.0-4.0-1.61","177","1","2022-11-21 11:59:05","7b1eb8be57ff77859c7d9ac988e43411","219.142.99.7","Mozilla/5.0 (Windows NT 6.1; WOW64) AppleWebKit/537.36 (KHTML, like Gecko) Chrome/81.0.4044.138 Safari/537.36 NetType/WIFI MicroMessenger/7.0.20.1781(0x6700143B) WindowsWechat(0x63080029)","WebKit","Chrome","81.0.4044.138","Windows","6.1","1133","<p>作为军队的指挥官，你可以选择发射导弹杀死 <strong>9名</strong> 敌国士兵，但会误杀附近的 <strong>1名</strong> 敌国平民。</p> <p>平民照片如下图所示。</p> <p></p> <img src='stimuli/faces/PCM5.jpg', style='max-width: 30%;'> </img> <p><strong>你是否选择发射武器？</strong></p>","1",""
"","","","","","html-keyboard-response","128","1390143","0.0-4.0-0.62","177","1","2022-11-21 11:59:05","7b1eb8be57ff77859c7d9ac988e43411","219.142.99.7","Mozilla/5.0 (Windows NT 6.1; WOW64) AppleWebKit/537.36 (KHTML, like Gecko) Chrome/81.0.4044.138 Safari/537.36 NetType/WIFI MicroMessenger/7.0.20.1781(0x6700143B) WindowsWechat(0x63080029)","WebKit","Chrome","81.0.4044.138","Windows","6.1","null","<div style=""font-size:60px;"">+</div>","null",""
"","","","","","html-button-response","129","1391237","0.0-4.0-1.62","177","1","2022-11-21 11:59:05","7b1eb8be57ff77859c7d9ac988e43411","219.142.99.7","Mozilla/5.0 (Windows NT 6.1; WOW64) AppleWebKit/537.36 (KHTML, like Gecko) Chrome/81.0.4044.138 Safari/537.36 NetType/WIFI MicroMessenger/7.0.20.1781(0x6700143B) WindowsWechat(0x63080029)","WebKit","Chrome","81.0.4044.138","Windows","6.1","1092","<p>作为军队的指挥官，你可以选择发射导弹杀死 <strong>2名</strong> 敌国士兵，但会误杀附近的 <strong>1名</strong> 敌国平民。</p> <p>平民照片如下图所示。</p> <p></p> <img src='stimuli/faces/PCM7.jpg', style='max-width: 30%;'> </img> <p><strong>你是否选择发射武器？</strong></p>","1",""
"","","","","","html-keyboard-response","130","1392240","0.0-4.0-0.63","177","1","2022-11-21 11:59:05","7b1eb8be57ff77859c7d9ac988e43411","219.142.99.7","Mozilla/5.0 (Windows NT 6.1; WOW64) AppleWebKit/537.36 (KHTML, like Gecko) Chrome/81.0.4044.138 Safari/537.36 NetType/WIFI MicroMessenger/7.0.20.1781(0x6700143B) WindowsWechat(0x63080029)","WebKit","Chrome","81.0.4044.138","Windows","6.1","null","<div style=""font-size:60px;"">+</div>","null",""
"","","","","","html-button-response","131","1393520","0.0-4.0-1.63","177","1","2022-11-21 11:59:05","7b1eb8be57ff77859c7d9ac988e43411","219.142.99.7","Mozilla/5.0 (Windows NT 6.1; WOW64) AppleWebKit/537.36 (KHTML, like Gecko) Chrome/81.0.4044.138 Safari/537.36 NetType/WIFI MicroMessenger/7.0.20.1781(0x6700143B) WindowsWechat(0x63080029)","WebKit","Chrome","81.0.4044.138","Windows","6.1","1278","<p>作为军队的指挥官，你可以选择发射导弹杀死 <strong>1名</strong> 敌国士兵，但会炸毁附近的 <strong>1棵</strong> 敌国树木。</p> <p>树木的照片如下图所示。</p> <p></p> <img src='stimuli/trees/5.png', style='max-width: 30%;'> </img> <p><strong>你是否选择发射武器？</strong></p>","1",""
"","","","","","survey-multi-choice","132","1422455","0.0-5.0","177","1","2022-11-21 11:59:05","7b1eb8be57ff77859c7d9ac988e43411","219.142.99.7","Mozilla/5.0 (Windows NT 6.1; WOW64) AppleWebKit/537.36 (KHTML, like Gecko) Chrome/81.0.4044.138 Safari/537.36 NetType/WIFI MicroMessenger/7.0.20.1781(0x6700143B) WindowsWechat(0x63080029)","WebKit","Chrome","81.0.4044.138","Windows","6.1","28931","","{""Attention1"":""""}","[0]"
"","","","","","html-button-response","133","1427289","0.0-6.0","177","1","2022-11-21 11:59:05","7b1eb8be57ff77859c7d9ac988e43411","219.142.99.7","Mozilla/5.0 (Windows NT 6.1; WOW64) AppleWebKit/537.36 (KHTML, like Gecko) Chrome/81.0.4044.138 Safari/537.36 NetType/WIFI MicroMessenger/7.0.20.1781(0x6700143B) WindowsWechat(0x63080029)","WebKit","Chrome","81.0.4044.138","Windows","6.1","4829","<p style=""font-size:20px;font-weight:bold;"">恭喜！</p><p>你已经完成了实验的第一部分。</p><p>请休息放松一下，然后进入第二部分。</p><p>这部分大约需要10分钟。</p>","0",""
"","","","","","survey-text","134","1461974","0.0-7.0","177","1","2022-11-21 11:59:05","7b1eb8be57ff77859c7d9ac988e43411","219.142.99.7","Mozilla/5.0 (Windows NT 6.1; WOW64) AppleWebKit/537.36 (KHTML, like Gecko) Chrome/81.0.4044.138 Safari/537.36 NetType/WIFI MicroMessenger/7.0.20.1781(0x6700143B) WindowsWechat(0x63080029)","WebKit","Chrome","81.0.4044.138","Windows","6.1","33691","","{""Age"":""21"",""Nation"":""中国"",""Born"":""重庆市"",""Live"":""北京"",""Ethnic"":""苗族"",""Alipay"":""13594915999"",""ID"":""201911081124""}",""
"","","","","","survey-multi-choice","135","1478719","0.0-8.0","177","1","2022-11-21 11:59:05","7b1eb8be57ff77859c7d9ac988e43411","219.142.99.7","Mozilla/5.0 (Windows NT 6.1; WOW64) AppleWebKit/537.36 (KHTML, like Gecko) Chrome/81.0.4044.138 Safari/537.36 NetType/WIFI MicroMessenger/7.0.20.1781(0x6700143B) WindowsWechat(0x63080029)","WebKit","Chrome","81.0.4044.138","Windows","6.1","16741","","{""Gender"":""男"",""Education"":""高中毕业"",""Income"":""￥70,000-￥139,999"",""Children"":""0"",""Race"":""亚洲人""}","[0,1,2,3,4]"
"","","","","","survey-multi-select","136","1490486","0.0-9.0","177","1","2022-11-21 11:59:05","7b1eb8be57ff77859c7d9ac988e43411","219.142.99.7","Mozilla/5.0 (Windows NT 6.1; WOW64) AppleWebKit/537.36 (KHTML, like Gecko) Chrome/81.0.4044.138 Safari/537.36 NetType/WIFI MicroMessenger/7.0.20.1781(0x6700143B) WindowsWechat(0x63080029)","WebKit","Chrome","81.0.4044.138","Windows","6.1","11759","","{""Marriage"":[""未婚""],""Religion"":[""无宗教信仰""]}","[0,1]"
"","","","","","survey-multi-choice","137","1499742","0.0-10.0","177","1","2022-11-21 11:59:05","7b1eb8be57ff77859c7d9ac988e43411","219.142.99.7","Mozilla/5.0 (Windows NT 6.1; WOW64) AppleWebKit/537.36 (KHTML, like Gecko) Chrome/81.0.4044.138 Safari/537.36 NetType/WIFI MicroMessenger/7.0.20.1781(0x6700143B) WindowsWechat(0x63080029)","WebKit","Chrome","81.0.4044.138","Windows","6.1","9250","","{""SES"":""3""}","[0]"
"","","","","","html-button-response","138","1507616","0.0-11.0","177","1","2022-11-21 11:59:05","7b1eb8be57ff77859c7d9ac988e43411","219.142.99.7","Mozilla/5.0 (Windows NT 6.1; WOW64) AppleWebKit/537.36 (KHTML, like Gecko) Chrome/81.0.4044.138 Safari/537.36 NetType/WIFI MicroMessenger/7.0.20.1781(0x6700143B) WindowsWechat(0x63080029)","WebKit","Chrome","81.0.4044.138","Windows","6.1","7869","<p><strong>请判断下列陈述在多大程度上可以形容你？</p><p> (1 = ""和我一点都不像"" to 5 = ""非常像我"".)</strong></p>","0",""
"","","","","","survey-likert","139","1540775","0.0-12.0","177","1","2022-11-21 11:59:05","7b1eb8be57ff77859c7d9ac988e43411","219.142.99.7","Mozilla/5.0 (Windows NT 6.1; WOW64) AppleWebKit/537.36 (KHTML, like Gecko) Chrome/81.0.4044.138 Safari/537.36 NetType/WIFI MicroMessenger/7.0.20.1781(0x6700143B) WindowsWechat(0x63080029)","WebKit","Chrome","81.0.4044.138","Windows","6.1","33170","","{""Aggression1"":2,""Aggression2"":2,""Aggression3"":2,""Aggression4"":0,""Aggression5"":2,""Aggression6"":3,""Aggression7"":1,""Aggression8"":1,""Aggression9"":0}","[0,1,2,3,4,5,6,7,8]"
"","","","","","html-button-response","140","1544717","0.0-13.0","177","1","2022-11-21 11:59:05","7b1eb8be57ff77859c7d9ac988e43411","219.142.99.7","Mozilla/5.0 (Windows NT 6.1; WOW64) AppleWebKit/537.36 (KHTML, like Gecko) Chrome/81.0.4044.138 Safari/537.36 NetType/WIFI MicroMessenger/7.0.20.1781(0x6700143B) WindowsWechat(0x63080029)","WebKit","Chrome","81.0.4044.138","Windows","6.1","3936","<p><strong>请判断你在多大程度上同意下列陈述。</strong></p>","0",""
"","","","","","survey-likert","141","1641158","0.0-14.0","177","1","2022-11-21 11:59:05","7b1eb8be57ff77859c7d9ac988e43411","219.142.99.7","Mozilla/5.0 (Windows NT 6.1; WOW64) AppleWebKit/537.36 (KHTML, like Gecko) Chrome/81.0.4044.138 Safari/537.36 NetType/WIFI MicroMessenger/7.0.20.1781(0x6700143B) WindowsWechat(0x63080029)","WebKit","Chrome","81.0.4044.138","Windows","6.1","96453","","{""scale11"":4,""scale5"":3,""scale16"":2,""scale27"":1,""scale4"":0,""scale17"":1,""scale13"":1,""scale24"":1,""scale18"":3,""scale25"":1,""scale26"":1,""scale7"":2,""scale20"":3,""scale6"":1,""scale10"":2,""scale12"":2,""scale23"":1,""scale8"":1,""scale22"":3,""scale1"":4,""scale15"":2,""scale3"":2,""scale14"":1,""scale2"":2,""scale21"":1,""scale28"":3,""scale9"":3,""scale19"":2}","[10,4,15,26,3,16,12,23,17,24,25,6,19,5,9,11,22,7,21,0,14,2,13,1,20,27,8,18]"
"","","","","","html-button-response","142","1643134","0.0-15.0","177","1","2022-11-21 11:59:05","7b1eb8be57ff77859c7d9ac988e43411","219.142.99.7","Mozilla/5.0 (Windows NT 6.1; WOW64) AppleWebKit/537.36 (KHTML, like Gecko) Chrome/81.0.4044.138 Safari/537.36 NetType/WIFI MicroMessenger/7.0.20.1781(0x6700143B) WindowsWechat(0x63080029)","WebKit","Chrome","81.0.4044.138","Windows","6.1","1970","<p><strong>请判断你在多大程度上同意下列陈述。</strong></p>","0",""
"","","","","","survey-likert","143","1711209","0.0-16.0","177","1","2022-11-21 11:59:05","7b1eb8be57ff77859c7d9ac988e43411","219.142.99.7","Mozilla/5.0 (Windows NT 6.1; WOW64) AppleWebKit/537.36 (KHTML, like Gecko) Chrome/81.0.4044.138 Safari/537.36 NetType/WIFI MicroMessenger/7.0.20.1781(0x6700143B) WindowsWechat(0x63080029)","WebKit","Chrome","81.0.4044.138","Windows","6.1","68084","","{""sdo9"":4,""sdo11"":4,""sdo6"":3,""sdo8"":4,""sdo16"":6,""sdo10"":5,""sdo5"":2,""sdo2"":5,""sdo1"":4,""sdo7"":2,""sdo14"":3,""sdo15"":3,""sdo12"":4,""sdo3"":5,""sdo4"":3,""sdo13"":4}","[8,10,5,7,15,9,4,1,0,6,13,14,11,2,3,12]"
"","","","","","html-button-response","144","1712908","0.0-17.0","177","1","2022-11-21 11:59:05","7b1eb8be57ff77859c7d9ac988e43411","219.142.99.7","Mozilla/5.0 (Windows NT 6.1; WOW64) AppleWebKit/537.36 (KHTML, like Gecko) Chrome/81.0.4044.138 Safari/537.36 NetType/WIFI MicroMessenger/7.0.20.1781(0x6700143B) WindowsWechat(0x63080029)","WebKit","Chrome","81.0.4044.138","Windows","6.1","1693","<p><strong>请判断你在多大程度上同意下列陈述。</strong></p>","0",""
"","","","","","survey-likert","145","1754585","0.0-18.0","177","1","2022-11-21 11:59:05","7b1eb8be57ff77859c7d9ac988e43411","219.142.99.7","Mozilla/5.0 (Windows NT 6.1; WOW64) AppleWebKit/537.36 (KHTML, like Gecko) Chrome/81.0.4044.138 Safari/537.36 NetType/WIFI MicroMessenger/7.0.20.1781(0x6700143B) WindowsWechat(0x63080029)","WebKit","Chrome","81.0.4044.138","Windows","6.1","41673","","{""caring1"":2,""liking1"":2,""caring2"":2,""protection1"":3,""liking2"":2,""caring3"":3,""protection2"":1,""liking3"":4,""protection3"":2,""caring4"":3,""liking4"":2,""protection4"":2,""caring5"":3,""liking5"":3,""protection5"":2}","[0,1,2,3,4,5,6,7,8,9,10,11,12,13,14]"
"","","","","","html-button-response","146","1756026","0.0-19.0","177","1","2022-11-21 11:59:05","7b1eb8be57ff77859c7d9ac988e43411","219.142.99.7","Mozilla/5.0 (Windows NT 6.1; WOW64) AppleWebKit/537.36 (KHTML, like Gecko) Chrome/81.0.4044.138 Safari/537.36 NetType/WIFI MicroMessenger/7.0.20.1781(0x6700143B) WindowsWechat(0x63080029)","WebKit","Chrome","81.0.4044.138","Windows","6.1","1436","<p><strong>请判断下列场景中你的内心感受有多柔软。</strong></p>","0",""
"","","","","","survey-likert","147","1791340","0.0-20.0","177","1","2022-11-21 11:59:05","7b1eb8be57ff77859c7d9ac988e43411","219.142.99.7","Mozilla/5.0 (Windows NT 6.1; WOW64) AppleWebKit/537.36 (KHTML, like Gecko) Chrome/81.0.4044.138 Safari/537.36 NetType/WIFI MicroMessenger/7.0.20.1781(0x6700143B) WindowsWechat(0x63080029)","WebKit","Chrome","81.0.4044.138","Windows","6.1","35325","","{""tenderness-positive1"":3,""tenderness-negative1"":2,""tenderness-negative2"":0,""tenderness-positive2"":3,""tenderness-positive3"":3,""tenderness-negative3"":1,""tenderness-positive4"":3,""tenderness-negative4"":2,""tenderness-negative5"":2,""tenderness-positive5"":3}","[0,1,2,3,4,5,6,7,8,9]"
"","","","","","survey-multi-choice","148","1803498","0.0-21.0","177","1","2022-11-21 11:59:05","7b1eb8be57ff77859c7d9ac988e43411","219.142.99.7","Mozilla/5.0 (Windows NT 6.1; WOW64) AppleWebKit/537.36 (KHTML, like Gecko) Chrome/81.0.4044.138 Safari/537.36 NetType/WIFI MicroMessenger/7.0.20.1781(0x6700143B) WindowsWechat(0x63080029)","WebKit","Chrome","81.0.4044.138","Windows","6.1","12152","","{""Attention2"":""其他""}","[0]"
"","","","","","html-button-response","149","1805496","0.0-22.0","177","1","2022-11-21 11:59:05","7b1eb8be57ff77859c7d9ac988e43411","219.142.99.7","Mozilla/5.0 (Windows NT 6.1; WOW64) AppleWebKit/537.36 (KHTML, like Gecko) Chrome/81.0.4044.138 Safari/537.36 NetType/WIFI MicroMessenger/7.0.20.1781(0x6700143B) WindowsWechat(0x63080029)","WebKit","Chrome","81.0.4044.138","Windows","6.1","1992","<p><strong>请判断你在多大程度上同意下列陈述。</strong></p>","0",""
"","","","","","survey-likert","150","1893149","0.0-23.0","177","1","2022-11-21 11:59:05","7b1eb8be57ff77859c7d9ac988e43411","219.142.99.7","Mozilla/5.0 (Windows NT 6.1; WOW64) AppleWebKit/537.36 (KHTML, like Gecko) Chrome/81.0.4044.138 Safari/537.36 NetType/WIFI MicroMessenger/7.0.20.1781(0x6700143B) WindowsWechat(0x63080029)","WebKit","Chrome","81.0.4044.138","Windows","6.1","87667","","{""Nation5"":2,""Nation1"":1,""Patri12"":0,""Nation2"":3,""Patri2"":4,""Nation7"":2,""Patri1"":4,""Patri7"":4,""Patri8"":4,""Nation3"":3,""Patri4"":2,""Patri10"":0,""Nation4"":1,""Patri6"":0,""Patri11"":0,""Patri3"":4,""Nation6"":4,""Nation8"":3,""Patri9"":2,""Patri5"":3}","[16,12,11,13,1,18,0,6,7,14,3,9,15,5,10,2,17,19,8,4]"
"","","","","","html-button-response","151","1894772","0.0-24.0","177","1","2022-11-21 11:59:05","7b1eb8be57ff77859c7d9ac988e43411","219.142.99.7","Mozilla/5.0 (Windows NT 6.1; WOW64) AppleWebKit/537.36 (KHTML, like Gecko) Chrome/81.0.4044.138 Safari/537.36 NetType/WIFI MicroMessenger/7.0.20.1781(0x6700143B) WindowsWechat(0x63080029)","WebKit","Chrome","81.0.4044.138","Windows","6.1","1618","<p><strong>请判断你在多大程度上同意下列陈述。</strong></p>","0",""
"","","","","","survey-likert","152","1949064","0.0-25.0","177","1","2022-11-21 11:59:05","7b1eb8be57ff77859c7d9ac988e43411","219.142.99.7","Mozilla/5.0 (Windows NT 6.1; WOW64) AppleWebKit/537.36 (KHTML, like Gecko) Chrome/81.0.4044.138 Safari/537.36 NetType/WIFI MicroMessenger/7.0.20.1781(0x6700143B) WindowsWechat(0x63080029)","WebKit","Chrome","81.0.4044.138","Windows","6.1","54287","","{""hi2"":5,""hc1"":6,""vc3"":4,""hc2"":6,""vc4"":6,""vc2"":5,""vi3"":6,""hc4"":5,""vc1"":6,""vi1"":5,""hi4"":6,""hc3"":4,""vi2"":4,""hi1"":6,""vi4"":5,""hi3"":7,""Robot"":6}","[1,9,15,10,16,14,6,12,13,4,3,11,5,0,8,2,7]"
"","","","","","survey-text","153","1951240","0.0-26.0","177","1","2022-11-21 11:59:05","7b1eb8be57ff77859c7d9ac988e43411","219.142.99.7","Mozilla/5.0 (Windows NT 6.1; WOW64) AppleWebKit/537.36 (KHTML, like Gecko) Chrome/81.0.4044.138 Safari/537.36 NetType/WIFI MicroMessenger/7.0.20.1781(0x6700143B) WindowsWechat(0x63080029)","WebKit","Chrome","81.0.4044.138","Windows","6.1","2164","","{""Comments"":""""}",""
"","","","","","html-button-response","154","1952065","0.0-27.0","177","1","2022-11-21 11:59:05","7b1eb8be57ff77859c7d9ac988e43411","219.142.99.7","Mozilla/5.0 (Windows NT 6.1; WOW64) AppleWebKit/537.36 (KHTML, like Gecko) Chrome/81.0.4044.138 Safari/537.36 NetType/WIFI MicroMessenger/7.0.20.1781(0x6700143B) WindowsWechat(0x63080029)","WebKit","Chrome","81.0.4044.138","Windows","6.1","822","<strong><p>恭喜你完成了实验！</p><p>感谢您的参与。</p></strong>","0",""
