"success","timeout","failed_images","failed_audio","failed_video","trial_type","trial_index","time_elapsed","internal_node_id","run_id","condition","recorded_at","source_code_version","ip","user_agent","device","browser","browser_version","platform","platform_version","rt","stimulus","response","question_order"
"true","false","[]","[]","[]","preload","0","1089","0.0-0.0","181","1","2022-11-22 09:23:02","7b1eb8be57ff77859c7d9ac988e43411","223.104.133.208","Mozilla/5.0 (Linux; Android 10; HarmonyOS; JEF-AN00; HMSCore 6.8.0.312) AppleWebKit/537.36 (KHTML, like Gecko) Chrome/92.0.4515.105 HuaweiBrowser/12.1.4.304 Mobile Safari/537.36","WebKit","Chrome","92.0.4515.105","AndroidOS","10","","","",""
"true","","","","","fullscreen","1","3054","0.0-1.0","181","1","2022-11-22 09:23:02","7b1eb8be57ff77859c7d9ac988e43411","223.104.133.208","Mozilla/5.0 (Linux; Android 10; HarmonyOS; JEF-AN00; HMSCore 6.8.0.312) AppleWebKit/537.36 (KHTML, like Gecko) Chrome/92.0.4515.105 HuaweiBrowser/12.1.4.304 Mobile Safari/537.36","WebKit","Chrome","92.0.4515.105","AndroidOS","10","","","",""
"","","","","","html-button-response","2","17587","0.0-2.0","181","1","2022-11-22 09:23:02","7b1eb8be57ff77859c7d9ac988e43411","223.104.133.208","Mozilla/5.0 (Linux; Android 10; HarmonyOS; JEF-AN00; HMSCore 6.8.0.312) AppleWebKit/537.36 (KHTML, like Gecko) Chrome/92.0.4515.105 HuaweiBrowser/12.1.4.304 Mobile Safari/537.36","WebKit","Chrome","92.0.4515.105","AndroidOS","10","14528","<p style=""font-size:20px;font-weight:bold;"">实验知情同意书</p><p style=""text-align:left;""><strong>实验名称：</strong>社会冲突研究</p><p style=""text-align:left;""><strong>主要研究者：</strong>韩晓春副教授（北京师范大学心理学部）</p><p style=""text-align:left;""><strong>联系方式：</strong>发送邮件至xiaochun.han@bnu.edu.cn</p><p style=""text-align:left;""><strong>研究目的：</strong>研究旨在了解人类面对群体冲突时的决策方式，以及相关的心理学特质。实验调查大约需要20分钟。</p><p style=""text-align:left;""><strong>实验流程：</strong>实验包含两部分。第一部分呈现一系列群体冲突场景，请你决定如何对这些冲突进行反应，大约需要10分钟完成。第二部分包含一系列人口统计学信息收集和心理学问卷，大约需要10分钟完成。</p><p style=""text-align:left;""><strong>参加及退出规则：</strong>参加本实验完全取决于您的个人意愿。在参与过程中，您可以随时退出，并且不用承担任何后果。</p><p style=""text-align:left;""><strong>隐私：</strong>本实验完全匿名进行，不会收集您的姓名或其他能够识别您身份的信息。实验中收集的作答仅用作科学研究使用，可能会在学术期刊/书籍上发表，或者用于教学，您的数据未来可能会和其他研究者或实验室分享，但您的个人身份不会被识别。</p><p style=""text-align:left;""><strong>实验报酬：</strong>实验完成后，您将获得15元人民币报酬，以感谢您的时间和努力。调查问卷中包含几道题目用以测验您作答时的认真度。只有完成全部实验，并且正确回答认真度测验的被试才能获得实验报酬。实验报酬将通过支付宝转账发放。</p><p style=""text-align:left;font-size:20px;""><strong>如果您同意以上实验知情同意书的内容，请点击'同意并且开始实验'按钮；否则请关闭浏览器界面，退出实验。</strong></p>","0",""
"","","","","","html-button-response","3","18544","0.0-3.0","181","1","2022-11-22 09:23:02","7b1eb8be57ff77859c7d9ac988e43411","223.104.133.208","Mozilla/5.0 (Linux; Android 10; HarmonyOS; JEF-AN00; HMSCore 6.8.0.312) AppleWebKit/537.36 (KHTML, like Gecko) Chrome/92.0.4515.105 HuaweiBrowser/12.1.4.304 Mobile Safari/537.36","WebKit","Chrome","92.0.4515.105","AndroidOS","10","951","<p ><strong>实验任务一：</strong></p><p>请想象你的国家与另一个国家发生了军事冲突。</p><p>你是国家军队的指挥官，你将如何在冲突中进行决策。</p><p>具体来说，作为军队指挥官，请你决定是否发射导弹进行打击。</p><p>接下来，你会面对一系列场景，请仔细阅读每个场景，然后进行决策。</p><p>这部分实验任务大约需要10分钟。</p><p><strong>实验过程中，请集中注意力。</strong></p>","0",""
"","","","","","html-keyboard-response","4","19548","0.0-4.0-0.0","181","1","2022-11-22 09:23:02","7b1eb8be57ff77859c7d9ac988e43411","223.104.133.208","Mozilla/5.0 (Linux; Android 10; HarmonyOS; JEF-AN00; HMSCore 6.8.0.312) AppleWebKit/537.36 (KHTML, like Gecko) Chrome/92.0.4515.105 HuaweiBrowser/12.1.4.304 Mobile Safari/537.36","WebKit","Chrome","92.0.4515.105","AndroidOS","10","null","<div style=""font-size:60px;"">+</div>","null",""
"","","","","","html-button-response","5","22639","0.0-4.0-1.0","181","1","2022-11-22 09:23:02","7b1eb8be57ff77859c7d9ac988e43411","223.104.133.208","Mozilla/5.0 (Linux; Android 10; HarmonyOS; JEF-AN00; HMSCore 6.8.0.312) AppleWebKit/537.36 (KHTML, like Gecko) Chrome/92.0.4515.105 HuaweiBrowser/12.1.4.304 Mobile Safari/537.36","WebKit","Chrome","92.0.4515.105","AndroidOS","10","3083","<p>作为军队的指挥官，你可以选择发射导弹杀死 <strong>9名</strong> 敌国士兵，但会误杀附近的 <strong>1名</strong> 敌国平民。</p> <p>平民照片如下图所示。</p> <p></p> <img src='stimuli/faces/PCM6.jpg', style='max-width: 30%;'> </img> <p><strong>你是否选择发射武器？</strong></p>","1",""
"","","","","","html-keyboard-response","6","23643","0.0-4.0-0.1","181","1","2022-11-22 09:23:02","7b1eb8be57ff77859c7d9ac988e43411","223.104.133.208","Mozilla/5.0 (Linux; Android 10; HarmonyOS; JEF-AN00; HMSCore 6.8.0.312) AppleWebKit/537.36 (KHTML, like Gecko) Chrome/92.0.4515.105 HuaweiBrowser/12.1.4.304 Mobile Safari/537.36","WebKit","Chrome","92.0.4515.105","AndroidOS","10","null","<div style=""font-size:60px;"">+</div>","null",""
"","","","","","html-button-response","7","25533","0.0-4.0-1.1","181","1","2022-11-22 09:23:02","7b1eb8be57ff77859c7d9ac988e43411","223.104.133.208","Mozilla/5.0 (Linux; Android 10; HarmonyOS; JEF-AN00; HMSCore 6.8.0.312) AppleWebKit/537.36 (KHTML, like Gecko) Chrome/92.0.4515.105 HuaweiBrowser/12.1.4.304 Mobile Safari/537.36","WebKit","Chrome","92.0.4515.105","AndroidOS","10","1883","<p>作为军队的指挥官，你可以选择发射导弹杀死 <strong>8名</strong> 敌国士兵，但会误杀附近的 <strong>1名</strong> 敌国平民。</p> <p>平民照片如下图所示。</p> <p></p> <img src='stimuli/faces/PCM1.jpg', style='max-width: 30%;'> </img> <p><strong>你是否选择发射武器？</strong></p>","1",""
"","","","","","html-keyboard-response","8","26537","0.0-4.0-0.2","181","1","2022-11-22 09:23:02","7b1eb8be57ff77859c7d9ac988e43411","223.104.133.208","Mozilla/5.0 (Linux; Android 10; HarmonyOS; JEF-AN00; HMSCore 6.8.0.312) AppleWebKit/537.36 (KHTML, like Gecko) Chrome/92.0.4515.105 HuaweiBrowser/12.1.4.304 Mobile Safari/537.36","WebKit","Chrome","92.0.4515.105","AndroidOS","10","null","<div style=""font-size:60px;"">+</div>","null",""
"","","","","","html-button-response","9","28297","0.0-4.0-1.2","181","1","2022-11-22 09:23:02","7b1eb8be57ff77859c7d9ac988e43411","223.104.133.208","Mozilla/5.0 (Linux; Android 10; HarmonyOS; JEF-AN00; HMSCore 6.8.0.312) AppleWebKit/537.36 (KHTML, like Gecko) Chrome/92.0.4515.105 HuaweiBrowser/12.1.4.304 Mobile Safari/537.36","WebKit","Chrome","92.0.4515.105","AndroidOS","10","1754","<p>作为军队的指挥官，你可以选择发射导弹杀死 <strong>6名</strong> 敌国士兵，但会炸毁附近的 <strong>1棵</strong> 敌国树木。</p> <p>树木的照片如下图所示。</p> <p></p> <img src='stimuli/trees/7.png', style='max-width: 30%;'> </img> <p><strong>你是否选择发射武器？</strong></p>","0",""
"","","","","","html-keyboard-response","10","29301","0.0-4.0-0.3","181","1","2022-11-22 09:23:02","7b1eb8be57ff77859c7d9ac988e43411","223.104.133.208","Mozilla/5.0 (Linux; Android 10; HarmonyOS; JEF-AN00; HMSCore 6.8.0.312) AppleWebKit/537.36 (KHTML, like Gecko) Chrome/92.0.4515.105 HuaweiBrowser/12.1.4.304 Mobile Safari/537.36","WebKit","Chrome","92.0.4515.105","AndroidOS","10","null","<div style=""font-size:60px;"">+</div>","null",""
"","","","","","html-button-response","11","32978","0.0-4.0-1.3","181","1","2022-11-22 09:23:02","7b1eb8be57ff77859c7d9ac988e43411","223.104.133.208","Mozilla/5.0 (Linux; Android 10; HarmonyOS; JEF-AN00; HMSCore 6.8.0.312) AppleWebKit/537.36 (KHTML, like Gecko) Chrome/92.0.4515.105 HuaweiBrowser/12.1.4.304 Mobile Safari/537.36","WebKit","Chrome","92.0.4515.105","AndroidOS","10","3671","<p>作为军队的指挥官，你可以选择发射导弹杀死 <strong>8名</strong> 敌国士兵，但会炸毁附近的 <strong>1棵</strong> 敌国树木。</p> <p>树木的照片如下图所示。</p> <p></p> <img src='stimuli/trees/11.png', style='max-width: 30%;'> </img> <p><strong>你是否选择发射武器？</strong></p>","0",""
"","","","","","html-keyboard-response","12","33984","0.0-4.0-0.4","181","1","2022-11-22 09:23:02","7b1eb8be57ff77859c7d9ac988e43411","223.104.133.208","Mozilla/5.0 (Linux; Android 10; HarmonyOS; JEF-AN00; HMSCore 6.8.0.312) AppleWebKit/537.36 (KHTML, like Gecko) Chrome/92.0.4515.105 HuaweiBrowser/12.1.4.304 Mobile Safari/537.36","WebKit","Chrome","92.0.4515.105","AndroidOS","10","null","<div style=""font-size:60px;"">+</div>","null",""
"","","","","","html-button-response","13","36353","0.0-4.0-1.4","181","1","2022-11-22 09:23:02","7b1eb8be57ff77859c7d9ac988e43411","223.104.133.208","Mozilla/5.0 (Linux; Android 10; HarmonyOS; JEF-AN00; HMSCore 6.8.0.312) AppleWebKit/537.36 (KHTML, like Gecko) Chrome/92.0.4515.105 HuaweiBrowser/12.1.4.304 Mobile Safari/537.36","WebKit","Chrome","92.0.4515.105","AndroidOS","10","2362","<p>作为军队的指挥官，你可以选择发射导弹杀死 <strong>3名</strong> 敌国士兵，但会炸毁附近的 <strong>1棵</strong> 敌国树木。</p> <p>树木的照片如下图所示。</p> <p></p> <img src='stimuli/trees/2.png', style='max-width: 30%;'> </img> <p><strong>你是否选择发射武器？</strong></p>","1",""
"","","","","","html-keyboard-response","14","37356","0.0-4.0-0.5","181","1","2022-11-22 09:23:02","7b1eb8be57ff77859c7d9ac988e43411","223.104.133.208","Mozilla/5.0 (Linux; Android 10; HarmonyOS; JEF-AN00; HMSCore 6.8.0.312) AppleWebKit/537.36 (KHTML, like Gecko) Chrome/92.0.4515.105 HuaweiBrowser/12.1.4.304 Mobile Safari/537.36","WebKit","Chrome","92.0.4515.105","AndroidOS","10","null","<div style=""font-size:60px;"">+</div>","null",""
"","","","","","html-button-response","15","39399","0.0-4.0-1.5","181","1","2022-11-22 09:23:02","7b1eb8be57ff77859c7d9ac988e43411","223.104.133.208","Mozilla/5.0 (Linux; Android 10; HarmonyOS; JEF-AN00; HMSCore 6.8.0.312) AppleWebKit/537.36 (KHTML, like Gecko) Chrome/92.0.4515.105 HuaweiBrowser/12.1.4.304 Mobile Safari/537.36","WebKit","Chrome","92.0.4515.105","AndroidOS","10","2038","<p>作为军队的指挥官，你可以选择发射导弹杀死 <strong>10名</strong> 敌国士兵，但会炸毁附近的 <strong>1棵</strong> 敌国树木。</p> <p>树木的照片如下图所示。</p> <p></p> <img src='stimuli/trees/9.png', style='max-width: 30%;'> </img> <p><strong>你是否选择发射武器？</strong></p>","0",""
"","","","","","html-keyboard-response","16","40403","0.0-4.0-0.6","181","1","2022-11-22 09:23:02","7b1eb8be57ff77859c7d9ac988e43411","223.104.133.208","Mozilla/5.0 (Linux; Android 10; HarmonyOS; JEF-AN00; HMSCore 6.8.0.312) AppleWebKit/537.36 (KHTML, like Gecko) Chrome/92.0.4515.105 HuaweiBrowser/12.1.4.304 Mobile Safari/537.36","WebKit","Chrome","92.0.4515.105","AndroidOS","10","null","<div style=""font-size:60px;"">+</div>","null",""
"","","","","","html-button-response","17","41364","0.0-4.0-1.6","181","1","2022-11-22 09:23:02","7b1eb8be57ff77859c7d9ac988e43411","223.104.133.208","Mozilla/5.0 (Linux; Android 10; HarmonyOS; JEF-AN00; HMSCore 6.8.0.312) AppleWebKit/537.36 (KHTML, like Gecko) Chrome/92.0.4515.105 HuaweiBrowser/12.1.4.304 Mobile Safari/537.36","WebKit","Chrome","92.0.4515.105","AndroidOS","10","954","<p>作为军队的指挥官，你可以选择发射导弹杀死 <strong>7名</strong> 敌国士兵，但会误杀附近的 <strong>1名</strong> 敌国平民。</p> <p>平民照片如下图所示。</p> <p></p> <img src='stimuli/faces/PCF7.jpg', style='max-width: 30%;'> </img> <p><strong>你是否选择发射武器？</strong></p>","1",""
"","","","","","html-keyboard-response","18","42369","0.0-4.0-0.7","181","1","2022-11-22 09:23:02","7b1eb8be57ff77859c7d9ac988e43411","223.104.133.208","Mozilla/5.0 (Linux; Android 10; HarmonyOS; JEF-AN00; HMSCore 6.8.0.312) AppleWebKit/537.36 (KHTML, like Gecko) Chrome/92.0.4515.105 HuaweiBrowser/12.1.4.304 Mobile Safari/537.36","WebKit","Chrome","92.0.4515.105","AndroidOS","10","null","<div style=""font-size:60px;"">+</div>","null",""
"","","","","","html-button-response","19","43878","0.0-4.0-1.7","181","1","2022-11-22 09:23:02","7b1eb8be57ff77859c7d9ac988e43411","223.104.133.208","Mozilla/5.0 (Linux; Android 10; HarmonyOS; JEF-AN00; HMSCore 6.8.0.312) AppleWebKit/537.36 (KHTML, like Gecko) Chrome/92.0.4515.105 HuaweiBrowser/12.1.4.304 Mobile Safari/537.36","WebKit","Chrome","92.0.4515.105","AndroidOS","10","1502","<p>作为军队的指挥官，你可以选择发射导弹杀死 <strong>7名</strong> 敌国士兵，但会炸毁附近的 <strong>1棵</strong> 敌国树木。</p> <p>树木的照片如下图所示。</p> <p></p> <img src='stimuli/trees/10.png', style='max-width: 30%;'> </img> <p><strong>你是否选择发射武器？</strong></p>","0",""
"","","","","","html-keyboard-response","20","44882","0.0-4.0-0.8","181","1","2022-11-22 09:23:02","7b1eb8be57ff77859c7d9ac988e43411","223.104.133.208","Mozilla/5.0 (Linux; Android 10; HarmonyOS; JEF-AN00; HMSCore 6.8.0.312) AppleWebKit/537.36 (KHTML, like Gecko) Chrome/92.0.4515.105 HuaweiBrowser/12.1.4.304 Mobile Safari/537.36","WebKit","Chrome","92.0.4515.105","AndroidOS","10","null","<div style=""font-size:60px;"">+</div>","null",""
"","","","","","html-button-response","21","47032","0.0-4.0-1.8","181","1","2022-11-22 09:23:02","7b1eb8be57ff77859c7d9ac988e43411","223.104.133.208","Mozilla/5.0 (Linux; Android 10; HarmonyOS; JEF-AN00; HMSCore 6.8.0.312) AppleWebKit/537.36 (KHTML, like Gecko) Chrome/92.0.4515.105 HuaweiBrowser/12.1.4.304 Mobile Safari/537.36","WebKit","Chrome","92.0.4515.105","AndroidOS","10","2142","<p>作为军队的指挥官，你可以选择发射导弹杀死 <strong>9名</strong> 敌国士兵，但会误杀附近的 <strong>1名</strong> 敌国平民。</p> <p>平民照片如下图所示。</p> <p></p> <img src='stimuli/faces/PCF8.jpg', style='max-width: 30%;'> </img> <p><strong>你是否选择发射武器？</strong></p>","1",""
"","","","","","html-keyboard-response","22","48036","0.0-4.0-0.9","181","1","2022-11-22 09:23:02","7b1eb8be57ff77859c7d9ac988e43411","223.104.133.208","Mozilla/5.0 (Linux; Android 10; HarmonyOS; JEF-AN00; HMSCore 6.8.0.312) AppleWebKit/537.36 (KHTML, like Gecko) Chrome/92.0.4515.105 HuaweiBrowser/12.1.4.304 Mobile Safari/537.36","WebKit","Chrome","92.0.4515.105","AndroidOS","10","null","<div style=""font-size:60px;"">+</div>","null",""
"","","","","","html-button-response","23","50232","0.0-4.0-1.9","181","1","2022-11-22 09:23:02","7b1eb8be57ff77859c7d9ac988e43411","223.104.133.208","Mozilla/5.0 (Linux; Android 10; HarmonyOS; JEF-AN00; HMSCore 6.8.0.312) AppleWebKit/537.36 (KHTML, like Gecko) Chrome/92.0.4515.105 HuaweiBrowser/12.1.4.304 Mobile Safari/537.36","WebKit","Chrome","92.0.4515.105","AndroidOS","10","2190","<p>作为军队的指挥官，你可以选择发射导弹杀死 <strong>4名</strong> 敌国士兵，但会炸毁附近的 <strong>1棵</strong> 敌国树木。</p> <p>树木的照片如下图所示。</p> <p></p> <img src='stimuli/trees/3.png', style='max-width: 30%;'> </img> <p><strong>你是否选择发射武器？</strong></p>","1",""
"","","","","","html-keyboard-response","24","51236","0.0-4.0-0.10","181","1","2022-11-22 09:23:02","7b1eb8be57ff77859c7d9ac988e43411","223.104.133.208","Mozilla/5.0 (Linux; Android 10; HarmonyOS; JEF-AN00; HMSCore 6.8.0.312) AppleWebKit/537.36 (KHTML, like Gecko) Chrome/92.0.4515.105 HuaweiBrowser/12.1.4.304 Mobile Safari/537.36","WebKit","Chrome","92.0.4515.105","AndroidOS","10","null","<div style=""font-size:60px;"">+</div>","null",""
"","","","","","html-button-response","25","53102","0.0-4.0-1.10","181","1","2022-11-22 09:23:02","7b1eb8be57ff77859c7d9ac988e43411","223.104.133.208","Mozilla/5.0 (Linux; Android 10; HarmonyOS; JEF-AN00; HMSCore 6.8.0.312) AppleWebKit/537.36 (KHTML, like Gecko) Chrome/92.0.4515.105 HuaweiBrowser/12.1.4.304 Mobile Safari/537.36","WebKit","Chrome","92.0.4515.105","AndroidOS","10","1859","<p>作为军队的指挥官，你可以选择发射导弹杀死 <strong>3名</strong> 敌国士兵，但会误杀附近的 <strong>1名</strong> 敌国平民。</p> <p>平民照片如下图所示。</p> <p></p> <img src='stimuli/faces/PCF4.jpg', style='max-width: 30%;'> </img> <p><strong>你是否选择发射武器？</strong></p>","1",""
"","","","","","html-keyboard-response","26","54105","0.0-4.0-0.11","181","1","2022-11-22 09:23:02","7b1eb8be57ff77859c7d9ac988e43411","223.104.133.208","Mozilla/5.0 (Linux; Android 10; HarmonyOS; JEF-AN00; HMSCore 6.8.0.312) AppleWebKit/537.36 (KHTML, like Gecko) Chrome/92.0.4515.105 HuaweiBrowser/12.1.4.304 Mobile Safari/537.36","WebKit","Chrome","92.0.4515.105","AndroidOS","10","null","<div style=""font-size:60px;"">+</div>","null",""
"","","","","","html-button-response","27","55498","0.0-4.0-1.11","181","1","2022-11-22 09:23:02","7b1eb8be57ff77859c7d9ac988e43411","223.104.133.208","Mozilla/5.0 (Linux; Android 10; HarmonyOS; JEF-AN00; HMSCore 6.8.0.312) AppleWebKit/537.36 (KHTML, like Gecko) Chrome/92.0.4515.105 HuaweiBrowser/12.1.4.304 Mobile Safari/537.36","WebKit","Chrome","92.0.4515.105","AndroidOS","10","1382","<p>作为军队的指挥官，你可以选择发射导弹杀死 <strong>4名</strong> 敌国士兵，但会炸毁附近的 <strong>1棵</strong> 敌国树木。</p> <p>树木的照片如下图所示。</p> <p></p> <img src='stimuli/trees/14.png', style='max-width: 30%;'> </img> <p><strong>你是否选择发射武器？</strong></p>","1",""
"","","","","","html-keyboard-response","28","56503","0.0-4.0-0.12","181","1","2022-11-22 09:23:02","7b1eb8be57ff77859c7d9ac988e43411","223.104.133.208","Mozilla/5.0 (Linux; Android 10; HarmonyOS; JEF-AN00; HMSCore 6.8.0.312) AppleWebKit/537.36 (KHTML, like Gecko) Chrome/92.0.4515.105 HuaweiBrowser/12.1.4.304 Mobile Safari/537.36","WebKit","Chrome","92.0.4515.105","AndroidOS","10","null","<div style=""font-size:60px;"">+</div>","null",""
"","","","","","html-button-response","29","60235","0.0-4.0-1.12","181","1","2022-11-22 09:23:02","7b1eb8be57ff77859c7d9ac988e43411","223.104.133.208","Mozilla/5.0 (Linux; Android 10; HarmonyOS; JEF-AN00; HMSCore 6.8.0.312) AppleWebKit/537.36 (KHTML, like Gecko) Chrome/92.0.4515.105 HuaweiBrowser/12.1.4.304 Mobile Safari/537.36","WebKit","Chrome","92.0.4515.105","AndroidOS","10","3725","<p>作为军队的指挥官，你可以选择发射导弹杀死 <strong>1名</strong> 敌国士兵，但会误杀附近的 <strong>1名</strong> 敌国平民。</p> <p>平民照片如下图所示。</p> <p></p> <img src='stimuli/faces/PCF1.jpg', style='max-width: 30%;'> </img> <p><strong>你是否选择发射武器？</strong></p>","1",""
"","","","","","html-keyboard-response","30","61238","0.0-4.0-0.13","181","1","2022-11-22 09:23:02","7b1eb8be57ff77859c7d9ac988e43411","223.104.133.208","Mozilla/5.0 (Linux; Android 10; HarmonyOS; JEF-AN00; HMSCore 6.8.0.312) AppleWebKit/537.36 (KHTML, like Gecko) Chrome/92.0.4515.105 HuaweiBrowser/12.1.4.304 Mobile Safari/537.36","WebKit","Chrome","92.0.4515.105","AndroidOS","10","null","<div style=""font-size:60px;"">+</div>","null",""
"","","","","","html-button-response","31","62422","0.0-4.0-1.13","181","1","2022-11-22 09:23:02","7b1eb8be57ff77859c7d9ac988e43411","223.104.133.208","Mozilla/5.0 (Linux; Android 10; HarmonyOS; JEF-AN00; HMSCore 6.8.0.312) AppleWebKit/537.36 (KHTML, like Gecko) Chrome/92.0.4515.105 HuaweiBrowser/12.1.4.304 Mobile Safari/537.36","WebKit","Chrome","92.0.4515.105","AndroidOS","10","1178","<p>作为军队的指挥官，你可以选择发射导弹杀死 <strong>5名</strong> 敌国士兵，但会误杀附近的 <strong>1名</strong> 敌国平民。</p> <p>平民照片如下图所示。</p> <p></p> <img src='stimuli/faces/PCM3.jpg', style='max-width: 30%;'> </img> <p><strong>你是否选择发射武器？</strong></p>","1",""
"","","","","","html-keyboard-response","32","63428","0.0-4.0-0.14","181","1","2022-11-22 09:23:02","7b1eb8be57ff77859c7d9ac988e43411","223.104.133.208","Mozilla/5.0 (Linux; Android 10; HarmonyOS; JEF-AN00; HMSCore 6.8.0.312) AppleWebKit/537.36 (KHTML, like Gecko) Chrome/92.0.4515.105 HuaweiBrowser/12.1.4.304 Mobile Safari/537.36","WebKit","Chrome","92.0.4515.105","AndroidOS","10","null","<div style=""font-size:60px;"">+</div>","null",""
"","","","","","html-button-response","33","65377","0.0-4.0-1.14","181","1","2022-11-22 09:23:02","7b1eb8be57ff77859c7d9ac988e43411","223.104.133.208","Mozilla/5.0 (Linux; Android 10; HarmonyOS; JEF-AN00; HMSCore 6.8.0.312) AppleWebKit/537.36 (KHTML, like Gecko) Chrome/92.0.4515.105 HuaweiBrowser/12.1.4.304 Mobile Safari/537.36","WebKit","Chrome","92.0.4515.105","AndroidOS","10","1942","<p>作为军队的指挥官，你可以选择发射导弹杀死 <strong>6名</strong> 敌国士兵，但会炸毁附近的 <strong>1棵</strong> 敌国树木。</p> <p>树木的照片如下图所示。</p> <p></p> <img src='stimuli/trees/2.png', style='max-width: 30%;'> </img> <p><strong>你是否选择发射武器？</strong></p>","0",""
"","","","","","html-keyboard-response","34","66383","0.0-4.0-0.15","181","1","2022-11-22 09:23:02","7b1eb8be57ff77859c7d9ac988e43411","223.104.133.208","Mozilla/5.0 (Linux; Android 10; HarmonyOS; JEF-AN00; HMSCore 6.8.0.312) AppleWebKit/537.36 (KHTML, like Gecko) Chrome/92.0.4515.105 HuaweiBrowser/12.1.4.304 Mobile Safari/537.36","WebKit","Chrome","92.0.4515.105","AndroidOS","10","null","<div style=""font-size:60px;"">+</div>","null",""
"","","","","","html-button-response","35","67590","0.0-4.0-1.15","181","1","2022-11-22 09:23:02","7b1eb8be57ff77859c7d9ac988e43411","223.104.133.208","Mozilla/5.0 (Linux; Android 10; HarmonyOS; JEF-AN00; HMSCore 6.8.0.312) AppleWebKit/537.36 (KHTML, like Gecko) Chrome/92.0.4515.105 HuaweiBrowser/12.1.4.304 Mobile Safari/537.36","WebKit","Chrome","92.0.4515.105","AndroidOS","10","1199","<p>作为军队的指挥官，你可以选择发射导弹杀死 <strong>7名</strong> 敌国士兵，但会炸毁附近的 <strong>1棵</strong> 敌国树木。</p> <p>树木的照片如下图所示。</p> <p></p> <img src='stimuli/trees/6.png', style='max-width: 30%;'> </img> <p><strong>你是否选择发射武器？</strong></p>","0",""
"","","","","","html-keyboard-response","36","68595","0.0-4.0-0.16","181","1","2022-11-22 09:23:02","7b1eb8be57ff77859c7d9ac988e43411","223.104.133.208","Mozilla/5.0 (Linux; Android 10; HarmonyOS; JEF-AN00; HMSCore 6.8.0.312) AppleWebKit/537.36 (KHTML, like Gecko) Chrome/92.0.4515.105 HuaweiBrowser/12.1.4.304 Mobile Safari/537.36","WebKit","Chrome","92.0.4515.105","AndroidOS","10","null","<div style=""font-size:60px;"">+</div>","null",""
"","","","","","html-button-response","37","70694","0.0-4.0-1.16","181","1","2022-11-22 09:23:02","7b1eb8be57ff77859c7d9ac988e43411","223.104.133.208","Mozilla/5.0 (Linux; Android 10; HarmonyOS; JEF-AN00; HMSCore 6.8.0.312) AppleWebKit/537.36 (KHTML, like Gecko) Chrome/92.0.4515.105 HuaweiBrowser/12.1.4.304 Mobile Safari/537.36","WebKit","Chrome","92.0.4515.105","AndroidOS","10","2087","<p>作为军队的指挥官，你可以选择发射导弹杀死 <strong>8名</strong> 敌国士兵，但会炸毁附近的 <strong>1棵</strong> 敌国树木。</p> <p>树木的照片如下图所示。</p> <p></p> <img src='stimuli/trees/13.png', style='max-width: 30%;'> </img> <p><strong>你是否选择发射武器？</strong></p>","0",""
"","","","","","html-keyboard-response","38","71698","0.0-4.0-0.17","181","1","2022-11-22 09:23:02","7b1eb8be57ff77859c7d9ac988e43411","223.104.133.208","Mozilla/5.0 (Linux; Android 10; HarmonyOS; JEF-AN00; HMSCore 6.8.0.312) AppleWebKit/537.36 (KHTML, like Gecko) Chrome/92.0.4515.105 HuaweiBrowser/12.1.4.304 Mobile Safari/537.36","WebKit","Chrome","92.0.4515.105","AndroidOS","10","null","<div style=""font-size:60px;"">+</div>","null",""
"","","","","","html-button-response","39","72674","0.0-4.0-1.17","181","1","2022-11-22 09:23:02","7b1eb8be57ff77859c7d9ac988e43411","223.104.133.208","Mozilla/5.0 (Linux; Android 10; HarmonyOS; JEF-AN00; HMSCore 6.8.0.312) AppleWebKit/537.36 (KHTML, like Gecko) Chrome/92.0.4515.105 HuaweiBrowser/12.1.4.304 Mobile Safari/537.36","WebKit","Chrome","92.0.4515.105","AndroidOS","10","965","<p>作为军队的指挥官，你可以选择发射导弹杀死 <strong>8名</strong> 敌国士兵，但会误杀附近的 <strong>1名</strong> 敌国平民。</p> <p>平民照片如下图所示。</p> <p></p> <img src='stimuli/faces/PCF1.jpg', style='max-width: 30%;'> </img> <p><strong>你是否选择发射武器？</strong></p>","1",""
"","","","","","html-keyboard-response","40","73679","0.0-4.0-0.18","181","1","2022-11-22 09:23:02","7b1eb8be57ff77859c7d9ac988e43411","223.104.133.208","Mozilla/5.0 (Linux; Android 10; HarmonyOS; JEF-AN00; HMSCore 6.8.0.312) AppleWebKit/537.36 (KHTML, like Gecko) Chrome/92.0.4515.105 HuaweiBrowser/12.1.4.304 Mobile Safari/537.36","WebKit","Chrome","92.0.4515.105","AndroidOS","10","null","<div style=""font-size:60px;"">+</div>","null",""
"","","","","","html-button-response","41","74872","0.0-4.0-1.18","181","1","2022-11-22 09:23:02","7b1eb8be57ff77859c7d9ac988e43411","223.104.133.208","Mozilla/5.0 (Linux; Android 10; HarmonyOS; JEF-AN00; HMSCore 6.8.0.312) AppleWebKit/537.36 (KHTML, like Gecko) Chrome/92.0.4515.105 HuaweiBrowser/12.1.4.304 Mobile Safari/537.36","WebKit","Chrome","92.0.4515.105","AndroidOS","10","1187","<p>作为军队的指挥官，你可以选择发射导弹杀死 <strong>10名</strong> 敌国士兵，但会炸毁附近的 <strong>1棵</strong> 敌国树木。</p> <p>树木的照片如下图所示。</p> <p></p> <img src='stimuli/trees/3.png', style='max-width: 30%;'> </img> <p><strong>你是否选择发射武器？</strong></p>","0",""
"","","","","","html-keyboard-response","42","75878","0.0-4.0-0.19","181","1","2022-11-22 09:23:02","7b1eb8be57ff77859c7d9ac988e43411","223.104.133.208","Mozilla/5.0 (Linux; Android 10; HarmonyOS; JEF-AN00; HMSCore 6.8.0.312) AppleWebKit/537.36 (KHTML, like Gecko) Chrome/92.0.4515.105 HuaweiBrowser/12.1.4.304 Mobile Safari/537.36","WebKit","Chrome","92.0.4515.105","AndroidOS","10","null","<div style=""font-size:60px;"">+</div>","null",""
"","","","","","html-button-response","43","77109","0.0-4.0-1.19","181","1","2022-11-22 09:23:02","7b1eb8be57ff77859c7d9ac988e43411","223.104.133.208","Mozilla/5.0 (Linux; Android 10; HarmonyOS; JEF-AN00; HMSCore 6.8.0.312) AppleWebKit/537.36 (KHTML, like Gecko) Chrome/92.0.4515.105 HuaweiBrowser/12.1.4.304 Mobile Safari/537.36","WebKit","Chrome","92.0.4515.105","AndroidOS","10","1224","<p>作为军队的指挥官，你可以选择发射导弹杀死 <strong>7名</strong> 敌国士兵，但会误杀附近的 <strong>1名</strong> 敌国平民。</p> <p>平民照片如下图所示。</p> <p></p> <img src='stimuli/faces/PCF5.jpg', style='max-width: 30%;'> </img> <p><strong>你是否选择发射武器？</strong></p>","1",""
"","","","","","html-keyboard-response","44","78114","0.0-4.0-0.20","181","1","2022-11-22 09:23:02","7b1eb8be57ff77859c7d9ac988e43411","223.104.133.208","Mozilla/5.0 (Linux; Android 10; HarmonyOS; JEF-AN00; HMSCore 6.8.0.312) AppleWebKit/537.36 (KHTML, like Gecko) Chrome/92.0.4515.105 HuaweiBrowser/12.1.4.304 Mobile Safari/537.36","WebKit","Chrome","92.0.4515.105","AndroidOS","10","null","<div style=""font-size:60px;"">+</div>","null",""
"","","","","","html-button-response","45","80633","0.0-4.0-1.20","181","1","2022-11-22 09:23:02","7b1eb8be57ff77859c7d9ac988e43411","223.104.133.208","Mozilla/5.0 (Linux; Android 10; HarmonyOS; JEF-AN00; HMSCore 6.8.0.312) AppleWebKit/537.36 (KHTML, like Gecko) Chrome/92.0.4515.105 HuaweiBrowser/12.1.4.304 Mobile Safari/537.36","WebKit","Chrome","92.0.4515.105","AndroidOS","10","2513","<p>作为军队的指挥官，你可以选择发射导弹杀死 <strong>7名</strong> 敌国士兵，但会炸毁附近的 <strong>1棵</strong> 敌国树木。</p> <p>树木的照片如下图所示。</p> <p></p> <img src='stimuli/trees/8.png', style='max-width: 30%;'> </img> <p><strong>你是否选择发射武器？</strong></p>","0",""
"","","","","","html-keyboard-response","46","81638","0.0-4.0-0.21","181","1","2022-11-22 09:23:02","7b1eb8be57ff77859c7d9ac988e43411","223.104.133.208","Mozilla/5.0 (Linux; Android 10; HarmonyOS; JEF-AN00; HMSCore 6.8.0.312) AppleWebKit/537.36 (KHTML, like Gecko) Chrome/92.0.4515.105 HuaweiBrowser/12.1.4.304 Mobile Safari/537.36","WebKit","Chrome","92.0.4515.105","AndroidOS","10","null","<div style=""font-size:60px;"">+</div>","null",""
"","","","","","html-button-response","47","85259","0.0-4.0-1.21","181","1","2022-11-22 09:23:02","7b1eb8be57ff77859c7d9ac988e43411","223.104.133.208","Mozilla/5.0 (Linux; Android 10; HarmonyOS; JEF-AN00; HMSCore 6.8.0.312) AppleWebKit/537.36 (KHTML, like Gecko) Chrome/92.0.4515.105 HuaweiBrowser/12.1.4.304 Mobile Safari/537.36","WebKit","Chrome","92.0.4515.105","AndroidOS","10","3615","<p>作为军队的指挥官，你可以选择发射导弹杀死 <strong>8名</strong> 敌国士兵，但会炸毁附近的 <strong>1棵</strong> 敌国树木。</p> <p>树木的照片如下图所示。</p> <p></p> <img src='stimuli/trees/12.png', style='max-width: 30%;'> </img> <p><strong>你是否选择发射武器？</strong></p>","0",""
"","","","","","html-keyboard-response","48","86264","0.0-4.0-0.22","181","1","2022-11-22 09:23:02","7b1eb8be57ff77859c7d9ac988e43411","223.104.133.208","Mozilla/5.0 (Linux; Android 10; HarmonyOS; JEF-AN00; HMSCore 6.8.0.312) AppleWebKit/537.36 (KHTML, like Gecko) Chrome/92.0.4515.105 HuaweiBrowser/12.1.4.304 Mobile Safari/537.36","WebKit","Chrome","92.0.4515.105","AndroidOS","10","null","<div style=""font-size:60px;"">+</div>","null",""
"","","","","","html-button-response","49","91818","0.0-4.0-1.22","181","1","2022-11-22 09:23:02","7b1eb8be57ff77859c7d9ac988e43411","223.104.133.208","Mozilla/5.0 (Linux; Android 10; HarmonyOS; JEF-AN00; HMSCore 6.8.0.312) AppleWebKit/537.36 (KHTML, like Gecko) Chrome/92.0.4515.105 HuaweiBrowser/12.1.4.304 Mobile Safari/537.36","WebKit","Chrome","92.0.4515.105","AndroidOS","10","5545","<p>作为军队的指挥官，你可以选择发射导弹杀死 <strong>5名</strong> 敌国士兵，但会炸毁附近的 <strong>1棵</strong> 敌国树木。</p> <p>树木的照片如下图所示。</p> <p></p> <img src='stimuli/trees/6.png', style='max-width: 30%;'> </img> <p><strong>你是否选择发射武器？</strong></p>","0",""
"","","","","","html-keyboard-response","50","92823","0.0-4.0-0.23","181","1","2022-11-22 09:23:02","7b1eb8be57ff77859c7d9ac988e43411","223.104.133.208","Mozilla/5.0 (Linux; Android 10; HarmonyOS; JEF-AN00; HMSCore 6.8.0.312) AppleWebKit/537.36 (KHTML, like Gecko) Chrome/92.0.4515.105 HuaweiBrowser/12.1.4.304 Mobile Safari/537.36","WebKit","Chrome","92.0.4515.105","AndroidOS","10","null","<div style=""font-size:60px;"">+</div>","null",""
"","","","","","html-button-response","51","93626","0.0-4.0-1.23","181","1","2022-11-22 09:23:02","7b1eb8be57ff77859c7d9ac988e43411","223.104.133.208","Mozilla/5.0 (Linux; Android 10; HarmonyOS; JEF-AN00; HMSCore 6.8.0.312) AppleWebKit/537.36 (KHTML, like Gecko) Chrome/92.0.4515.105 HuaweiBrowser/12.1.4.304 Mobile Safari/537.36","WebKit","Chrome","92.0.4515.105","AndroidOS","10","794","<p>作为军队的指挥官，你可以选择发射导弹杀死 <strong>4名</strong> 敌国士兵，但会误杀附近的 <strong>1名</strong> 敌国平民。</p> <p>平民照片如下图所示。</p> <p></p> <img src='stimuli/faces/PCF8.jpg', style='max-width: 30%;'> </img> <p><strong>你是否选择发射武器？</strong></p>","1",""
"","","","","","html-keyboard-response","52","94632","0.0-4.0-0.24","181","1","2022-11-22 09:23:02","7b1eb8be57ff77859c7d9ac988e43411","223.104.133.208","Mozilla/5.0 (Linux; Android 10; HarmonyOS; JEF-AN00; HMSCore 6.8.0.312) AppleWebKit/537.36 (KHTML, like Gecko) Chrome/92.0.4515.105 HuaweiBrowser/12.1.4.304 Mobile Safari/537.36","WebKit","Chrome","92.0.4515.105","AndroidOS","10","null","<div style=""font-size:60px;"">+</div>","null",""
"","","","","","html-button-response","53","96155","0.0-4.0-1.24","181","1","2022-11-22 09:23:02","7b1eb8be57ff77859c7d9ac988e43411","223.104.133.208","Mozilla/5.0 (Linux; Android 10; HarmonyOS; JEF-AN00; HMSCore 6.8.0.312) AppleWebKit/537.36 (KHTML, like Gecko) Chrome/92.0.4515.105 HuaweiBrowser/12.1.4.304 Mobile Safari/537.36","WebKit","Chrome","92.0.4515.105","AndroidOS","10","1516","<p>作为军队的指挥官，你可以选择发射导弹杀死 <strong>9名</strong> 敌国士兵，但会误杀附近的 <strong>1名</strong> 敌国平民。</p> <p>平民照片如下图所示。</p> <p></p> <img src='stimuli/faces/PCM7.jpg', style='max-width: 30%;'> </img> <p><strong>你是否选择发射武器？</strong></p>","1",""
"","","","","","html-keyboard-response","54","97164","0.0-4.0-0.25","181","1","2022-11-22 09:23:02","7b1eb8be57ff77859c7d9ac988e43411","223.104.133.208","Mozilla/5.0 (Linux; Android 10; HarmonyOS; JEF-AN00; HMSCore 6.8.0.312) AppleWebKit/537.36 (KHTML, like Gecko) Chrome/92.0.4515.105 HuaweiBrowser/12.1.4.304 Mobile Safari/537.36","WebKit","Chrome","92.0.4515.105","AndroidOS","10","null","<div style=""font-size:60px;"">+</div>","null",""
"","","","","","html-button-response","55","98255","0.0-4.0-1.25","181","1","2022-11-22 09:23:02","7b1eb8be57ff77859c7d9ac988e43411","223.104.133.208","Mozilla/5.0 (Linux; Android 10; HarmonyOS; JEF-AN00; HMSCore 6.8.0.312) AppleWebKit/537.36 (KHTML, like Gecko) Chrome/92.0.4515.105 HuaweiBrowser/12.1.4.304 Mobile Safari/537.36","WebKit","Chrome","92.0.4515.105","AndroidOS","10","1083","<p>作为军队的指挥官，你可以选择发射导弹杀死 <strong>4名</strong> 敌国士兵，但会误杀附近的 <strong>1名</strong> 敌国平民。</p> <p>平民照片如下图所示。</p> <p></p> <img src='stimuli/faces/PCM4.jpg', style='max-width: 30%;'> </img> <p><strong>你是否选择发射武器？</strong></p>","1",""
"","","","","","html-keyboard-response","56","99261","0.0-4.0-0.26","181","1","2022-11-22 09:23:02","7b1eb8be57ff77859c7d9ac988e43411","223.104.133.208","Mozilla/5.0 (Linux; Android 10; HarmonyOS; JEF-AN00; HMSCore 6.8.0.312) AppleWebKit/537.36 (KHTML, like Gecko) Chrome/92.0.4515.105 HuaweiBrowser/12.1.4.304 Mobile Safari/537.36","WebKit","Chrome","92.0.4515.105","AndroidOS","10","null","<div style=""font-size:60px;"">+</div>","null",""
"","","","","","html-button-response","57","100393","0.0-4.0-1.26","181","1","2022-11-22 09:23:02","7b1eb8be57ff77859c7d9ac988e43411","223.104.133.208","Mozilla/5.0 (Linux; Android 10; HarmonyOS; JEF-AN00; HMSCore 6.8.0.312) AppleWebKit/537.36 (KHTML, like Gecko) Chrome/92.0.4515.105 HuaweiBrowser/12.1.4.304 Mobile Safari/537.36","WebKit","Chrome","92.0.4515.105","AndroidOS","10","1118","<p>作为军队的指挥官，你可以选择发射导弹杀死 <strong>8名</strong> 敌国士兵，但会误杀附近的 <strong>1名</strong> 敌国平民。</p> <p>平民照片如下图所示。</p> <p></p> <img src='stimuli/faces/PCF3.jpg', style='max-width: 30%;'> </img> <p><strong>你是否选择发射武器？</strong></p>","1",""
"","","","","","html-keyboard-response","58","101398","0.0-4.0-0.27","181","1","2022-11-22 09:23:02","7b1eb8be57ff77859c7d9ac988e43411","223.104.133.208","Mozilla/5.0 (Linux; Android 10; HarmonyOS; JEF-AN00; HMSCore 6.8.0.312) AppleWebKit/537.36 (KHTML, like Gecko) Chrome/92.0.4515.105 HuaweiBrowser/12.1.4.304 Mobile Safari/537.36","WebKit","Chrome","92.0.4515.105","AndroidOS","10","null","<div style=""font-size:60px;"">+</div>","null",""
"","","","","","html-button-response","59","103872","0.0-4.0-1.27","181","1","2022-11-22 09:23:02","7b1eb8be57ff77859c7d9ac988e43411","223.104.133.208","Mozilla/5.0 (Linux; Android 10; HarmonyOS; JEF-AN00; HMSCore 6.8.0.312) AppleWebKit/537.36 (KHTML, like Gecko) Chrome/92.0.4515.105 HuaweiBrowser/12.1.4.304 Mobile Safari/537.36","WebKit","Chrome","92.0.4515.105","AndroidOS","10","2468","<p>作为军队的指挥官，你可以选择发射导弹杀死 <strong>3名</strong> 敌国士兵，但会炸毁附近的 <strong>1棵</strong> 敌国树木。</p> <p>树木的照片如下图所示。</p> <p></p> <img src='stimuli/trees/16.png', style='max-width: 30%;'> </img> <p><strong>你是否选择发射武器？</strong></p>","1",""
"","","","","","html-keyboard-response","60","104877","0.0-4.0-0.28","181","1","2022-11-22 09:23:02","7b1eb8be57ff77859c7d9ac988e43411","223.104.133.208","Mozilla/5.0 (Linux; Android 10; HarmonyOS; JEF-AN00; HMSCore 6.8.0.312) AppleWebKit/537.36 (KHTML, like Gecko) Chrome/92.0.4515.105 HuaweiBrowser/12.1.4.304 Mobile Safari/537.36","WebKit","Chrome","92.0.4515.105","AndroidOS","10","null","<div style=""font-size:60px;"">+</div>","null",""
"","","","","","html-button-response","61","105947","0.0-4.0-1.28","181","1","2022-11-22 09:23:02","7b1eb8be57ff77859c7d9ac988e43411","223.104.133.208","Mozilla/5.0 (Linux; Android 10; HarmonyOS; JEF-AN00; HMSCore 6.8.0.312) AppleWebKit/537.36 (KHTML, like Gecko) Chrome/92.0.4515.105 HuaweiBrowser/12.1.4.304 Mobile Safari/537.36","WebKit","Chrome","92.0.4515.105","AndroidOS","10","1061","<p>作为军队的指挥官，你可以选择发射导弹杀死 <strong>2名</strong> 敌国士兵，但会误杀附近的 <strong>1名</strong> 敌国平民。</p> <p>平民照片如下图所示。</p> <p></p> <img src='stimuli/faces/PCM8.jpg', style='max-width: 30%;'> </img> <p><strong>你是否选择发射武器？</strong></p>","1",""
"","","","","","html-keyboard-response","62","106952","0.0-4.0-0.29","181","1","2022-11-22 09:23:02","7b1eb8be57ff77859c7d9ac988e43411","223.104.133.208","Mozilla/5.0 (Linux; Android 10; HarmonyOS; JEF-AN00; HMSCore 6.8.0.312) AppleWebKit/537.36 (KHTML, like Gecko) Chrome/92.0.4515.105 HuaweiBrowser/12.1.4.304 Mobile Safari/537.36","WebKit","Chrome","92.0.4515.105","AndroidOS","10","null","<div style=""font-size:60px;"">+</div>","null",""
"","","","","","html-button-response","63","108100","0.0-4.0-1.29","181","1","2022-11-22 09:23:02","7b1eb8be57ff77859c7d9ac988e43411","223.104.133.208","Mozilla/5.0 (Linux; Android 10; HarmonyOS; JEF-AN00; HMSCore 6.8.0.312) AppleWebKit/537.36 (KHTML, like Gecko) Chrome/92.0.4515.105 HuaweiBrowser/12.1.4.304 Mobile Safari/537.36","WebKit","Chrome","92.0.4515.105","AndroidOS","10","1136","<p>作为军队的指挥官，你可以选择发射导弹杀死 <strong>8名</strong> 敌国士兵，但会炸毁附近的 <strong>1棵</strong> 敌国树木。</p> <p>树木的照片如下图所示。</p> <p></p> <img src='stimuli/trees/14.png', style='max-width: 30%;'> </img> <p><strong>你是否选择发射武器？</strong></p>","0",""
"","","","","","html-keyboard-response","64","109105","0.0-4.0-0.30","181","1","2022-11-22 09:23:02","7b1eb8be57ff77859c7d9ac988e43411","223.104.133.208","Mozilla/5.0 (Linux; Android 10; HarmonyOS; JEF-AN00; HMSCore 6.8.0.312) AppleWebKit/537.36 (KHTML, like Gecko) Chrome/92.0.4515.105 HuaweiBrowser/12.1.4.304 Mobile Safari/537.36","WebKit","Chrome","92.0.4515.105","AndroidOS","10","null","<div style=""font-size:60px;"">+</div>","null",""
"","","","","","html-button-response","65","109951","0.0-4.0-1.30","181","1","2022-11-22 09:23:02","7b1eb8be57ff77859c7d9ac988e43411","223.104.133.208","Mozilla/5.0 (Linux; Android 10; HarmonyOS; JEF-AN00; HMSCore 6.8.0.312) AppleWebKit/537.36 (KHTML, like Gecko) Chrome/92.0.4515.105 HuaweiBrowser/12.1.4.304 Mobile Safari/537.36","WebKit","Chrome","92.0.4515.105","AndroidOS","10","837","<p>作为军队的指挥官，你可以选择发射导弹杀死 <strong>4名</strong> 敌国士兵，但会误杀附近的 <strong>1名</strong> 敌国平民。</p> <p>平民照片如下图所示。</p> <p></p> <img src='stimuli/faces/PCF3.jpg', style='max-width: 30%;'> </img> <p><strong>你是否选择发射武器？</strong></p>","1",""
"","","","","","html-keyboard-response","66","110956","0.0-4.0-0.31","181","1","2022-11-22 09:23:02","7b1eb8be57ff77859c7d9ac988e43411","223.104.133.208","Mozilla/5.0 (Linux; Android 10; HarmonyOS; JEF-AN00; HMSCore 6.8.0.312) AppleWebKit/537.36 (KHTML, like Gecko) Chrome/92.0.4515.105 HuaweiBrowser/12.1.4.304 Mobile Safari/537.36","WebKit","Chrome","92.0.4515.105","AndroidOS","10","null","<div style=""font-size:60px;"">+</div>","null",""
"","","","","","html-button-response","67","112272","0.0-4.0-1.31","181","1","2022-11-22 09:23:02","7b1eb8be57ff77859c7d9ac988e43411","223.104.133.208","Mozilla/5.0 (Linux; Android 10; HarmonyOS; JEF-AN00; HMSCore 6.8.0.312) AppleWebKit/537.36 (KHTML, like Gecko) Chrome/92.0.4515.105 HuaweiBrowser/12.1.4.304 Mobile Safari/537.36","WebKit","Chrome","92.0.4515.105","AndroidOS","10","1309","<p>作为军队的指挥官，你可以选择发射导弹杀死 <strong>2名</strong> 敌国士兵，但会炸毁附近的 <strong>1棵</strong> 敌国树木。</p> <p>树木的照片如下图所示。</p> <p></p> <img src='stimuli/trees/7.png', style='max-width: 30%;'> </img> <p><strong>你是否选择发射武器？</strong></p>","1",""
"","","","","","html-keyboard-response","68","113277","0.0-4.0-0.32","181","1","2022-11-22 09:23:02","7b1eb8be57ff77859c7d9ac988e43411","223.104.133.208","Mozilla/5.0 (Linux; Android 10; HarmonyOS; JEF-AN00; HMSCore 6.8.0.312) AppleWebKit/537.36 (KHTML, like Gecko) Chrome/92.0.4515.105 HuaweiBrowser/12.1.4.304 Mobile Safari/537.36","WebKit","Chrome","92.0.4515.105","AndroidOS","10","null","<div style=""font-size:60px;"">+</div>","null",""
"","","","","","html-button-response","69","115237","0.0-4.0-1.32","181","1","2022-11-22 09:23:02","7b1eb8be57ff77859c7d9ac988e43411","223.104.133.208","Mozilla/5.0 (Linux; Android 10; HarmonyOS; JEF-AN00; HMSCore 6.8.0.312) AppleWebKit/537.36 (KHTML, like Gecko) Chrome/92.0.4515.105 HuaweiBrowser/12.1.4.304 Mobile Safari/537.36","WebKit","Chrome","92.0.4515.105","AndroidOS","10","1951","<p>作为军队的指挥官，你可以选择发射导弹杀死 <strong>7名</strong> 敌国士兵，但会炸毁附近的 <strong>1棵</strong> 敌国树木。</p> <p>树木的照片如下图所示。</p> <p></p> <img src='stimuli/trees/1.png', style='max-width: 30%;'> </img> <p><strong>你是否选择发射武器？</strong></p>","0",""
"","","","","","html-keyboard-response","70","116243","0.0-4.0-0.33","181","1","2022-11-22 09:23:02","7b1eb8be57ff77859c7d9ac988e43411","223.104.133.208","Mozilla/5.0 (Linux; Android 10; HarmonyOS; JEF-AN00; HMSCore 6.8.0.312) AppleWebKit/537.36 (KHTML, like Gecko) Chrome/92.0.4515.105 HuaweiBrowser/12.1.4.304 Mobile Safari/537.36","WebKit","Chrome","92.0.4515.105","AndroidOS","10","null","<div style=""font-size:60px;"">+</div>","null",""
"","","","","","html-button-response","71","117180","0.0-4.0-1.33","181","1","2022-11-22 09:23:02","7b1eb8be57ff77859c7d9ac988e43411","223.104.133.208","Mozilla/5.0 (Linux; Android 10; HarmonyOS; JEF-AN00; HMSCore 6.8.0.312) AppleWebKit/537.36 (KHTML, like Gecko) Chrome/92.0.4515.105 HuaweiBrowser/12.1.4.304 Mobile Safari/537.36","WebKit","Chrome","92.0.4515.105","AndroidOS","10","930","<p>作为军队的指挥官，你可以选择发射导弹杀死 <strong>10名</strong> 敌国士兵，但会误杀附近的 <strong>1名</strong> 敌国平民。</p> <p>平民照片如下图所示。</p> <p></p> <img src='stimuli/faces/PCF4.jpg', style='max-width: 30%;'> </img> <p><strong>你是否选择发射武器？</strong></p>","1",""
"","","","","","html-keyboard-response","72","118185","0.0-4.0-0.34","181","1","2022-11-22 09:23:02","7b1eb8be57ff77859c7d9ac988e43411","223.104.133.208","Mozilla/5.0 (Linux; Android 10; HarmonyOS; JEF-AN00; HMSCore 6.8.0.312) AppleWebKit/537.36 (KHTML, like Gecko) Chrome/92.0.4515.105 HuaweiBrowser/12.1.4.304 Mobile Safari/537.36","WebKit","Chrome","92.0.4515.105","AndroidOS","10","null","<div style=""font-size:60px;"">+</div>","null",""
"","","","","","html-button-response","73","120155","0.0-4.0-1.34","181","1","2022-11-22 09:23:02","7b1eb8be57ff77859c7d9ac988e43411","223.104.133.208","Mozilla/5.0 (Linux; Android 10; HarmonyOS; JEF-AN00; HMSCore 6.8.0.312) AppleWebKit/537.36 (KHTML, like Gecko) Chrome/92.0.4515.105 HuaweiBrowser/12.1.4.304 Mobile Safari/537.36","WebKit","Chrome","92.0.4515.105","AndroidOS","10","1963","<p>作为军队的指挥官，你可以选择发射导弹杀死 <strong>1名</strong> 敌国士兵，但会炸毁附近的 <strong>1棵</strong> 敌国树木。</p> <p>树木的照片如下图所示。</p> <p></p> <img src='stimuli/trees/1.png', style='max-width: 30%;'> </img> <p><strong>你是否选择发射武器？</strong></p>","1",""
"","","","","","html-keyboard-response","74","121160","0.0-4.0-0.35","181","1","2022-11-22 09:23:02","7b1eb8be57ff77859c7d9ac988e43411","223.104.133.208","Mozilla/5.0 (Linux; Android 10; HarmonyOS; JEF-AN00; HMSCore 6.8.0.312) AppleWebKit/537.36 (KHTML, like Gecko) Chrome/92.0.4515.105 HuaweiBrowser/12.1.4.304 Mobile Safari/537.36","WebKit","Chrome","92.0.4515.105","AndroidOS","10","null","<div style=""font-size:60px;"">+</div>","null",""
"","","","","","html-button-response","75","122719","0.0-4.0-1.35","181","1","2022-11-22 09:23:02","7b1eb8be57ff77859c7d9ac988e43411","223.104.133.208","Mozilla/5.0 (Linux; Android 10; HarmonyOS; JEF-AN00; HMSCore 6.8.0.312) AppleWebKit/537.36 (KHTML, like Gecko) Chrome/92.0.4515.105 HuaweiBrowser/12.1.4.304 Mobile Safari/537.36","WebKit","Chrome","92.0.4515.105","AndroidOS","10","1545","<p>作为军队的指挥官，你可以选择发射导弹杀死 <strong>2名</strong> 敌国士兵，但会炸毁附近的 <strong>1棵</strong> 敌国树木。</p> <p>树木的照片如下图所示。</p> <p></p> <img src='stimuli/trees/5.png', style='max-width: 30%;'> </img> <p><strong>你是否选择发射武器？</strong></p>","1",""
"","","","","","html-keyboard-response","76","123726","0.0-4.0-0.36","181","1","2022-11-22 09:23:02","7b1eb8be57ff77859c7d9ac988e43411","223.104.133.208","Mozilla/5.0 (Linux; Android 10; HarmonyOS; JEF-AN00; HMSCore 6.8.0.312) AppleWebKit/537.36 (KHTML, like Gecko) Chrome/92.0.4515.105 HuaweiBrowser/12.1.4.304 Mobile Safari/537.36","WebKit","Chrome","92.0.4515.105","AndroidOS","10","null","<div style=""font-size:60px;"">+</div>","null",""
"","","","","","html-button-response","77","124764","0.0-4.0-1.36","181","1","2022-11-22 09:23:02","7b1eb8be57ff77859c7d9ac988e43411","223.104.133.208","Mozilla/5.0 (Linux; Android 10; HarmonyOS; JEF-AN00; HMSCore 6.8.0.312) AppleWebKit/537.36 (KHTML, like Gecko) Chrome/92.0.4515.105 HuaweiBrowser/12.1.4.304 Mobile Safari/537.36","WebKit","Chrome","92.0.4515.105","AndroidOS","10","1026","<p>作为军队的指挥官，你可以选择发射导弹杀死 <strong>3名</strong> 敌国士兵，但会炸毁附近的 <strong>1棵</strong> 敌国树木。</p> <p>树木的照片如下图所示。</p> <p></p> <img src='stimuli/trees/13.png', style='max-width: 30%;'> </img> <p><strong>你是否选择发射武器？</strong></p>","1",""
"","","","","","html-keyboard-response","78","125770","0.0-4.0-0.37","181","1","2022-11-22 09:23:02","7b1eb8be57ff77859c7d9ac988e43411","223.104.133.208","Mozilla/5.0 (Linux; Android 10; HarmonyOS; JEF-AN00; HMSCore 6.8.0.312) AppleWebKit/537.36 (KHTML, like Gecko) Chrome/92.0.4515.105 HuaweiBrowser/12.1.4.304 Mobile Safari/537.36","WebKit","Chrome","92.0.4515.105","AndroidOS","10","null","<div style=""font-size:60px;"">+</div>","null",""
"","","","","","html-button-response","79","126586","0.0-4.0-1.37","181","1","2022-11-22 09:23:02","7b1eb8be57ff77859c7d9ac988e43411","223.104.133.208","Mozilla/5.0 (Linux; Android 10; HarmonyOS; JEF-AN00; HMSCore 6.8.0.312) AppleWebKit/537.36 (KHTML, like Gecko) Chrome/92.0.4515.105 HuaweiBrowser/12.1.4.304 Mobile Safari/537.36","WebKit","Chrome","92.0.4515.105","AndroidOS","10","809","<p>作为军队的指挥官，你可以选择发射导弹杀死 <strong>8名</strong> 敌国士兵，但会误杀附近的 <strong>1名</strong> 敌国平民。</p> <p>平民照片如下图所示。</p> <p></p> <img src='stimuli/faces/PCF2.jpg', style='max-width: 30%;'> </img> <p><strong>你是否选择发射武器？</strong></p>","1",""
"","","","","","html-keyboard-response","80","127592","0.0-4.0-0.38","181","1","2022-11-22 09:23:02","7b1eb8be57ff77859c7d9ac988e43411","223.104.133.208","Mozilla/5.0 (Linux; Android 10; HarmonyOS; JEF-AN00; HMSCore 6.8.0.312) AppleWebKit/537.36 (KHTML, like Gecko) Chrome/92.0.4515.105 HuaweiBrowser/12.1.4.304 Mobile Safari/537.36","WebKit","Chrome","92.0.4515.105","AndroidOS","10","null","<div style=""font-size:60px;"">+</div>","null",""
"","","","","","html-button-response","81","128272","0.0-4.0-1.38","181","1","2022-11-22 09:23:02","7b1eb8be57ff77859c7d9ac988e43411","223.104.133.208","Mozilla/5.0 (Linux; Android 10; HarmonyOS; JEF-AN00; HMSCore 6.8.0.312) AppleWebKit/537.36 (KHTML, like Gecko) Chrome/92.0.4515.105 HuaweiBrowser/12.1.4.304 Mobile Safari/537.36","WebKit","Chrome","92.0.4515.105","AndroidOS","10","673","<p>作为军队的指挥官，你可以选择发射导弹杀死 <strong>2名</strong> 敌国士兵，但会误杀附近的 <strong>1名</strong> 敌国平民。</p> <p>平民照片如下图所示。</p> <p></p> <img src='stimuli/faces/PCM6.jpg', style='max-width: 30%;'> </img> <p><strong>你是否选择发射武器？</strong></p>","1",""
"","","","","","html-keyboard-response","82","129279","0.0-4.0-0.39","181","1","2022-11-22 09:23:02","7b1eb8be57ff77859c7d9ac988e43411","223.104.133.208","Mozilla/5.0 (Linux; Android 10; HarmonyOS; JEF-AN00; HMSCore 6.8.0.312) AppleWebKit/537.36 (KHTML, like Gecko) Chrome/92.0.4515.105 HuaweiBrowser/12.1.4.304 Mobile Safari/537.36","WebKit","Chrome","92.0.4515.105","AndroidOS","10","null","<div style=""font-size:60px;"">+</div>","null",""
"","","","","","html-button-response","83","130872","0.0-4.0-1.39","181","1","2022-11-22 09:23:02","7b1eb8be57ff77859c7d9ac988e43411","223.104.133.208","Mozilla/5.0 (Linux; Android 10; HarmonyOS; JEF-AN00; HMSCore 6.8.0.312) AppleWebKit/537.36 (KHTML, like Gecko) Chrome/92.0.4515.105 HuaweiBrowser/12.1.4.304 Mobile Safari/537.36","WebKit","Chrome","92.0.4515.105","AndroidOS","10","1581","<p>作为军队的指挥官，你可以选择发射导弹杀死 <strong>8名</strong> 敌国士兵，但会炸毁附近的 <strong>1棵</strong> 敌国树木。</p> <p>树木的照片如下图所示。</p> <p></p> <img src='stimuli/trees/4.png', style='max-width: 30%;'> </img> <p><strong>你是否选择发射武器？</strong></p>","0",""
"","","","","","html-keyboard-response","84","131879","0.0-4.0-0.40","181","1","2022-11-22 09:23:02","7b1eb8be57ff77859c7d9ac988e43411","223.104.133.208","Mozilla/5.0 (Linux; Android 10; HarmonyOS; JEF-AN00; HMSCore 6.8.0.312) AppleWebKit/537.36 (KHTML, like Gecko) Chrome/92.0.4515.105 HuaweiBrowser/12.1.4.304 Mobile Safari/537.36","WebKit","Chrome","92.0.4515.105","AndroidOS","10","null","<div style=""font-size:60px;"">+</div>","null",""
"","","","","","html-button-response","85","132650","0.0-4.0-1.40","181","1","2022-11-22 09:23:02","7b1eb8be57ff77859c7d9ac988e43411","223.104.133.208","Mozilla/5.0 (Linux; Android 10; HarmonyOS; JEF-AN00; HMSCore 6.8.0.312) AppleWebKit/537.36 (KHTML, like Gecko) Chrome/92.0.4515.105 HuaweiBrowser/12.1.4.304 Mobile Safari/537.36","WebKit","Chrome","92.0.4515.105","AndroidOS","10","764","<p>作为军队的指挥官，你可以选择发射导弹杀死 <strong>2名</strong> 敌国士兵，但会误杀附近的 <strong>1名</strong> 敌国平民。</p> <p>平民照片如下图所示。</p> <p></p> <img src='stimuli/faces/PCF5.jpg', style='max-width: 30%;'> </img> <p><strong>你是否选择发射武器？</strong></p>","1",""
"","","","","","html-keyboard-response","86","133656","0.0-4.0-0.41","181","1","2022-11-22 09:23:02","7b1eb8be57ff77859c7d9ac988e43411","223.104.133.208","Mozilla/5.0 (Linux; Android 10; HarmonyOS; JEF-AN00; HMSCore 6.8.0.312) AppleWebKit/537.36 (KHTML, like Gecko) Chrome/92.0.4515.105 HuaweiBrowser/12.1.4.304 Mobile Safari/537.36","WebKit","Chrome","92.0.4515.105","AndroidOS","10","null","<div style=""font-size:60px;"">+</div>","null",""
"","","","","","html-button-response","87","134528","0.0-4.0-1.41","181","1","2022-11-22 09:23:02","7b1eb8be57ff77859c7d9ac988e43411","223.104.133.208","Mozilla/5.0 (Linux; Android 10; HarmonyOS; JEF-AN00; HMSCore 6.8.0.312) AppleWebKit/537.36 (KHTML, like Gecko) Chrome/92.0.4515.105 HuaweiBrowser/12.1.4.304 Mobile Safari/537.36","WebKit","Chrome","92.0.4515.105","AndroidOS","10","865","<p>作为军队的指挥官，你可以选择发射导弹杀死 <strong>2名</strong> 敌国士兵，但会炸毁附近的 <strong>1棵</strong> 敌国树木。</p> <p>树木的照片如下图所示。</p> <p></p> <img src='stimuli/trees/10.png', style='max-width: 30%;'> </img> <p><strong>你是否选择发射武器？</strong></p>","1",""
"","","","","","html-keyboard-response","88","135536","0.0-4.0-0.42","181","1","2022-11-22 09:23:02","7b1eb8be57ff77859c7d9ac988e43411","223.104.133.208","Mozilla/5.0 (Linux; Android 10; HarmonyOS; JEF-AN00; HMSCore 6.8.0.312) AppleWebKit/537.36 (KHTML, like Gecko) Chrome/92.0.4515.105 HuaweiBrowser/12.1.4.304 Mobile Safari/537.36","WebKit","Chrome","92.0.4515.105","AndroidOS","10","null","<div style=""font-size:60px;"">+</div>","null",""
"","","","","","html-button-response","89","136234","0.0-4.0-1.42","181","1","2022-11-22 09:23:02","7b1eb8be57ff77859c7d9ac988e43411","223.104.133.208","Mozilla/5.0 (Linux; Android 10; HarmonyOS; JEF-AN00; HMSCore 6.8.0.312) AppleWebKit/537.36 (KHTML, like Gecko) Chrome/92.0.4515.105 HuaweiBrowser/12.1.4.304 Mobile Safari/537.36","WebKit","Chrome","92.0.4515.105","AndroidOS","10","687","<p>作为军队的指挥官，你可以选择发射导弹杀死 <strong>6名</strong> 敌国士兵，但会误杀附近的 <strong>1名</strong> 敌国平民。</p> <p>平民照片如下图所示。</p> <p></p> <img src='stimuli/faces/PCM5.jpg', style='max-width: 30%;'> </img> <p><strong>你是否选择发射武器？</strong></p>","1",""
"","","","","","html-keyboard-response","90","137240","0.0-4.0-0.43","181","1","2022-11-22 09:23:02","7b1eb8be57ff77859c7d9ac988e43411","223.104.133.208","Mozilla/5.0 (Linux; Android 10; HarmonyOS; JEF-AN00; HMSCore 6.8.0.312) AppleWebKit/537.36 (KHTML, like Gecko) Chrome/92.0.4515.105 HuaweiBrowser/12.1.4.304 Mobile Safari/537.36","WebKit","Chrome","92.0.4515.105","AndroidOS","10","null","<div style=""font-size:60px;"">+</div>","null",""
"","","","","","html-button-response","91","137904","0.0-4.0-1.43","181","1","2022-11-22 09:23:02","7b1eb8be57ff77859c7d9ac988e43411","223.104.133.208","Mozilla/5.0 (Linux; Android 10; HarmonyOS; JEF-AN00; HMSCore 6.8.0.312) AppleWebKit/537.36 (KHTML, like Gecko) Chrome/92.0.4515.105 HuaweiBrowser/12.1.4.304 Mobile Safari/537.36","WebKit","Chrome","92.0.4515.105","AndroidOS","10","655","<p>作为军队的指挥官，你可以选择发射导弹杀死 <strong>6名</strong> 敌国士兵，但会误杀附近的 <strong>1名</strong> 敌国平民。</p> <p>平民照片如下图所示。</p> <p></p> <img src='stimuli/faces/PCF6.jpg', style='max-width: 30%;'> </img> <p><strong>你是否选择发射武器？</strong></p>","1",""
"","","","","","html-keyboard-response","92","138910","0.0-4.0-0.44","181","1","2022-11-22 09:23:02","7b1eb8be57ff77859c7d9ac988e43411","223.104.133.208","Mozilla/5.0 (Linux; Android 10; HarmonyOS; JEF-AN00; HMSCore 6.8.0.312) AppleWebKit/537.36 (KHTML, like Gecko) Chrome/92.0.4515.105 HuaweiBrowser/12.1.4.304 Mobile Safari/537.36","WebKit","Chrome","92.0.4515.105","AndroidOS","10","null","<div style=""font-size:60px;"">+</div>","null",""
"","","","","","html-button-response","93","140555","0.0-4.0-1.44","181","1","2022-11-22 09:23:02","7b1eb8be57ff77859c7d9ac988e43411","223.104.133.208","Mozilla/5.0 (Linux; Android 10; HarmonyOS; JEF-AN00; HMSCore 6.8.0.312) AppleWebKit/537.36 (KHTML, like Gecko) Chrome/92.0.4515.105 HuaweiBrowser/12.1.4.304 Mobile Safari/537.36","WebKit","Chrome","92.0.4515.105","AndroidOS","10","1637","<p>作为军队的指挥官，你可以选择发射导弹杀死 <strong>6名</strong> 敌国士兵，但会炸毁附近的 <strong>1棵</strong> 敌国树木。</p> <p>树木的照片如下图所示。</p> <p></p> <img src='stimuli/trees/15.png', style='max-width: 30%;'> </img> <p><strong>你是否选择发射武器？</strong></p>","0",""
"","","","","","html-keyboard-response","94","141561","0.0-4.0-0.45","181","1","2022-11-22 09:23:02","7b1eb8be57ff77859c7d9ac988e43411","223.104.133.208","Mozilla/5.0 (Linux; Android 10; HarmonyOS; JEF-AN00; HMSCore 6.8.0.312) AppleWebKit/537.36 (KHTML, like Gecko) Chrome/92.0.4515.105 HuaweiBrowser/12.1.4.304 Mobile Safari/537.36","WebKit","Chrome","92.0.4515.105","AndroidOS","10","null","<div style=""font-size:60px;"">+</div>","null",""
"","","","","","html-button-response","95","142136","0.0-4.0-1.45","181","1","2022-11-22 09:23:02","7b1eb8be57ff77859c7d9ac988e43411","223.104.133.208","Mozilla/5.0 (Linux; Android 10; HarmonyOS; JEF-AN00; HMSCore 6.8.0.312) AppleWebKit/537.36 (KHTML, like Gecko) Chrome/92.0.4515.105 HuaweiBrowser/12.1.4.304 Mobile Safari/537.36","WebKit","Chrome","92.0.4515.105","AndroidOS","10","565","<p>作为军队的指挥官，你可以选择发射导弹杀死 <strong>3名</strong> 敌国士兵，但会误杀附近的 <strong>1名</strong> 敌国平民。</p> <p>平民照片如下图所示。</p> <p></p> <img src='stimuli/faces/PCF6.jpg', style='max-width: 30%;'> </img> <p><strong>你是否选择发射武器？</strong></p>","1",""
"","","","","","html-keyboard-response","96","143143","0.0-4.0-0.46","181","1","2022-11-22 09:23:02","7b1eb8be57ff77859c7d9ac988e43411","223.104.133.208","Mozilla/5.0 (Linux; Android 10; HarmonyOS; JEF-AN00; HMSCore 6.8.0.312) AppleWebKit/537.36 (KHTML, like Gecko) Chrome/92.0.4515.105 HuaweiBrowser/12.1.4.304 Mobile Safari/537.36","WebKit","Chrome","92.0.4515.105","AndroidOS","10","null","<div style=""font-size:60px;"">+</div>","null",""
"","","","","","html-button-response","97","143787","0.0-4.0-1.46","181","1","2022-11-22 09:23:02","7b1eb8be57ff77859c7d9ac988e43411","223.104.133.208","Mozilla/5.0 (Linux; Android 10; HarmonyOS; JEF-AN00; HMSCore 6.8.0.312) AppleWebKit/537.36 (KHTML, like Gecko) Chrome/92.0.4515.105 HuaweiBrowser/12.1.4.304 Mobile Safari/537.36","WebKit","Chrome","92.0.4515.105","AndroidOS","10","636","<p>作为军队的指挥官，你可以选择发射导弹杀死 <strong>3名</strong> 敌国士兵，但会误杀附近的 <strong>1名</strong> 敌国平民。</p> <p>平民照片如下图所示。</p> <p></p> <img src='stimuli/faces/PCF2.jpg', style='max-width: 30%;'> </img> <p><strong>你是否选择发射武器？</strong></p>","1",""
"","","","","","html-keyboard-response","98","144794","0.0-4.0-0.47","181","1","2022-11-22 09:23:02","7b1eb8be57ff77859c7d9ac988e43411","223.104.133.208","Mozilla/5.0 (Linux; Android 10; HarmonyOS; JEF-AN00; HMSCore 6.8.0.312) AppleWebKit/537.36 (KHTML, like Gecko) Chrome/92.0.4515.105 HuaweiBrowser/12.1.4.304 Mobile Safari/537.36","WebKit","Chrome","92.0.4515.105","AndroidOS","10","null","<div style=""font-size:60px;"">+</div>","null",""
"","","","","","html-button-response","99","145893","0.0-4.0-1.47","181","1","2022-11-22 09:23:02","7b1eb8be57ff77859c7d9ac988e43411","223.104.133.208","Mozilla/5.0 (Linux; Android 10; HarmonyOS; JEF-AN00; HMSCore 6.8.0.312) AppleWebKit/537.36 (KHTML, like Gecko) Chrome/92.0.4515.105 HuaweiBrowser/12.1.4.304 Mobile Safari/537.36","WebKit","Chrome","92.0.4515.105","AndroidOS","10","1087","<p>作为军队的指挥官，你可以选择发射导弹杀死 <strong>2名</strong> 敌国士兵，但会炸毁附近的 <strong>1棵</strong> 敌国树木。</p> <p>树木的照片如下图所示。</p> <p></p> <img src='stimuli/trees/12.png', style='max-width: 30%;'> </img> <p><strong>你是否选择发射武器？</strong></p>","1",""
"","","","","","html-keyboard-response","100","146900","0.0-4.0-0.48","181","1","2022-11-22 09:23:02","7b1eb8be57ff77859c7d9ac988e43411","223.104.133.208","Mozilla/5.0 (Linux; Android 10; HarmonyOS; JEF-AN00; HMSCore 6.8.0.312) AppleWebKit/537.36 (KHTML, like Gecko) Chrome/92.0.4515.105 HuaweiBrowser/12.1.4.304 Mobile Safari/537.36","WebKit","Chrome","92.0.4515.105","AndroidOS","10","null","<div style=""font-size:60px;"">+</div>","null",""
"","","","","","html-button-response","101","147585","0.0-4.0-1.48","181","1","2022-11-22 09:23:02","7b1eb8be57ff77859c7d9ac988e43411","223.104.133.208","Mozilla/5.0 (Linux; Android 10; HarmonyOS; JEF-AN00; HMSCore 6.8.0.312) AppleWebKit/537.36 (KHTML, like Gecko) Chrome/92.0.4515.105 HuaweiBrowser/12.1.4.304 Mobile Safari/537.36","WebKit","Chrome","92.0.4515.105","AndroidOS","10","673","<p>作为军队的指挥官，你可以选择发射导弹杀死 <strong>3名</strong> 敌国士兵，但会误杀附近的 <strong>1名</strong> 敌国平民。</p> <p>平民照片如下图所示。</p> <p></p> <img src='stimuli/faces/PCM5.jpg', style='max-width: 30%;'> </img> <p><strong>你是否选择发射武器？</strong></p>","1",""
"","","","","","html-keyboard-response","102","148591","0.0-4.0-0.49","181","1","2022-11-22 09:23:02","7b1eb8be57ff77859c7d9ac988e43411","223.104.133.208","Mozilla/5.0 (Linux; Android 10; HarmonyOS; JEF-AN00; HMSCore 6.8.0.312) AppleWebKit/537.36 (KHTML, like Gecko) Chrome/92.0.4515.105 HuaweiBrowser/12.1.4.304 Mobile Safari/537.36","WebKit","Chrome","92.0.4515.105","AndroidOS","10","null","<div style=""font-size:60px;"">+</div>","null",""
"","","","","","html-button-response","103","151295","0.0-4.0-1.49","181","1","2022-11-22 09:23:02","7b1eb8be57ff77859c7d9ac988e43411","223.104.133.208","Mozilla/5.0 (Linux; Android 10; HarmonyOS; JEF-AN00; HMSCore 6.8.0.312) AppleWebKit/537.36 (KHTML, like Gecko) Chrome/92.0.4515.105 HuaweiBrowser/12.1.4.304 Mobile Safari/537.36","WebKit","Chrome","92.0.4515.105","AndroidOS","10","2695","<p>作为军队的指挥官，你可以选择发射导弹杀死 <strong>5名</strong> 敌国士兵，但会炸毁附近的 <strong>1棵</strong> 敌国树木。</p> <p>树木的照片如下图所示。</p> <p></p> <img src='stimuli/trees/4.png', style='max-width: 30%;'> </img> <p><strong>你是否选择发射武器？</strong></p>","0",""
"","","","","","html-keyboard-response","104","152301","0.0-4.0-0.50","181","1","2022-11-22 09:23:02","7b1eb8be57ff77859c7d9ac988e43411","223.104.133.208","Mozilla/5.0 (Linux; Android 10; HarmonyOS; JEF-AN00; HMSCore 6.8.0.312) AppleWebKit/537.36 (KHTML, like Gecko) Chrome/92.0.4515.105 HuaweiBrowser/12.1.4.304 Mobile Safari/537.36","WebKit","Chrome","92.0.4515.105","AndroidOS","10","null","<div style=""font-size:60px;"">+</div>","null",""
"","","","","","html-button-response","105","153808","0.0-4.0-1.50","181","1","2022-11-22 09:23:02","7b1eb8be57ff77859c7d9ac988e43411","223.104.133.208","Mozilla/5.0 (Linux; Android 10; HarmonyOS; JEF-AN00; HMSCore 6.8.0.312) AppleWebKit/537.36 (KHTML, like Gecko) Chrome/92.0.4515.105 HuaweiBrowser/12.1.4.304 Mobile Safari/537.36","WebKit","Chrome","92.0.4515.105","AndroidOS","10","1495","<p>作为军队的指挥官，你可以选择发射导弹杀死 <strong>10名</strong> 敌国士兵，但会炸毁附近的 <strong>1棵</strong> 敌国树木。</p> <p>树木的照片如下图所示。</p> <p></p> <img src='stimuli/trees/5.png', style='max-width: 30%;'> </img> <p><strong>你是否选择发射武器？</strong></p>","0",""
"","","","","","html-keyboard-response","106","154816","0.0-4.0-0.51","181","1","2022-11-22 09:23:02","7b1eb8be57ff77859c7d9ac988e43411","223.104.133.208","Mozilla/5.0 (Linux; Android 10; HarmonyOS; JEF-AN00; HMSCore 6.8.0.312) AppleWebKit/537.36 (KHTML, like Gecko) Chrome/92.0.4515.105 HuaweiBrowser/12.1.4.304 Mobile Safari/537.36","WebKit","Chrome","92.0.4515.105","AndroidOS","10","null","<div style=""font-size:60px;"">+</div>","null",""
"","","","","","html-button-response","107","157527","0.0-4.0-1.51","181","1","2022-11-22 09:23:02","7b1eb8be57ff77859c7d9ac988e43411","223.104.133.208","Mozilla/5.0 (Linux; Android 10; HarmonyOS; JEF-AN00; HMSCore 6.8.0.312) AppleWebKit/537.36 (KHTML, like Gecko) Chrome/92.0.4515.105 HuaweiBrowser/12.1.4.304 Mobile Safari/537.36","WebKit","Chrome","92.0.4515.105","AndroidOS","10","2699","<p>作为军队的指挥官，你可以选择发射导弹杀死 <strong>8名</strong> 敌国士兵，但会炸毁附近的 <strong>1棵</strong> 敌国树木。</p> <p>树木的照片如下图所示。</p> <p></p> <img src='stimuli/trees/16.png', style='max-width: 30%;'> </img> <p><strong>你是否选择发射武器？</strong></p>","0",""
"","","","","","html-keyboard-response","108","158536","0.0-4.0-0.52","181","1","2022-11-22 09:23:02","7b1eb8be57ff77859c7d9ac988e43411","223.104.133.208","Mozilla/5.0 (Linux; Android 10; HarmonyOS; JEF-AN00; HMSCore 6.8.0.312) AppleWebKit/537.36 (KHTML, like Gecko) Chrome/92.0.4515.105 HuaweiBrowser/12.1.4.304 Mobile Safari/537.36","WebKit","Chrome","92.0.4515.105","AndroidOS","10","null","<div style=""font-size:60px;"">+</div>","null",""
"","","","","","html-button-response","109","159508","0.0-4.0-1.52","181","1","2022-11-22 09:23:02","7b1eb8be57ff77859c7d9ac988e43411","223.104.133.208","Mozilla/5.0 (Linux; Android 10; HarmonyOS; JEF-AN00; HMSCore 6.8.0.312) AppleWebKit/537.36 (KHTML, like Gecko) Chrome/92.0.4515.105 HuaweiBrowser/12.1.4.304 Mobile Safari/537.36","WebKit","Chrome","92.0.4515.105","AndroidOS","10","961","<p>作为军队的指挥官，你可以选择发射导弹杀死 <strong>1名</strong> 敌国士兵，但会误杀附近的 <strong>1名</strong> 敌国平民。</p> <p>平民照片如下图所示。</p> <p></p> <img src='stimuli/faces/PCM1.jpg', style='max-width: 30%;'> </img> <p><strong>你是否选择发射武器？</strong></p>","1",""
"","","","","","html-keyboard-response","110","160519","0.0-4.0-0.53","181","1","2022-11-22 09:23:02","7b1eb8be57ff77859c7d9ac988e43411","223.104.133.208","Mozilla/5.0 (Linux; Android 10; HarmonyOS; JEF-AN00; HMSCore 6.8.0.312) AppleWebKit/537.36 (KHTML, like Gecko) Chrome/92.0.4515.105 HuaweiBrowser/12.1.4.304 Mobile Safari/537.36","WebKit","Chrome","92.0.4515.105","AndroidOS","10","null","<div style=""font-size:60px;"">+</div>","null",""
"","","","","","html-button-response","111","161489","0.0-4.0-1.53","181","1","2022-11-22 09:23:02","7b1eb8be57ff77859c7d9ac988e43411","223.104.133.208","Mozilla/5.0 (Linux; Android 10; HarmonyOS; JEF-AN00; HMSCore 6.8.0.312) AppleWebKit/537.36 (KHTML, like Gecko) Chrome/92.0.4515.105 HuaweiBrowser/12.1.4.304 Mobile Safari/537.36","WebKit","Chrome","92.0.4515.105","AndroidOS","10","955","<p>作为军队的指挥官，你可以选择发射导弹杀死 <strong>3名</strong> 敌国士兵，但会炸毁附近的 <strong>1棵</strong> 敌国树木。</p> <p>树木的照片如下图所示。</p> <p></p> <img src='stimuli/trees/8.png', style='max-width: 30%;'> </img> <p><strong>你是否选择发射武器？</strong></p>","1",""
"","","","","","html-keyboard-response","112","162497","0.0-4.0-0.54","181","1","2022-11-22 09:23:02","7b1eb8be57ff77859c7d9ac988e43411","223.104.133.208","Mozilla/5.0 (Linux; Android 10; HarmonyOS; JEF-AN00; HMSCore 6.8.0.312) AppleWebKit/537.36 (KHTML, like Gecko) Chrome/92.0.4515.105 HuaweiBrowser/12.1.4.304 Mobile Safari/537.36","WebKit","Chrome","92.0.4515.105","AndroidOS","10","null","<div style=""font-size:60px;"">+</div>","null",""
"","","","","","html-button-response","113","163441","0.0-4.0-1.54","181","1","2022-11-22 09:23:02","7b1eb8be57ff77859c7d9ac988e43411","223.104.133.208","Mozilla/5.0 (Linux; Android 10; HarmonyOS; JEF-AN00; HMSCore 6.8.0.312) AppleWebKit/537.36 (KHTML, like Gecko) Chrome/92.0.4515.105 HuaweiBrowser/12.1.4.304 Mobile Safari/537.36","WebKit","Chrome","92.0.4515.105","AndroidOS","10","933","<p>作为军队的指挥官，你可以选择发射导弹杀死 <strong>4名</strong> 敌国士兵，但会炸毁附近的 <strong>1棵</strong> 敌国树木。</p> <p>树木的照片如下图所示。</p> <p></p> <img src='stimuli/trees/11.png', style='max-width: 30%;'> </img> <p><strong>你是否选择发射武器？</strong></p>","1",""
"","","","","","html-keyboard-response","114","164448","0.0-4.0-0.55","181","1","2022-11-22 09:23:02","7b1eb8be57ff77859c7d9ac988e43411","223.104.133.208","Mozilla/5.0 (Linux; Android 10; HarmonyOS; JEF-AN00; HMSCore 6.8.0.312) AppleWebKit/537.36 (KHTML, like Gecko) Chrome/92.0.4515.105 HuaweiBrowser/12.1.4.304 Mobile Safari/537.36","WebKit","Chrome","92.0.4515.105","AndroidOS","10","null","<div style=""font-size:60px;"">+</div>","null",""
"","","","","","html-button-response","115","165249","0.0-4.0-1.55","181","1","2022-11-22 09:23:02","7b1eb8be57ff77859c7d9ac988e43411","223.104.133.208","Mozilla/5.0 (Linux; Android 10; HarmonyOS; JEF-AN00; HMSCore 6.8.0.312) AppleWebKit/537.36 (KHTML, like Gecko) Chrome/92.0.4515.105 HuaweiBrowser/12.1.4.304 Mobile Safari/537.36","WebKit","Chrome","92.0.4515.105","AndroidOS","10","790","<p>作为军队的指挥官，你可以选择发射导弹杀死 <strong>2名</strong> 敌国士兵，但会炸毁附近的 <strong>1棵</strong> 敌国树木。</p> <p>树木的照片如下图所示。</p> <p></p> <img src='stimuli/trees/15.png', style='max-width: 30%;'> </img> <p><strong>你是否选择发射武器？</strong></p>","1",""
"","","","","","html-keyboard-response","116","166256","0.0-4.0-0.56","181","1","2022-11-22 09:23:02","7b1eb8be57ff77859c7d9ac988e43411","223.104.133.208","Mozilla/5.0 (Linux; Android 10; HarmonyOS; JEF-AN00; HMSCore 6.8.0.312) AppleWebKit/537.36 (KHTML, like Gecko) Chrome/92.0.4515.105 HuaweiBrowser/12.1.4.304 Mobile Safari/537.36","WebKit","Chrome","92.0.4515.105","AndroidOS","10","null","<div style=""font-size:60px;"">+</div>","null",""
"","","","","","html-button-response","117","167163","0.0-4.0-1.56","181","1","2022-11-22 09:23:02","7b1eb8be57ff77859c7d9ac988e43411","223.104.133.208","Mozilla/5.0 (Linux; Android 10; HarmonyOS; JEF-AN00; HMSCore 6.8.0.312) AppleWebKit/537.36 (KHTML, like Gecko) Chrome/92.0.4515.105 HuaweiBrowser/12.1.4.304 Mobile Safari/537.36","WebKit","Chrome","92.0.4515.105","AndroidOS","10","896","<p>作为军队的指挥官，你可以选择发射导弹杀死 <strong>8名</strong> 敌国士兵，但会误杀附近的 <strong>1名</strong> 敌国平民。</p> <p>平民照片如下图所示。</p> <p></p> <img src='stimuli/faces/PCM2.jpg', style='max-width: 30%;'> </img> <p><strong>你是否选择发射武器？</strong></p>","1",""
"","","","","","html-keyboard-response","118","168171","0.0-4.0-0.57","181","1","2022-11-22 09:23:02","7b1eb8be57ff77859c7d9ac988e43411","223.104.133.208","Mozilla/5.0 (Linux; Android 10; HarmonyOS; JEF-AN00; HMSCore 6.8.0.312) AppleWebKit/537.36 (KHTML, like Gecko) Chrome/92.0.4515.105 HuaweiBrowser/12.1.4.304 Mobile Safari/537.36","WebKit","Chrome","92.0.4515.105","AndroidOS","10","null","<div style=""font-size:60px;"">+</div>","null",""
"","","","","","html-button-response","119","168682","0.0-4.0-1.57","181","1","2022-11-22 09:23:02","7b1eb8be57ff77859c7d9ac988e43411","223.104.133.208","Mozilla/5.0 (Linux; Android 10; HarmonyOS; JEF-AN00; HMSCore 6.8.0.312) AppleWebKit/537.36 (KHTML, like Gecko) Chrome/92.0.4515.105 HuaweiBrowser/12.1.4.304 Mobile Safari/537.36","WebKit","Chrome","92.0.4515.105","AndroidOS","10","499","<p>作为军队的指挥官，你可以选择发射导弹杀死 <strong>9名</strong> 敌国士兵，但会误杀附近的 <strong>1名</strong> 敌国平民。</p> <p>平民照片如下图所示。</p> <p></p> <img src='stimuli/faces/PCM8.jpg', style='max-width: 30%;'> </img> <p><strong>你是否选择发射武器？</strong></p>","1",""
"","","","","","html-keyboard-response","120","169689","0.0-4.0-0.58","181","1","2022-11-22 09:23:02","7b1eb8be57ff77859c7d9ac988e43411","223.104.133.208","Mozilla/5.0 (Linux; Android 10; HarmonyOS; JEF-AN00; HMSCore 6.8.0.312) AppleWebKit/537.36 (KHTML, like Gecko) Chrome/92.0.4515.105 HuaweiBrowser/12.1.4.304 Mobile Safari/537.36","WebKit","Chrome","92.0.4515.105","AndroidOS","10","null","<div style=""font-size:60px;"">+</div>","null",""
"","","","","","html-button-response","121","170419","0.0-4.0-1.58","181","1","2022-11-22 09:23:02","7b1eb8be57ff77859c7d9ac988e43411","223.104.133.208","Mozilla/5.0 (Linux; Android 10; HarmonyOS; JEF-AN00; HMSCore 6.8.0.312) AppleWebKit/537.36 (KHTML, like Gecko) Chrome/92.0.4515.105 HuaweiBrowser/12.1.4.304 Mobile Safari/537.36","WebKit","Chrome","92.0.4515.105","AndroidOS","10","719","<p>作为军队的指挥官，你可以选择发射导弹杀死 <strong>4名</strong> 敌国士兵，但会误杀附近的 <strong>1名</strong> 敌国平民。</p> <p>平民照片如下图所示。</p> <p></p> <img src='stimuli/faces/PCM7.jpg', style='max-width: 30%;'> </img> <p><strong>你是否选择发射武器？</strong></p>","1",""
"","","","","","html-keyboard-response","122","171428","0.0-4.0-0.59","181","1","2022-11-22 09:23:02","7b1eb8be57ff77859c7d9ac988e43411","223.104.133.208","Mozilla/5.0 (Linux; Android 10; HarmonyOS; JEF-AN00; HMSCore 6.8.0.312) AppleWebKit/537.36 (KHTML, like Gecko) Chrome/92.0.4515.105 HuaweiBrowser/12.1.4.304 Mobile Safari/537.36","WebKit","Chrome","92.0.4515.105","AndroidOS","10","null","<div style=""font-size:60px;"">+</div>","null",""
"","","","","","html-button-response","123","179105","0.0-4.0-1.59","181","1","2022-11-22 09:23:02","7b1eb8be57ff77859c7d9ac988e43411","223.104.133.208","Mozilla/5.0 (Linux; Android 10; HarmonyOS; JEF-AN00; HMSCore 6.8.0.312) AppleWebKit/537.36 (KHTML, like Gecko) Chrome/92.0.4515.105 HuaweiBrowser/12.1.4.304 Mobile Safari/537.36","WebKit","Chrome","92.0.4515.105","AndroidOS","10","7668","<p>作为军队的指挥官，你可以选择发射导弹杀死 <strong>5名</strong> 敌国士兵，但会炸毁附近的 <strong>1棵</strong> 敌国树木。</p> <p>树木的照片如下图所示。</p> <p></p> <img src='stimuli/trees/9.png', style='max-width: 30%;'> </img> <p><strong>你是否选择发射武器？</strong></p>","0",""
"","","","","","html-keyboard-response","124","180113","0.0-4.0-0.60","181","1","2022-11-22 09:23:02","7b1eb8be57ff77859c7d9ac988e43411","223.104.133.208","Mozilla/5.0 (Linux; Android 10; HarmonyOS; JEF-AN00; HMSCore 6.8.0.312) AppleWebKit/537.36 (KHTML, like Gecko) Chrome/92.0.4515.105 HuaweiBrowser/12.1.4.304 Mobile Safari/537.36","WebKit","Chrome","92.0.4515.105","AndroidOS","10","null","<div style=""font-size:60px;"">+</div>","null",""
"","","","","","html-button-response","125","181041","0.0-4.0-1.60","181","1","2022-11-22 09:23:02","7b1eb8be57ff77859c7d9ac988e43411","223.104.133.208","Mozilla/5.0 (Linux; Android 10; HarmonyOS; JEF-AN00; HMSCore 6.8.0.312) AppleWebKit/537.36 (KHTML, like Gecko) Chrome/92.0.4515.105 HuaweiBrowser/12.1.4.304 Mobile Safari/537.36","WebKit","Chrome","92.0.4515.105","AndroidOS","10","915","<p>作为军队的指挥官，你可以选择发射导弹杀死 <strong>10名</strong> 敌国士兵，但会误杀附近的 <strong>1名</strong> 敌国平民。</p> <p>平民照片如下图所示。</p> <p></p> <img src='stimuli/faces/PCM4.jpg', style='max-width: 30%;'> </img> <p><strong>你是否选择发射武器？</strong></p>","1",""
"","","","","","html-keyboard-response","126","182048","0.0-4.0-0.61","181","1","2022-11-22 09:23:02","7b1eb8be57ff77859c7d9ac988e43411","223.104.133.208","Mozilla/5.0 (Linux; Android 10; HarmonyOS; JEF-AN00; HMSCore 6.8.0.312) AppleWebKit/537.36 (KHTML, like Gecko) Chrome/92.0.4515.105 HuaweiBrowser/12.1.4.304 Mobile Safari/537.36","WebKit","Chrome","92.0.4515.105","AndroidOS","10","null","<div style=""font-size:60px;"">+</div>","null",""
"","","","","","html-button-response","127","182762","0.0-4.0-1.61","181","1","2022-11-22 09:23:02","7b1eb8be57ff77859c7d9ac988e43411","223.104.133.208","Mozilla/5.0 (Linux; Android 10; HarmonyOS; JEF-AN00; HMSCore 6.8.0.312) AppleWebKit/537.36 (KHTML, like Gecko) Chrome/92.0.4515.105 HuaweiBrowser/12.1.4.304 Mobile Safari/537.36","WebKit","Chrome","92.0.4515.105","AndroidOS","10","704","<p>作为军队的指挥官，你可以选择发射导弹杀死 <strong>1名</strong> 敌国士兵，但会误杀附近的 <strong>1名</strong> 敌国平民。</p> <p>平民照片如下图所示。</p> <p></p> <img src='stimuli/faces/PCM2.jpg', style='max-width: 30%;'> </img> <p><strong>你是否选择发射武器？</strong></p>","1",""
"","","","","","html-keyboard-response","128","183769","0.0-4.0-0.62","181","1","2022-11-22 09:23:02","7b1eb8be57ff77859c7d9ac988e43411","223.104.133.208","Mozilla/5.0 (Linux; Android 10; HarmonyOS; JEF-AN00; HMSCore 6.8.0.312) AppleWebKit/537.36 (KHTML, like Gecko) Chrome/92.0.4515.105 HuaweiBrowser/12.1.4.304 Mobile Safari/537.36","WebKit","Chrome","92.0.4515.105","AndroidOS","10","null","<div style=""font-size:60px;"">+</div>","null",""
"","","","","","html-button-response","129","184458","0.0-4.0-1.62","181","1","2022-11-22 09:23:02","7b1eb8be57ff77859c7d9ac988e43411","223.104.133.208","Mozilla/5.0 (Linux; Android 10; HarmonyOS; JEF-AN00; HMSCore 6.8.0.312) AppleWebKit/537.36 (KHTML, like Gecko) Chrome/92.0.4515.105 HuaweiBrowser/12.1.4.304 Mobile Safari/537.36","WebKit","Chrome","92.0.4515.105","AndroidOS","10","679","<p>作为军队的指挥官，你可以选择发射导弹杀死 <strong>7名</strong> 敌国士兵，但会误杀附近的 <strong>1名</strong> 敌国平民。</p> <p>平民照片如下图所示。</p> <p></p> <img src='stimuli/faces/PCM3.jpg', style='max-width: 30%;'> </img> <p><strong>你是否选择发射武器？</strong></p>","1",""
"","","","","","html-keyboard-response","130","185466","0.0-4.0-0.63","181","1","2022-11-22 09:23:02","7b1eb8be57ff77859c7d9ac988e43411","223.104.133.208","Mozilla/5.0 (Linux; Android 10; HarmonyOS; JEF-AN00; HMSCore 6.8.0.312) AppleWebKit/537.36 (KHTML, like Gecko) Chrome/92.0.4515.105 HuaweiBrowser/12.1.4.304 Mobile Safari/537.36","WebKit","Chrome","92.0.4515.105","AndroidOS","10","null","<div style=""font-size:60px;"">+</div>","null",""
"","","","","","html-button-response","131","186259","0.0-4.0-1.63","181","1","2022-11-22 09:23:02","7b1eb8be57ff77859c7d9ac988e43411","223.104.133.208","Mozilla/5.0 (Linux; Android 10; HarmonyOS; JEF-AN00; HMSCore 6.8.0.312) AppleWebKit/537.36 (KHTML, like Gecko) Chrome/92.0.4515.105 HuaweiBrowser/12.1.4.304 Mobile Safari/537.36","WebKit","Chrome","92.0.4515.105","AndroidOS","10","784","<p>作为军队的指挥官，你可以选择发射导弹杀死 <strong>5名</strong> 敌国士兵，但会误杀附近的 <strong>1名</strong> 敌国平民。</p> <p>平民照片如下图所示。</p> <p></p> <img src='stimuli/faces/PCF7.jpg', style='max-width: 30%;'> </img> <p><strong>你是否选择发射武器？</strong></p>","1",""
"","","","","","survey-multi-choice","132","210146","0.0-5.0","181","1","2022-11-22 09:23:02","7b1eb8be57ff77859c7d9ac988e43411","223.104.133.208","Mozilla/5.0 (Linux; Android 10; HarmonyOS; JEF-AN00; HMSCore 6.8.0.312) AppleWebKit/537.36 (KHTML, like Gecko) Chrome/92.0.4515.105 HuaweiBrowser/12.1.4.304 Mobile Safari/537.36","WebKit","Chrome","92.0.4515.105","AndroidOS","10","23878","","{""Attention1"":""""}","[0]"
"","","","","","html-button-response","133","214368","0.0-6.0","181","1","2022-11-22 09:23:02","7b1eb8be57ff77859c7d9ac988e43411","223.104.133.208","Mozilla/5.0 (Linux; Android 10; HarmonyOS; JEF-AN00; HMSCore 6.8.0.312) AppleWebKit/537.36 (KHTML, like Gecko) Chrome/92.0.4515.105 HuaweiBrowser/12.1.4.304 Mobile Safari/537.36","WebKit","Chrome","92.0.4515.105","AndroidOS","10","4204","<p style=""font-size:20px;font-weight:bold;"">恭喜！</p><p>你已经完成了实验的第一部分。</p><p>请休息放松一下，然后进入第二部分。</p><p>这部分大约需要10分钟。</p>","0",""
"","","","","","survey-text","134","257061","0.0-7.0","181","1","2022-11-22 09:23:02","7b1eb8be57ff77859c7d9ac988e43411","223.104.133.208","Mozilla/5.0 (Linux; Android 10; HarmonyOS; JEF-AN00; HMSCore 6.8.0.312) AppleWebKit/537.36 (KHTML, like Gecko) Chrome/92.0.4515.105 HuaweiBrowser/12.1.4.304 Mobile Safari/537.36","WebKit","Chrome","92.0.4515.105","AndroidOS","10","41670","","{""Age"":""19"",""Nation"":""中国"",""Born"":""湖南衡阳"",""Live"":""湖南衡阳"",""Ethnic"":""汉"",""Alipay"":""13873447400"",""ID"":""""}",""
"","","","","","survey-multi-choice","135","285609","0.0-8.0","181","1","2022-11-22 09:23:02","7b1eb8be57ff77859c7d9ac988e43411","223.104.133.208","Mozilla/5.0 (Linux; Android 10; HarmonyOS; JEF-AN00; HMSCore 6.8.0.312) AppleWebKit/537.36 (KHTML, like Gecko) Chrome/92.0.4515.105 HuaweiBrowser/12.1.4.304 Mobile Safari/537.36","WebKit","Chrome","92.0.4515.105","AndroidOS","10","28537","","{""Gender"":""女"",""Education"":""高中毕业"",""Income"":""￥35,000-￥69,999"",""Children"":""0"",""Race"":""亚洲人""}","[0,1,2,3,4]"
"","","","","","survey-multi-select","136","292122","0.0-9.0","181","1","2022-11-22 09:23:02","7b1eb8be57ff77859c7d9ac988e43411","223.104.133.208","Mozilla/5.0 (Linux; Android 10; HarmonyOS; JEF-AN00; HMSCore 6.8.0.312) AppleWebKit/537.36 (KHTML, like Gecko) Chrome/92.0.4515.105 HuaweiBrowser/12.1.4.304 Mobile Safari/537.36","WebKit","Chrome","92.0.4515.105","AndroidOS","10","6485","","{""Marriage"":[""未婚""],""Religion"":[""无宗教信仰""]}","[0,1]"
"","","","","","survey-multi-choice","137","308474","0.0-10.0","181","1","2022-11-22 09:23:02","7b1eb8be57ff77859c7d9ac988e43411","223.104.133.208","Mozilla/5.0 (Linux; Android 10; HarmonyOS; JEF-AN00; HMSCore 6.8.0.312) AppleWebKit/537.36 (KHTML, like Gecko) Chrome/92.0.4515.105 HuaweiBrowser/12.1.4.304 Mobile Safari/537.36","WebKit","Chrome","92.0.4515.105","AndroidOS","10","16333","","{""SES"":""3""}","[0]"
"","","","","","html-button-response","138","313947","0.0-11.0","181","1","2022-11-22 09:23:02","7b1eb8be57ff77859c7d9ac988e43411","223.104.133.208","Mozilla/5.0 (Linux; Android 10; HarmonyOS; JEF-AN00; HMSCore 6.8.0.312) AppleWebKit/537.36 (KHTML, like Gecko) Chrome/92.0.4515.105 HuaweiBrowser/12.1.4.304 Mobile Safari/537.36","WebKit","Chrome","92.0.4515.105","AndroidOS","10","5455","<p><strong>请判断下列陈述在多大程度上可以形容你？</p><p> (1 = ""和我一点都不像"" to 5 = ""非常像我"".)</strong></p>","0",""
"","","","","","survey-likert","139","348266","0.0-12.0","181","1","2022-11-22 09:23:02","7b1eb8be57ff77859c7d9ac988e43411","223.104.133.208","Mozilla/5.0 (Linux; Android 10; HarmonyOS; JEF-AN00; HMSCore 6.8.0.312) AppleWebKit/537.36 (KHTML, like Gecko) Chrome/92.0.4515.105 HuaweiBrowser/12.1.4.304 Mobile Safari/537.36","WebKit","Chrome","92.0.4515.105","AndroidOS","10","34304","","{""Aggression1"":1,""Aggression2"":2,""Aggression3"":3,""Aggression4"":0,""Aggression5"":1,""Aggression6"":1,""Aggression7"":2,""Aggression8"":0,""Aggression9"":2}","[0,1,2,3,4,5,6,7,8]"
"","","","","","html-button-response","140","350843","0.0-13.0","181","1","2022-11-22 09:23:02","7b1eb8be57ff77859c7d9ac988e43411","223.104.133.208","Mozilla/5.0 (Linux; Android 10; HarmonyOS; JEF-AN00; HMSCore 6.8.0.312) AppleWebKit/537.36 (KHTML, like Gecko) Chrome/92.0.4515.105 HuaweiBrowser/12.1.4.304 Mobile Safari/537.36","WebKit","Chrome","92.0.4515.105","AndroidOS","10","2560","<p><strong>请判断你在多大程度上同意下列陈述。</strong></p>","0",""
"","","","","","survey-likert","141","450115","0.0-14.0","181","1","2022-11-22 09:23:02","7b1eb8be57ff77859c7d9ac988e43411","223.104.133.208","Mozilla/5.0 (Linux; Android 10; HarmonyOS; JEF-AN00; HMSCore 6.8.0.312) AppleWebKit/537.36 (KHTML, like Gecko) Chrome/92.0.4515.105 HuaweiBrowser/12.1.4.304 Mobile Safari/537.36","WebKit","Chrome","92.0.4515.105","AndroidOS","10","99246","","{""scale24"":1,""scale5"":3,""scale26"":4,""scale22"":1,""scale1"":4,""scale7"":1,""scale3"":2,""scale13"":1,""scale25"":2,""scale23"":3,""scale9"":2,""scale17"":2,""scale19"":2,""scale16"":2,""scale10"":3,""scale27"":1,""scale12"":1,""scale15"":1,""scale4"":1,""scale20"":3,""scale6"":3,""scale28"":3,""scale21"":1,""scale18"":1,""scale14"":1,""scale2"":3,""scale11"":3,""scale8"":2}","[23,4,25,21,0,6,2,12,24,22,8,16,18,15,9,26,11,14,3,19,5,27,20,17,13,1,10,7]"
"","","","","","html-button-response","142","451443","0.0-15.0","181","1","2022-11-22 09:23:02","7b1eb8be57ff77859c7d9ac988e43411","223.104.133.208","Mozilla/5.0 (Linux; Android 10; HarmonyOS; JEF-AN00; HMSCore 6.8.0.312) AppleWebKit/537.36 (KHTML, like Gecko) Chrome/92.0.4515.105 HuaweiBrowser/12.1.4.304 Mobile Safari/537.36","WebKit","Chrome","92.0.4515.105","AndroidOS","10","1309","<p><strong>请判断你在多大程度上同意下列陈述。</strong></p>","0",""
"","","","","","survey-likert","143","560754","0.0-16.0","181","1","2022-11-22 09:23:02","7b1eb8be57ff77859c7d9ac988e43411","223.104.133.208","Mozilla/5.0 (Linux; Android 10; HarmonyOS; JEF-AN00; HMSCore 6.8.0.312) AppleWebKit/537.36 (KHTML, like Gecko) Chrome/92.0.4515.105 HuaweiBrowser/12.1.4.304 Mobile Safari/537.36","WebKit","Chrome","92.0.4515.105","AndroidOS","10","109291","","{""sdo4"":0,""sdo6"":3,""sdo12"":3,""sdo7"":0,""sdo9"":3,""sdo16"":6,""sdo13"":3,""sdo14"":4,""sdo2"":2,""sdo10"":4,""sdo5"":2,""sdo1"":3,""sdo8"":4,""sdo11"":3,""sdo15"":2,""sdo3"":4}","[3,5,11,6,8,15,12,13,1,9,4,0,7,10,14,2]"
"","","","","","html-button-response","144","562151","0.0-17.0","181","1","2022-11-22 09:23:02","7b1eb8be57ff77859c7d9ac988e43411","223.104.133.208","Mozilla/5.0 (Linux; Android 10; HarmonyOS; JEF-AN00; HMSCore 6.8.0.312) AppleWebKit/537.36 (KHTML, like Gecko) Chrome/92.0.4515.105 HuaweiBrowser/12.1.4.304 Mobile Safari/537.36","WebKit","Chrome","92.0.4515.105","AndroidOS","10","1381","<p><strong>请判断你在多大程度上同意下列陈述。</strong></p>","0",""
"","","","","","survey-likert","145","612337","0.0-18.0","181","1","2022-11-22 09:23:02","7b1eb8be57ff77859c7d9ac988e43411","223.104.133.208","Mozilla/5.0 (Linux; Android 10; HarmonyOS; JEF-AN00; HMSCore 6.8.0.312) AppleWebKit/537.36 (KHTML, like Gecko) Chrome/92.0.4515.105 HuaweiBrowser/12.1.4.304 Mobile Safari/537.36","WebKit","Chrome","92.0.4515.105","AndroidOS","10","50171","","{""caring1"":3,""liking1"":1,""caring2"":3,""protection1"":3,""liking2"":2,""caring3"":3,""protection2"":0,""liking3"":1,""protection3"":3,""caring4"":3,""liking4"":1,""protection4"":2,""caring5"":3,""liking5"":3,""protection5"":1}","[0,1,2,3,4,5,6,7,8,9,10,11,12,13,14]"
"","","","","","html-button-response","146","613474","0.0-19.0","181","1","2022-11-22 09:23:02","7b1eb8be57ff77859c7d9ac988e43411","223.104.133.208","Mozilla/5.0 (Linux; Android 10; HarmonyOS; JEF-AN00; HMSCore 6.8.0.312) AppleWebKit/537.36 (KHTML, like Gecko) Chrome/92.0.4515.105 HuaweiBrowser/12.1.4.304 Mobile Safari/537.36","WebKit","Chrome","92.0.4515.105","AndroidOS","10","1120","<p><strong>请判断下列场景中你的内心感受有多柔软。</strong></p>","0",""
"","","","","","survey-likert","147","641833","0.0-20.0","181","1","2022-11-22 09:23:02","7b1eb8be57ff77859c7d9ac988e43411","223.104.133.208","Mozilla/5.0 (Linux; Android 10; HarmonyOS; JEF-AN00; HMSCore 6.8.0.312) AppleWebKit/537.36 (KHTML, like Gecko) Chrome/92.0.4515.105 HuaweiBrowser/12.1.4.304 Mobile Safari/537.36","WebKit","Chrome","92.0.4515.105","AndroidOS","10","28345","","{""tenderness-positive1"":3,""tenderness-negative1"":4,""tenderness-negative2"":0,""tenderness-positive2"":3,""tenderness-positive3"":3,""tenderness-negative3"":1,""tenderness-positive4"":3,""tenderness-negative4"":3,""tenderness-negative5"":3,""tenderness-positive5"":4}","[0,1,2,3,4,5,6,7,8,9]"
"","","","","","survey-multi-choice","148","647844","0.0-21.0","181","1","2022-11-22 09:23:02","7b1eb8be57ff77859c7d9ac988e43411","223.104.133.208","Mozilla/5.0 (Linux; Android 10; HarmonyOS; JEF-AN00; HMSCore 6.8.0.312) AppleWebKit/537.36 (KHTML, like Gecko) Chrome/92.0.4515.105 HuaweiBrowser/12.1.4.304 Mobile Safari/537.36","WebKit","Chrome","92.0.4515.105","AndroidOS","10","5990","","{""Attention2"":""其他""}","[0]"
"","","","","","html-button-response","149","648950","0.0-22.0","181","1","2022-11-22 09:23:02","7b1eb8be57ff77859c7d9ac988e43411","223.104.133.208","Mozilla/5.0 (Linux; Android 10; HarmonyOS; JEF-AN00; HMSCore 6.8.0.312) AppleWebKit/537.36 (KHTML, like Gecko) Chrome/92.0.4515.105 HuaweiBrowser/12.1.4.304 Mobile Safari/537.36","WebKit","Chrome","92.0.4515.105","AndroidOS","10","1087","<p><strong>请判断你在多大程度上同意下列陈述。</strong></p>","0",""
"","","","","","survey-likert","150","755132","0.0-23.0","181","1","2022-11-22 09:23:02","7b1eb8be57ff77859c7d9ac988e43411","223.104.133.208","Mozilla/5.0 (Linux; Android 10; HarmonyOS; JEF-AN00; HMSCore 6.8.0.312) AppleWebKit/537.36 (KHTML, like Gecko) Chrome/92.0.4515.105 HuaweiBrowser/12.1.4.304 Mobile Safari/537.36","WebKit","Chrome","92.0.4515.105","AndroidOS","10","106163","","{""Patri6"":0,""Patri10"":0,""Patri1"":4,""Patri2"":4,""Nation3"":0,""Nation5"":2,""Patri11"":0,""Patri9"":0,""Patri3"":3,""Patri8"":4,""Nation2"":4,""Patri12"":0,""Nation6"":1,""Nation8"":3,""Nation4"":2,""Nation7"":2,""Patri7"":4,""Nation1"":3,""Patri5"":4,""Patri4"":0}","[5,9,0,1,14,16,10,8,2,7,13,11,17,19,15,18,6,12,4,3]"
"","","","","","html-button-response","151","756302","0.0-24.0","181","1","2022-11-22 09:23:02","7b1eb8be57ff77859c7d9ac988e43411","223.104.133.208","Mozilla/5.0 (Linux; Android 10; HarmonyOS; JEF-AN00; HMSCore 6.8.0.312) AppleWebKit/537.36 (KHTML, like Gecko) Chrome/92.0.4515.105 HuaweiBrowser/12.1.4.304 Mobile Safari/537.36","WebKit","Chrome","92.0.4515.105","AndroidOS","10","1153","<p><strong>请判断你在多大程度上同意下列陈述。</strong></p>","0",""
"","","","","","survey-likert","152","819800","0.0-25.0","181","1","2022-11-22 09:23:02","7b1eb8be57ff77859c7d9ac988e43411","223.104.133.208","Mozilla/5.0 (Linux; Android 10; HarmonyOS; JEF-AN00; HMSCore 6.8.0.312) AppleWebKit/537.36 (KHTML, like Gecko) Chrome/92.0.4515.105 HuaweiBrowser/12.1.4.304 Mobile Safari/537.36","WebKit","Chrome","92.0.4515.105","AndroidOS","10","63473","","{""vi1"":6,""hc1"":7,""vi4"":5,""vc1"":6,""vi2"":2,""hc3"":6,""hi2"":4,""Robot"":6,""vc4"":4,""hi4"":5,""vc3"":6,""vc2"":5,""hc4"":5,""hi1"":4,""hi3"":3,""vi3"":6,""hc2"":5}","[4,9,8,13,5,11,1,7,16,3,15,14,12,0,2,6,10]"
"","","","","","survey-text","153","825217","0.0-26.0","181","1","2022-11-22 09:23:02","7b1eb8be57ff77859c7d9ac988e43411","223.104.133.208","Mozilla/5.0 (Linux; Android 10; HarmonyOS; JEF-AN00; HMSCore 6.8.0.312) AppleWebKit/537.36 (KHTML, like Gecko) Chrome/92.0.4515.105 HuaweiBrowser/12.1.4.304 Mobile Safari/537.36","WebKit","Chrome","92.0.4515.105","AndroidOS","10","5393","","{""Comments"":""""}",""
"","","","","","html-button-response","154","826206","0.0-27.0","181","1","2022-11-22 09:23:02","7b1eb8be57ff77859c7d9ac988e43411","223.104.133.208","Mozilla/5.0 (Linux; Android 10; HarmonyOS; JEF-AN00; HMSCore 6.8.0.312) AppleWebKit/537.36 (KHTML, like Gecko) Chrome/92.0.4515.105 HuaweiBrowser/12.1.4.304 Mobile Safari/537.36","WebKit","Chrome","92.0.4515.105","AndroidOS","10","981","<strong><p>恭喜你完成了实验！</p><p>感谢您的参与。</p></strong>","0",""
