"success","timeout","failed_images","failed_audio","failed_video","trial_type","trial_index","time_elapsed","internal_node_id","run_id","condition","recorded_at","source_code_version","ip","user_agent","device","browser","browser_version","platform","platform_version","rt","stimulus","response","question_order"
"true","false","[]","[]","[]","preload","0","6455","0.0-0.0","186","1","2022-11-25 14:20:28","7b1eb8be57ff77859c7d9ac988e43411","219.142.99.1","Mozilla/5.0 (Linux; U; Android 12; zh-cn; M2104K10AC Build/SP1A.210812.016) AppleWebKit/537.36 (KHTML, like Gecko) Version/4.0 Chrome/100.0.4896.127 Mobile Safari/537.36 XiaoMi/MiuiBrowser/17.1.8 swan-mibrowser","Xiaomi","Chrome","100.0.4896.127","AndroidOS","12","","","",""
"true","","","","","fullscreen","1","10213","0.0-1.0","186","1","2022-11-25 14:20:28","7b1eb8be57ff77859c7d9ac988e43411","219.142.99.1","Mozilla/5.0 (Linux; U; Android 12; zh-cn; M2104K10AC Build/SP1A.210812.016) AppleWebKit/537.36 (KHTML, like Gecko) Version/4.0 Chrome/100.0.4896.127 Mobile Safari/537.36 XiaoMi/MiuiBrowser/17.1.8 swan-mibrowser","Xiaomi","Chrome","100.0.4896.127","AndroidOS","12","","","",""
"","","","","","html-button-response","2","30169","0.0-2.0","186","1","2022-11-25 14:20:28","7b1eb8be57ff77859c7d9ac988e43411","219.142.99.1","Mozilla/5.0 (Linux; U; Android 12; zh-cn; M2104K10AC Build/SP1A.210812.016) AppleWebKit/537.36 (KHTML, like Gecko) Version/4.0 Chrome/100.0.4896.127 Mobile Safari/537.36 XiaoMi/MiuiBrowser/17.1.8 swan-mibrowser","Xiaomi","Chrome","100.0.4896.127","AndroidOS","12","19950","<p style=""font-size:20px;font-weight:bold;"">实验知情同意书</p><p style=""text-align:left;""><strong>实验名称：</strong>社会冲突研究</p><p style=""text-align:left;""><strong>主要研究者：</strong>韩晓春副教授（北京师范大学心理学部）</p><p style=""text-align:left;""><strong>联系方式：</strong>发送邮件至xiaochun.han@bnu.edu.cn</p><p style=""text-align:left;""><strong>研究目的：</strong>研究旨在了解人类面对群体冲突时的决策方式，以及相关的心理学特质。实验调查大约需要20分钟。</p><p style=""text-align:left;""><strong>实验流程：</strong>实验包含两部分。第一部分呈现一系列群体冲突场景，请你决定如何对这些冲突进行反应，大约需要10分钟完成。第二部分包含一系列人口统计学信息收集和心理学问卷，大约需要10分钟完成。</p><p style=""text-align:left;""><strong>参加及退出规则：</strong>参加本实验完全取决于您的个人意愿。在参与过程中，您可以随时退出，并且不用承担任何后果。</p><p style=""text-align:left;""><strong>隐私：</strong>本实验完全匿名进行，不会收集您的姓名或其他能够识别您身份的信息。实验中收集的作答仅用作科学研究使用，可能会在学术期刊/书籍上发表，或者用于教学，您的数据未来可能会和其他研究者或实验室分享，但您的个人身份不会被识别。</p><p style=""text-align:left;""><strong>实验报酬：</strong>实验完成后，您将获得15元人民币报酬，以感谢您的时间和努力。调查问卷中包含几道题目用以测验您作答时的认真度。只有完成全部实验，并且正确回答认真度测验的被试才能获得实验报酬。实验报酬将通过支付宝转账发放。</p><p style=""text-align:left;font-size:20px;""><strong>如果您同意以上实验知情同意书的内容，请点击'同意并且开始实验'按钮；否则请关闭浏览器界面，退出实验。</strong></p>","0",""
"","","","","","html-button-response","3","54951","0.0-3.0","186","1","2022-11-25 14:20:28","7b1eb8be57ff77859c7d9ac988e43411","219.142.99.1","Mozilla/5.0 (Linux; U; Android 12; zh-cn; M2104K10AC Build/SP1A.210812.016) AppleWebKit/537.36 (KHTML, like Gecko) Version/4.0 Chrome/100.0.4896.127 Mobile Safari/537.36 XiaoMi/MiuiBrowser/17.1.8 swan-mibrowser","Xiaomi","Chrome","100.0.4896.127","AndroidOS","12","24779","<p ><strong>实验任务一：</strong></p><p>请想象你的国家与另一个国家发生了军事冲突。</p><p>你是国家军队的指挥官，你将如何在冲突中进行决策。</p><p>具体来说，作为军队指挥官，请你决定是否发射导弹进行打击。</p><p>接下来，你会面对一系列场景，请仔细阅读每个场景，然后进行决策。</p><p>这部分实验任务大约需要10分钟。</p><p><strong>实验过程中，请集中注意力。</strong></p>","0",""
"","","","","","html-keyboard-response","4","55955","0.0-4.0-0.0","186","1","2022-11-25 14:20:28","7b1eb8be57ff77859c7d9ac988e43411","219.142.99.1","Mozilla/5.0 (Linux; U; Android 12; zh-cn; M2104K10AC Build/SP1A.210812.016) AppleWebKit/537.36 (KHTML, like Gecko) Version/4.0 Chrome/100.0.4896.127 Mobile Safari/537.36 XiaoMi/MiuiBrowser/17.1.8 swan-mibrowser","Xiaomi","Chrome","100.0.4896.127","AndroidOS","12","null","<div style=""font-size:60px;"">+</div>","null",""
"","","","","","html-button-response","5","66734","0.0-4.0-1.0","186","1","2022-11-25 14:20:28","7b1eb8be57ff77859c7d9ac988e43411","219.142.99.1","Mozilla/5.0 (Linux; U; Android 12; zh-cn; M2104K10AC Build/SP1A.210812.016) AppleWebKit/537.36 (KHTML, like Gecko) Version/4.0 Chrome/100.0.4896.127 Mobile Safari/537.36 XiaoMi/MiuiBrowser/17.1.8 swan-mibrowser","Xiaomi","Chrome","100.0.4896.127","AndroidOS","12","10769","<p>作为军队的指挥官，你可以选择发射导弹杀死 <strong>2名</strong> 敌国士兵，但会炸毁附近的 <strong>1棵</strong> 敌国树木。</p> <p>树木的照片如下图所示。</p> <p></p> <img src='stimuli/trees/7.png', style='max-width: 30%;'> </img> <p><strong>你是否选择发射武器？</strong></p>","0",""
"","","","","","html-keyboard-response","6","67738","0.0-4.0-0.1","186","1","2022-11-25 14:20:28","7b1eb8be57ff77859c7d9ac988e43411","219.142.99.1","Mozilla/5.0 (Linux; U; Android 12; zh-cn; M2104K10AC Build/SP1A.210812.016) AppleWebKit/537.36 (KHTML, like Gecko) Version/4.0 Chrome/100.0.4896.127 Mobile Safari/537.36 XiaoMi/MiuiBrowser/17.1.8 swan-mibrowser","Xiaomi","Chrome","100.0.4896.127","AndroidOS","12","null","<div style=""font-size:60px;"">+</div>","null",""
"","","","","","html-button-response","7","97495","0.0-4.0-1.1","186","1","2022-11-25 14:20:28","7b1eb8be57ff77859c7d9ac988e43411","219.142.99.1","Mozilla/5.0 (Linux; U; Android 12; zh-cn; M2104K10AC Build/SP1A.210812.016) AppleWebKit/537.36 (KHTML, like Gecko) Version/4.0 Chrome/100.0.4896.127 Mobile Safari/537.36 XiaoMi/MiuiBrowser/17.1.8 swan-mibrowser","Xiaomi","Chrome","100.0.4896.127","AndroidOS","12","29748","<p>作为军队的指挥官，你可以选择发射导弹杀死 <strong>5名</strong> 敌国士兵，但会误杀附近的 <strong>1名</strong> 敌国平民。</p> <p>平民照片如下图所示。</p> <p></p> <img src='stimuli/faces/PCF2.jpg', style='max-width: 30%;'> </img> <p><strong>你是否选择发射武器？</strong></p>","0",""
"","","","","","html-keyboard-response","8","98499","0.0-4.0-0.2","186","1","2022-11-25 14:20:28","7b1eb8be57ff77859c7d9ac988e43411","219.142.99.1","Mozilla/5.0 (Linux; U; Android 12; zh-cn; M2104K10AC Build/SP1A.210812.016) AppleWebKit/537.36 (KHTML, like Gecko) Version/4.0 Chrome/100.0.4896.127 Mobile Safari/537.36 XiaoMi/MiuiBrowser/17.1.8 swan-mibrowser","Xiaomi","Chrome","100.0.4896.127","AndroidOS","12","null","<div style=""font-size:60px;"">+</div>","null",""
"","","","","","html-button-response","9","102496","0.0-4.0-1.2","186","1","2022-11-25 14:20:28","7b1eb8be57ff77859c7d9ac988e43411","219.142.99.1","Mozilla/5.0 (Linux; U; Android 12; zh-cn; M2104K10AC Build/SP1A.210812.016) AppleWebKit/537.36 (KHTML, like Gecko) Version/4.0 Chrome/100.0.4896.127 Mobile Safari/537.36 XiaoMi/MiuiBrowser/17.1.8 swan-mibrowser","Xiaomi","Chrome","100.0.4896.127","AndroidOS","12","3984","<p>作为军队的指挥官，你可以选择发射导弹杀死 <strong>3名</strong> 敌国士兵，但会炸毁附近的 <strong>1棵</strong> 敌国树木。</p> <p>树木的照片如下图所示。</p> <p></p> <img src='stimuli/trees/16.png', style='max-width: 30%;'> </img> <p><strong>你是否选择发射武器？</strong></p>","0",""
"","","","","","html-keyboard-response","10","103499","0.0-4.0-0.3","186","1","2022-11-25 14:20:28","7b1eb8be57ff77859c7d9ac988e43411","219.142.99.1","Mozilla/5.0 (Linux; U; Android 12; zh-cn; M2104K10AC Build/SP1A.210812.016) AppleWebKit/537.36 (KHTML, like Gecko) Version/4.0 Chrome/100.0.4896.127 Mobile Safari/537.36 XiaoMi/MiuiBrowser/17.1.8 swan-mibrowser","Xiaomi","Chrome","100.0.4896.127","AndroidOS","12","null","<div style=""font-size:60px;"">+</div>","null",""
"","","","","","html-button-response","11","110148","0.0-4.0-1.3","186","1","2022-11-25 14:20:28","7b1eb8be57ff77859c7d9ac988e43411","219.142.99.1","Mozilla/5.0 (Linux; U; Android 12; zh-cn; M2104K10AC Build/SP1A.210812.016) AppleWebKit/537.36 (KHTML, like Gecko) Version/4.0 Chrome/100.0.4896.127 Mobile Safari/537.36 XiaoMi/MiuiBrowser/17.1.8 swan-mibrowser","Xiaomi","Chrome","100.0.4896.127","AndroidOS","12","6642","<p>作为军队的指挥官，你可以选择发射导弹杀死 <strong>10名</strong> 敌国士兵，但会误杀附近的 <strong>1名</strong> 敌国平民。</p> <p>平民照片如下图所示。</p> <p></p> <img src='stimuli/faces/PCF8.jpg', style='max-width: 30%;'> </img> <p><strong>你是否选择发射武器？</strong></p>","0",""
"","","","","","html-keyboard-response","12","111151","0.0-4.0-0.4","186","1","2022-11-25 14:20:28","7b1eb8be57ff77859c7d9ac988e43411","219.142.99.1","Mozilla/5.0 (Linux; U; Android 12; zh-cn; M2104K10AC Build/SP1A.210812.016) AppleWebKit/537.36 (KHTML, like Gecko) Version/4.0 Chrome/100.0.4896.127 Mobile Safari/537.36 XiaoMi/MiuiBrowser/17.1.8 swan-mibrowser","Xiaomi","Chrome","100.0.4896.127","AndroidOS","12","null","<div style=""font-size:60px;"">+</div>","null",""
"","","","","","html-button-response","13","117798","0.0-4.0-1.4","186","1","2022-11-25 14:20:28","7b1eb8be57ff77859c7d9ac988e43411","219.142.99.1","Mozilla/5.0 (Linux; U; Android 12; zh-cn; M2104K10AC Build/SP1A.210812.016) AppleWebKit/537.36 (KHTML, like Gecko) Version/4.0 Chrome/100.0.4896.127 Mobile Safari/537.36 XiaoMi/MiuiBrowser/17.1.8 swan-mibrowser","Xiaomi","Chrome","100.0.4896.127","AndroidOS","12","6632","<p>作为军队的指挥官，你可以选择发射导弹杀死 <strong>5名</strong> 敌国士兵，但会误杀附近的 <strong>1名</strong> 敌国平民。</p> <p>平民照片如下图所示。</p> <p></p> <img src='stimuli/faces/PCF3.jpg', style='max-width: 30%;'> </img> <p><strong>你是否选择发射武器？</strong></p>","0",""
"","","","","","html-keyboard-response","14","118801","0.0-4.0-0.5","186","1","2022-11-25 14:20:28","7b1eb8be57ff77859c7d9ac988e43411","219.142.99.1","Mozilla/5.0 (Linux; U; Android 12; zh-cn; M2104K10AC Build/SP1A.210812.016) AppleWebKit/537.36 (KHTML, like Gecko) Version/4.0 Chrome/100.0.4896.127 Mobile Safari/537.36 XiaoMi/MiuiBrowser/17.1.8 swan-mibrowser","Xiaomi","Chrome","100.0.4896.127","AndroidOS","12","null","<div style=""font-size:60px;"">+</div>","null",""
"","","","","","html-button-response","15","124570","0.0-4.0-1.5","186","1","2022-11-25 14:20:28","7b1eb8be57ff77859c7d9ac988e43411","219.142.99.1","Mozilla/5.0 (Linux; U; Android 12; zh-cn; M2104K10AC Build/SP1A.210812.016) AppleWebKit/537.36 (KHTML, like Gecko) Version/4.0 Chrome/100.0.4896.127 Mobile Safari/537.36 XiaoMi/MiuiBrowser/17.1.8 swan-mibrowser","Xiaomi","Chrome","100.0.4896.127","AndroidOS","12","5762","<p>作为军队的指挥官，你可以选择发射导弹杀死 <strong>7名</strong> 敌国士兵，但会误杀附近的 <strong>1名</strong> 敌国平民。</p> <p>平民照片如下图所示。</p> <p></p> <img src='stimuli/faces/PCF3.jpg', style='max-width: 30%;'> </img> <p><strong>你是否选择发射武器？</strong></p>","0",""
"","","","","","html-keyboard-response","16","125577","0.0-4.0-0.6","186","1","2022-11-25 14:20:28","7b1eb8be57ff77859c7d9ac988e43411","219.142.99.1","Mozilla/5.0 (Linux; U; Android 12; zh-cn; M2104K10AC Build/SP1A.210812.016) AppleWebKit/537.36 (KHTML, like Gecko) Version/4.0 Chrome/100.0.4896.127 Mobile Safari/537.36 XiaoMi/MiuiBrowser/17.1.8 swan-mibrowser","Xiaomi","Chrome","100.0.4896.127","AndroidOS","12","null","<div style=""font-size:60px;"">+</div>","null",""
"","","","","","html-button-response","17","140099","0.0-4.0-1.6","186","1","2022-11-25 14:20:28","7b1eb8be57ff77859c7d9ac988e43411","219.142.99.1","Mozilla/5.0 (Linux; U; Android 12; zh-cn; M2104K10AC Build/SP1A.210812.016) AppleWebKit/537.36 (KHTML, like Gecko) Version/4.0 Chrome/100.0.4896.127 Mobile Safari/537.36 XiaoMi/MiuiBrowser/17.1.8 swan-mibrowser","Xiaomi","Chrome","100.0.4896.127","AndroidOS","12","14508","<p>作为军队的指挥官，你可以选择发射导弹杀死 <strong>2名</strong> 敌国士兵，但会误杀附近的 <strong>1名</strong> 敌国平民。</p> <p>平民照片如下图所示。</p> <p></p> <img src='stimuli/faces/PCF5.jpg', style='max-width: 30%;'> </img> <p><strong>你是否选择发射武器？</strong></p>","1",""
"","","","","","html-keyboard-response","18","141102","0.0-4.0-0.7","186","1","2022-11-25 14:20:28","7b1eb8be57ff77859c7d9ac988e43411","219.142.99.1","Mozilla/5.0 (Linux; U; Android 12; zh-cn; M2104K10AC Build/SP1A.210812.016) AppleWebKit/537.36 (KHTML, like Gecko) Version/4.0 Chrome/100.0.4896.127 Mobile Safari/537.36 XiaoMi/MiuiBrowser/17.1.8 swan-mibrowser","Xiaomi","Chrome","100.0.4896.127","AndroidOS","12","null","<div style=""font-size:60px;"">+</div>","null",""
"","","","","","html-button-response","19","144306","0.0-4.0-1.7","186","1","2022-11-25 14:20:28","7b1eb8be57ff77859c7d9ac988e43411","219.142.99.1","Mozilla/5.0 (Linux; U; Android 12; zh-cn; M2104K10AC Build/SP1A.210812.016) AppleWebKit/537.36 (KHTML, like Gecko) Version/4.0 Chrome/100.0.4896.127 Mobile Safari/537.36 XiaoMi/MiuiBrowser/17.1.8 swan-mibrowser","Xiaomi","Chrome","100.0.4896.127","AndroidOS","12","3185","<p>作为军队的指挥官，你可以选择发射导弹杀死 <strong>1名</strong> 敌国士兵，但会炸毁附近的 <strong>1棵</strong> 敌国树木。</p> <p>树木的照片如下图所示。</p> <p></p> <img src='stimuli/trees/6.png', style='max-width: 30%;'> </img> <p><strong>你是否选择发射武器？</strong></p>","0",""
"","","","","","html-keyboard-response","20","145310","0.0-4.0-0.8","186","1","2022-11-25 14:20:28","7b1eb8be57ff77859c7d9ac988e43411","219.142.99.1","Mozilla/5.0 (Linux; U; Android 12; zh-cn; M2104K10AC Build/SP1A.210812.016) AppleWebKit/537.36 (KHTML, like Gecko) Version/4.0 Chrome/100.0.4896.127 Mobile Safari/537.36 XiaoMi/MiuiBrowser/17.1.8 swan-mibrowser","Xiaomi","Chrome","100.0.4896.127","AndroidOS","12","null","<div style=""font-size:60px;"">+</div>","null",""
"","","","","","html-button-response","21","151603","0.0-4.0-1.8","186","1","2022-11-25 14:20:28","7b1eb8be57ff77859c7d9ac988e43411","219.142.99.1","Mozilla/5.0 (Linux; U; Android 12; zh-cn; M2104K10AC Build/SP1A.210812.016) AppleWebKit/537.36 (KHTML, like Gecko) Version/4.0 Chrome/100.0.4896.127 Mobile Safari/537.36 XiaoMi/MiuiBrowser/17.1.8 swan-mibrowser","Xiaomi","Chrome","100.0.4896.127","AndroidOS","12","6268","<p>作为军队的指挥官，你可以选择发射导弹杀死 <strong>2名</strong> 敌国士兵，但会炸毁附近的 <strong>1棵</strong> 敌国树木。</p> <p>树木的照片如下图所示。</p> <p></p> <img src='stimuli/trees/12.png', style='max-width: 30%;'> </img> <p><strong>你是否选择发射武器？</strong></p>","0",""
"","","","","","html-keyboard-response","22","152606","0.0-4.0-0.9","186","1","2022-11-25 14:20:28","7b1eb8be57ff77859c7d9ac988e43411","219.142.99.1","Mozilla/5.0 (Linux; U; Android 12; zh-cn; M2104K10AC Build/SP1A.210812.016) AppleWebKit/537.36 (KHTML, like Gecko) Version/4.0 Chrome/100.0.4896.127 Mobile Safari/537.36 XiaoMi/MiuiBrowser/17.1.8 swan-mibrowser","Xiaomi","Chrome","100.0.4896.127","AndroidOS","12","null","<div style=""font-size:60px;"">+</div>","null",""
"","","","","","html-button-response","23","155842","0.0-4.0-1.9","186","1","2022-11-25 14:20:28","7b1eb8be57ff77859c7d9ac988e43411","219.142.99.1","Mozilla/5.0 (Linux; U; Android 12; zh-cn; M2104K10AC Build/SP1A.210812.016) AppleWebKit/537.36 (KHTML, like Gecko) Version/4.0 Chrome/100.0.4896.127 Mobile Safari/537.36 XiaoMi/MiuiBrowser/17.1.8 swan-mibrowser","Xiaomi","Chrome","100.0.4896.127","AndroidOS","12","3213","<p>作为军队的指挥官，你可以选择发射导弹杀死 <strong>4名</strong> 敌国士兵，但会误杀附近的 <strong>1名</strong> 敌国平民。</p> <p>平民照片如下图所示。</p> <p></p> <img src='stimuli/faces/PCF7.jpg', style='max-width: 30%;'> </img> <p><strong>你是否选择发射武器？</strong></p>","0",""
"","","","","","html-keyboard-response","24","156848","0.0-4.0-0.10","186","1","2022-11-25 14:20:28","7b1eb8be57ff77859c7d9ac988e43411","219.142.99.1","Mozilla/5.0 (Linux; U; Android 12; zh-cn; M2104K10AC Build/SP1A.210812.016) AppleWebKit/537.36 (KHTML, like Gecko) Version/4.0 Chrome/100.0.4896.127 Mobile Safari/537.36 XiaoMi/MiuiBrowser/17.1.8 swan-mibrowser","Xiaomi","Chrome","100.0.4896.127","AndroidOS","12","null","<div style=""font-size:60px;"">+</div>","null",""
"","","","","","html-button-response","25","160363","0.0-4.0-1.10","186","1","2022-11-25 14:20:28","7b1eb8be57ff77859c7d9ac988e43411","219.142.99.1","Mozilla/5.0 (Linux; U; Android 12; zh-cn; M2104K10AC Build/SP1A.210812.016) AppleWebKit/537.36 (KHTML, like Gecko) Version/4.0 Chrome/100.0.4896.127 Mobile Safari/537.36 XiaoMi/MiuiBrowser/17.1.8 swan-mibrowser","Xiaomi","Chrome","100.0.4896.127","AndroidOS","12","3491","<p>作为军队的指挥官，你可以选择发射导弹杀死 <strong>2名</strong> 敌国士兵，但会炸毁附近的 <strong>1棵</strong> 敌国树木。</p> <p>树木的照片如下图所示。</p> <p></p> <img src='stimuli/trees/10.png', style='max-width: 30%;'> </img> <p><strong>你是否选择发射武器？</strong></p>","0",""
"","","","","","html-keyboard-response","26","161367","0.0-4.0-0.11","186","1","2022-11-25 14:20:28","7b1eb8be57ff77859c7d9ac988e43411","219.142.99.1","Mozilla/5.0 (Linux; U; Android 12; zh-cn; M2104K10AC Build/SP1A.210812.016) AppleWebKit/537.36 (KHTML, like Gecko) Version/4.0 Chrome/100.0.4896.127 Mobile Safari/537.36 XiaoMi/MiuiBrowser/17.1.8 swan-mibrowser","Xiaomi","Chrome","100.0.4896.127","AndroidOS","12","null","<div style=""font-size:60px;"">+</div>","null",""
"","","","","","html-button-response","27","169671","0.0-4.0-1.11","186","1","2022-11-25 14:20:28","7b1eb8be57ff77859c7d9ac988e43411","219.142.99.1","Mozilla/5.0 (Linux; U; Android 12; zh-cn; M2104K10AC Build/SP1A.210812.016) AppleWebKit/537.36 (KHTML, like Gecko) Version/4.0 Chrome/100.0.4896.127 Mobile Safari/537.36 XiaoMi/MiuiBrowser/17.1.8 swan-mibrowser","Xiaomi","Chrome","100.0.4896.127","AndroidOS","12","8279","<p>作为军队的指挥官，你可以选择发射导弹杀死 <strong>8名</strong> 敌国士兵，但会炸毁附近的 <strong>1棵</strong> 敌国树木。</p> <p>树木的照片如下图所示。</p> <p></p> <img src='stimuli/trees/5.png', style='max-width: 30%;'> </img> <p><strong>你是否选择发射武器？</strong></p>","0",""
"","","","","","html-keyboard-response","28","170674","0.0-4.0-0.12","186","1","2022-11-25 14:20:28","7b1eb8be57ff77859c7d9ac988e43411","219.142.99.1","Mozilla/5.0 (Linux; U; Android 12; zh-cn; M2104K10AC Build/SP1A.210812.016) AppleWebKit/537.36 (KHTML, like Gecko) Version/4.0 Chrome/100.0.4896.127 Mobile Safari/537.36 XiaoMi/MiuiBrowser/17.1.8 swan-mibrowser","Xiaomi","Chrome","100.0.4896.127","AndroidOS","12","null","<div style=""font-size:60px;"">+</div>","null",""
"","","","","","html-button-response","29","174199","0.0-4.0-1.12","186","1","2022-11-25 14:20:28","7b1eb8be57ff77859c7d9ac988e43411","219.142.99.1","Mozilla/5.0 (Linux; U; Android 12; zh-cn; M2104K10AC Build/SP1A.210812.016) AppleWebKit/537.36 (KHTML, like Gecko) Version/4.0 Chrome/100.0.4896.127 Mobile Safari/537.36 XiaoMi/MiuiBrowser/17.1.8 swan-mibrowser","Xiaomi","Chrome","100.0.4896.127","AndroidOS","12","3513","<p>作为军队的指挥官，你可以选择发射导弹杀死 <strong>1名</strong> 敌国士兵，但会炸毁附近的 <strong>1棵</strong> 敌国树木。</p> <p>树木的照片如下图所示。</p> <p></p> <img src='stimuli/trees/11.png', style='max-width: 30%;'> </img> <p><strong>你是否选择发射武器？</strong></p>","0",""
"","","","","","html-keyboard-response","30","175203","0.0-4.0-0.13","186","1","2022-11-25 14:20:28","7b1eb8be57ff77859c7d9ac988e43411","219.142.99.1","Mozilla/5.0 (Linux; U; Android 12; zh-cn; M2104K10AC Build/SP1A.210812.016) AppleWebKit/537.36 (KHTML, like Gecko) Version/4.0 Chrome/100.0.4896.127 Mobile Safari/537.36 XiaoMi/MiuiBrowser/17.1.8 swan-mibrowser","Xiaomi","Chrome","100.0.4896.127","AndroidOS","12","null","<div style=""font-size:60px;"">+</div>","null",""
"","","","","","html-button-response","31","177451","0.0-4.0-1.13","186","1","2022-11-25 14:20:28","7b1eb8be57ff77859c7d9ac988e43411","219.142.99.1","Mozilla/5.0 (Linux; U; Android 12; zh-cn; M2104K10AC Build/SP1A.210812.016) AppleWebKit/537.36 (KHTML, like Gecko) Version/4.0 Chrome/100.0.4896.127 Mobile Safari/537.36 XiaoMi/MiuiBrowser/17.1.8 swan-mibrowser","Xiaomi","Chrome","100.0.4896.127","AndroidOS","12","2225","<p>作为军队的指挥官，你可以选择发射导弹杀死 <strong>9名</strong> 敌国士兵，但会炸毁附近的 <strong>1棵</strong> 敌国树木。</p> <p>树木的照片如下图所示。</p> <p></p> <img src='stimuli/trees/16.png', style='max-width: 30%;'> </img> <p><strong>你是否选择发射武器？</strong></p>","0",""
"","","","","","html-keyboard-response","32","178454","0.0-4.0-0.14","186","1","2022-11-25 14:20:28","7b1eb8be57ff77859c7d9ac988e43411","219.142.99.1","Mozilla/5.0 (Linux; U; Android 12; zh-cn; M2104K10AC Build/SP1A.210812.016) AppleWebKit/537.36 (KHTML, like Gecko) Version/4.0 Chrome/100.0.4896.127 Mobile Safari/537.36 XiaoMi/MiuiBrowser/17.1.8 swan-mibrowser","Xiaomi","Chrome","100.0.4896.127","AndroidOS","12","null","<div style=""font-size:60px;"">+</div>","null",""
"","","","","","html-button-response","33","182878","0.0-4.0-1.14","186","1","2022-11-25 14:20:28","7b1eb8be57ff77859c7d9ac988e43411","219.142.99.1","Mozilla/5.0 (Linux; U; Android 12; zh-cn; M2104K10AC Build/SP1A.210812.016) AppleWebKit/537.36 (KHTML, like Gecko) Version/4.0 Chrome/100.0.4896.127 Mobile Safari/537.36 XiaoMi/MiuiBrowser/17.1.8 swan-mibrowser","Xiaomi","Chrome","100.0.4896.127","AndroidOS","12","4414","<p>作为军队的指挥官，你可以选择发射导弹杀死 <strong>9名</strong> 敌国士兵，但会误杀附近的 <strong>1名</strong> 敌国平民。</p> <p>平民照片如下图所示。</p> <p></p> <img src='stimuli/faces/PCF7.jpg', style='max-width: 30%;'> </img> <p><strong>你是否选择发射武器？</strong></p>","0",""
"","","","","","html-keyboard-response","34","183882","0.0-4.0-0.15","186","1","2022-11-25 14:20:28","7b1eb8be57ff77859c7d9ac988e43411","219.142.99.1","Mozilla/5.0 (Linux; U; Android 12; zh-cn; M2104K10AC Build/SP1A.210812.016) AppleWebKit/537.36 (KHTML, like Gecko) Version/4.0 Chrome/100.0.4896.127 Mobile Safari/537.36 XiaoMi/MiuiBrowser/17.1.8 swan-mibrowser","Xiaomi","Chrome","100.0.4896.127","AndroidOS","12","null","<div style=""font-size:60px;"">+</div>","null",""
"","","","","","html-button-response","35","187274","0.0-4.0-1.15","186","1","2022-11-25 14:20:28","7b1eb8be57ff77859c7d9ac988e43411","219.142.99.1","Mozilla/5.0 (Linux; U; Android 12; zh-cn; M2104K10AC Build/SP1A.210812.016) AppleWebKit/537.36 (KHTML, like Gecko) Version/4.0 Chrome/100.0.4896.127 Mobile Safari/537.36 XiaoMi/MiuiBrowser/17.1.8 swan-mibrowser","Xiaomi","Chrome","100.0.4896.127","AndroidOS","12","3367","<p>作为军队的指挥官，你可以选择发射导弹杀死 <strong>8名</strong> 敌国士兵，但会炸毁附近的 <strong>1棵</strong> 敌国树木。</p> <p>树木的照片如下图所示。</p> <p></p> <img src='stimuli/trees/8.png', style='max-width: 30%;'> </img> <p><strong>你是否选择发射武器？</strong></p>","0",""
"","","","","","html-keyboard-response","36","188277","0.0-4.0-0.16","186","1","2022-11-25 14:20:28","7b1eb8be57ff77859c7d9ac988e43411","219.142.99.1","Mozilla/5.0 (Linux; U; Android 12; zh-cn; M2104K10AC Build/SP1A.210812.016) AppleWebKit/537.36 (KHTML, like Gecko) Version/4.0 Chrome/100.0.4896.127 Mobile Safari/537.36 XiaoMi/MiuiBrowser/17.1.8 swan-mibrowser","Xiaomi","Chrome","100.0.4896.127","AndroidOS","12","null","<div style=""font-size:60px;"">+</div>","null",""
"","","","","","html-button-response","37","191687","0.0-4.0-1.16","186","1","2022-11-25 14:20:28","7b1eb8be57ff77859c7d9ac988e43411","219.142.99.1","Mozilla/5.0 (Linux; U; Android 12; zh-cn; M2104K10AC Build/SP1A.210812.016) AppleWebKit/537.36 (KHTML, like Gecko) Version/4.0 Chrome/100.0.4896.127 Mobile Safari/537.36 XiaoMi/MiuiBrowser/17.1.8 swan-mibrowser","Xiaomi","Chrome","100.0.4896.127","AndroidOS","12","3400","<p>作为军队的指挥官，你可以选择发射导弹杀死 <strong>10名</strong> 敌国士兵，但会误杀附近的 <strong>1名</strong> 敌国平民。</p> <p>平民照片如下图所示。</p> <p></p> <img src='stimuli/faces/PCF5.jpg', style='max-width: 30%;'> </img> <p><strong>你是否选择发射武器？</strong></p>","0",""
"","","","","","html-keyboard-response","38","192691","0.0-4.0-0.17","186","1","2022-11-25 14:20:28","7b1eb8be57ff77859c7d9ac988e43411","219.142.99.1","Mozilla/5.0 (Linux; U; Android 12; zh-cn; M2104K10AC Build/SP1A.210812.016) AppleWebKit/537.36 (KHTML, like Gecko) Version/4.0 Chrome/100.0.4896.127 Mobile Safari/537.36 XiaoMi/MiuiBrowser/17.1.8 swan-mibrowser","Xiaomi","Chrome","100.0.4896.127","AndroidOS","12","null","<div style=""font-size:60px;"">+</div>","null",""
"","","","","","html-button-response","39","195809","0.0-4.0-1.17","186","1","2022-11-25 14:20:28","7b1eb8be57ff77859c7d9ac988e43411","219.142.99.1","Mozilla/5.0 (Linux; U; Android 12; zh-cn; M2104K10AC Build/SP1A.210812.016) AppleWebKit/537.36 (KHTML, like Gecko) Version/4.0 Chrome/100.0.4896.127 Mobile Safari/537.36 XiaoMi/MiuiBrowser/17.1.8 swan-mibrowser","Xiaomi","Chrome","100.0.4896.127","AndroidOS","12","3091","<p>作为军队的指挥官，你可以选择发射导弹杀死 <strong>6名</strong> 敌国士兵，但会炸毁附近的 <strong>1棵</strong> 敌国树木。</p> <p>树木的照片如下图所示。</p> <p></p> <img src='stimuli/trees/14.png', style='max-width: 30%;'> </img> <p><strong>你是否选择发射武器？</strong></p>","0",""
"","","","","","html-keyboard-response","40","196812","0.0-4.0-0.18","186","1","2022-11-25 14:20:28","7b1eb8be57ff77859c7d9ac988e43411","219.142.99.1","Mozilla/5.0 (Linux; U; Android 12; zh-cn; M2104K10AC Build/SP1A.210812.016) AppleWebKit/537.36 (KHTML, like Gecko) Version/4.0 Chrome/100.0.4896.127 Mobile Safari/537.36 XiaoMi/MiuiBrowser/17.1.8 swan-mibrowser","Xiaomi","Chrome","100.0.4896.127","AndroidOS","12","null","<div style=""font-size:60px;"">+</div>","null",""
"","","","","","html-button-response","41","199380","0.0-4.0-1.18","186","1","2022-11-25 14:20:28","7b1eb8be57ff77859c7d9ac988e43411","219.142.99.1","Mozilla/5.0 (Linux; U; Android 12; zh-cn; M2104K10AC Build/SP1A.210812.016) AppleWebKit/537.36 (KHTML, like Gecko) Version/4.0 Chrome/100.0.4896.127 Mobile Safari/537.36 XiaoMi/MiuiBrowser/17.1.8 swan-mibrowser","Xiaomi","Chrome","100.0.4896.127","AndroidOS","12","2561","<p>作为军队的指挥官，你可以选择发射导弹杀死 <strong>8名</strong> 敌国士兵，但会炸毁附近的 <strong>1棵</strong> 敌国树木。</p> <p>树木的照片如下图所示。</p> <p></p> <img src='stimuli/trees/7.png', style='max-width: 30%;'> </img> <p><strong>你是否选择发射武器？</strong></p>","0",""
"","","","","","html-keyboard-response","42","200384","0.0-4.0-0.19","186","1","2022-11-25 14:20:28","7b1eb8be57ff77859c7d9ac988e43411","219.142.99.1","Mozilla/5.0 (Linux; U; Android 12; zh-cn; M2104K10AC Build/SP1A.210812.016) AppleWebKit/537.36 (KHTML, like Gecko) Version/4.0 Chrome/100.0.4896.127 Mobile Safari/537.36 XiaoMi/MiuiBrowser/17.1.8 swan-mibrowser","Xiaomi","Chrome","100.0.4896.127","AndroidOS","12","null","<div style=""font-size:60px;"">+</div>","null",""
"","","","","","html-button-response","43","214934","0.0-4.0-1.19","186","1","2022-11-25 14:20:28","7b1eb8be57ff77859c7d9ac988e43411","219.142.99.1","Mozilla/5.0 (Linux; U; Android 12; zh-cn; M2104K10AC Build/SP1A.210812.016) AppleWebKit/537.36 (KHTML, like Gecko) Version/4.0 Chrome/100.0.4896.127 Mobile Safari/537.36 XiaoMi/MiuiBrowser/17.1.8 swan-mibrowser","Xiaomi","Chrome","100.0.4896.127","AndroidOS","12","14524","<p>作为军队的指挥官，你可以选择发射导弹杀死 <strong>3名</strong> 敌国士兵，但会误杀附近的 <strong>1名</strong> 敌国平民。</p> <p>平民照片如下图所示。</p> <p></p> <img src='stimuli/faces/PCF6.jpg', style='max-width: 30%;'> </img> <p><strong>你是否选择发射武器？</strong></p>","1",""
"","","","","","html-keyboard-response","44","215938","0.0-4.0-0.20","186","1","2022-11-25 14:20:28","7b1eb8be57ff77859c7d9ac988e43411","219.142.99.1","Mozilla/5.0 (Linux; U; Android 12; zh-cn; M2104K10AC Build/SP1A.210812.016) AppleWebKit/537.36 (KHTML, like Gecko) Version/4.0 Chrome/100.0.4896.127 Mobile Safari/537.36 XiaoMi/MiuiBrowser/17.1.8 swan-mibrowser","Xiaomi","Chrome","100.0.4896.127","AndroidOS","12","null","<div style=""font-size:60px;"">+</div>","null",""
"","","","","","html-button-response","45","218003","0.0-4.0-1.20","186","1","2022-11-25 14:20:28","7b1eb8be57ff77859c7d9ac988e43411","219.142.99.1","Mozilla/5.0 (Linux; U; Android 12; zh-cn; M2104K10AC Build/SP1A.210812.016) AppleWebKit/537.36 (KHTML, like Gecko) Version/4.0 Chrome/100.0.4896.127 Mobile Safari/537.36 XiaoMi/MiuiBrowser/17.1.8 swan-mibrowser","Xiaomi","Chrome","100.0.4896.127","AndroidOS","12","2053","<p>作为军队的指挥官，你可以选择发射导弹杀死 <strong>2名</strong> 敌国士兵，但会误杀附近的 <strong>1名</strong> 敌国平民。</p> <p>平民照片如下图所示。</p> <p></p> <img src='stimuli/faces/PCM5.jpg', style='max-width: 30%;'> </img> <p><strong>你是否选择发射武器？</strong></p>","1",""
"","","","","","html-keyboard-response","46","219006","0.0-4.0-0.21","186","1","2022-11-25 14:20:28","7b1eb8be57ff77859c7d9ac988e43411","219.142.99.1","Mozilla/5.0 (Linux; U; Android 12; zh-cn; M2104K10AC Build/SP1A.210812.016) AppleWebKit/537.36 (KHTML, like Gecko) Version/4.0 Chrome/100.0.4896.127 Mobile Safari/537.36 XiaoMi/MiuiBrowser/17.1.8 swan-mibrowser","Xiaomi","Chrome","100.0.4896.127","AndroidOS","12","null","<div style=""font-size:60px;"">+</div>","null",""
"","","","","","html-button-response","47","223124","0.0-4.0-1.21","186","1","2022-11-25 14:20:28","7b1eb8be57ff77859c7d9ac988e43411","219.142.99.1","Mozilla/5.0 (Linux; U; Android 12; zh-cn; M2104K10AC Build/SP1A.210812.016) AppleWebKit/537.36 (KHTML, like Gecko) Version/4.0 Chrome/100.0.4896.127 Mobile Safari/537.36 XiaoMi/MiuiBrowser/17.1.8 swan-mibrowser","Xiaomi","Chrome","100.0.4896.127","AndroidOS","12","4103","<p>作为军队的指挥官，你可以选择发射导弹杀死 <strong>6名</strong> 敌国士兵，但会炸毁附近的 <strong>1棵</strong> 敌国树木。</p> <p>树木的照片如下图所示。</p> <p></p> <img src='stimuli/trees/2.png', style='max-width: 30%;'> </img> <p><strong>你是否选择发射武器？</strong></p>","0",""
"","","","","","html-keyboard-response","48","224128","0.0-4.0-0.22","186","1","2022-11-25 14:20:28","7b1eb8be57ff77859c7d9ac988e43411","219.142.99.1","Mozilla/5.0 (Linux; U; Android 12; zh-cn; M2104K10AC Build/SP1A.210812.016) AppleWebKit/537.36 (KHTML, like Gecko) Version/4.0 Chrome/100.0.4896.127 Mobile Safari/537.36 XiaoMi/MiuiBrowser/17.1.8 swan-mibrowser","Xiaomi","Chrome","100.0.4896.127","AndroidOS","12","null","<div style=""font-size:60px;"">+</div>","null",""
"","","","","","html-button-response","49","226219","0.0-4.0-1.22","186","1","2022-11-25 14:20:28","7b1eb8be57ff77859c7d9ac988e43411","219.142.99.1","Mozilla/5.0 (Linux; U; Android 12; zh-cn; M2104K10AC Build/SP1A.210812.016) AppleWebKit/537.36 (KHTML, like Gecko) Version/4.0 Chrome/100.0.4896.127 Mobile Safari/537.36 XiaoMi/MiuiBrowser/17.1.8 swan-mibrowser","Xiaomi","Chrome","100.0.4896.127","AndroidOS","12","2073","<p>作为军队的指挥官，你可以选择发射导弹杀死 <strong>8名</strong> 敌国士兵，但会误杀附近的 <strong>1名</strong> 敌国平民。</p> <p>平民照片如下图所示。</p> <p></p> <img src='stimuli/faces/PCM4.jpg', style='max-width: 30%;'> </img> <p><strong>你是否选择发射武器？</strong></p>","0",""
"","","","","","html-keyboard-response","50","227249","0.0-4.0-0.23","186","1","2022-11-25 14:20:28","7b1eb8be57ff77859c7d9ac988e43411","219.142.99.1","Mozilla/5.0 (Linux; U; Android 12; zh-cn; M2104K10AC Build/SP1A.210812.016) AppleWebKit/537.36 (KHTML, like Gecko) Version/4.0 Chrome/100.0.4896.127 Mobile Safari/537.36 XiaoMi/MiuiBrowser/17.1.8 swan-mibrowser","Xiaomi","Chrome","100.0.4896.127","AndroidOS","12","null","<div style=""font-size:60px;"">+</div>","null",""
"","","","","","html-button-response","51","229102","0.0-4.0-1.23","186","1","2022-11-25 14:20:28","7b1eb8be57ff77859c7d9ac988e43411","219.142.99.1","Mozilla/5.0 (Linux; U; Android 12; zh-cn; M2104K10AC Build/SP1A.210812.016) AppleWebKit/537.36 (KHTML, like Gecko) Version/4.0 Chrome/100.0.4896.127 Mobile Safari/537.36 XiaoMi/MiuiBrowser/17.1.8 swan-mibrowser","Xiaomi","Chrome","100.0.4896.127","AndroidOS","12","1844","<p>作为军队的指挥官，你可以选择发射导弹杀死 <strong>7名</strong> 敌国士兵，但会炸毁附近的 <strong>1棵</strong> 敌国树木。</p> <p>树木的照片如下图所示。</p> <p></p> <img src='stimuli/trees/11.png', style='max-width: 30%;'> </img> <p><strong>你是否选择发射武器？</strong></p>","0",""
"","","","","","html-keyboard-response","52","230106","0.0-4.0-0.24","186","1","2022-11-25 14:20:28","7b1eb8be57ff77859c7d9ac988e43411","219.142.99.1","Mozilla/5.0 (Linux; U; Android 12; zh-cn; M2104K10AC Build/SP1A.210812.016) AppleWebKit/537.36 (KHTML, like Gecko) Version/4.0 Chrome/100.0.4896.127 Mobile Safari/537.36 XiaoMi/MiuiBrowser/17.1.8 swan-mibrowser","Xiaomi","Chrome","100.0.4896.127","AndroidOS","12","null","<div style=""font-size:60px;"">+</div>","null",""
"","","","","","html-button-response","53","232617","0.0-4.0-1.24","186","1","2022-11-25 14:20:28","7b1eb8be57ff77859c7d9ac988e43411","219.142.99.1","Mozilla/5.0 (Linux; U; Android 12; zh-cn; M2104K10AC Build/SP1A.210812.016) AppleWebKit/537.36 (KHTML, like Gecko) Version/4.0 Chrome/100.0.4896.127 Mobile Safari/537.36 XiaoMi/MiuiBrowser/17.1.8 swan-mibrowser","Xiaomi","Chrome","100.0.4896.127","AndroidOS","12","2479","<p>作为军队的指挥官，你可以选择发射导弹杀死 <strong>2名</strong> 敌国士兵，但会误杀附近的 <strong>1名</strong> 敌国平民。</p> <p>平民照片如下图所示。</p> <p></p> <img src='stimuli/faces/PCM7.jpg', style='max-width: 30%;'> </img> <p><strong>你是否选择发射武器？</strong></p>","1",""
"","","","","","html-keyboard-response","54","233621","0.0-4.0-0.25","186","1","2022-11-25 14:20:28","7b1eb8be57ff77859c7d9ac988e43411","219.142.99.1","Mozilla/5.0 (Linux; U; Android 12; zh-cn; M2104K10AC Build/SP1A.210812.016) AppleWebKit/537.36 (KHTML, like Gecko) Version/4.0 Chrome/100.0.4896.127 Mobile Safari/537.36 XiaoMi/MiuiBrowser/17.1.8 swan-mibrowser","Xiaomi","Chrome","100.0.4896.127","AndroidOS","12","null","<div style=""font-size:60px;"">+</div>","null",""
"","","","","","html-button-response","55","235503","0.0-4.0-1.25","186","1","2022-11-25 14:20:28","7b1eb8be57ff77859c7d9ac988e43411","219.142.99.1","Mozilla/5.0 (Linux; U; Android 12; zh-cn; M2104K10AC Build/SP1A.210812.016) AppleWebKit/537.36 (KHTML, like Gecko) Version/4.0 Chrome/100.0.4896.127 Mobile Safari/537.36 XiaoMi/MiuiBrowser/17.1.8 swan-mibrowser","Xiaomi","Chrome","100.0.4896.127","AndroidOS","12","1863","<p>作为军队的指挥官，你可以选择发射导弹杀死 <strong>5名</strong> 敌国士兵，但会误杀附近的 <strong>1名</strong> 敌国平民。</p> <p>平民照片如下图所示。</p> <p></p> <img src='stimuli/faces/PCM6.jpg', style='max-width: 30%;'> </img> <p><strong>你是否选择发射武器？</strong></p>","0",""
"","","","","","html-keyboard-response","56","236507","0.0-4.0-0.26","186","1","2022-11-25 14:20:28","7b1eb8be57ff77859c7d9ac988e43411","219.142.99.1","Mozilla/5.0 (Linux; U; Android 12; zh-cn; M2104K10AC Build/SP1A.210812.016) AppleWebKit/537.36 (KHTML, like Gecko) Version/4.0 Chrome/100.0.4896.127 Mobile Safari/537.36 XiaoMi/MiuiBrowser/17.1.8 swan-mibrowser","Xiaomi","Chrome","100.0.4896.127","AndroidOS","12","null","<div style=""font-size:60px;"">+</div>","null",""
"","","","","","html-button-response","57","238574","0.0-4.0-1.26","186","1","2022-11-25 14:20:28","7b1eb8be57ff77859c7d9ac988e43411","219.142.99.1","Mozilla/5.0 (Linux; U; Android 12; zh-cn; M2104K10AC Build/SP1A.210812.016) AppleWebKit/537.36 (KHTML, like Gecko) Version/4.0 Chrome/100.0.4896.127 Mobile Safari/537.36 XiaoMi/MiuiBrowser/17.1.8 swan-mibrowser","Xiaomi","Chrome","100.0.4896.127","AndroidOS","12","2052","<p>作为军队的指挥官，你可以选择发射导弹杀死 <strong>7名</strong> 敌国士兵，但会炸毁附近的 <strong>1棵</strong> 敌国树木。</p> <p>树木的照片如下图所示。</p> <p></p> <img src='stimuli/trees/13.png', style='max-width: 30%;'> </img> <p><strong>你是否选择发射武器？</strong></p>","0",""
"","","","","","html-keyboard-response","58","239579","0.0-4.0-0.27","186","1","2022-11-25 14:20:28","7b1eb8be57ff77859c7d9ac988e43411","219.142.99.1","Mozilla/5.0 (Linux; U; Android 12; zh-cn; M2104K10AC Build/SP1A.210812.016) AppleWebKit/537.36 (KHTML, like Gecko) Version/4.0 Chrome/100.0.4896.127 Mobile Safari/537.36 XiaoMi/MiuiBrowser/17.1.8 swan-mibrowser","Xiaomi","Chrome","100.0.4896.127","AndroidOS","12","null","<div style=""font-size:60px;"">+</div>","null",""
"","","","","","html-button-response","59","242134","0.0-4.0-1.27","186","1","2022-11-25 14:20:28","7b1eb8be57ff77859c7d9ac988e43411","219.142.99.1","Mozilla/5.0 (Linux; U; Android 12; zh-cn; M2104K10AC Build/SP1A.210812.016) AppleWebKit/537.36 (KHTML, like Gecko) Version/4.0 Chrome/100.0.4896.127 Mobile Safari/537.36 XiaoMi/MiuiBrowser/17.1.8 swan-mibrowser","Xiaomi","Chrome","100.0.4896.127","AndroidOS","12","2525","<p>作为军队的指挥官，你可以选择发射导弹杀死 <strong>9名</strong> 敌国士兵，但会误杀附近的 <strong>1名</strong> 敌国平民。</p> <p>平民照片如下图所示。</p> <p></p> <img src='stimuli/faces/PCM1.jpg', style='max-width: 30%;'> </img> <p><strong>你是否选择发射武器？</strong></p>","0",""
"","","","","","html-keyboard-response","60","243137","0.0-4.0-0.28","186","1","2022-11-25 14:20:28","7b1eb8be57ff77859c7d9ac988e43411","219.142.99.1","Mozilla/5.0 (Linux; U; Android 12; zh-cn; M2104K10AC Build/SP1A.210812.016) AppleWebKit/537.36 (KHTML, like Gecko) Version/4.0 Chrome/100.0.4896.127 Mobile Safari/537.36 XiaoMi/MiuiBrowser/17.1.8 swan-mibrowser","Xiaomi","Chrome","100.0.4896.127","AndroidOS","12","null","<div style=""font-size:60px;"">+</div>","null",""
"","","","","","html-button-response","61","245526","0.0-4.0-1.28","186","1","2022-11-25 14:20:28","7b1eb8be57ff77859c7d9ac988e43411","219.142.99.1","Mozilla/5.0 (Linux; U; Android 12; zh-cn; M2104K10AC Build/SP1A.210812.016) AppleWebKit/537.36 (KHTML, like Gecko) Version/4.0 Chrome/100.0.4896.127 Mobile Safari/537.36 XiaoMi/MiuiBrowser/17.1.8 swan-mibrowser","Xiaomi","Chrome","100.0.4896.127","AndroidOS","12","2377","<p>作为军队的指挥官，你可以选择发射导弹杀死 <strong>10名</strong> 敌国士兵，但会误杀附近的 <strong>1名</strong> 敌国平民。</p> <p>平民照片如下图所示。</p> <p></p> <img src='stimuli/faces/PCM6.jpg', style='max-width: 30%;'> </img> <p><strong>你是否选择发射武器？</strong></p>","0",""
"","","","","","html-keyboard-response","62","246530","0.0-4.0-0.29","186","1","2022-11-25 14:20:28","7b1eb8be57ff77859c7d9ac988e43411","219.142.99.1","Mozilla/5.0 (Linux; U; Android 12; zh-cn; M2104K10AC Build/SP1A.210812.016) AppleWebKit/537.36 (KHTML, like Gecko) Version/4.0 Chrome/100.0.4896.127 Mobile Safari/537.36 XiaoMi/MiuiBrowser/17.1.8 swan-mibrowser","Xiaomi","Chrome","100.0.4896.127","AndroidOS","12","null","<div style=""font-size:60px;"">+</div>","null",""
"","","","","","html-button-response","63","249229","0.0-4.0-1.29","186","1","2022-11-25 14:20:28","7b1eb8be57ff77859c7d9ac988e43411","219.142.99.1","Mozilla/5.0 (Linux; U; Android 12; zh-cn; M2104K10AC Build/SP1A.210812.016) AppleWebKit/537.36 (KHTML, like Gecko) Version/4.0 Chrome/100.0.4896.127 Mobile Safari/537.36 XiaoMi/MiuiBrowser/17.1.8 swan-mibrowser","Xiaomi","Chrome","100.0.4896.127","AndroidOS","12","2683","<p>作为军队的指挥官，你可以选择发射导弹杀死 <strong>4名</strong> 敌国士兵，但会误杀附近的 <strong>1名</strong> 敌国平民。</p> <p>平民照片如下图所示。</p> <p></p> <img src='stimuli/faces/PCM8.jpg', style='max-width: 30%;'> </img> <p><strong>你是否选择发射武器？</strong></p>","0",""
"","","","","","html-keyboard-response","64","250233","0.0-4.0-0.30","186","1","2022-11-25 14:20:28","7b1eb8be57ff77859c7d9ac988e43411","219.142.99.1","Mozilla/5.0 (Linux; U; Android 12; zh-cn; M2104K10AC Build/SP1A.210812.016) AppleWebKit/537.36 (KHTML, like Gecko) Version/4.0 Chrome/100.0.4896.127 Mobile Safari/537.36 XiaoMi/MiuiBrowser/17.1.8 swan-mibrowser","Xiaomi","Chrome","100.0.4896.127","AndroidOS","12","null","<div style=""font-size:60px;"">+</div>","null",""
"","","","","","html-button-response","65","252357","0.0-4.0-1.30","186","1","2022-11-25 14:20:28","7b1eb8be57ff77859c7d9ac988e43411","219.142.99.1","Mozilla/5.0 (Linux; U; Android 12; zh-cn; M2104K10AC Build/SP1A.210812.016) AppleWebKit/537.36 (KHTML, like Gecko) Version/4.0 Chrome/100.0.4896.127 Mobile Safari/537.36 XiaoMi/MiuiBrowser/17.1.8 swan-mibrowser","Xiaomi","Chrome","100.0.4896.127","AndroidOS","12","2116","<p>作为军队的指挥官，你可以选择发射导弹杀死 <strong>6名</strong> 敌国士兵，但会误杀附近的 <strong>1名</strong> 敌国平民。</p> <p>平民照片如下图所示。</p> <p></p> <img src='stimuli/faces/PCM7.jpg', style='max-width: 30%;'> </img> <p><strong>你是否选择发射武器？</strong></p>","0",""
"","","","","","html-keyboard-response","66","253362","0.0-4.0-0.31","186","1","2022-11-25 14:20:28","7b1eb8be57ff77859c7d9ac988e43411","219.142.99.1","Mozilla/5.0 (Linux; U; Android 12; zh-cn; M2104K10AC Build/SP1A.210812.016) AppleWebKit/537.36 (KHTML, like Gecko) Version/4.0 Chrome/100.0.4896.127 Mobile Safari/537.36 XiaoMi/MiuiBrowser/17.1.8 swan-mibrowser","Xiaomi","Chrome","100.0.4896.127","AndroidOS","12","null","<div style=""font-size:60px;"">+</div>","null",""
"","","","","","html-button-response","67","255290","0.0-4.0-1.31","186","1","2022-11-25 14:20:28","7b1eb8be57ff77859c7d9ac988e43411","219.142.99.1","Mozilla/5.0 (Linux; U; Android 12; zh-cn; M2104K10AC Build/SP1A.210812.016) AppleWebKit/537.36 (KHTML, like Gecko) Version/4.0 Chrome/100.0.4896.127 Mobile Safari/537.36 XiaoMi/MiuiBrowser/17.1.8 swan-mibrowser","Xiaomi","Chrome","100.0.4896.127","AndroidOS","12","1914","<p>作为军队的指挥官，你可以选择发射导弹杀死 <strong>2名</strong> 敌国士兵，但会炸毁附近的 <strong>1棵</strong> 敌国树木。</p> <p>树木的照片如下图所示。</p> <p></p> <img src='stimuli/trees/13.png', style='max-width: 30%;'> </img> <p><strong>你是否选择发射武器？</strong></p>","0",""
"","","","","","html-keyboard-response","68","256294","0.0-4.0-0.32","186","1","2022-11-25 14:20:28","7b1eb8be57ff77859c7d9ac988e43411","219.142.99.1","Mozilla/5.0 (Linux; U; Android 12; zh-cn; M2104K10AC Build/SP1A.210812.016) AppleWebKit/537.36 (KHTML, like Gecko) Version/4.0 Chrome/100.0.4896.127 Mobile Safari/537.36 XiaoMi/MiuiBrowser/17.1.8 swan-mibrowser","Xiaomi","Chrome","100.0.4896.127","AndroidOS","12","null","<div style=""font-size:60px;"">+</div>","null",""
"","","","","","html-button-response","69","258068","0.0-4.0-1.32","186","1","2022-11-25 14:20:28","7b1eb8be57ff77859c7d9ac988e43411","219.142.99.1","Mozilla/5.0 (Linux; U; Android 12; zh-cn; M2104K10AC Build/SP1A.210812.016) AppleWebKit/537.36 (KHTML, like Gecko) Version/4.0 Chrome/100.0.4896.127 Mobile Safari/537.36 XiaoMi/MiuiBrowser/17.1.8 swan-mibrowser","Xiaomi","Chrome","100.0.4896.127","AndroidOS","12","1739","<p>作为军队的指挥官，你可以选择发射导弹杀死 <strong>4名</strong> 敌国士兵，但会炸毁附近的 <strong>1棵</strong> 敌国树木。</p> <p>树木的照片如下图所示。</p> <p></p> <img src='stimuli/trees/4.png', style='max-width: 30%;'> </img> <p><strong>你是否选择发射武器？</strong></p>","0",""
"","","","","","html-keyboard-response","70","259072","0.0-4.0-0.33","186","1","2022-11-25 14:20:28","7b1eb8be57ff77859c7d9ac988e43411","219.142.99.1","Mozilla/5.0 (Linux; U; Android 12; zh-cn; M2104K10AC Build/SP1A.210812.016) AppleWebKit/537.36 (KHTML, like Gecko) Version/4.0 Chrome/100.0.4896.127 Mobile Safari/537.36 XiaoMi/MiuiBrowser/17.1.8 swan-mibrowser","Xiaomi","Chrome","100.0.4896.127","AndroidOS","12","null","<div style=""font-size:60px;"">+</div>","null",""
"","","","","","html-button-response","71","260764","0.0-4.0-1.33","186","1","2022-11-25 14:20:28","7b1eb8be57ff77859c7d9ac988e43411","219.142.99.1","Mozilla/5.0 (Linux; U; Android 12; zh-cn; M2104K10AC Build/SP1A.210812.016) AppleWebKit/537.36 (KHTML, like Gecko) Version/4.0 Chrome/100.0.4896.127 Mobile Safari/537.36 XiaoMi/MiuiBrowser/17.1.8 swan-mibrowser","Xiaomi","Chrome","100.0.4896.127","AndroidOS","12","1652","<p>作为军队的指挥官，你可以选择发射导弹杀死 <strong>8名</strong> 敌国士兵，但会炸毁附近的 <strong>1棵</strong> 敌国树木。</p> <p>树木的照片如下图所示。</p> <p></p> <img src='stimuli/trees/12.png', style='max-width: 30%;'> </img> <p><strong>你是否选择发射武器？</strong></p>","0",""
"","","","","","html-keyboard-response","72","261768","0.0-4.0-0.34","186","1","2022-11-25 14:20:28","7b1eb8be57ff77859c7d9ac988e43411","219.142.99.1","Mozilla/5.0 (Linux; U; Android 12; zh-cn; M2104K10AC Build/SP1A.210812.016) AppleWebKit/537.36 (KHTML, like Gecko) Version/4.0 Chrome/100.0.4896.127 Mobile Safari/537.36 XiaoMi/MiuiBrowser/17.1.8 swan-mibrowser","Xiaomi","Chrome","100.0.4896.127","AndroidOS","12","null","<div style=""font-size:60px;"">+</div>","null",""
"","","","","","html-button-response","73","266458","0.0-4.0-1.34","186","1","2022-11-25 14:20:28","7b1eb8be57ff77859c7d9ac988e43411","219.142.99.1","Mozilla/5.0 (Linux; U; Android 12; zh-cn; M2104K10AC Build/SP1A.210812.016) AppleWebKit/537.36 (KHTML, like Gecko) Version/4.0 Chrome/100.0.4896.127 Mobile Safari/537.36 XiaoMi/MiuiBrowser/17.1.8 swan-mibrowser","Xiaomi","Chrome","100.0.4896.127","AndroidOS","12","4678","<p>作为军队的指挥官，你可以选择发射导弹杀死 <strong>6名</strong> 敌国士兵，但会炸毁附近的 <strong>1棵</strong> 敌国树木。</p> <p>树木的照片如下图所示。</p> <p></p> <img src='stimuli/trees/1.png', style='max-width: 30%;'> </img> <p><strong>你是否选择发射武器？</strong></p>","0",""
"","","","","","html-keyboard-response","74","267463","0.0-4.0-0.35","186","1","2022-11-25 14:20:28","7b1eb8be57ff77859c7d9ac988e43411","219.142.99.1","Mozilla/5.0 (Linux; U; Android 12; zh-cn; M2104K10AC Build/SP1A.210812.016) AppleWebKit/537.36 (KHTML, like Gecko) Version/4.0 Chrome/100.0.4896.127 Mobile Safari/537.36 XiaoMi/MiuiBrowser/17.1.8 swan-mibrowser","Xiaomi","Chrome","100.0.4896.127","AndroidOS","12","null","<div style=""font-size:60px;"">+</div>","null",""
"","","","","","html-button-response","75","269566","0.0-4.0-1.35","186","1","2022-11-25 14:20:28","7b1eb8be57ff77859c7d9ac988e43411","219.142.99.1","Mozilla/5.0 (Linux; U; Android 12; zh-cn; M2104K10AC Build/SP1A.210812.016) AppleWebKit/537.36 (KHTML, like Gecko) Version/4.0 Chrome/100.0.4896.127 Mobile Safari/537.36 XiaoMi/MiuiBrowser/17.1.8 swan-mibrowser","Xiaomi","Chrome","100.0.4896.127","AndroidOS","12","2061","<p>作为军队的指挥官，你可以选择发射导弹杀死 <strong>8名</strong> 敌国士兵，但会误杀附近的 <strong>1名</strong> 敌国平民。</p> <p>平民照片如下图所示。</p> <p></p> <img src='stimuli/faces/PCM8.jpg', style='max-width: 30%;'> </img> <p><strong>你是否选择发射武器？</strong></p>","0",""
"","","","","","html-keyboard-response","76","270571","0.0-4.0-0.36","186","1","2022-11-25 14:20:28","7b1eb8be57ff77859c7d9ac988e43411","219.142.99.1","Mozilla/5.0 (Linux; U; Android 12; zh-cn; M2104K10AC Build/SP1A.210812.016) AppleWebKit/537.36 (KHTML, like Gecko) Version/4.0 Chrome/100.0.4896.127 Mobile Safari/537.36 XiaoMi/MiuiBrowser/17.1.8 swan-mibrowser","Xiaomi","Chrome","100.0.4896.127","AndroidOS","12","null","<div style=""font-size:60px;"">+</div>","null",""
"","","","","","html-button-response","77","273346","0.0-4.0-1.36","186","1","2022-11-25 14:20:28","7b1eb8be57ff77859c7d9ac988e43411","219.142.99.1","Mozilla/5.0 (Linux; U; Android 12; zh-cn; M2104K10AC Build/SP1A.210812.016) AppleWebKit/537.36 (KHTML, like Gecko) Version/4.0 Chrome/100.0.4896.127 Mobile Safari/537.36 XiaoMi/MiuiBrowser/17.1.8 swan-mibrowser","Xiaomi","Chrome","100.0.4896.127","AndroidOS","12","2739","<p>作为军队的指挥官，你可以选择发射导弹杀死 <strong>4名</strong> 敌国士兵，但会误杀附近的 <strong>1名</strong> 敌国平民。</p> <p>平民照片如下图所示。</p> <p></p> <img src='stimuli/faces/PCF1.jpg', style='max-width: 30%;'> </img> <p><strong>你是否选择发射武器？</strong></p>","0",""
"","","","","","html-keyboard-response","78","274351","0.0-4.0-0.37","186","1","2022-11-25 14:20:28","7b1eb8be57ff77859c7d9ac988e43411","219.142.99.1","Mozilla/5.0 (Linux; U; Android 12; zh-cn; M2104K10AC Build/SP1A.210812.016) AppleWebKit/537.36 (KHTML, like Gecko) Version/4.0 Chrome/100.0.4896.127 Mobile Safari/537.36 XiaoMi/MiuiBrowser/17.1.8 swan-mibrowser","Xiaomi","Chrome","100.0.4896.127","AndroidOS","12","null","<div style=""font-size:60px;"">+</div>","null",""
"","","","","","html-button-response","79","277329","0.0-4.0-1.37","186","1","2022-11-25 14:20:28","7b1eb8be57ff77859c7d9ac988e43411","219.142.99.1","Mozilla/5.0 (Linux; U; Android 12; zh-cn; M2104K10AC Build/SP1A.210812.016) AppleWebKit/537.36 (KHTML, like Gecko) Version/4.0 Chrome/100.0.4896.127 Mobile Safari/537.36 XiaoMi/MiuiBrowser/17.1.8 swan-mibrowser","Xiaomi","Chrome","100.0.4896.127","AndroidOS","12","2939","<p>作为军队的指挥官，你可以选择发射导弹杀死 <strong>5名</strong> 敌国士兵，但会炸毁附近的 <strong>1棵</strong> 敌国树木。</p> <p>树木的照片如下图所示。</p> <p></p> <img src='stimuli/trees/15.png', style='max-width: 30%;'> </img> <p><strong>你是否选择发射武器？</strong></p>","0",""
"","","","","","html-keyboard-response","80","278333","0.0-4.0-0.38","186","1","2022-11-25 14:20:28","7b1eb8be57ff77859c7d9ac988e43411","219.142.99.1","Mozilla/5.0 (Linux; U; Android 12; zh-cn; M2104K10AC Build/SP1A.210812.016) AppleWebKit/537.36 (KHTML, like Gecko) Version/4.0 Chrome/100.0.4896.127 Mobile Safari/537.36 XiaoMi/MiuiBrowser/17.1.8 swan-mibrowser","Xiaomi","Chrome","100.0.4896.127","AndroidOS","12","null","<div style=""font-size:60px;"">+</div>","null",""
"","","","","","html-button-response","81","281259","0.0-4.0-1.38","186","1","2022-11-25 14:20:28","7b1eb8be57ff77859c7d9ac988e43411","219.142.99.1","Mozilla/5.0 (Linux; U; Android 12; zh-cn; M2104K10AC Build/SP1A.210812.016) AppleWebKit/537.36 (KHTML, like Gecko) Version/4.0 Chrome/100.0.4896.127 Mobile Safari/537.36 XiaoMi/MiuiBrowser/17.1.8 swan-mibrowser","Xiaomi","Chrome","100.0.4896.127","AndroidOS","12","2912","<p>作为军队的指挥官，你可以选择发射导弹杀死 <strong>8名</strong> 敌国士兵，但会炸毁附近的 <strong>1棵</strong> 敌国树木。</p> <p>树木的照片如下图所示。</p> <p></p> <img src='stimuli/trees/3.png', style='max-width: 30%;'> </img> <p><strong>你是否选择发射武器？</strong></p>","0",""
"","","","","","html-keyboard-response","82","282264","0.0-4.0-0.39","186","1","2022-11-25 14:20:28","7b1eb8be57ff77859c7d9ac988e43411","219.142.99.1","Mozilla/5.0 (Linux; U; Android 12; zh-cn; M2104K10AC Build/SP1A.210812.016) AppleWebKit/537.36 (KHTML, like Gecko) Version/4.0 Chrome/100.0.4896.127 Mobile Safari/537.36 XiaoMi/MiuiBrowser/17.1.8 swan-mibrowser","Xiaomi","Chrome","100.0.4896.127","AndroidOS","12","null","<div style=""font-size:60px;"">+</div>","null",""
"","","","","","html-button-response","83","286443","0.0-4.0-1.39","186","1","2022-11-25 14:20:28","7b1eb8be57ff77859c7d9ac988e43411","219.142.99.1","Mozilla/5.0 (Linux; U; Android 12; zh-cn; M2104K10AC Build/SP1A.210812.016) AppleWebKit/537.36 (KHTML, like Gecko) Version/4.0 Chrome/100.0.4896.127 Mobile Safari/537.36 XiaoMi/MiuiBrowser/17.1.8 swan-mibrowser","Xiaomi","Chrome","100.0.4896.127","AndroidOS","12","4162","<p>作为军队的指挥官，你可以选择发射导弹杀死 <strong>9名</strong> 敌国士兵，但会炸毁附近的 <strong>1棵</strong> 敌国树木。</p> <p>树木的照片如下图所示。</p> <p></p> <img src='stimuli/trees/10.png', style='max-width: 30%;'> </img> <p><strong>你是否选择发射武器？</strong></p>","0",""
"","","","","","html-keyboard-response","84","287448","0.0-4.0-0.40","186","1","2022-11-25 14:20:28","7b1eb8be57ff77859c7d9ac988e43411","219.142.99.1","Mozilla/5.0 (Linux; U; Android 12; zh-cn; M2104K10AC Build/SP1A.210812.016) AppleWebKit/537.36 (KHTML, like Gecko) Version/4.0 Chrome/100.0.4896.127 Mobile Safari/537.36 XiaoMi/MiuiBrowser/17.1.8 swan-mibrowser","Xiaomi","Chrome","100.0.4896.127","AndroidOS","12","null","<div style=""font-size:60px;"">+</div>","null",""
"","","","","","html-button-response","85","289798","0.0-4.0-1.40","186","1","2022-11-25 14:20:28","7b1eb8be57ff77859c7d9ac988e43411","219.142.99.1","Mozilla/5.0 (Linux; U; Android 12; zh-cn; M2104K10AC Build/SP1A.210812.016) AppleWebKit/537.36 (KHTML, like Gecko) Version/4.0 Chrome/100.0.4896.127 Mobile Safari/537.36 XiaoMi/MiuiBrowser/17.1.8 swan-mibrowser","Xiaomi","Chrome","100.0.4896.127","AndroidOS","12","2306","<p>作为军队的指挥官，你可以选择发射导弹杀死 <strong>1名</strong> 敌国士兵，但会误杀附近的 <strong>1名</strong> 敌国平民。</p> <p>平民照片如下图所示。</p> <p></p> <img src='stimuli/faces/PCM1.jpg', style='max-width: 30%;'> </img> <p><strong>你是否选择发射武器？</strong></p>","1",""
"","","","","","html-keyboard-response","86","290805","0.0-4.0-0.41","186","1","2022-11-25 14:20:28","7b1eb8be57ff77859c7d9ac988e43411","219.142.99.1","Mozilla/5.0 (Linux; U; Android 12; zh-cn; M2104K10AC Build/SP1A.210812.016) AppleWebKit/537.36 (KHTML, like Gecko) Version/4.0 Chrome/100.0.4896.127 Mobile Safari/537.36 XiaoMi/MiuiBrowser/17.1.8 swan-mibrowser","Xiaomi","Chrome","100.0.4896.127","AndroidOS","12","null","<div style=""font-size:60px;"">+</div>","null",""
"","","","","","html-button-response","87","292749","0.0-4.0-1.41","186","1","2022-11-25 14:20:28","7b1eb8be57ff77859c7d9ac988e43411","219.142.99.1","Mozilla/5.0 (Linux; U; Android 12; zh-cn; M2104K10AC Build/SP1A.210812.016) AppleWebKit/537.36 (KHTML, like Gecko) Version/4.0 Chrome/100.0.4896.127 Mobile Safari/537.36 XiaoMi/MiuiBrowser/17.1.8 swan-mibrowser","Xiaomi","Chrome","100.0.4896.127","AndroidOS","12","1896","<p>作为军队的指挥官，你可以选择发射导弹杀死 <strong>5名</strong> 敌国士兵，但会炸毁附近的 <strong>1棵</strong> 敌国树木。</p> <p>树木的照片如下图所示。</p> <p></p> <img src='stimuli/trees/5.png', style='max-width: 30%;'> </img> <p><strong>你是否选择发射武器？</strong></p>","0",""
"","","","","","html-keyboard-response","88","293757","0.0-4.0-0.42","186","1","2022-11-25 14:20:28","7b1eb8be57ff77859c7d9ac988e43411","219.142.99.1","Mozilla/5.0 (Linux; U; Android 12; zh-cn; M2104K10AC Build/SP1A.210812.016) AppleWebKit/537.36 (KHTML, like Gecko) Version/4.0 Chrome/100.0.4896.127 Mobile Safari/537.36 XiaoMi/MiuiBrowser/17.1.8 swan-mibrowser","Xiaomi","Chrome","100.0.4896.127","AndroidOS","12","null","<div style=""font-size:60px;"">+</div>","null",""
"","","","","","html-button-response","89","296338","0.0-4.0-1.42","186","1","2022-11-25 14:20:28","7b1eb8be57ff77859c7d9ac988e43411","219.142.99.1","Mozilla/5.0 (Linux; U; Android 12; zh-cn; M2104K10AC Build/SP1A.210812.016) AppleWebKit/537.36 (KHTML, like Gecko) Version/4.0 Chrome/100.0.4896.127 Mobile Safari/537.36 XiaoMi/MiuiBrowser/17.1.8 swan-mibrowser","Xiaomi","Chrome","100.0.4896.127","AndroidOS","12","2555","<p>作为军队的指挥官，你可以选择发射导弹杀死 <strong>3名</strong> 敌国士兵，但会误杀附近的 <strong>1名</strong> 敌国平民。</p> <p>平民照片如下图所示。</p> <p></p> <img src='stimuli/faces/PCM2.jpg', style='max-width: 30%;'> </img> <p><strong>你是否选择发射武器？</strong></p>","1",""
"","","","","","html-keyboard-response","90","297343","0.0-4.0-0.43","186","1","2022-11-25 14:20:28","7b1eb8be57ff77859c7d9ac988e43411","219.142.99.1","Mozilla/5.0 (Linux; U; Android 12; zh-cn; M2104K10AC Build/SP1A.210812.016) AppleWebKit/537.36 (KHTML, like Gecko) Version/4.0 Chrome/100.0.4896.127 Mobile Safari/537.36 XiaoMi/MiuiBrowser/17.1.8 swan-mibrowser","Xiaomi","Chrome","100.0.4896.127","AndroidOS","12","null","<div style=""font-size:60px;"">+</div>","null",""
"","","","","","html-button-response","91","298709","0.0-4.0-1.43","186","1","2022-11-25 14:20:28","7b1eb8be57ff77859c7d9ac988e43411","219.142.99.1","Mozilla/5.0 (Linux; U; Android 12; zh-cn; M2104K10AC Build/SP1A.210812.016) AppleWebKit/537.36 (KHTML, like Gecko) Version/4.0 Chrome/100.0.4896.127 Mobile Safari/537.36 XiaoMi/MiuiBrowser/17.1.8 swan-mibrowser","Xiaomi","Chrome","100.0.4896.127","AndroidOS","12","1354","<p>作为军队的指挥官，你可以选择发射导弹杀死 <strong>6名</strong> 敌国士兵，但会炸毁附近的 <strong>1棵</strong> 敌国树木。</p> <p>树木的照片如下图所示。</p> <p></p> <img src='stimuli/trees/4.png', style='max-width: 30%;'> </img> <p><strong>你是否选择发射武器？</strong></p>","0",""
"","","","","","html-keyboard-response","92","299714","0.0-4.0-0.44","186","1","2022-11-25 14:20:28","7b1eb8be57ff77859c7d9ac988e43411","219.142.99.1","Mozilla/5.0 (Linux; U; Android 12; zh-cn; M2104K10AC Build/SP1A.210812.016) AppleWebKit/537.36 (KHTML, like Gecko) Version/4.0 Chrome/100.0.4896.127 Mobile Safari/537.36 XiaoMi/MiuiBrowser/17.1.8 swan-mibrowser","Xiaomi","Chrome","100.0.4896.127","AndroidOS","12","null","<div style=""font-size:60px;"">+</div>","null",""
"","","","","","html-button-response","93","301279","0.0-4.0-1.44","186","1","2022-11-25 14:20:28","7b1eb8be57ff77859c7d9ac988e43411","219.142.99.1","Mozilla/5.0 (Linux; U; Android 12; zh-cn; M2104K10AC Build/SP1A.210812.016) AppleWebKit/537.36 (KHTML, like Gecko) Version/4.0 Chrome/100.0.4896.127 Mobile Safari/537.36 XiaoMi/MiuiBrowser/17.1.8 swan-mibrowser","Xiaomi","Chrome","100.0.4896.127","AndroidOS","12","1521","<p>作为军队的指挥官，你可以选择发射导弹杀死 <strong>10名</strong> 敌国士兵，但会误杀附近的 <strong>1名</strong> 敌国平民。</p> <p>平民照片如下图所示。</p> <p></p> <img src='stimuli/faces/PCM2.jpg', style='max-width: 30%;'> </img> <p><strong>你是否选择发射武器？</strong></p>","0",""
"","","","","","html-keyboard-response","94","302287","0.0-4.0-0.45","186","1","2022-11-25 14:20:28","7b1eb8be57ff77859c7d9ac988e43411","219.142.99.1","Mozilla/5.0 (Linux; U; Android 12; zh-cn; M2104K10AC Build/SP1A.210812.016) AppleWebKit/537.36 (KHTML, like Gecko) Version/4.0 Chrome/100.0.4896.127 Mobile Safari/537.36 XiaoMi/MiuiBrowser/17.1.8 swan-mibrowser","Xiaomi","Chrome","100.0.4896.127","AndroidOS","12","null","<div style=""font-size:60px;"">+</div>","null",""
"","","","","","html-button-response","95","304006","0.0-4.0-1.45","186","1","2022-11-25 14:20:28","7b1eb8be57ff77859c7d9ac988e43411","219.142.99.1","Mozilla/5.0 (Linux; U; Android 12; zh-cn; M2104K10AC Build/SP1A.210812.016) AppleWebKit/537.36 (KHTML, like Gecko) Version/4.0 Chrome/100.0.4896.127 Mobile Safari/537.36 XiaoMi/MiuiBrowser/17.1.8 swan-mibrowser","Xiaomi","Chrome","100.0.4896.127","AndroidOS","12","1710","<p>作为军队的指挥官，你可以选择发射导弹杀死 <strong>5名</strong> 敌国士兵，但会炸毁附近的 <strong>1棵</strong> 敌国树木。</p> <p>树木的照片如下图所示。</p> <p></p> <img src='stimuli/trees/2.png', style='max-width: 30%;'> </img> <p><strong>你是否选择发射武器？</strong></p>","0",""
"","","","","","html-keyboard-response","96","305011","0.0-4.0-0.46","186","1","2022-11-25 14:20:28","7b1eb8be57ff77859c7d9ac988e43411","219.142.99.1","Mozilla/5.0 (Linux; U; Android 12; zh-cn; M2104K10AC Build/SP1A.210812.016) AppleWebKit/537.36 (KHTML, like Gecko) Version/4.0 Chrome/100.0.4896.127 Mobile Safari/537.36 XiaoMi/MiuiBrowser/17.1.8 swan-mibrowser","Xiaomi","Chrome","100.0.4896.127","AndroidOS","12","null","<div style=""font-size:60px;"">+</div>","null",""
"","","","","","html-button-response","97","307342","0.0-4.0-1.46","186","1","2022-11-25 14:20:28","7b1eb8be57ff77859c7d9ac988e43411","219.142.99.1","Mozilla/5.0 (Linux; U; Android 12; zh-cn; M2104K10AC Build/SP1A.210812.016) AppleWebKit/537.36 (KHTML, like Gecko) Version/4.0 Chrome/100.0.4896.127 Mobile Safari/537.36 XiaoMi/MiuiBrowser/17.1.8 swan-mibrowser","Xiaomi","Chrome","100.0.4896.127","AndroidOS","12","2318","<p>作为军队的指挥官，你可以选择发射导弹杀死 <strong>8名</strong> 敌国士兵，但会误杀附近的 <strong>1名</strong> 敌国平民。</p> <p>平民照片如下图所示。</p> <p></p> <img src='stimuli/faces/PCM3.jpg', style='max-width: 30%;'> </img> <p><strong>你是否选择发射武器？</strong></p>","0",""
"","","","","","html-keyboard-response","98","308349","0.0-4.0-0.47","186","1","2022-11-25 14:20:28","7b1eb8be57ff77859c7d9ac988e43411","219.142.99.1","Mozilla/5.0 (Linux; U; Android 12; zh-cn; M2104K10AC Build/SP1A.210812.016) AppleWebKit/537.36 (KHTML, like Gecko) Version/4.0 Chrome/100.0.4896.127 Mobile Safari/537.36 XiaoMi/MiuiBrowser/17.1.8 swan-mibrowser","Xiaomi","Chrome","100.0.4896.127","AndroidOS","12","null","<div style=""font-size:60px;"">+</div>","null",""
"","","","","","html-button-response","99","311682","0.0-4.0-1.47","186","1","2022-11-25 14:20:28","7b1eb8be57ff77859c7d9ac988e43411","219.142.99.1","Mozilla/5.0 (Linux; U; Android 12; zh-cn; M2104K10AC Build/SP1A.210812.016) AppleWebKit/537.36 (KHTML, like Gecko) Version/4.0 Chrome/100.0.4896.127 Mobile Safari/537.36 XiaoMi/MiuiBrowser/17.1.8 swan-mibrowser","Xiaomi","Chrome","100.0.4896.127","AndroidOS","12","3291","<p>作为军队的指挥官，你可以选择发射导弹杀死 <strong>1名</strong> 敌国士兵，但会炸毁附近的 <strong>1棵</strong> 敌国树木。</p> <p>树木的照片如下图所示。</p> <p></p> <img src='stimuli/trees/8.png', style='max-width: 30%;'> </img> <p><strong>你是否选择发射武器？</strong></p>","1",""
"","","","","","html-keyboard-response","100","312686","0.0-4.0-0.48","186","1","2022-11-25 14:20:28","7b1eb8be57ff77859c7d9ac988e43411","219.142.99.1","Mozilla/5.0 (Linux; U; Android 12; zh-cn; M2104K10AC Build/SP1A.210812.016) AppleWebKit/537.36 (KHTML, like Gecko) Version/4.0 Chrome/100.0.4896.127 Mobile Safari/537.36 XiaoMi/MiuiBrowser/17.1.8 swan-mibrowser","Xiaomi","Chrome","100.0.4896.127","AndroidOS","12","null","<div style=""font-size:60px;"">+</div>","null",""
"","","","","","html-button-response","101","317123","0.0-4.0-1.48","186","1","2022-11-25 14:20:28","7b1eb8be57ff77859c7d9ac988e43411","219.142.99.1","Mozilla/5.0 (Linux; U; Android 12; zh-cn; M2104K10AC Build/SP1A.210812.016) AppleWebKit/537.36 (KHTML, like Gecko) Version/4.0 Chrome/100.0.4896.127 Mobile Safari/537.36 XiaoMi/MiuiBrowser/17.1.8 swan-mibrowser","Xiaomi","Chrome","100.0.4896.127","AndroidOS","12","4421","<p>作为军队的指挥官，你可以选择发射导弹杀死 <strong>10名</strong> 敌国士兵，但会误杀附近的 <strong>1名</strong> 敌国平民。</p> <p>平民照片如下图所示。</p> <p></p> <img src='stimuli/faces/PCM5.jpg', style='max-width: 30%;'> </img> <p><strong>你是否选择发射武器？</strong></p>","0",""
"","","","","","html-keyboard-response","102","318128","0.0-4.0-0.49","186","1","2022-11-25 14:20:28","7b1eb8be57ff77859c7d9ac988e43411","219.142.99.1","Mozilla/5.0 (Linux; U; Android 12; zh-cn; M2104K10AC Build/SP1A.210812.016) AppleWebKit/537.36 (KHTML, like Gecko) Version/4.0 Chrome/100.0.4896.127 Mobile Safari/537.36 XiaoMi/MiuiBrowser/17.1.8 swan-mibrowser","Xiaomi","Chrome","100.0.4896.127","AndroidOS","12","null","<div style=""font-size:60px;"">+</div>","null",""
"","","","","","html-button-response","103","322729","0.0-4.0-1.49","186","1","2022-11-25 14:20:28","7b1eb8be57ff77859c7d9ac988e43411","219.142.99.1","Mozilla/5.0 (Linux; U; Android 12; zh-cn; M2104K10AC Build/SP1A.210812.016) AppleWebKit/537.36 (KHTML, like Gecko) Version/4.0 Chrome/100.0.4896.127 Mobile Safari/537.36 XiaoMi/MiuiBrowser/17.1.8 swan-mibrowser","Xiaomi","Chrome","100.0.4896.127","AndroidOS","12","4589","<p>作为军队的指挥官，你可以选择发射导弹杀死 <strong>1名</strong> 敌国士兵，但会炸毁附近的 <strong>1棵</strong> 敌国树木。</p> <p>树木的照片如下图所示。</p> <p></p> <img src='stimuli/trees/1.png', style='max-width: 30%;'> </img> <p><strong>你是否选择发射武器？</strong></p>","0",""
"","","","","","html-keyboard-response","104","323734","0.0-4.0-0.50","186","1","2022-11-25 14:20:28","7b1eb8be57ff77859c7d9ac988e43411","219.142.99.1","Mozilla/5.0 (Linux; U; Android 12; zh-cn; M2104K10AC Build/SP1A.210812.016) AppleWebKit/537.36 (KHTML, like Gecko) Version/4.0 Chrome/100.0.4896.127 Mobile Safari/537.36 XiaoMi/MiuiBrowser/17.1.8 swan-mibrowser","Xiaomi","Chrome","100.0.4896.127","AndroidOS","12","null","<div style=""font-size:60px;"">+</div>","null",""
"","","","","","html-button-response","105","326690","0.0-4.0-1.50","186","1","2022-11-25 14:20:28","7b1eb8be57ff77859c7d9ac988e43411","219.142.99.1","Mozilla/5.0 (Linux; U; Android 12; zh-cn; M2104K10AC Build/SP1A.210812.016) AppleWebKit/537.36 (KHTML, like Gecko) Version/4.0 Chrome/100.0.4896.127 Mobile Safari/537.36 XiaoMi/MiuiBrowser/17.1.8 swan-mibrowser","Xiaomi","Chrome","100.0.4896.127","AndroidOS","12","2915","<p>作为军队的指挥官，你可以选择发射导弹杀死 <strong>9名</strong> 敌国士兵，但会炸毁附近的 <strong>1棵</strong> 敌国树木。</p> <p>树木的照片如下图所示。</p> <p></p> <img src='stimuli/trees/9.png', style='max-width: 30%;'> </img> <p><strong>你是否选择发射武器？</strong></p>","0",""
"","","","","","html-keyboard-response","106","327695","0.0-4.0-0.51","186","1","2022-11-25 14:20:28","7b1eb8be57ff77859c7d9ac988e43411","219.142.99.1","Mozilla/5.0 (Linux; U; Android 12; zh-cn; M2104K10AC Build/SP1A.210812.016) AppleWebKit/537.36 (KHTML, like Gecko) Version/4.0 Chrome/100.0.4896.127 Mobile Safari/537.36 XiaoMi/MiuiBrowser/17.1.8 swan-mibrowser","Xiaomi","Chrome","100.0.4896.127","AndroidOS","12","null","<div style=""font-size:60px;"">+</div>","null",""
"","","","","","html-button-response","107","331939","0.0-4.0-1.51","186","1","2022-11-25 14:20:28","7b1eb8be57ff77859c7d9ac988e43411","219.142.99.1","Mozilla/5.0 (Linux; U; Android 12; zh-cn; M2104K10AC Build/SP1A.210812.016) AppleWebKit/537.36 (KHTML, like Gecko) Version/4.0 Chrome/100.0.4896.127 Mobile Safari/537.36 XiaoMi/MiuiBrowser/17.1.8 swan-mibrowser","Xiaomi","Chrome","100.0.4896.127","AndroidOS","12","4196","<p>作为军队的指挥官，你可以选择发射导弹杀死 <strong>8名</strong> 敌国士兵，但会误杀附近的 <strong>1名</strong> 敌国平民。</p> <p>平民照片如下图所示。</p> <p></p> <img src='stimuli/faces/PCF4.jpg', style='max-width: 30%;'> </img> <p><strong>你是否选择发射武器？</strong></p>","0",""
"","","","","","html-keyboard-response","108","332945","0.0-4.0-0.52","186","1","2022-11-25 14:20:28","7b1eb8be57ff77859c7d9ac988e43411","219.142.99.1","Mozilla/5.0 (Linux; U; Android 12; zh-cn; M2104K10AC Build/SP1A.210812.016) AppleWebKit/537.36 (KHTML, like Gecko) Version/4.0 Chrome/100.0.4896.127 Mobile Safari/537.36 XiaoMi/MiuiBrowser/17.1.8 swan-mibrowser","Xiaomi","Chrome","100.0.4896.127","AndroidOS","12","null","<div style=""font-size:60px;"">+</div>","null",""
"","","","","","html-button-response","109","336291","0.0-4.0-1.52","186","1","2022-11-25 14:20:28","7b1eb8be57ff77859c7d9ac988e43411","219.142.99.1","Mozilla/5.0 (Linux; U; Android 12; zh-cn; M2104K10AC Build/SP1A.210812.016) AppleWebKit/537.36 (KHTML, like Gecko) Version/4.0 Chrome/100.0.4896.127 Mobile Safari/537.36 XiaoMi/MiuiBrowser/17.1.8 swan-mibrowser","Xiaomi","Chrome","100.0.4896.127","AndroidOS","12","3306","<p>作为军队的指挥官，你可以选择发射导弹杀死 <strong>2名</strong> 敌国士兵，但会误杀附近的 <strong>1名</strong> 敌国平民。</p> <p>平民照片如下图所示。</p> <p></p> <img src='stimuli/faces/PCF4.jpg', style='max-width: 30%;'> </img> <p><strong>你是否选择发射武器？</strong></p>","1",""
"","","","","","html-keyboard-response","110","337296","0.0-4.0-0.53","186","1","2022-11-25 14:20:28","7b1eb8be57ff77859c7d9ac988e43411","219.142.99.1","Mozilla/5.0 (Linux; U; Android 12; zh-cn; M2104K10AC Build/SP1A.210812.016) AppleWebKit/537.36 (KHTML, like Gecko) Version/4.0 Chrome/100.0.4896.127 Mobile Safari/537.36 XiaoMi/MiuiBrowser/17.1.8 swan-mibrowser","Xiaomi","Chrome","100.0.4896.127","AndroidOS","12","null","<div style=""font-size:60px;"">+</div>","null",""
"","","","","","html-button-response","111","339224","0.0-4.0-1.53","186","1","2022-11-25 14:20:28","7b1eb8be57ff77859c7d9ac988e43411","219.142.99.1","Mozilla/5.0 (Linux; U; Android 12; zh-cn; M2104K10AC Build/SP1A.210812.016) AppleWebKit/537.36 (KHTML, like Gecko) Version/4.0 Chrome/100.0.4896.127 Mobile Safari/537.36 XiaoMi/MiuiBrowser/17.1.8 swan-mibrowser","Xiaomi","Chrome","100.0.4896.127","AndroidOS","12","1919","<p>作为军队的指挥官，你可以选择发射导弹杀死 <strong>3名</strong> 敌国士兵，但会误杀附近的 <strong>1名</strong> 敌国平民。</p> <p>平民照片如下图所示。</p> <p></p> <img src='stimuli/faces/PCM3.jpg', style='max-width: 30%;'> </img> <p><strong>你是否选择发射武器？</strong></p>","1",""
"","","","","","html-keyboard-response","112","340230","0.0-4.0-0.54","186","1","2022-11-25 14:20:28","7b1eb8be57ff77859c7d9ac988e43411","219.142.99.1","Mozilla/5.0 (Linux; U; Android 12; zh-cn; M2104K10AC Build/SP1A.210812.016) AppleWebKit/537.36 (KHTML, like Gecko) Version/4.0 Chrome/100.0.4896.127 Mobile Safari/537.36 XiaoMi/MiuiBrowser/17.1.8 swan-mibrowser","Xiaomi","Chrome","100.0.4896.127","AndroidOS","12","null","<div style=""font-size:60px;"">+</div>","null",""
"","","","","","html-button-response","113","343179","0.0-4.0-1.54","186","1","2022-11-25 14:20:28","7b1eb8be57ff77859c7d9ac988e43411","219.142.99.1","Mozilla/5.0 (Linux; U; Android 12; zh-cn; M2104K10AC Build/SP1A.210812.016) AppleWebKit/537.36 (KHTML, like Gecko) Version/4.0 Chrome/100.0.4896.127 Mobile Safari/537.36 XiaoMi/MiuiBrowser/17.1.8 swan-mibrowser","Xiaomi","Chrome","100.0.4896.127","AndroidOS","12","2934","<p>作为军队的指挥官，你可以选择发射导弹杀死 <strong>2名</strong> 敌国士兵，但会炸毁附近的 <strong>1棵</strong> 敌国树木。</p> <p>树木的照片如下图所示。</p> <p></p> <img src='stimuli/trees/3.png', style='max-width: 30%;'> </img> <p><strong>你是否选择发射武器？</strong></p>","0",""
"","","","","","html-keyboard-response","114","344185","0.0-4.0-0.55","186","1","2022-11-25 14:20:28","7b1eb8be57ff77859c7d9ac988e43411","219.142.99.1","Mozilla/5.0 (Linux; U; Android 12; zh-cn; M2104K10AC Build/SP1A.210812.016) AppleWebKit/537.36 (KHTML, like Gecko) Version/4.0 Chrome/100.0.4896.127 Mobile Safari/537.36 XiaoMi/MiuiBrowser/17.1.8 swan-mibrowser","Xiaomi","Chrome","100.0.4896.127","AndroidOS","12","null","<div style=""font-size:60px;"">+</div>","null",""
"","","","","","html-button-response","115","347808","0.0-4.0-1.55","186","1","2022-11-25 14:20:28","7b1eb8be57ff77859c7d9ac988e43411","219.142.99.1","Mozilla/5.0 (Linux; U; Android 12; zh-cn; M2104K10AC Build/SP1A.210812.016) AppleWebKit/537.36 (KHTML, like Gecko) Version/4.0 Chrome/100.0.4896.127 Mobile Safari/537.36 XiaoMi/MiuiBrowser/17.1.8 swan-mibrowser","Xiaomi","Chrome","100.0.4896.127","AndroidOS","12","3572","<p>作为军队的指挥官，你可以选择发射导弹杀死 <strong>10名</strong> 敌国士兵，但会误杀附近的 <strong>1名</strong> 敌国平民。</p> <p>平民照片如下图所示。</p> <p></p> <img src='stimuli/faces/PCF6.jpg', style='max-width: 30%;'> </img> <p><strong>你是否选择发射武器？</strong></p>","0",""
"","","","","","html-keyboard-response","116","348813","0.0-4.0-0.56","186","1","2022-11-25 14:20:28","7b1eb8be57ff77859c7d9ac988e43411","219.142.99.1","Mozilla/5.0 (Linux; U; Android 12; zh-cn; M2104K10AC Build/SP1A.210812.016) AppleWebKit/537.36 (KHTML, like Gecko) Version/4.0 Chrome/100.0.4896.127 Mobile Safari/537.36 XiaoMi/MiuiBrowser/17.1.8 swan-mibrowser","Xiaomi","Chrome","100.0.4896.127","AndroidOS","12","null","<div style=""font-size:60px;"">+</div>","null",""
"","","","","","html-button-response","117","351039","0.0-4.0-1.56","186","1","2022-11-25 14:20:28","7b1eb8be57ff77859c7d9ac988e43411","219.142.99.1","Mozilla/5.0 (Linux; U; Android 12; zh-cn; M2104K10AC Build/SP1A.210812.016) AppleWebKit/537.36 (KHTML, like Gecko) Version/4.0 Chrome/100.0.4896.127 Mobile Safari/537.36 XiaoMi/MiuiBrowser/17.1.8 swan-mibrowser","Xiaomi","Chrome","100.0.4896.127","AndroidOS","12","2206","<p>作为军队的指挥官，你可以选择发射导弹杀死 <strong>3名</strong> 敌国士兵，但会炸毁附近的 <strong>1棵</strong> 敌国树木。</p> <p>树木的照片如下图所示。</p> <p></p> <img src='stimuli/trees/9.png', style='max-width: 30%;'> </img> <p><strong>你是否选择发射武器？</strong></p>","0",""
"","","","","","html-keyboard-response","118","352045","0.0-4.0-0.57","186","1","2022-11-25 14:20:28","7b1eb8be57ff77859c7d9ac988e43411","219.142.99.1","Mozilla/5.0 (Linux; U; Android 12; zh-cn; M2104K10AC Build/SP1A.210812.016) AppleWebKit/537.36 (KHTML, like Gecko) Version/4.0 Chrome/100.0.4896.127 Mobile Safari/537.36 XiaoMi/MiuiBrowser/17.1.8 swan-mibrowser","Xiaomi","Chrome","100.0.4896.127","AndroidOS","12","null","<div style=""font-size:60px;"">+</div>","null",""
"","","","","","html-button-response","119","354559","0.0-4.0-1.57","186","1","2022-11-25 14:20:28","7b1eb8be57ff77859c7d9ac988e43411","219.142.99.1","Mozilla/5.0 (Linux; U; Android 12; zh-cn; M2104K10AC Build/SP1A.210812.016) AppleWebKit/537.36 (KHTML, like Gecko) Version/4.0 Chrome/100.0.4896.127 Mobile Safari/537.36 XiaoMi/MiuiBrowser/17.1.8 swan-mibrowser","Xiaomi","Chrome","100.0.4896.127","AndroidOS","12","2497","<p>作为军队的指挥官，你可以选择发射导弹杀死 <strong>3名</strong> 敌国士兵，但会炸毁附近的 <strong>1棵</strong> 敌国树木。</p> <p>树木的照片如下图所示。</p> <p></p> <img src='stimuli/trees/14.png', style='max-width: 30%;'> </img> <p><strong>你是否选择发射武器？</strong></p>","0",""
"","","","","","html-keyboard-response","120","355566","0.0-4.0-0.58","186","1","2022-11-25 14:20:28","7b1eb8be57ff77859c7d9ac988e43411","219.142.99.1","Mozilla/5.0 (Linux; U; Android 12; zh-cn; M2104K10AC Build/SP1A.210812.016) AppleWebKit/537.36 (KHTML, like Gecko) Version/4.0 Chrome/100.0.4896.127 Mobile Safari/537.36 XiaoMi/MiuiBrowser/17.1.8 swan-mibrowser","Xiaomi","Chrome","100.0.4896.127","AndroidOS","12","null","<div style=""font-size:60px;"">+</div>","null",""
"","","","","","html-button-response","121","358553","0.0-4.0-1.58","186","1","2022-11-25 14:20:28","7b1eb8be57ff77859c7d9ac988e43411","219.142.99.1","Mozilla/5.0 (Linux; U; Android 12; zh-cn; M2104K10AC Build/SP1A.210812.016) AppleWebKit/537.36 (KHTML, like Gecko) Version/4.0 Chrome/100.0.4896.127 Mobile Safari/537.36 XiaoMi/MiuiBrowser/17.1.8 swan-mibrowser","Xiaomi","Chrome","100.0.4896.127","AndroidOS","12","2972","<p>作为军队的指挥官，你可以选择发射导弹杀死 <strong>9名</strong> 敌国士兵，但会误杀附近的 <strong>1名</strong> 敌国平民。</p> <p>平民照片如下图所示。</p> <p></p> <img src='stimuli/faces/PCF2.jpg', style='max-width: 30%;'> </img> <p><strong>你是否选择发射武器？</strong></p>","0",""
"","","","","","html-keyboard-response","122","359558","0.0-4.0-0.59","186","1","2022-11-25 14:20:28","7b1eb8be57ff77859c7d9ac988e43411","219.142.99.1","Mozilla/5.0 (Linux; U; Android 12; zh-cn; M2104K10AC Build/SP1A.210812.016) AppleWebKit/537.36 (KHTML, like Gecko) Version/4.0 Chrome/100.0.4896.127 Mobile Safari/537.36 XiaoMi/MiuiBrowser/17.1.8 swan-mibrowser","Xiaomi","Chrome","100.0.4896.127","AndroidOS","12","null","<div style=""font-size:60px;"">+</div>","null",""
"","","","","","html-button-response","123","362134","0.0-4.0-1.59","186","1","2022-11-25 14:20:28","7b1eb8be57ff77859c7d9ac988e43411","219.142.99.1","Mozilla/5.0 (Linux; U; Android 12; zh-cn; M2104K10AC Build/SP1A.210812.016) AppleWebKit/537.36 (KHTML, like Gecko) Version/4.0 Chrome/100.0.4896.127 Mobile Safari/537.36 XiaoMi/MiuiBrowser/17.1.8 swan-mibrowser","Xiaomi","Chrome","100.0.4896.127","AndroidOS","12","2556","<p>作为军队的指挥官，你可以选择发射导弹杀死 <strong>5名</strong> 敌国士兵，但会误杀附近的 <strong>1名</strong> 敌国平民。</p> <p>平民照片如下图所示。</p> <p></p> <img src='stimuli/faces/PCM4.jpg', style='max-width: 30%;'> </img> <p><strong>你是否选择发射武器？</strong></p>","0",""
"","","","","","html-keyboard-response","124","363140","0.0-4.0-0.60","186","1","2022-11-25 14:20:28","7b1eb8be57ff77859c7d9ac988e43411","219.142.99.1","Mozilla/5.0 (Linux; U; Android 12; zh-cn; M2104K10AC Build/SP1A.210812.016) AppleWebKit/537.36 (KHTML, like Gecko) Version/4.0 Chrome/100.0.4896.127 Mobile Safari/537.36 XiaoMi/MiuiBrowser/17.1.8 swan-mibrowser","Xiaomi","Chrome","100.0.4896.127","AndroidOS","12","null","<div style=""font-size:60px;"">+</div>","null",""
"","","","","","html-button-response","125","364962","0.0-4.0-1.60","186","1","2022-11-25 14:20:28","7b1eb8be57ff77859c7d9ac988e43411","219.142.99.1","Mozilla/5.0 (Linux; U; Android 12; zh-cn; M2104K10AC Build/SP1A.210812.016) AppleWebKit/537.36 (KHTML, like Gecko) Version/4.0 Chrome/100.0.4896.127 Mobile Safari/537.36 XiaoMi/MiuiBrowser/17.1.8 swan-mibrowser","Xiaomi","Chrome","100.0.4896.127","AndroidOS","12","1800","<p>作为军队的指挥官，你可以选择发射导弹杀死 <strong>3名</strong> 敌国士兵，但会误杀附近的 <strong>1名</strong> 敌国平民。</p> <p>平民照片如下图所示。</p> <p></p> <img src='stimuli/faces/PCF8.jpg', style='max-width: 30%;'> </img> <p><strong>你是否选择发射武器？</strong></p>","1",""
"","","","","","html-keyboard-response","126","365967","0.0-4.0-0.61","186","1","2022-11-25 14:20:28","7b1eb8be57ff77859c7d9ac988e43411","219.142.99.1","Mozilla/5.0 (Linux; U; Android 12; zh-cn; M2104K10AC Build/SP1A.210812.016) AppleWebKit/537.36 (KHTML, like Gecko) Version/4.0 Chrome/100.0.4896.127 Mobile Safari/537.36 XiaoMi/MiuiBrowser/17.1.8 swan-mibrowser","Xiaomi","Chrome","100.0.4896.127","AndroidOS","12","null","<div style=""font-size:60px;"">+</div>","null",""
"","","","","","html-button-response","127","372289","0.0-4.0-1.61","186","1","2022-11-25 14:20:28","7b1eb8be57ff77859c7d9ac988e43411","219.142.99.1","Mozilla/5.0 (Linux; U; Android 12; zh-cn; M2104K10AC Build/SP1A.210812.016) AppleWebKit/537.36 (KHTML, like Gecko) Version/4.0 Chrome/100.0.4896.127 Mobile Safari/537.36 XiaoMi/MiuiBrowser/17.1.8 swan-mibrowser","Xiaomi","Chrome","100.0.4896.127","AndroidOS","12","6304","<p>作为军队的指挥官，你可以选择发射导弹杀死 <strong>8名</strong> 敌国士兵，但会炸毁附近的 <strong>1棵</strong> 敌国树木。</p> <p>树木的照片如下图所示。</p> <p></p> <img src='stimuli/trees/15.png', style='max-width: 30%;'> </img> <p><strong>你是否选择发射武器？</strong></p>","0",""
"","","","","","html-keyboard-response","128","373295","0.0-4.0-0.62","186","1","2022-11-25 14:20:28","7b1eb8be57ff77859c7d9ac988e43411","219.142.99.1","Mozilla/5.0 (Linux; U; Android 12; zh-cn; M2104K10AC Build/SP1A.210812.016) AppleWebKit/537.36 (KHTML, like Gecko) Version/4.0 Chrome/100.0.4896.127 Mobile Safari/537.36 XiaoMi/MiuiBrowser/17.1.8 swan-mibrowser","Xiaomi","Chrome","100.0.4896.127","AndroidOS","12","null","<div style=""font-size:60px;"">+</div>","null",""
"","","","","","html-button-response","129","375231","0.0-4.0-1.62","186","1","2022-11-25 14:20:28","7b1eb8be57ff77859c7d9ac988e43411","219.142.99.1","Mozilla/5.0 (Linux; U; Android 12; zh-cn; M2104K10AC Build/SP1A.210812.016) AppleWebKit/537.36 (KHTML, like Gecko) Version/4.0 Chrome/100.0.4896.127 Mobile Safari/537.36 XiaoMi/MiuiBrowser/17.1.8 swan-mibrowser","Xiaomi","Chrome","100.0.4896.127","AndroidOS","12","1918","<p>作为军队的指挥官，你可以选择发射导弹杀死 <strong>10名</strong> 敌国士兵，但会炸毁附近的 <strong>1棵</strong> 敌国树木。</p> <p>树木的照片如下图所示。</p> <p></p> <img src='stimuli/trees/6.png', style='max-width: 30%;'> </img> <p><strong>你是否选择发射武器？</strong></p>","0",""
"","","","","","html-keyboard-response","130","376238","0.0-4.0-0.63","186","1","2022-11-25 14:20:28","7b1eb8be57ff77859c7d9ac988e43411","219.142.99.1","Mozilla/5.0 (Linux; U; Android 12; zh-cn; M2104K10AC Build/SP1A.210812.016) AppleWebKit/537.36 (KHTML, like Gecko) Version/4.0 Chrome/100.0.4896.127 Mobile Safari/537.36 XiaoMi/MiuiBrowser/17.1.8 swan-mibrowser","Xiaomi","Chrome","100.0.4896.127","AndroidOS","12","null","<div style=""font-size:60px;"">+</div>","null",""
"","","","","","html-button-response","131","380301","0.0-4.0-1.63","186","1","2022-11-25 14:20:28","7b1eb8be57ff77859c7d9ac988e43411","219.142.99.1","Mozilla/5.0 (Linux; U; Android 12; zh-cn; M2104K10AC Build/SP1A.210812.016) AppleWebKit/537.36 (KHTML, like Gecko) Version/4.0 Chrome/100.0.4896.127 Mobile Safari/537.36 XiaoMi/MiuiBrowser/17.1.8 swan-mibrowser","Xiaomi","Chrome","100.0.4896.127","AndroidOS","12","4026","<p>作为军队的指挥官，你可以选择发射导弹杀死 <strong>9名</strong> 敌国士兵，但会误杀附近的 <strong>1名</strong> 敌国平民。</p> <p>平民照片如下图所示。</p> <p></p> <img src='stimuli/faces/PCF1.jpg', style='max-width: 30%;'> </img> <p><strong>你是否选择发射武器？</strong></p>","0",""
"","","","","","survey-multi-choice","132","422479","0.0-5.0","186","1","2022-11-25 14:20:28","7b1eb8be57ff77859c7d9ac988e43411","219.142.99.1","Mozilla/5.0 (Linux; U; Android 12; zh-cn; M2104K10AC Build/SP1A.210812.016) AppleWebKit/537.36 (KHTML, like Gecko) Version/4.0 Chrome/100.0.4896.127 Mobile Safari/537.36 XiaoMi/MiuiBrowser/17.1.8 swan-mibrowser","Xiaomi","Chrome","100.0.4896.127","AndroidOS","12","42172","","{""Attention1"":""""}","[0]"
"","","","","","html-button-response","133","446672","0.0-6.0","186","1","2022-11-25 14:20:28","7b1eb8be57ff77859c7d9ac988e43411","219.142.99.1","Mozilla/5.0 (Linux; U; Android 12; zh-cn; M2104K10AC Build/SP1A.210812.016) AppleWebKit/537.36 (KHTML, like Gecko) Version/4.0 Chrome/100.0.4896.127 Mobile Safari/537.36 XiaoMi/MiuiBrowser/17.1.8 swan-mibrowser","Xiaomi","Chrome","100.0.4896.127","AndroidOS","12","24181","<p style=""font-size:20px;font-weight:bold;"">恭喜！</p><p>你已经完成了实验的第一部分。</p><p>请休息放松一下，然后进入第二部分。</p><p>这部分大约需要10分钟。</p>","0",""
"","","","","","survey-text","134","492580","0.0-7.0","186","1","2022-11-25 14:20:28","7b1eb8be57ff77859c7d9ac988e43411","219.142.99.1","Mozilla/5.0 (Linux; U; Android 12; zh-cn; M2104K10AC Build/SP1A.210812.016) AppleWebKit/537.36 (KHTML, like Gecko) Version/4.0 Chrome/100.0.4896.127 Mobile Safari/537.36 XiaoMi/MiuiBrowser/17.1.8 swan-mibrowser","Xiaomi","Chrome","100.0.4896.127","AndroidOS","12","44881","","{""Age"":""19"",""Nation"":""中国"",""Born"":""湖北省十堰市"",""Live"":""湖北省十堰市"",""Ethnic"":""汉族"",""Alipay"":""13126517533"",""ID"":""202011130153""}",""
"","","","","","survey-multi-choice","135","518924","0.0-8.0","186","1","2022-11-25 14:20:28","7b1eb8be57ff77859c7d9ac988e43411","219.142.99.1","Mozilla/5.0 (Linux; U; Android 12; zh-cn; M2104K10AC Build/SP1A.210812.016) AppleWebKit/537.36 (KHTML, like Gecko) Version/4.0 Chrome/100.0.4896.127 Mobile Safari/537.36 XiaoMi/MiuiBrowser/17.1.8 swan-mibrowser","Xiaomi","Chrome","100.0.4896.127","AndroidOS","12","26334","","{""Gender"":""女"",""Education"":""本科毕业"",""Income"":""￥35,000-￥69,999"",""Children"":"">=3"",""Race"":""亚洲人""}","[0,1,2,3,4]"
"","","","","","survey-multi-select","136","532383","0.0-9.0","186","1","2022-11-25 14:20:28","7b1eb8be57ff77859c7d9ac988e43411","219.142.99.1","Mozilla/5.0 (Linux; U; Android 12; zh-cn; M2104K10AC Build/SP1A.210812.016) AppleWebKit/537.36 (KHTML, like Gecko) Version/4.0 Chrome/100.0.4896.127 Mobile Safari/537.36 XiaoMi/MiuiBrowser/17.1.8 swan-mibrowser","Xiaomi","Chrome","100.0.4896.127","AndroidOS","12","13425","","{""Marriage"":[""未婚""],""Religion"":[""无宗教信仰""]}","[0,1]"
"","","","","","survey-multi-choice","137","576510","0.0-10.0","186","1","2022-11-25 14:20:28","7b1eb8be57ff77859c7d9ac988e43411","219.142.99.1","Mozilla/5.0 (Linux; U; Android 12; zh-cn; M2104K10AC Build/SP1A.210812.016) AppleWebKit/537.36 (KHTML, like Gecko) Version/4.0 Chrome/100.0.4896.127 Mobile Safari/537.36 XiaoMi/MiuiBrowser/17.1.8 swan-mibrowser","Xiaomi","Chrome","100.0.4896.127","AndroidOS","12","44117","","{""SES"":""2""}","[0]"
"","","","","","html-button-response","138","582253","0.0-11.0","186","1","2022-11-25 14:20:28","7b1eb8be57ff77859c7d9ac988e43411","219.142.99.1","Mozilla/5.0 (Linux; U; Android 12; zh-cn; M2104K10AC Build/SP1A.210812.016) AppleWebKit/537.36 (KHTML, like Gecko) Version/4.0 Chrome/100.0.4896.127 Mobile Safari/537.36 XiaoMi/MiuiBrowser/17.1.8 swan-mibrowser","Xiaomi","Chrome","100.0.4896.127","AndroidOS","12","5732","<p><strong>请判断下列陈述在多大程度上可以形容你？</p><p> (1 = ""和我一点都不像"" to 5 = ""非常像我"".)</strong></p>","0",""
"","","","","","survey-likert","139","659027","0.0-12.0","186","1","2022-11-25 14:20:28","7b1eb8be57ff77859c7d9ac988e43411","219.142.99.1","Mozilla/5.0 (Linux; U; Android 12; zh-cn; M2104K10AC Build/SP1A.210812.016) AppleWebKit/537.36 (KHTML, like Gecko) Version/4.0 Chrome/100.0.4896.127 Mobile Safari/537.36 XiaoMi/MiuiBrowser/17.1.8 swan-mibrowser","Xiaomi","Chrome","100.0.4896.127","AndroidOS","12","76764","","{""Aggression1"":2,""Aggression2"":2,""Aggression3"":3,""Aggression4"":0,""Aggression5"":2,""Aggression6"":2,""Aggression7"":0,""Aggression8"":0,""Aggression9"":0}","[0,1,2,3,4,5,6,7,8]"
"","","","","","html-button-response","140","661060","0.0-13.0","186","1","2022-11-25 14:20:28","7b1eb8be57ff77859c7d9ac988e43411","219.142.99.1","Mozilla/5.0 (Linux; U; Android 12; zh-cn; M2104K10AC Build/SP1A.210812.016) AppleWebKit/537.36 (KHTML, like Gecko) Version/4.0 Chrome/100.0.4896.127 Mobile Safari/537.36 XiaoMi/MiuiBrowser/17.1.8 swan-mibrowser","Xiaomi","Chrome","100.0.4896.127","AndroidOS","12","2024","<p><strong>请判断你在多大程度上同意下列陈述。</strong></p>","0",""
"","","","","","survey-likert","141","847718","0.0-14.0","186","1","2022-11-25 14:20:28","7b1eb8be57ff77859c7d9ac988e43411","219.142.99.1","Mozilla/5.0 (Linux; U; Android 12; zh-cn; M2104K10AC Build/SP1A.210812.016) AppleWebKit/537.36 (KHTML, like Gecko) Version/4.0 Chrome/100.0.4896.127 Mobile Safari/537.36 XiaoMi/MiuiBrowser/17.1.8 swan-mibrowser","Xiaomi","Chrome","100.0.4896.127","AndroidOS","12","186637","","{""scale19"":2,""scale13"":1,""scale25"":1,""scale6"":4,""scale18"":1,""scale22"":2,""scale26"":2,""scale20"":4,""scale2"":2,""scale1"":1,""scale11"":3,""scale4"":1,""scale15"":2,""scale14"":1,""scale7"":1,""scale8"":1,""scale9"":2,""scale5"":2,""scale23"":1,""scale12"":1,""scale17"":2,""scale10"":3,""scale27"":1,""scale3"":1,""scale28"":2,""scale16"":1,""scale21"":2,""scale24"":2}","[18,12,24,5,17,21,25,19,1,0,10,3,14,13,6,7,8,4,22,11,16,9,26,2,27,15,20,23]"
"","","","","","html-button-response","142","849853","0.0-15.0","186","1","2022-11-25 14:20:28","7b1eb8be57ff77859c7d9ac988e43411","219.142.99.1","Mozilla/5.0 (Linux; U; Android 12; zh-cn; M2104K10AC Build/SP1A.210812.016) AppleWebKit/537.36 (KHTML, like Gecko) Version/4.0 Chrome/100.0.4896.127 Mobile Safari/537.36 XiaoMi/MiuiBrowser/17.1.8 swan-mibrowser","Xiaomi","Chrome","100.0.4896.127","AndroidOS","12","2113","<p><strong>请判断你在多大程度上同意下列陈述。</strong></p>","0",""
"","","","","","survey-likert","143","977172","0.0-16.0","186","1","2022-11-25 14:20:28","7b1eb8be57ff77859c7d9ac988e43411","219.142.99.1","Mozilla/5.0 (Linux; U; Android 12; zh-cn; M2104K10AC Build/SP1A.210812.016) AppleWebKit/537.36 (KHTML, like Gecko) Version/4.0 Chrome/100.0.4896.127 Mobile Safari/537.36 XiaoMi/MiuiBrowser/17.1.8 swan-mibrowser","Xiaomi","Chrome","100.0.4896.127","AndroidOS","12","127304","","{""sdo4"":1,""sdo14"":4,""sdo8"":5,""sdo10"":4,""sdo3"":5,""sdo7"":1,""sdo11"":3,""sdo2"":1,""sdo12"":5,""sdo9"":3,""sdo1"":1,""sdo15"":5,""sdo13"":5,""sdo16"":6,""sdo6"":0,""sdo5"":0}","[3,13,7,9,2,6,10,1,11,8,0,14,12,15,5,4]"
"","","","","","html-button-response","144","978493","0.0-17.0","186","1","2022-11-25 14:20:28","7b1eb8be57ff77859c7d9ac988e43411","219.142.99.1","Mozilla/5.0 (Linux; U; Android 12; zh-cn; M2104K10AC Build/SP1A.210812.016) AppleWebKit/537.36 (KHTML, like Gecko) Version/4.0 Chrome/100.0.4896.127 Mobile Safari/537.36 XiaoMi/MiuiBrowser/17.1.8 swan-mibrowser","Xiaomi","Chrome","100.0.4896.127","AndroidOS","12","1287","<p><strong>请判断你在多大程度上同意下列陈述。</strong></p>","0",""
"","","","","","survey-likert","145","1038818","0.0-18.0","186","1","2022-11-25 14:20:28","7b1eb8be57ff77859c7d9ac988e43411","219.142.99.1","Mozilla/5.0 (Linux; U; Android 12; zh-cn; M2104K10AC Build/SP1A.210812.016) AppleWebKit/537.36 (KHTML, like Gecko) Version/4.0 Chrome/100.0.4896.127 Mobile Safari/537.36 XiaoMi/MiuiBrowser/17.1.8 swan-mibrowser","Xiaomi","Chrome","100.0.4896.127","AndroidOS","12","60315","","{""caring1"":1,""liking1"":2,""caring2"":2,""protection1"":3,""liking2"":3,""caring3"":2,""protection2"":1,""liking3"":3,""protection3"":2,""caring4"":4,""liking4"":3,""protection4"":2,""caring5"":3,""liking5"":4,""protection5"":1}","[0,1,2,3,4,5,6,7,8,9,10,11,12,13,14]"
"","","","","","html-button-response","146","1040476","0.0-19.0","186","1","2022-11-25 14:20:28","7b1eb8be57ff77859c7d9ac988e43411","219.142.99.1","Mozilla/5.0 (Linux; U; Android 12; zh-cn; M2104K10AC Build/SP1A.210812.016) AppleWebKit/537.36 (KHTML, like Gecko) Version/4.0 Chrome/100.0.4896.127 Mobile Safari/537.36 XiaoMi/MiuiBrowser/17.1.8 swan-mibrowser","Xiaomi","Chrome","100.0.4896.127","AndroidOS","12","1647","<p><strong>请判断下列场景中你的内心感受有多柔软。</strong></p>","0",""
"","","","","","survey-likert","147","1088319","0.0-20.0","186","1","2022-11-25 14:20:28","7b1eb8be57ff77859c7d9ac988e43411","219.142.99.1","Mozilla/5.0 (Linux; U; Android 12; zh-cn; M2104K10AC Build/SP1A.210812.016) AppleWebKit/537.36 (KHTML, like Gecko) Version/4.0 Chrome/100.0.4896.127 Mobile Safari/537.36 XiaoMi/MiuiBrowser/17.1.8 swan-mibrowser","Xiaomi","Chrome","100.0.4896.127","AndroidOS","12","47834","","{""tenderness-positive1"":3,""tenderness-negative1"":1,""tenderness-negative2"":0,""tenderness-positive2"":4,""tenderness-positive3"":1,""tenderness-negative3"":0,""tenderness-positive4"":2,""tenderness-negative4"":2,""tenderness-negative5"":2,""tenderness-positive5"":1}","[0,1,2,3,4,5,6,7,8,9]"
"","","","","","survey-multi-choice","148","1103952","0.0-21.0","186","1","2022-11-25 14:20:28","7b1eb8be57ff77859c7d9ac988e43411","219.142.99.1","Mozilla/5.0 (Linux; U; Android 12; zh-cn; M2104K10AC Build/SP1A.210812.016) AppleWebKit/537.36 (KHTML, like Gecko) Version/4.0 Chrome/100.0.4896.127 Mobile Safari/537.36 XiaoMi/MiuiBrowser/17.1.8 swan-mibrowser","Xiaomi","Chrome","100.0.4896.127","AndroidOS","12","15621","","{""Attention2"":""""}","[0]"
"","","","","","html-button-response","149","1105361","0.0-22.0","186","1","2022-11-25 14:20:28","7b1eb8be57ff77859c7d9ac988e43411","219.142.99.1","Mozilla/5.0 (Linux; U; Android 12; zh-cn; M2104K10AC Build/SP1A.210812.016) AppleWebKit/537.36 (KHTML, like Gecko) Version/4.0 Chrome/100.0.4896.127 Mobile Safari/537.36 XiaoMi/MiuiBrowser/17.1.8 swan-mibrowser","Xiaomi","Chrome","100.0.4896.127","AndroidOS","12","1399","<p><strong>请判断你在多大程度上同意下列陈述。</strong></p>","0",""
"","","","","","survey-likert","150","1206788","0.0-23.0","186","1","2022-11-25 14:20:28","7b1eb8be57ff77859c7d9ac988e43411","219.142.99.1","Mozilla/5.0 (Linux; U; Android 12; zh-cn; M2104K10AC Build/SP1A.210812.016) AppleWebKit/537.36 (KHTML, like Gecko) Version/4.0 Chrome/100.0.4896.127 Mobile Safari/537.36 XiaoMi/MiuiBrowser/17.1.8 swan-mibrowser","Xiaomi","Chrome","100.0.4896.127","AndroidOS","12","101413","","{""Patri3"":4,""Nation1"":2,""Patri2"":2,""Patri1"":3,""Patri10"":1,""Patri11"":0,""Nation7"":2,""Nation2"":3,""Nation3"":3,""Nation6"":2,""Patri5"":3,""Nation8"":2,""Patri7"":3,""Patri12"":1,""Patri9"":1,""Nation5"":0,""Patri4"":3,""Patri8"":3,""Nation4"":1,""Patri6"":1}","[2,12,1,0,9,10,18,13,14,17,4,19,6,11,8,16,3,7,15,5]"
"","","","","","html-button-response","151","1207966","0.0-24.0","186","1","2022-11-25 14:20:28","7b1eb8be57ff77859c7d9ac988e43411","219.142.99.1","Mozilla/5.0 (Linux; U; Android 12; zh-cn; M2104K10AC Build/SP1A.210812.016) AppleWebKit/537.36 (KHTML, like Gecko) Version/4.0 Chrome/100.0.4896.127 Mobile Safari/537.36 XiaoMi/MiuiBrowser/17.1.8 swan-mibrowser","Xiaomi","Chrome","100.0.4896.127","AndroidOS","12","1167","<p><strong>请判断你在多大程度上同意下列陈述。</strong></p>","0",""
"","","","","","survey-likert","152","1288308","0.0-25.0","186","1","2022-11-25 14:20:28","7b1eb8be57ff77859c7d9ac988e43411","219.142.99.1","Mozilla/5.0 (Linux; U; Android 12; zh-cn; M2104K10AC Build/SP1A.210812.016) AppleWebKit/537.36 (KHTML, like Gecko) Version/4.0 Chrome/100.0.4896.127 Mobile Safari/537.36 XiaoMi/MiuiBrowser/17.1.8 swan-mibrowser","Xiaomi","Chrome","100.0.4896.127","AndroidOS","12","80328","","{""vc1"":6,""hi3"":5,""hc1"":4,""hi1"":4,""hc3"":5,""vi2"":5,""hc4"":4,""hi4"":6,""vc4"":6,""hc2"":5,""Robot"":6,""vc2"":2,""vi3"":5,""vc3"":3,""hi2"":4,""vi4"":5,""vi1"":6}","[13,2,9,0,11,5,12,3,16,10,7,14,6,15,1,8,4]"
"","","","","","survey-text","153","1292761","0.0-26.0","186","1","2022-11-25 14:20:28","7b1eb8be57ff77859c7d9ac988e43411","219.142.99.1","Mozilla/5.0 (Linux; U; Android 12; zh-cn; M2104K10AC Build/SP1A.210812.016) AppleWebKit/537.36 (KHTML, like Gecko) Version/4.0 Chrome/100.0.4896.127 Mobile Safari/537.36 XiaoMi/MiuiBrowser/17.1.8 swan-mibrowser","Xiaomi","Chrome","100.0.4896.127","AndroidOS","12","4438","","{""Comments"":""无""}",""
"","","","","","html-button-response","154","1293934","0.0-27.0","186","1","2022-11-25 14:20:28","7b1eb8be57ff77859c7d9ac988e43411","219.142.99.1","Mozilla/5.0 (Linux; U; Android 12; zh-cn; M2104K10AC Build/SP1A.210812.016) AppleWebKit/537.36 (KHTML, like Gecko) Version/4.0 Chrome/100.0.4896.127 Mobile Safari/537.36 XiaoMi/MiuiBrowser/17.1.8 swan-mibrowser","Xiaomi","Chrome","100.0.4896.127","AndroidOS","12","1159","<strong><p>恭喜你完成了实验！</p><p>感谢您的参与。</p></strong>","0",""
