"success","timeout","failed_images","failed_audio","failed_video","trial_type","trial_index","time_elapsed","internal_node_id","run_id","condition","recorded_at","source_code_version","ip","user_agent","device","browser","browser_version","platform","platform_version","rt","stimulus","response","question_order"
"true","false","[]","[]","[]","preload","0","2488","0.0-0.0","29","1","2022-11-13 08:23:11","a60ee176136a54a92dc2853177adfa2c","183.6.41.108","Mozilla/5.0 (Windows NT 6.1; WOW64) AppleWebKit/537.36 (KHTML, like Gecko) Chrome/49.0.2623.87 Safari/537.36","WebKit","Chrome","49.0.2623.87","Windows","6.1","","","",""
"true","","","","","fullscreen","1","4555","0.0-1.0","29","1","2022-11-13 08:23:11","a60ee176136a54a92dc2853177adfa2c","183.6.41.108","Mozilla/5.0 (Windows NT 6.1; WOW64) AppleWebKit/537.36 (KHTML, like Gecko) Chrome/49.0.2623.87 Safari/537.36","WebKit","Chrome","49.0.2623.87","Windows","6.1","","","",""
"","","","","","html-button-response","2","14961","0.0-2.0","29","1","2022-11-13 08:23:11","a60ee176136a54a92dc2853177adfa2c","183.6.41.108","Mozilla/5.0 (Windows NT 6.1; WOW64) AppleWebKit/537.36 (KHTML, like Gecko) Chrome/49.0.2623.87 Safari/537.36","WebKit","Chrome","49.0.2623.87","Windows","6.1","10401","<p style=""font-size:20px;font-weight:bold;"">实验知情同意书</p><p style=""text-align:left;""><strong>实验名称：</strong>社会冲突研究</p><p style=""text-align:left;""><strong>主要研究者：</strong>韩晓春副教授（北京师范大学心理学部）</p><p style=""text-align:left;""><strong>联系方式：</strong>发送邮件至xiaochun.han@bnu.edu.cn</p><p style=""text-align:left;""><strong>研究目的：</strong>研究旨在了解人类面对群体冲突时的决策方式，以及相关的心理学特质。实验调查大约需要20分钟。</p><p style=""text-align:left;""><strong>实验流程：</strong>实验包含两部分。第一部分呈现一系列群体冲突场景，请你决定如何对这些冲突进行反应，大约需要10分钟完成。第二部分包含一系列人口统计学信息收集和心理学问卷，大约需要10分钟完成。</p><p style=""text-align:left;""><strong>参加及退出规则：</strong>参加本实验完全取决于您的个人意愿。在参与过程中，您可以随时退出，并且不用承担任何后果。</p><p style=""text-align:left;""><strong>隐私：</strong>本实验完全匿名进行，不会收集您的姓名或其他能够识别您身份的信息。实验中收集的作答仅用作科学研究使用，可能会在学术期刊/书籍上发表，或者用于教学，您的数据未来可能会和其他研究者或实验室分享，但您的个人身份不会被识别。</p><p style=""text-align:left;""><strong>实验报酬：</strong>实验完成后，您将获得15元人民币报酬，以感谢您的时间和努力。调查问卷中包含几道题目用以测验您作答时的认真度。只有完成全部实验，并且正确回答认真度测验的被试才能获得实验报酬。实验报酬将通过支付宝转账发放。</p><p style=""text-align:left;font-size:20px;""><strong>如果您同意以上实验知情同意书的内容，请点击'同意并且开始实验'按钮；否则请关闭浏览器界面，退出实验。</strong></p>","0",""
"","","","","","html-button-response","3","19431","0.0-3.0","29","1","2022-11-13 08:23:11","a60ee176136a54a92dc2853177adfa2c","183.6.41.108","Mozilla/5.0 (Windows NT 6.1; WOW64) AppleWebKit/537.36 (KHTML, like Gecko) Chrome/49.0.2623.87 Safari/537.36","WebKit","Chrome","49.0.2623.87","Windows","6.1","4463","<p ><strong>实验任务一：</strong></p><p>请想象你的国家与另一个国家发生了军事冲突。</p><p>你是国家军队的指挥官，你将如何在冲突中进行决策。</p><p>具体来说，作为军队指挥官，请你决定是否发射导弹进行打击。</p><p>接下来，你会面对一系列场景，请仔细阅读每个场景，然后进行决策。</p><p>这部分实验任务大约需要10分钟。</p><p><strong>实验过程中，请集中注意力。</strong></p>","0",""
"","","","","","html-keyboard-response","4","20435","0.0-4.0-0.0","29","1","2022-11-13 08:23:11","a60ee176136a54a92dc2853177adfa2c","183.6.41.108","Mozilla/5.0 (Windows NT 6.1; WOW64) AppleWebKit/537.36 (KHTML, like Gecko) Chrome/49.0.2623.87 Safari/537.36","WebKit","Chrome","49.0.2623.87","Windows","6.1","null","<div style=""font-size:60px;"">+</div>","null",""
"","","","","","html-button-response","5","28454","0.0-4.0-1.0","29","1","2022-11-13 08:23:11","a60ee176136a54a92dc2853177adfa2c","183.6.41.108","Mozilla/5.0 (Windows NT 6.1; WOW64) AppleWebKit/537.36 (KHTML, like Gecko) Chrome/49.0.2623.87 Safari/537.36","WebKit","Chrome","49.0.2623.87","Windows","6.1","8011","<p>作为军队的指挥官，你可以选择发射导弹杀死 <strong>10名</strong> 敌国士兵，但会炸毁附近的 <strong>1棵</strong> 敌国树木。</p> <p>树木的照片如下图所示。</p> <p></p> <img src='stimuli/trees/3.png', style='max-width: 30%;'> </img> <p><strong>你是否选择发射武器？</strong></p>","0",""
"","","","","","html-keyboard-response","6","29462","0.0-4.0-0.1","29","1","2022-11-13 08:23:11","a60ee176136a54a92dc2853177adfa2c","183.6.41.108","Mozilla/5.0 (Windows NT 6.1; WOW64) AppleWebKit/537.36 (KHTML, like Gecko) Chrome/49.0.2623.87 Safari/537.36","WebKit","Chrome","49.0.2623.87","Windows","6.1","null","<div style=""font-size:60px;"">+</div>","null",""
"","","","","","html-button-response","7","32833","0.0-4.0-1.1","29","1","2022-11-13 08:23:11","a60ee176136a54a92dc2853177adfa2c","183.6.41.108","Mozilla/5.0 (Windows NT 6.1; WOW64) AppleWebKit/537.36 (KHTML, like Gecko) Chrome/49.0.2623.87 Safari/537.36","WebKit","Chrome","49.0.2623.87","Windows","6.1","3363","<p>作为军队的指挥官，你可以选择发射导弹杀死 <strong>5名</strong> 敌国士兵，但会炸毁附近的 <strong>1棵</strong> 敌国树木。</p> <p>树木的照片如下图所示。</p> <p></p> <img src='stimuli/trees/5.png', style='max-width: 30%;'> </img> <p><strong>你是否选择发射武器？</strong></p>","0",""
"","","","","","html-keyboard-response","8","33837","0.0-4.0-0.2","29","1","2022-11-13 08:23:11","a60ee176136a54a92dc2853177adfa2c","183.6.41.108","Mozilla/5.0 (Windows NT 6.1; WOW64) AppleWebKit/537.36 (KHTML, like Gecko) Chrome/49.0.2623.87 Safari/537.36","WebKit","Chrome","49.0.2623.87","Windows","6.1","null","<div style=""font-size:60px;"">+</div>","null",""
"","","","","","html-button-response","9","42424","0.0-4.0-1.2","29","1","2022-11-13 08:23:11","a60ee176136a54a92dc2853177adfa2c","183.6.41.108","Mozilla/5.0 (Windows NT 6.1; WOW64) AppleWebKit/537.36 (KHTML, like Gecko) Chrome/49.0.2623.87 Safari/537.36","WebKit","Chrome","49.0.2623.87","Windows","6.1","8579","<p>作为军队的指挥官，你可以选择发射导弹杀死 <strong>4名</strong> 敌国士兵，但会误杀附近的 <strong>1名</strong> 敌国平民。</p> <p>平民照片如下图所示。</p> <p></p> <img src='stimuli/faces/PCF1.jpg', style='max-width: 30%;'> </img> <p><strong>你是否选择发射武器？</strong></p>","1",""
"","","","","","html-keyboard-response","10","43429","0.0-4.0-0.3","29","1","2022-11-13 08:23:11","a60ee176136a54a92dc2853177adfa2c","183.6.41.108","Mozilla/5.0 (Windows NT 6.1; WOW64) AppleWebKit/537.36 (KHTML, like Gecko) Chrome/49.0.2623.87 Safari/537.36","WebKit","Chrome","49.0.2623.87","Windows","6.1","null","<div style=""font-size:60px;"">+</div>","null",""
"","","","","","html-button-response","11","48896","0.0-4.0-1.3","29","1","2022-11-13 08:23:11","a60ee176136a54a92dc2853177adfa2c","183.6.41.108","Mozilla/5.0 (Windows NT 6.1; WOW64) AppleWebKit/537.36 (KHTML, like Gecko) Chrome/49.0.2623.87 Safari/537.36","WebKit","Chrome","49.0.2623.87","Windows","6.1","5457","<p>作为军队的指挥官，你可以选择发射导弹杀死 <strong>2名</strong> 敌国士兵，但会炸毁附近的 <strong>1棵</strong> 敌国树木。</p> <p>树木的照片如下图所示。</p> <p></p> <img src='stimuli/trees/8.png', style='max-width: 30%;'> </img> <p><strong>你是否选择发射武器？</strong></p>","0",""
"","","","","","html-keyboard-response","12","49902","0.0-4.0-0.4","29","1","2022-11-13 08:23:11","a60ee176136a54a92dc2853177adfa2c","183.6.41.108","Mozilla/5.0 (Windows NT 6.1; WOW64) AppleWebKit/537.36 (KHTML, like Gecko) Chrome/49.0.2623.87 Safari/537.36","WebKit","Chrome","49.0.2623.87","Windows","6.1","null","<div style=""font-size:60px;"">+</div>","null",""
"","","","","","html-button-response","13","53317","0.0-4.0-1.4","29","1","2022-11-13 08:23:11","a60ee176136a54a92dc2853177adfa2c","183.6.41.108","Mozilla/5.0 (Windows NT 6.1; WOW64) AppleWebKit/537.36 (KHTML, like Gecko) Chrome/49.0.2623.87 Safari/537.36","WebKit","Chrome","49.0.2623.87","Windows","6.1","3404","<p>作为军队的指挥官，你可以选择发射导弹杀死 <strong>7名</strong> 敌国士兵，但会炸毁附近的 <strong>1棵</strong> 敌国树木。</p> <p>树木的照片如下图所示。</p> <p></p> <img src='stimuli/trees/4.png', style='max-width: 30%;'> </img> <p><strong>你是否选择发射武器？</strong></p>","0",""
"","","","","","html-keyboard-response","14","54322","0.0-4.0-0.5","29","1","2022-11-13 08:23:11","a60ee176136a54a92dc2853177adfa2c","183.6.41.108","Mozilla/5.0 (Windows NT 6.1; WOW64) AppleWebKit/537.36 (KHTML, like Gecko) Chrome/49.0.2623.87 Safari/537.36","WebKit","Chrome","49.0.2623.87","Windows","6.1","null","<div style=""font-size:60px;"">+</div>","null",""
"","","","","","html-button-response","15","239852","0.0-4.0-1.5","29","1","2022-11-13 08:23:11","a60ee176136a54a92dc2853177adfa2c","183.6.41.108","Mozilla/5.0 (Windows NT 6.1; WOW64) AppleWebKit/537.36 (KHTML, like Gecko) Chrome/49.0.2623.87 Safari/537.36","WebKit","Chrome","49.0.2623.87","Windows","6.1","68501","<p>作为军队的指挥官，你可以选择发射导弹杀死 <strong>3名</strong> 敌国士兵，但会误杀附近的 <strong>1名</strong> 敌国平民。</p> <p>平民照片如下图所示。</p> <p></p> <img src='stimuli/faces/PCM3.jpg', style='max-width: 30%;'> </img> <p><strong>你是否选择发射武器？</strong></p>","1",""
"","","","","","html-keyboard-response","16","240857","0.0-4.0-0.6","29","1","2022-11-13 08:23:11","a60ee176136a54a92dc2853177adfa2c","183.6.41.108","Mozilla/5.0 (Windows NT 6.1; WOW64) AppleWebKit/537.36 (KHTML, like Gecko) Chrome/49.0.2623.87 Safari/537.36","WebKit","Chrome","49.0.2623.87","Windows","6.1","null","<div style=""font-size:60px;"">+</div>","null",""
"","","","","","html-button-response","17","244747","0.0-4.0-1.6","29","1","2022-11-13 08:23:11","a60ee176136a54a92dc2853177adfa2c","183.6.41.108","Mozilla/5.0 (Windows NT 6.1; WOW64) AppleWebKit/537.36 (KHTML, like Gecko) Chrome/49.0.2623.87 Safari/537.36","WebKit","Chrome","49.0.2623.87","Windows","6.1","3883","<p>作为军队的指挥官，你可以选择发射导弹杀死 <strong>3名</strong> 敌国士兵，但会误杀附近的 <strong>1名</strong> 敌国平民。</p> <p>平民照片如下图所示。</p> <p></p> <img src='stimuli/faces/PCM7.jpg', style='max-width: 30%;'> </img> <p><strong>你是否选择发射武器？</strong></p>","1",""
"","","","","","html-keyboard-response","18","245756","0.0-4.0-0.7","29","1","2022-11-13 08:23:11","a60ee176136a54a92dc2853177adfa2c","183.6.41.108","Mozilla/5.0 (Windows NT 6.1; WOW64) AppleWebKit/537.36 (KHTML, like Gecko) Chrome/49.0.2623.87 Safari/537.36","WebKit","Chrome","49.0.2623.87","Windows","6.1","null","<div style=""font-size:60px;"">+</div>","null",""
"","","","","","html-button-response","19","259889","0.0-4.0-1.7","29","1","2022-11-13 08:23:11","a60ee176136a54a92dc2853177adfa2c","183.6.41.108","Mozilla/5.0 (Windows NT 6.1; WOW64) AppleWebKit/537.36 (KHTML, like Gecko) Chrome/49.0.2623.87 Safari/537.36","WebKit","Chrome","49.0.2623.87","Windows","6.1","14124","<p>作为军队的指挥官，你可以选择发射导弹杀死 <strong>6名</strong> 敌国士兵，但会误杀附近的 <strong>1名</strong> 敌国平民。</p> <p>平民照片如下图所示。</p> <p></p> <img src='stimuli/faces/PCM8.jpg', style='max-width: 30%;'> </img> <p><strong>你是否选择发射武器？</strong></p>","1",""
"","","","","","html-keyboard-response","20","260895","0.0-4.0-0.8","29","1","2022-11-13 08:23:11","a60ee176136a54a92dc2853177adfa2c","183.6.41.108","Mozilla/5.0 (Windows NT 6.1; WOW64) AppleWebKit/537.36 (KHTML, like Gecko) Chrome/49.0.2623.87 Safari/537.36","WebKit","Chrome","49.0.2623.87","Windows","6.1","null","<div style=""font-size:60px;"">+</div>","null",""
"","","","","","html-button-response","21","274371","0.0-4.0-1.8","29","1","2022-11-13 08:23:11","a60ee176136a54a92dc2853177adfa2c","183.6.41.108","Mozilla/5.0 (Windows NT 6.1; WOW64) AppleWebKit/537.36 (KHTML, like Gecko) Chrome/49.0.2623.87 Safari/537.36","WebKit","Chrome","49.0.2623.87","Windows","6.1","13466","<p>作为军队的指挥官，你可以选择发射导弹杀死 <strong>7名</strong> 敌国士兵，但会误杀附近的 <strong>1名</strong> 敌国平民。</p> <p>平民照片如下图所示。</p> <p></p> <img src='stimuli/faces/PCM3.jpg', style='max-width: 30%;'> </img> <p><strong>你是否选择发射武器？</strong></p>","1",""
"","","","","","html-keyboard-response","22","275379","0.0-4.0-0.9","29","1","2022-11-13 08:23:11","a60ee176136a54a92dc2853177adfa2c","183.6.41.108","Mozilla/5.0 (Windows NT 6.1; WOW64) AppleWebKit/537.36 (KHTML, like Gecko) Chrome/49.0.2623.87 Safari/537.36","WebKit","Chrome","49.0.2623.87","Windows","6.1","null","<div style=""font-size:60px;"">+</div>","null",""
"","","","","","html-button-response","23","278970","0.0-4.0-1.9","29","1","2022-11-13 08:23:11","a60ee176136a54a92dc2853177adfa2c","183.6.41.108","Mozilla/5.0 (Windows NT 6.1; WOW64) AppleWebKit/537.36 (KHTML, like Gecko) Chrome/49.0.2623.87 Safari/537.36","WebKit","Chrome","49.0.2623.87","Windows","6.1","3581","<p>作为军队的指挥官，你可以选择发射导弹杀死 <strong>5名</strong> 敌国士兵，但会误杀附近的 <strong>1名</strong> 敌国平民。</p> <p>平民照片如下图所示。</p> <p></p> <img src='stimuli/faces/PCF6.jpg', style='max-width: 30%;'> </img> <p><strong>你是否选择发射武器？</strong></p>","1",""
"","","","","","html-keyboard-response","24","279976","0.0-4.0-0.10","29","1","2022-11-13 08:23:11","a60ee176136a54a92dc2853177adfa2c","183.6.41.108","Mozilla/5.0 (Windows NT 6.1; WOW64) AppleWebKit/537.36 (KHTML, like Gecko) Chrome/49.0.2623.87 Safari/537.36","WebKit","Chrome","49.0.2623.87","Windows","6.1","null","<div style=""font-size:60px;"">+</div>","null",""
"","","","","","html-button-response","25","294616","0.0-4.0-1.10","29","1","2022-11-13 08:23:11","a60ee176136a54a92dc2853177adfa2c","183.6.41.108","Mozilla/5.0 (Windows NT 6.1; WOW64) AppleWebKit/537.36 (KHTML, like Gecko) Chrome/49.0.2623.87 Safari/537.36","WebKit","Chrome","49.0.2623.87","Windows","6.1","14630","<p>作为军队的指挥官，你可以选择发射导弹杀死 <strong>2名</strong> 敌国士兵，但会误杀附近的 <strong>1名</strong> 敌国平民。</p> <p>平民照片如下图所示。</p> <p></p> <img src='stimuli/faces/PCM2.jpg', style='max-width: 30%;'> </img> <p><strong>你是否选择发射武器？</strong></p>","1",""
"","","","","","html-keyboard-response","26","295623","0.0-4.0-0.11","29","1","2022-11-13 08:23:11","a60ee176136a54a92dc2853177adfa2c","183.6.41.108","Mozilla/5.0 (Windows NT 6.1; WOW64) AppleWebKit/537.36 (KHTML, like Gecko) Chrome/49.0.2623.87 Safari/537.36","WebKit","Chrome","49.0.2623.87","Windows","6.1","null","<div style=""font-size:60px;"">+</div>","null",""
"","","","","","html-button-response","27","299564","0.0-4.0-1.11","29","1","2022-11-13 08:23:11","a60ee176136a54a92dc2853177adfa2c","183.6.41.108","Mozilla/5.0 (Windows NT 6.1; WOW64) AppleWebKit/537.36 (KHTML, like Gecko) Chrome/49.0.2623.87 Safari/537.36","WebKit","Chrome","49.0.2623.87","Windows","6.1","3930","<p>作为军队的指挥官，你可以选择发射导弹杀死 <strong>4名</strong> 敌国士兵，但会误杀附近的 <strong>1名</strong> 敌国平民。</p> <p>平民照片如下图所示。</p> <p></p> <img src='stimuli/faces/PCM5.jpg', style='max-width: 30%;'> </img> <p><strong>你是否选择发射武器？</strong></p>","1",""
"","","","","","html-keyboard-response","28","300573","0.0-4.0-0.12","29","1","2022-11-13 08:23:11","a60ee176136a54a92dc2853177adfa2c","183.6.41.108","Mozilla/5.0 (Windows NT 6.1; WOW64) AppleWebKit/537.36 (KHTML, like Gecko) Chrome/49.0.2623.87 Safari/537.36","WebKit","Chrome","49.0.2623.87","Windows","6.1","null","<div style=""font-size:60px;"">+</div>","null",""
"","","","","","html-button-response","29","301463","0.0-4.0-1.12","29","1","2022-11-13 08:23:11","a60ee176136a54a92dc2853177adfa2c","183.6.41.108","Mozilla/5.0 (Windows NT 6.1; WOW64) AppleWebKit/537.36 (KHTML, like Gecko) Chrome/49.0.2623.87 Safari/537.36","WebKit","Chrome","49.0.2623.87","Windows","6.1","879","<p>作为军队的指挥官，你可以选择发射导弹杀死 <strong>9名</strong> 敌国士兵，但会误杀附近的 <strong>1名</strong> 敌国平民。</p> <p>平民照片如下图所示。</p> <p></p> <img src='stimuli/faces/PCF1.jpg', style='max-width: 30%;'> </img> <p><strong>你是否选择发射武器？</strong></p>","1",""
"","","","","","html-keyboard-response","30","302471","0.0-4.0-0.13","29","1","2022-11-13 08:23:11","a60ee176136a54a92dc2853177adfa2c","183.6.41.108","Mozilla/5.0 (Windows NT 6.1; WOW64) AppleWebKit/537.36 (KHTML, like Gecko) Chrome/49.0.2623.87 Safari/537.36","WebKit","Chrome","49.0.2623.87","Windows","6.1","null","<div style=""font-size:60px;"">+</div>","null",""
"","","","","","html-button-response","31","303279","0.0-4.0-1.13","29","1","2022-11-13 08:23:11","a60ee176136a54a92dc2853177adfa2c","183.6.41.108","Mozilla/5.0 (Windows NT 6.1; WOW64) AppleWebKit/537.36 (KHTML, like Gecko) Chrome/49.0.2623.87 Safari/537.36","WebKit","Chrome","49.0.2623.87","Windows","6.1","799","<p>作为军队的指挥官，你可以选择发射导弹杀死 <strong>8名</strong> 敌国士兵，但会误杀附近的 <strong>1名</strong> 敌国平民。</p> <p>平民照片如下图所示。</p> <p></p> <img src='stimuli/faces/PCM1.jpg', style='max-width: 30%;'> </img> <p><strong>你是否选择发射武器？</strong></p>","1",""
"","","","","","html-keyboard-response","32","304287","0.0-4.0-0.14","29","1","2022-11-13 08:23:11","a60ee176136a54a92dc2853177adfa2c","183.6.41.108","Mozilla/5.0 (Windows NT 6.1; WOW64) AppleWebKit/537.36 (KHTML, like Gecko) Chrome/49.0.2623.87 Safari/537.36","WebKit","Chrome","49.0.2623.87","Windows","6.1","null","<div style=""font-size:60px;"">+</div>","null",""
"","","","","","html-button-response","33","310148","0.0-4.0-1.14","29","1","2022-11-13 08:23:11","a60ee176136a54a92dc2853177adfa2c","183.6.41.108","Mozilla/5.0 (Windows NT 6.1; WOW64) AppleWebKit/537.36 (KHTML, like Gecko) Chrome/49.0.2623.87 Safari/537.36","WebKit","Chrome","49.0.2623.87","Windows","6.1","5851","<p>作为军队的指挥官，你可以选择发射导弹杀死 <strong>10名</strong> 敌国士兵，但会炸毁附近的 <strong>1棵</strong> 敌国树木。</p> <p>树木的照片如下图所示。</p> <p></p> <img src='stimuli/trees/6.png', style='max-width: 30%;'> </img> <p><strong>你是否选择发射武器？</strong></p>","1",""
"","","","","","html-keyboard-response","34","311155","0.0-4.0-0.15","29","1","2022-11-13 08:23:11","a60ee176136a54a92dc2853177adfa2c","183.6.41.108","Mozilla/5.0 (Windows NT 6.1; WOW64) AppleWebKit/537.36 (KHTML, like Gecko) Chrome/49.0.2623.87 Safari/537.36","WebKit","Chrome","49.0.2623.87","Windows","6.1","null","<div style=""font-size:60px;"">+</div>","null",""
"","","","","","html-button-response","35","312090","0.0-4.0-1.15","29","1","2022-11-13 08:23:11","a60ee176136a54a92dc2853177adfa2c","183.6.41.108","Mozilla/5.0 (Windows NT 6.1; WOW64) AppleWebKit/537.36 (KHTML, like Gecko) Chrome/49.0.2623.87 Safari/537.36","WebKit","Chrome","49.0.2623.87","Windows","6.1","926","<p>作为军队的指挥官，你可以选择发射导弹杀死 <strong>7名</strong> 敌国士兵，但会误杀附近的 <strong>1名</strong> 敌国平民。</p> <p>平民照片如下图所示。</p> <p></p> <img src='stimuli/faces/PCM6.jpg', style='max-width: 30%;'> </img> <p><strong>你是否选择发射武器？</strong></p>","1",""
"","","","","","html-keyboard-response","36","313100","0.0-4.0-0.16","29","1","2022-11-13 08:23:11","a60ee176136a54a92dc2853177adfa2c","183.6.41.108","Mozilla/5.0 (Windows NT 6.1; WOW64) AppleWebKit/537.36 (KHTML, like Gecko) Chrome/49.0.2623.87 Safari/537.36","WebKit","Chrome","49.0.2623.87","Windows","6.1","null","<div style=""font-size:60px;"">+</div>","null",""
"","","","","","html-button-response","37","313785","0.0-4.0-1.16","29","1","2022-11-13 08:23:11","a60ee176136a54a92dc2853177adfa2c","183.6.41.108","Mozilla/5.0 (Windows NT 6.1; WOW64) AppleWebKit/537.36 (KHTML, like Gecko) Chrome/49.0.2623.87 Safari/537.36","WebKit","Chrome","49.0.2623.87","Windows","6.1","675","<p>作为军队的指挥官，你可以选择发射导弹杀死 <strong>4名</strong> 敌国士兵，但会误杀附近的 <strong>1名</strong> 敌国平民。</p> <p>平民照片如下图所示。</p> <p></p> <img src='stimuli/faces/PCF4.jpg', style='max-width: 30%;'> </img> <p><strong>你是否选择发射武器？</strong></p>","1",""
"","","","","","html-keyboard-response","38","314794","0.0-4.0-0.17","29","1","2022-11-13 08:23:11","a60ee176136a54a92dc2853177adfa2c","183.6.41.108","Mozilla/5.0 (Windows NT 6.1; WOW64) AppleWebKit/537.36 (KHTML, like Gecko) Chrome/49.0.2623.87 Safari/537.36","WebKit","Chrome","49.0.2623.87","Windows","6.1","null","<div style=""font-size:60px;"">+</div>","null",""
"","","","","","html-button-response","39","315497","0.0-4.0-1.17","29","1","2022-11-13 08:23:11","a60ee176136a54a92dc2853177adfa2c","183.6.41.108","Mozilla/5.0 (Windows NT 6.1; WOW64) AppleWebKit/537.36 (KHTML, like Gecko) Chrome/49.0.2623.87 Safari/537.36","WebKit","Chrome","49.0.2623.87","Windows","6.1","692","<p>作为军队的指挥官，你可以选择发射导弹杀死 <strong>2名</strong> 敌国士兵，但会误杀附近的 <strong>1名</strong> 敌国平民。</p> <p>平民照片如下图所示。</p> <p></p> <img src='stimuli/faces/PCM4.jpg', style='max-width: 30%;'> </img> <p><strong>你是否选择发射武器？</strong></p>","1",""
"","","","","","html-keyboard-response","40","316506","0.0-4.0-0.18","29","1","2022-11-13 08:23:11","a60ee176136a54a92dc2853177adfa2c","183.6.41.108","Mozilla/5.0 (Windows NT 6.1; WOW64) AppleWebKit/537.36 (KHTML, like Gecko) Chrome/49.0.2623.87 Safari/537.36","WebKit","Chrome","49.0.2623.87","Windows","6.1","null","<div style=""font-size:60px;"">+</div>","null",""
"","","","","","html-button-response","41","317448","0.0-4.0-1.18","29","1","2022-11-13 08:23:11","a60ee176136a54a92dc2853177adfa2c","183.6.41.108","Mozilla/5.0 (Windows NT 6.1; WOW64) AppleWebKit/537.36 (KHTML, like Gecko) Chrome/49.0.2623.87 Safari/537.36","WebKit","Chrome","49.0.2623.87","Windows","6.1","929","<p>作为军队的指挥官，你可以选择发射导弹杀死 <strong>3名</strong> 敌国士兵，但会误杀附近的 <strong>1名</strong> 敌国平民。</p> <p>平民照片如下图所示。</p> <p></p> <img src='stimuli/faces/PCF3.jpg', style='max-width: 30%;'> </img> <p><strong>你是否选择发射武器？</strong></p>","1",""
"","","","","","html-keyboard-response","42","318457","0.0-4.0-0.19","29","1","2022-11-13 08:23:11","a60ee176136a54a92dc2853177adfa2c","183.6.41.108","Mozilla/5.0 (Windows NT 6.1; WOW64) AppleWebKit/537.36 (KHTML, like Gecko) Chrome/49.0.2623.87 Safari/537.36","WebKit","Chrome","49.0.2623.87","Windows","6.1","null","<div style=""font-size:60px;"">+</div>","null",""
"","","","","","html-button-response","43","319204","0.0-4.0-1.19","29","1","2022-11-13 08:23:11","a60ee176136a54a92dc2853177adfa2c","183.6.41.108","Mozilla/5.0 (Windows NT 6.1; WOW64) AppleWebKit/537.36 (KHTML, like Gecko) Chrome/49.0.2623.87 Safari/537.36","WebKit","Chrome","49.0.2623.87","Windows","6.1","735","<p>作为军队的指挥官，你可以选择发射导弹杀死 <strong>2名</strong> 敌国士兵，但会炸毁附近的 <strong>1棵</strong> 敌国树木。</p> <p>树木的照片如下图所示。</p> <p></p> <img src='stimuli/trees/4.png', style='max-width: 30%;'> </img> <p><strong>你是否选择发射武器？</strong></p>","0",""
"","","","","","html-keyboard-response","44","320213","0.0-4.0-0.20","29","1","2022-11-13 08:23:11","a60ee176136a54a92dc2853177adfa2c","183.6.41.108","Mozilla/5.0 (Windows NT 6.1; WOW64) AppleWebKit/537.36 (KHTML, like Gecko) Chrome/49.0.2623.87 Safari/537.36","WebKit","Chrome","49.0.2623.87","Windows","6.1","null","<div style=""font-size:60px;"">+</div>","null",""
"","","","","","html-button-response","45","321073","0.0-4.0-1.20","29","1","2022-11-13 08:23:11","a60ee176136a54a92dc2853177adfa2c","183.6.41.108","Mozilla/5.0 (Windows NT 6.1; WOW64) AppleWebKit/537.36 (KHTML, like Gecko) Chrome/49.0.2623.87 Safari/537.36","WebKit","Chrome","49.0.2623.87","Windows","6.1","849","<p>作为军队的指挥官，你可以选择发射导弹杀死 <strong>8名</strong> 敌国士兵，但会误杀附近的 <strong>1名</strong> 敌国平民。</p> <p>平民照片如下图所示。</p> <p></p> <img src='stimuli/faces/PCF8.jpg', style='max-width: 30%;'> </img> <p><strong>你是否选择发射武器？</strong></p>","1",""
"","","","","","html-keyboard-response","46","322082","0.0-4.0-0.21","29","1","2022-11-13 08:23:11","a60ee176136a54a92dc2853177adfa2c","183.6.41.108","Mozilla/5.0 (Windows NT 6.1; WOW64) AppleWebKit/537.36 (KHTML, like Gecko) Chrome/49.0.2623.87 Safari/537.36","WebKit","Chrome","49.0.2623.87","Windows","6.1","null","<div style=""font-size:60px;"">+</div>","null",""
"","","","","","html-button-response","47","327221","0.0-4.0-1.21","29","1","2022-11-13 08:23:11","a60ee176136a54a92dc2853177adfa2c","183.6.41.108","Mozilla/5.0 (Windows NT 6.1; WOW64) AppleWebKit/537.36 (KHTML, like Gecko) Chrome/49.0.2623.87 Safari/537.36","WebKit","Chrome","49.0.2623.87","Windows","6.1","5126","<p>作为军队的指挥官，你可以选择发射导弹杀死 <strong>10名</strong> 敌国士兵，但会炸毁附近的 <strong>1棵</strong> 敌国树木。</p> <p>树木的照片如下图所示。</p> <p></p> <img src='stimuli/trees/10.png', style='max-width: 30%;'> </img> <p><strong>你是否选择发射武器？</strong></p>","0",""
"","","","","","html-keyboard-response","48","328230","0.0-4.0-0.22","29","1","2022-11-13 08:23:11","a60ee176136a54a92dc2853177adfa2c","183.6.41.108","Mozilla/5.0 (Windows NT 6.1; WOW64) AppleWebKit/537.36 (KHTML, like Gecko) Chrome/49.0.2623.87 Safari/537.36","WebKit","Chrome","49.0.2623.87","Windows","6.1","null","<div style=""font-size:60px;"">+</div>","null",""
"","","","","","html-button-response","49","329410","0.0-4.0-1.22","29","1","2022-11-13 08:23:11","a60ee176136a54a92dc2853177adfa2c","183.6.41.108","Mozilla/5.0 (Windows NT 6.1; WOW64) AppleWebKit/537.36 (KHTML, like Gecko) Chrome/49.0.2623.87 Safari/537.36","WebKit","Chrome","49.0.2623.87","Windows","6.1","1168","<p>作为军队的指挥官，你可以选择发射导弹杀死 <strong>2名</strong> 敌国士兵，但会炸毁附近的 <strong>1棵</strong> 敌国树木。</p> <p>树木的照片如下图所示。</p> <p></p> <img src='stimuli/trees/3.png', style='max-width: 30%;'> </img> <p><strong>你是否选择发射武器？</strong></p>","0",""
"","","","","","html-keyboard-response","50","330421","0.0-4.0-0.23","29","1","2022-11-13 08:23:11","a60ee176136a54a92dc2853177adfa2c","183.6.41.108","Mozilla/5.0 (Windows NT 6.1; WOW64) AppleWebKit/537.36 (KHTML, like Gecko) Chrome/49.0.2623.87 Safari/537.36","WebKit","Chrome","49.0.2623.87","Windows","6.1","null","<div style=""font-size:60px;"">+</div>","null",""
"","","","","","html-button-response","51","330947","0.0-4.0-1.23","29","1","2022-11-13 08:23:11","a60ee176136a54a92dc2853177adfa2c","183.6.41.108","Mozilla/5.0 (Windows NT 6.1; WOW64) AppleWebKit/537.36 (KHTML, like Gecko) Chrome/49.0.2623.87 Safari/537.36","WebKit","Chrome","49.0.2623.87","Windows","6.1","516","<p>作为军队的指挥官，你可以选择发射导弹杀死 <strong>3名</strong> 敌国士兵，但会炸毁附近的 <strong>1棵</strong> 敌国树木。</p> <p>树木的照片如下图所示。</p> <p></p> <img src='stimuli/trees/15.png', style='max-width: 30%;'> </img> <p><strong>你是否选择发射武器？</strong></p>","0",""
"","","","","","html-keyboard-response","52","331957","0.0-4.0-0.24","29","1","2022-11-13 08:23:11","a60ee176136a54a92dc2853177adfa2c","183.6.41.108","Mozilla/5.0 (Windows NT 6.1; WOW64) AppleWebKit/537.36 (KHTML, like Gecko) Chrome/49.0.2623.87 Safari/537.36","WebKit","Chrome","49.0.2623.87","Windows","6.1","null","<div style=""font-size:60px;"">+</div>","null",""
"","","","","","html-button-response","53","332323","0.0-4.0-1.24","29","1","2022-11-13 08:23:11","a60ee176136a54a92dc2853177adfa2c","183.6.41.108","Mozilla/5.0 (Windows NT 6.1; WOW64) AppleWebKit/537.36 (KHTML, like Gecko) Chrome/49.0.2623.87 Safari/537.36","WebKit","Chrome","49.0.2623.87","Windows","6.1","354","<p>作为军队的指挥官，你可以选择发射导弹杀死 <strong>8名</strong> 敌国士兵，但会误杀附近的 <strong>1名</strong> 敌国平民。</p> <p>平民照片如下图所示。</p> <p></p> <img src='stimuli/faces/PCM5.jpg', style='max-width: 30%;'> </img> <p><strong>你是否选择发射武器？</strong></p>","0",""
"","","","","","html-keyboard-response","54","333331","0.0-4.0-0.25","29","1","2022-11-13 08:23:11","a60ee176136a54a92dc2853177adfa2c","183.6.41.108","Mozilla/5.0 (Windows NT 6.1; WOW64) AppleWebKit/537.36 (KHTML, like Gecko) Chrome/49.0.2623.87 Safari/537.36","WebKit","Chrome","49.0.2623.87","Windows","6.1","null","<div style=""font-size:60px;"">+</div>","null",""
"","","","","","html-button-response","55","333814","0.0-4.0-1.25","29","1","2022-11-13 08:23:11","a60ee176136a54a92dc2853177adfa2c","183.6.41.108","Mozilla/5.0 (Windows NT 6.1; WOW64) AppleWebKit/537.36 (KHTML, like Gecko) Chrome/49.0.2623.87 Safari/537.36","WebKit","Chrome","49.0.2623.87","Windows","6.1","468","<p>作为军队的指挥官，你可以选择发射导弹杀死 <strong>10名</strong> 敌国士兵，但会误杀附近的 <strong>1名</strong> 敌国平民。</p> <p>平民照片如下图所示。</p> <p></p> <img src='stimuli/faces/PCF5.jpg', style='max-width: 30%;'> </img> <p><strong>你是否选择发射武器？</strong></p>","0",""
"","","","","","html-keyboard-response","56","334823","0.0-4.0-0.26","29","1","2022-11-13 08:23:11","a60ee176136a54a92dc2853177adfa2c","183.6.41.108","Mozilla/5.0 (Windows NT 6.1; WOW64) AppleWebKit/537.36 (KHTML, like Gecko) Chrome/49.0.2623.87 Safari/537.36","WebKit","Chrome","49.0.2623.87","Windows","6.1","null","<div style=""font-size:60px;"">+</div>","null",""
"","","","","","html-button-response","57","335460","0.0-4.0-1.26","29","1","2022-11-13 08:23:11","a60ee176136a54a92dc2853177adfa2c","183.6.41.108","Mozilla/5.0 (Windows NT 6.1; WOW64) AppleWebKit/537.36 (KHTML, like Gecko) Chrome/49.0.2623.87 Safari/537.36","WebKit","Chrome","49.0.2623.87","Windows","6.1","624","<p>作为军队的指挥官，你可以选择发射导弹杀死 <strong>9名</strong> 敌国士兵，但会误杀附近的 <strong>1名</strong> 敌国平民。</p> <p>平民照片如下图所示。</p> <p></p> <img src='stimuli/faces/PCF3.jpg', style='max-width: 30%;'> </img> <p><strong>你是否选择发射武器？</strong></p>","0",""
"","","","","","html-keyboard-response","58","336471","0.0-4.0-0.27","29","1","2022-11-13 08:23:11","a60ee176136a54a92dc2853177adfa2c","183.6.41.108","Mozilla/5.0 (Windows NT 6.1; WOW64) AppleWebKit/537.36 (KHTML, like Gecko) Chrome/49.0.2623.87 Safari/537.36","WebKit","Chrome","49.0.2623.87","Windows","6.1","null","<div style=""font-size:60px;"">+</div>","null",""
"","","","","","html-button-response","59","337281","0.0-4.0-1.27","29","1","2022-11-13 08:23:11","a60ee176136a54a92dc2853177adfa2c","183.6.41.108","Mozilla/5.0 (Windows NT 6.1; WOW64) AppleWebKit/537.36 (KHTML, like Gecko) Chrome/49.0.2623.87 Safari/537.36","WebKit","Chrome","49.0.2623.87","Windows","6.1","796","<p>作为军队的指挥官，你可以选择发射导弹杀死 <strong>7名</strong> 敌国士兵，但会炸毁附近的 <strong>1棵</strong> 敌国树木。</p> <p>树木的照片如下图所示。</p> <p></p> <img src='stimuli/trees/2.png', style='max-width: 30%;'> </img> <p><strong>你是否选择发射武器？</strong></p>","0",""
"","","","","","html-keyboard-response","60","338291","0.0-4.0-0.28","29","1","2022-11-13 08:23:11","a60ee176136a54a92dc2853177adfa2c","183.6.41.108","Mozilla/5.0 (Windows NT 6.1; WOW64) AppleWebKit/537.36 (KHTML, like Gecko) Chrome/49.0.2623.87 Safari/537.36","WebKit","Chrome","49.0.2623.87","Windows","6.1","null","<div style=""font-size:60px;"">+</div>","null",""
"","","","","","html-button-response","61","338835","0.0-4.0-1.28","29","1","2022-11-13 08:23:11","a60ee176136a54a92dc2853177adfa2c","183.6.41.108","Mozilla/5.0 (Windows NT 6.1; WOW64) AppleWebKit/537.36 (KHTML, like Gecko) Chrome/49.0.2623.87 Safari/537.36","WebKit","Chrome","49.0.2623.87","Windows","6.1","531","<p>作为军队的指挥官，你可以选择发射导弹杀死 <strong>6名</strong> 敌国士兵，但会炸毁附近的 <strong>1棵</strong> 敌国树木。</p> <p>树木的照片如下图所示。</p> <p></p> <img src='stimuli/trees/1.png', style='max-width: 30%;'> </img> <p><strong>你是否选择发射武器？</strong></p>","0",""
"","","","","","html-keyboard-response","62","339846","0.0-4.0-0.29","29","1","2022-11-13 08:23:11","a60ee176136a54a92dc2853177adfa2c","183.6.41.108","Mozilla/5.0 (Windows NT 6.1; WOW64) AppleWebKit/537.36 (KHTML, like Gecko) Chrome/49.0.2623.87 Safari/537.36","WebKit","Chrome","49.0.2623.87","Windows","6.1","null","<div style=""font-size:60px;"">+</div>","null",""
"","","","","","html-button-response","63","340554","0.0-4.0-1.29","29","1","2022-11-13 08:23:11","a60ee176136a54a92dc2853177adfa2c","183.6.41.108","Mozilla/5.0 (Windows NT 6.1; WOW64) AppleWebKit/537.36 (KHTML, like Gecko) Chrome/49.0.2623.87 Safari/537.36","WebKit","Chrome","49.0.2623.87","Windows","6.1","695","<p>作为军队的指挥官，你可以选择发射导弹杀死 <strong>6名</strong> 敌国士兵，但会误杀附近的 <strong>1名</strong> 敌国平民。</p> <p>平民照片如下图所示。</p> <p></p> <img src='stimuli/faces/PCM7.jpg', style='max-width: 30%;'> </img> <p><strong>你是否选择发射武器？</strong></p>","0",""
"","","","","","html-keyboard-response","64","341565","0.0-4.0-0.30","29","1","2022-11-13 08:23:11","a60ee176136a54a92dc2853177adfa2c","183.6.41.108","Mozilla/5.0 (Windows NT 6.1; WOW64) AppleWebKit/537.36 (KHTML, like Gecko) Chrome/49.0.2623.87 Safari/537.36","WebKit","Chrome","49.0.2623.87","Windows","6.1","null","<div style=""font-size:60px;"">+</div>","null",""
"","","","","","html-button-response","65","342946","0.0-4.0-1.30","29","1","2022-11-13 08:23:11","a60ee176136a54a92dc2853177adfa2c","183.6.41.108","Mozilla/5.0 (Windows NT 6.1; WOW64) AppleWebKit/537.36 (KHTML, like Gecko) Chrome/49.0.2623.87 Safari/537.36","WebKit","Chrome","49.0.2623.87","Windows","6.1","1366","<p>作为军队的指挥官，你可以选择发射导弹杀死 <strong>1名</strong> 敌国士兵，但会误杀附近的 <strong>1名</strong> 敌国平民。</p> <p>平民照片如下图所示。</p> <p></p> <img src='stimuli/faces/PCF5.jpg', style='max-width: 30%;'> </img> <p><strong>你是否选择发射武器？</strong></p>","1",""
"","","","","","html-keyboard-response","66","343955","0.0-4.0-0.31","29","1","2022-11-13 08:23:11","a60ee176136a54a92dc2853177adfa2c","183.6.41.108","Mozilla/5.0 (Windows NT 6.1; WOW64) AppleWebKit/537.36 (KHTML, like Gecko) Chrome/49.0.2623.87 Safari/537.36","WebKit","Chrome","49.0.2623.87","Windows","6.1","null","<div style=""font-size:60px;"">+</div>","null",""
"","","","","","html-button-response","67","345535","0.0-4.0-1.31","29","1","2022-11-13 08:23:11","a60ee176136a54a92dc2853177adfa2c","183.6.41.108","Mozilla/5.0 (Windows NT 6.1; WOW64) AppleWebKit/537.36 (KHTML, like Gecko) Chrome/49.0.2623.87 Safari/537.36","WebKit","Chrome","49.0.2623.87","Windows","6.1","1564","<p>作为军队的指挥官，你可以选择发射导弹杀死 <strong>2名</strong> 敌国士兵，但会误杀附近的 <strong>1名</strong> 敌国平民。</p> <p>平民照片如下图所示。</p> <p></p> <img src='stimuli/faces/PCF7.jpg', style='max-width: 30%;'> </img> <p><strong>你是否选择发射武器？</strong></p>","1",""
"","","","","","html-keyboard-response","68","346546","0.0-4.0-0.32","29","1","2022-11-13 08:23:11","a60ee176136a54a92dc2853177adfa2c","183.6.41.108","Mozilla/5.0 (Windows NT 6.1; WOW64) AppleWebKit/537.36 (KHTML, like Gecko) Chrome/49.0.2623.87 Safari/537.36","WebKit","Chrome","49.0.2623.87","Windows","6.1","null","<div style=""font-size:60px;"">+</div>","null",""
"","","","","","html-button-response","69","348051","0.0-4.0-1.32","29","1","2022-11-13 08:23:11","a60ee176136a54a92dc2853177adfa2c","183.6.41.108","Mozilla/5.0 (Windows NT 6.1; WOW64) AppleWebKit/537.36 (KHTML, like Gecko) Chrome/49.0.2623.87 Safari/537.36","WebKit","Chrome","49.0.2623.87","Windows","6.1","1490","<p>作为军队的指挥官，你可以选择发射导弹杀死 <strong>1名</strong> 敌国士兵，但会误杀附近的 <strong>1名</strong> 敌国平民。</p> <p>平民照片如下图所示。</p> <p></p> <img src='stimuli/faces/PCF2.jpg', style='max-width: 30%;'> </img> <p><strong>你是否选择发射武器？</strong></p>","1",""
"","","","","","html-keyboard-response","70","349064","0.0-4.0-0.33","29","1","2022-11-13 08:23:11","a60ee176136a54a92dc2853177adfa2c","183.6.41.108","Mozilla/5.0 (Windows NT 6.1; WOW64) AppleWebKit/537.36 (KHTML, like Gecko) Chrome/49.0.2623.87 Safari/537.36","WebKit","Chrome","49.0.2623.87","Windows","6.1","null","<div style=""font-size:60px;"">+</div>","null",""
"","","","","","html-button-response","71","350231","0.0-4.0-1.33","29","1","2022-11-13 08:23:11","a60ee176136a54a92dc2853177adfa2c","183.6.41.108","Mozilla/5.0 (Windows NT 6.1; WOW64) AppleWebKit/537.36 (KHTML, like Gecko) Chrome/49.0.2623.87 Safari/537.36","WebKit","Chrome","49.0.2623.87","Windows","6.1","1152","<p>作为军队的指挥官，你可以选择发射导弹杀死 <strong>6名</strong> 敌国士兵，但会炸毁附近的 <strong>1棵</strong> 敌国树木。</p> <p>树木的照片如下图所示。</p> <p></p> <img src='stimuli/trees/13.png', style='max-width: 30%;'> </img> <p><strong>你是否选择发射武器？</strong></p>","0",""
"","","","","","html-keyboard-response","72","351243","0.0-4.0-0.34","29","1","2022-11-13 08:23:11","a60ee176136a54a92dc2853177adfa2c","183.6.41.108","Mozilla/5.0 (Windows NT 6.1; WOW64) AppleWebKit/537.36 (KHTML, like Gecko) Chrome/49.0.2623.87 Safari/537.36","WebKit","Chrome","49.0.2623.87","Windows","6.1","null","<div style=""font-size:60px;"">+</div>","null",""
"","","","","","html-button-response","73","352239","0.0-4.0-1.34","29","1","2022-11-13 08:23:11","a60ee176136a54a92dc2853177adfa2c","183.6.41.108","Mozilla/5.0 (Windows NT 6.1; WOW64) AppleWebKit/537.36 (KHTML, like Gecko) Chrome/49.0.2623.87 Safari/537.36","WebKit","Chrome","49.0.2623.87","Windows","6.1","980","<p>作为军队的指挥官，你可以选择发射导弹杀死 <strong>3名</strong> 敌国士兵，但会误杀附近的 <strong>1名</strong> 敌国平民。</p> <p>平民照片如下图所示。</p> <p></p> <img src='stimuli/faces/PCM1.jpg', style='max-width: 30%;'> </img> <p><strong>你是否选择发射武器？</strong></p>","1",""
"","","","","","html-keyboard-response","74","353252","0.0-4.0-0.35","29","1","2022-11-13 08:23:11","a60ee176136a54a92dc2853177adfa2c","183.6.41.108","Mozilla/5.0 (Windows NT 6.1; WOW64) AppleWebKit/537.36 (KHTML, like Gecko) Chrome/49.0.2623.87 Safari/537.36","WebKit","Chrome","49.0.2623.87","Windows","6.1","null","<div style=""font-size:60px;"">+</div>","null",""
"","","","","","html-button-response","75","357363","0.0-4.0-1.35","29","1","2022-11-13 08:23:11","a60ee176136a54a92dc2853177adfa2c","183.6.41.108","Mozilla/5.0 (Windows NT 6.1; WOW64) AppleWebKit/537.36 (KHTML, like Gecko) Chrome/49.0.2623.87 Safari/537.36","WebKit","Chrome","49.0.2623.87","Windows","6.1","4097","<p>作为军队的指挥官，你可以选择发射导弹杀死 <strong>3名</strong> 敌国士兵，但会炸毁附近的 <strong>1棵</strong> 敌国树木。</p> <p>树木的照片如下图所示。</p> <p></p> <img src='stimuli/trees/11.png', style='max-width: 30%;'> </img> <p><strong>你是否选择发射武器？</strong></p>","1",""
"","","","","","html-keyboard-response","76","358371","0.0-4.0-0.36","29","1","2022-11-13 08:23:11","a60ee176136a54a92dc2853177adfa2c","183.6.41.108","Mozilla/5.0 (Windows NT 6.1; WOW64) AppleWebKit/537.36 (KHTML, like Gecko) Chrome/49.0.2623.87 Safari/537.36","WebKit","Chrome","49.0.2623.87","Windows","6.1","null","<div style=""font-size:60px;"">+</div>","null",""
"","","","","","html-button-response","77","359613","0.0-4.0-1.36","29","1","2022-11-13 08:23:11","a60ee176136a54a92dc2853177adfa2c","183.6.41.108","Mozilla/5.0 (Windows NT 6.1; WOW64) AppleWebKit/537.36 (KHTML, like Gecko) Chrome/49.0.2623.87 Safari/537.36","WebKit","Chrome","49.0.2623.87","Windows","6.1","1225","<p>作为军队的指挥官，你可以选择发射导弹杀死 <strong>6名</strong> 敌国士兵，但会炸毁附近的 <strong>1棵</strong> 敌国树木。</p> <p>树木的照片如下图所示。</p> <p></p> <img src='stimuli/trees/7.png', style='max-width: 30%;'> </img> <p><strong>你是否选择发射武器？</strong></p>","1",""
"","","","","","html-keyboard-response","78","360626","0.0-4.0-0.37","29","1","2022-11-13 08:23:11","a60ee176136a54a92dc2853177adfa2c","183.6.41.108","Mozilla/5.0 (Windows NT 6.1; WOW64) AppleWebKit/537.36 (KHTML, like Gecko) Chrome/49.0.2623.87 Safari/537.36","WebKit","Chrome","49.0.2623.87","Windows","6.1","null","<div style=""font-size:60px;"">+</div>","null",""
"","","","","","html-button-response","79","361701","0.0-4.0-1.37","29","1","2022-11-13 08:23:11","a60ee176136a54a92dc2853177adfa2c","183.6.41.108","Mozilla/5.0 (Windows NT 6.1; WOW64) AppleWebKit/537.36 (KHTML, like Gecko) Chrome/49.0.2623.87 Safari/537.36","WebKit","Chrome","49.0.2623.87","Windows","6.1","1059","<p>作为军队的指挥官，你可以选择发射导弹杀死 <strong>3名</strong> 敌国士兵，但会炸毁附近的 <strong>1棵</strong> 敌国树木。</p> <p>树木的照片如下图所示。</p> <p></p> <img src='stimuli/trees/9.png', style='max-width: 30%;'> </img> <p><strong>你是否选择发射武器？</strong></p>","1",""
"","","","","","html-keyboard-response","80","362712","0.0-4.0-0.38","29","1","2022-11-13 08:23:11","a60ee176136a54a92dc2853177adfa2c","183.6.41.108","Mozilla/5.0 (Windows NT 6.1; WOW64) AppleWebKit/537.36 (KHTML, like Gecko) Chrome/49.0.2623.87 Safari/537.36","WebKit","Chrome","49.0.2623.87","Windows","6.1","null","<div style=""font-size:60px;"">+</div>","null",""
"","","","","","html-button-response","81","368821","0.0-4.0-1.38","29","1","2022-11-13 08:23:11","a60ee176136a54a92dc2853177adfa2c","183.6.41.108","Mozilla/5.0 (Windows NT 6.1; WOW64) AppleWebKit/537.36 (KHTML, like Gecko) Chrome/49.0.2623.87 Safari/537.36","WebKit","Chrome","49.0.2623.87","Windows","6.1","6093","<p>作为军队的指挥官，你可以选择发射导弹杀死 <strong>8名</strong> 敌国士兵，但会误杀附近的 <strong>1名</strong> 敌国平民。</p> <p>平民照片如下图所示。</p> <p></p> <img src='stimuli/faces/PCM2.jpg', style='max-width: 30%;'> </img> <p><strong>你是否选择发射武器？</strong></p>","1",""
"","","","","","html-keyboard-response","82","369836","0.0-4.0-0.39","29","1","2022-11-13 08:23:11","a60ee176136a54a92dc2853177adfa2c","183.6.41.108","Mozilla/5.0 (Windows NT 6.1; WOW64) AppleWebKit/537.36 (KHTML, like Gecko) Chrome/49.0.2623.87 Safari/537.36","WebKit","Chrome","49.0.2623.87","Windows","6.1","null","<div style=""font-size:60px;"">+</div>","null",""
"","","","","","html-button-response","83","373495","0.0-4.0-1.39","29","1","2022-11-13 08:23:11","a60ee176136a54a92dc2853177adfa2c","183.6.41.108","Mozilla/5.0 (Windows NT 6.1; WOW64) AppleWebKit/537.36 (KHTML, like Gecko) Chrome/49.0.2623.87 Safari/537.36","WebKit","Chrome","49.0.2623.87","Windows","6.1","3641","<p>作为军队的指挥官，你可以选择发射导弹杀死 <strong>5名</strong> 敌国士兵，但会炸毁附近的 <strong>1棵</strong> 敌国树木。</p> <p>树木的照片如下图所示。</p> <p></p> <img src='stimuli/trees/7.png', style='max-width: 30%;'> </img> <p><strong>你是否选择发射武器？</strong></p>","1",""
"","","","","","html-keyboard-response","84","374507","0.0-4.0-0.40","29","1","2022-11-13 08:23:11","a60ee176136a54a92dc2853177adfa2c","183.6.41.108","Mozilla/5.0 (Windows NT 6.1; WOW64) AppleWebKit/537.36 (KHTML, like Gecko) Chrome/49.0.2623.87 Safari/537.36","WebKit","Chrome","49.0.2623.87","Windows","6.1","null","<div style=""font-size:60px;"">+</div>","null",""
"","","","","","html-button-response","85","378017","0.0-4.0-1.40","29","1","2022-11-13 08:23:11","a60ee176136a54a92dc2853177adfa2c","183.6.41.108","Mozilla/5.0 (Windows NT 6.1; WOW64) AppleWebKit/537.36 (KHTML, like Gecko) Chrome/49.0.2623.87 Safari/537.36","WebKit","Chrome","49.0.2623.87","Windows","6.1","3493","<p>作为军队的指挥官，你可以选择发射导弹杀死 <strong>4名</strong> 敌国士兵，但会炸毁附近的 <strong>1棵</strong> 敌国树木。</p> <p>树木的照片如下图所示。</p> <p></p> <img src='stimuli/trees/14.png', style='max-width: 30%;'> </img> <p><strong>你是否选择发射武器？</strong></p>","1",""
"","","","","","html-keyboard-response","86","379030","0.0-4.0-0.41","29","1","2022-11-13 08:23:11","a60ee176136a54a92dc2853177adfa2c","183.6.41.108","Mozilla/5.0 (Windows NT 6.1; WOW64) AppleWebKit/537.36 (KHTML, like Gecko) Chrome/49.0.2623.87 Safari/537.36","WebKit","Chrome","49.0.2623.87","Windows","6.1","null","<div style=""font-size:60px;"">+</div>","null",""
"","","","","","html-button-response","87","383371","0.0-4.0-1.41","29","1","2022-11-13 08:23:11","a60ee176136a54a92dc2853177adfa2c","183.6.41.108","Mozilla/5.0 (Windows NT 6.1; WOW64) AppleWebKit/537.36 (KHTML, like Gecko) Chrome/49.0.2623.87 Safari/537.36","WebKit","Chrome","49.0.2623.87","Windows","6.1","4326","<p>作为军队的指挥官，你可以选择发射导弹杀死 <strong>8名</strong> 敌国士兵，但会误杀附近的 <strong>1名</strong> 敌国平民。</p> <p>平民照片如下图所示。</p> <p></p> <img src='stimuli/faces/PCF2.jpg', style='max-width: 30%;'> </img> <p><strong>你是否选择发射武器？</strong></p>","1",""
"","","","","","html-keyboard-response","88","384381","0.0-4.0-0.42","29","1","2022-11-13 08:23:11","a60ee176136a54a92dc2853177adfa2c","183.6.41.108","Mozilla/5.0 (Windows NT 6.1; WOW64) AppleWebKit/537.36 (KHTML, like Gecko) Chrome/49.0.2623.87 Safari/537.36","WebKit","Chrome","49.0.2623.87","Windows","6.1","null","<div style=""font-size:60px;"">+</div>","null",""
"","","","","","html-button-response","89","385429","0.0-4.0-1.42","29","1","2022-11-13 08:23:11","a60ee176136a54a92dc2853177adfa2c","183.6.41.108","Mozilla/5.0 (Windows NT 6.1; WOW64) AppleWebKit/537.36 (KHTML, like Gecko) Chrome/49.0.2623.87 Safari/537.36","WebKit","Chrome","49.0.2623.87","Windows","6.1","1030","<p>作为军队的指挥官，你可以选择发射导弹杀死 <strong>2名</strong> 敌国士兵，但会误杀附近的 <strong>1名</strong> 敌国平民。</p> <p>平民照片如下图所示。</p> <p></p> <img src='stimuli/faces/PCF8.jpg', style='max-width: 30%;'> </img> <p><strong>你是否选择发射武器？</strong></p>","1",""
"","","","","","html-keyboard-response","90","386442","0.0-4.0-0.43","29","1","2022-11-13 08:23:11","a60ee176136a54a92dc2853177adfa2c","183.6.41.108","Mozilla/5.0 (Windows NT 6.1; WOW64) AppleWebKit/537.36 (KHTML, like Gecko) Chrome/49.0.2623.87 Safari/537.36","WebKit","Chrome","49.0.2623.87","Windows","6.1","null","<div style=""font-size:60px;"">+</div>","null",""
"","","","","","html-button-response","91","388190","0.0-4.0-1.43","29","1","2022-11-13 08:23:11","a60ee176136a54a92dc2853177adfa2c","183.6.41.108","Mozilla/5.0 (Windows NT 6.1; WOW64) AppleWebKit/537.36 (KHTML, like Gecko) Chrome/49.0.2623.87 Safari/537.36","WebKit","Chrome","49.0.2623.87","Windows","6.1","1731","<p>作为军队的指挥官，你可以选择发射导弹杀死 <strong>10名</strong> 敌国士兵，但会炸毁附近的 <strong>1棵</strong> 敌国树木。</p> <p>树木的照片如下图所示。</p> <p></p> <img src='stimuli/trees/12.png', style='max-width: 30%;'> </img> <p><strong>你是否选择发射武器？</strong></p>","0",""
"","","","","","html-keyboard-response","92","389204","0.0-4.0-0.44","29","1","2022-11-13 08:23:11","a60ee176136a54a92dc2853177adfa2c","183.6.41.108","Mozilla/5.0 (Windows NT 6.1; WOW64) AppleWebKit/537.36 (KHTML, like Gecko) Chrome/49.0.2623.87 Safari/537.36","WebKit","Chrome","49.0.2623.87","Windows","6.1","null","<div style=""font-size:60px;"">+</div>","null",""
"","","","","","html-button-response","93","390799","0.0-4.0-1.44","29","1","2022-11-13 08:23:11","a60ee176136a54a92dc2853177adfa2c","183.6.41.108","Mozilla/5.0 (Windows NT 6.1; WOW64) AppleWebKit/537.36 (KHTML, like Gecko) Chrome/49.0.2623.87 Safari/537.36","WebKit","Chrome","49.0.2623.87","Windows","6.1","1576","<p>作为军队的指挥官，你可以选择发射导弹杀死 <strong>5名</strong> 敌国士兵，但会误杀附近的 <strong>1名</strong> 敌国平民。</p> <p>平民照片如下图所示。</p> <p></p> <img src='stimuli/faces/PCM6.jpg', style='max-width: 30%;'> </img> <p><strong>你是否选择发射武器？</strong></p>","1",""
"","","","","","html-keyboard-response","94","391814","0.0-4.0-0.45","29","1","2022-11-13 08:23:11","a60ee176136a54a92dc2853177adfa2c","183.6.41.108","Mozilla/5.0 (Windows NT 6.1; WOW64) AppleWebKit/537.36 (KHTML, like Gecko) Chrome/49.0.2623.87 Safari/537.36","WebKit","Chrome","49.0.2623.87","Windows","6.1","null","<div style=""font-size:60px;"">+</div>","null",""
"","","","","","html-button-response","95","393999","0.0-4.0-1.45","29","1","2022-11-13 08:23:11","a60ee176136a54a92dc2853177adfa2c","183.6.41.108","Mozilla/5.0 (Windows NT 6.1; WOW64) AppleWebKit/537.36 (KHTML, like Gecko) Chrome/49.0.2623.87 Safari/537.36","WebKit","Chrome","49.0.2623.87","Windows","6.1","2167","<p>作为军队的指挥官，你可以选择发射导弹杀死 <strong>2名</strong> 敌国士兵，但会炸毁附近的 <strong>1棵</strong> 敌国树木。</p> <p>树木的照片如下图所示。</p> <p></p> <img src='stimuli/trees/6.png', style='max-width: 30%;'> </img> <p><strong>你是否选择发射武器？</strong></p>","0",""
"","","","","","html-keyboard-response","96","395013","0.0-4.0-0.46","29","1","2022-11-13 08:23:11","a60ee176136a54a92dc2853177adfa2c","183.6.41.108","Mozilla/5.0 (Windows NT 6.1; WOW64) AppleWebKit/537.36 (KHTML, like Gecko) Chrome/49.0.2623.87 Safari/537.36","WebKit","Chrome","49.0.2623.87","Windows","6.1","null","<div style=""font-size:60px;"">+</div>","null",""
"","","","","","html-button-response","97","396108","0.0-4.0-1.46","29","1","2022-11-13 08:23:11","a60ee176136a54a92dc2853177adfa2c","183.6.41.108","Mozilla/5.0 (Windows NT 6.1; WOW64) AppleWebKit/537.36 (KHTML, like Gecko) Chrome/49.0.2623.87 Safari/537.36","WebKit","Chrome","49.0.2623.87","Windows","6.1","1079","<p>作为军队的指挥官，你可以选择发射导弹杀死 <strong>10名</strong> 敌国士兵，但会炸毁附近的 <strong>1棵</strong> 敌国树木。</p> <p>树木的照片如下图所示。</p> <p></p> <img src='stimuli/trees/15.png', style='max-width: 30%;'> </img> <p><strong>你是否选择发射武器？</strong></p>","0",""
"","","","","","html-keyboard-response","98","397122","0.0-4.0-0.47","29","1","2022-11-13 08:23:11","a60ee176136a54a92dc2853177adfa2c","183.6.41.108","Mozilla/5.0 (Windows NT 6.1; WOW64) AppleWebKit/537.36 (KHTML, like Gecko) Chrome/49.0.2623.87 Safari/537.36","WebKit","Chrome","49.0.2623.87","Windows","6.1","null","<div style=""font-size:60px;"">+</div>","null",""
"","","","","","html-button-response","99","397946","0.0-4.0-1.47","29","1","2022-11-13 08:23:11","a60ee176136a54a92dc2853177adfa2c","183.6.41.108","Mozilla/5.0 (Windows NT 6.1; WOW64) AppleWebKit/537.36 (KHTML, like Gecko) Chrome/49.0.2623.87 Safari/537.36","WebKit","Chrome","49.0.2623.87","Windows","6.1","806","<p>作为军队的指挥官，你可以选择发射导弹杀死 <strong>8名</strong> 敌国士兵，但会炸毁附近的 <strong>1棵</strong> 敌国树木。</p> <p>树木的照片如下图所示。</p> <p></p> <img src='stimuli/trees/11.png', style='max-width: 30%;'> </img> <p><strong>你是否选择发射武器？</strong></p>","0",""
"","","","","","html-keyboard-response","100","398962","0.0-4.0-0.48","29","1","2022-11-13 08:23:11","a60ee176136a54a92dc2853177adfa2c","183.6.41.108","Mozilla/5.0 (Windows NT 6.1; WOW64) AppleWebKit/537.36 (KHTML, like Gecko) Chrome/49.0.2623.87 Safari/537.36","WebKit","Chrome","49.0.2623.87","Windows","6.1","null","<div style=""font-size:60px;"">+</div>","null",""
"","","","","","html-button-response","101","402056","0.0-4.0-1.48","29","1","2022-11-13 08:23:11","a60ee176136a54a92dc2853177adfa2c","183.6.41.108","Mozilla/5.0 (Windows NT 6.1; WOW64) AppleWebKit/537.36 (KHTML, like Gecko) Chrome/49.0.2623.87 Safari/537.36","WebKit","Chrome","49.0.2623.87","Windows","6.1","3073","<p>作为军队的指挥官，你可以选择发射导弹杀死 <strong>10名</strong> 敌国士兵，但会炸毁附近的 <strong>1棵</strong> 敌国树木。</p> <p>树木的照片如下图所示。</p> <p></p> <img src='stimuli/trees/5.png', style='max-width: 30%;'> </img> <p><strong>你是否选择发射武器？</strong></p>","0",""
"","","","","","html-keyboard-response","102","403070","0.0-4.0-0.49","29","1","2022-11-13 08:23:11","a60ee176136a54a92dc2853177adfa2c","183.6.41.108","Mozilla/5.0 (Windows NT 6.1; WOW64) AppleWebKit/537.36 (KHTML, like Gecko) Chrome/49.0.2623.87 Safari/537.36","WebKit","Chrome","49.0.2623.87","Windows","6.1","null","<div style=""font-size:60px;"">+</div>","null",""
"","","","","","html-button-response","103","403926","0.0-4.0-1.49","29","1","2022-11-13 08:23:11","a60ee176136a54a92dc2853177adfa2c","183.6.41.108","Mozilla/5.0 (Windows NT 6.1; WOW64) AppleWebKit/537.36 (KHTML, like Gecko) Chrome/49.0.2623.87 Safari/537.36","WebKit","Chrome","49.0.2623.87","Windows","6.1","835","<p>作为军队的指挥官，你可以选择发射导弹杀死 <strong>2名</strong> 敌国士兵，但会炸毁附近的 <strong>1棵</strong> 敌国树木。</p> <p>树木的照片如下图所示。</p> <p></p> <img src='stimuli/trees/1.png', style='max-width: 30%;'> </img> <p><strong>你是否选择发射武器？</strong></p>","0",""
"","","","","","html-keyboard-response","104","404940","0.0-4.0-0.50","29","1","2022-11-13 08:23:11","a60ee176136a54a92dc2853177adfa2c","183.6.41.108","Mozilla/5.0 (Windows NT 6.1; WOW64) AppleWebKit/537.36 (KHTML, like Gecko) Chrome/49.0.2623.87 Safari/537.36","WebKit","Chrome","49.0.2623.87","Windows","6.1","null","<div style=""font-size:60px;"">+</div>","null",""
"","","","","","html-button-response","105","405980","0.0-4.0-1.50","29","1","2022-11-13 08:23:11","a60ee176136a54a92dc2853177adfa2c","183.6.41.108","Mozilla/5.0 (Windows NT 6.1; WOW64) AppleWebKit/537.36 (KHTML, like Gecko) Chrome/49.0.2623.87 Safari/537.36","WebKit","Chrome","49.0.2623.87","Windows","6.1","1024","<p>作为军队的指挥官，你可以选择发射导弹杀死 <strong>4名</strong> 敌国士兵，但会炸毁附近的 <strong>1棵</strong> 敌国树木。</p> <p>树木的照片如下图所示。</p> <p></p> <img src='stimuli/trees/12.png', style='max-width: 30%;'> </img> <p><strong>你是否选择发射武器？</strong></p>","0",""
"","","","","","html-keyboard-response","106","406995","0.0-4.0-0.51","29","1","2022-11-13 08:23:11","a60ee176136a54a92dc2853177adfa2c","183.6.41.108","Mozilla/5.0 (Windows NT 6.1; WOW64) AppleWebKit/537.36 (KHTML, like Gecko) Chrome/49.0.2623.87 Safari/537.36","WebKit","Chrome","49.0.2623.87","Windows","6.1","null","<div style=""font-size:60px;"">+</div>","null",""
"","","","","","html-button-response","107","411930","0.0-4.0-1.51","29","1","2022-11-13 08:23:11","a60ee176136a54a92dc2853177adfa2c","183.6.41.108","Mozilla/5.0 (Windows NT 6.1; WOW64) AppleWebKit/537.36 (KHTML, like Gecko) Chrome/49.0.2623.87 Safari/537.36","WebKit","Chrome","49.0.2623.87","Windows","6.1","4917","<p>作为军队的指挥官，你可以选择发射导弹杀死 <strong>6名</strong> 敌国士兵，但会炸毁附近的 <strong>1棵</strong> 敌国树木。</p> <p>树木的照片如下图所示。</p> <p></p> <img src='stimuli/trees/14.png', style='max-width: 30%;'> </img> <p><strong>你是否选择发射武器？</strong></p>","0",""
"","","","","","html-keyboard-response","108","412942","0.0-4.0-0.52","29","1","2022-11-13 08:23:11","a60ee176136a54a92dc2853177adfa2c","183.6.41.108","Mozilla/5.0 (Windows NT 6.1; WOW64) AppleWebKit/537.36 (KHTML, like Gecko) Chrome/49.0.2623.87 Safari/537.36","WebKit","Chrome","49.0.2623.87","Windows","6.1","null","<div style=""font-size:60px;"">+</div>","null",""
"","","","","","html-button-response","109","413928","0.0-4.0-1.52","29","1","2022-11-13 08:23:11","a60ee176136a54a92dc2853177adfa2c","183.6.41.108","Mozilla/5.0 (Windows NT 6.1; WOW64) AppleWebKit/537.36 (KHTML, like Gecko) Chrome/49.0.2623.87 Safari/537.36","WebKit","Chrome","49.0.2623.87","Windows","6.1","966","<p>作为军队的指挥官，你可以选择发射导弹杀死 <strong>3名</strong> 敌国士兵，但会炸毁附近的 <strong>1棵</strong> 敌国树木。</p> <p>树木的照片如下图所示。</p> <p></p> <img src='stimuli/trees/10.png', style='max-width: 30%;'> </img> <p><strong>你是否选择发射武器？</strong></p>","0",""
"","","","","","html-keyboard-response","110","414943","0.0-4.0-0.53","29","1","2022-11-13 08:23:11","a60ee176136a54a92dc2853177adfa2c","183.6.41.108","Mozilla/5.0 (Windows NT 6.1; WOW64) AppleWebKit/537.36 (KHTML, like Gecko) Chrome/49.0.2623.87 Safari/537.36","WebKit","Chrome","49.0.2623.87","Windows","6.1","null","<div style=""font-size:60px;"">+</div>","null",""
"","","","","","html-button-response","111","416892","0.0-4.0-1.53","29","1","2022-11-13 08:23:11","a60ee176136a54a92dc2853177adfa2c","183.6.41.108","Mozilla/5.0 (Windows NT 6.1; WOW64) AppleWebKit/537.36 (KHTML, like Gecko) Chrome/49.0.2623.87 Safari/537.36","WebKit","Chrome","49.0.2623.87","Windows","6.1","1929","<p>作为军队的指挥官，你可以选择发射导弹杀死 <strong>5名</strong> 敌国士兵，但会炸毁附近的 <strong>1棵</strong> 敌国树木。</p> <p>树木的照片如下图所示。</p> <p></p> <img src='stimuli/trees/16.png', style='max-width: 30%;'> </img> <p><strong>你是否选择发射武器？</strong></p>","1",""
"","","","","","html-keyboard-response","112","417907","0.0-4.0-0.54","29","1","2022-11-13 08:23:11","a60ee176136a54a92dc2853177adfa2c","183.6.41.108","Mozilla/5.0 (Windows NT 6.1; WOW64) AppleWebKit/537.36 (KHTML, like Gecko) Chrome/49.0.2623.87 Safari/537.36","WebKit","Chrome","49.0.2623.87","Windows","6.1","null","<div style=""font-size:60px;"">+</div>","null",""
"","","","","","html-button-response","113","419151","0.0-4.0-1.54","29","1","2022-11-13 08:23:11","a60ee176136a54a92dc2853177adfa2c","183.6.41.108","Mozilla/5.0 (Windows NT 6.1; WOW64) AppleWebKit/537.36 (KHTML, like Gecko) Chrome/49.0.2623.87 Safari/537.36","WebKit","Chrome","49.0.2623.87","Windows","6.1","1228","<p>作为军队的指挥官，你可以选择发射导弹杀死 <strong>6名</strong> 敌国士兵，但会误杀附近的 <strong>1名</strong> 敌国平民。</p> <p>平民照片如下图所示。</p> <p></p> <img src='stimuli/faces/PCF7.jpg', style='max-width: 30%;'> </img> <p><strong>你是否选择发射武器？</strong></p>","1",""
"","","","","","html-keyboard-response","114","420167","0.0-4.0-0.55","29","1","2022-11-13 08:23:11","a60ee176136a54a92dc2853177adfa2c","183.6.41.108","Mozilla/5.0 (Windows NT 6.1; WOW64) AppleWebKit/537.36 (KHTML, like Gecko) Chrome/49.0.2623.87 Safari/537.36","WebKit","Chrome","49.0.2623.87","Windows","6.1","null","<div style=""font-size:60px;"">+</div>","null",""
"","","","","","html-button-response","115","420974","0.0-4.0-1.55","29","1","2022-11-13 08:23:11","a60ee176136a54a92dc2853177adfa2c","183.6.41.108","Mozilla/5.0 (Windows NT 6.1; WOW64) AppleWebKit/537.36 (KHTML, like Gecko) Chrome/49.0.2623.87 Safari/537.36","WebKit","Chrome","49.0.2623.87","Windows","6.1","788","<p>作为军队的指挥官，你可以选择发射导弹杀死 <strong>6名</strong> 敌国士兵，但会误杀附近的 <strong>1名</strong> 敌国平民。</p> <p>平民照片如下图所示。</p> <p></p> <img src='stimuli/faces/PCF4.jpg', style='max-width: 30%;'> </img> <p><strong>你是否选择发射武器？</strong></p>","1",""
"","","","","","html-keyboard-response","116","421990","0.0-4.0-0.56","29","1","2022-11-13 08:23:11","a60ee176136a54a92dc2853177adfa2c","183.6.41.108","Mozilla/5.0 (Windows NT 6.1; WOW64) AppleWebKit/537.36 (KHTML, like Gecko) Chrome/49.0.2623.87 Safari/537.36","WebKit","Chrome","49.0.2623.87","Windows","6.1","null","<div style=""font-size:60px;"">+</div>","null",""
"","","","","","html-button-response","117","422688","0.0-4.0-1.56","29","1","2022-11-13 08:23:11","a60ee176136a54a92dc2853177adfa2c","183.6.41.108","Mozilla/5.0 (Windows NT 6.1; WOW64) AppleWebKit/537.36 (KHTML, like Gecko) Chrome/49.0.2623.87 Safari/537.36","WebKit","Chrome","49.0.2623.87","Windows","6.1","678","<p>作为军队的指挥官，你可以选择发射导弹杀死 <strong>4名</strong> 敌国士兵，但会误杀附近的 <strong>1名</strong> 敌国平民。</p> <p>平民照片如下图所示。</p> <p></p> <img src='stimuli/faces/PCM8.jpg', style='max-width: 30%;'> </img> <p><strong>你是否选择发射武器？</strong></p>","1",""
"","","","","","html-keyboard-response","118","423703","0.0-4.0-0.57","29","1","2022-11-13 08:23:11","a60ee176136a54a92dc2853177adfa2c","183.6.41.108","Mozilla/5.0 (Windows NT 6.1; WOW64) AppleWebKit/537.36 (KHTML, like Gecko) Chrome/49.0.2623.87 Safari/537.36","WebKit","Chrome","49.0.2623.87","Windows","6.1","null","<div style=""font-size:60px;"">+</div>","null",""
"","","","","","html-button-response","119","424315","0.0-4.0-1.57","29","1","2022-11-13 08:23:11","a60ee176136a54a92dc2853177adfa2c","183.6.41.108","Mozilla/5.0 (Windows NT 6.1; WOW64) AppleWebKit/537.36 (KHTML, like Gecko) Chrome/49.0.2623.87 Safari/537.36","WebKit","Chrome","49.0.2623.87","Windows","6.1","593","<p>作为军队的指挥官，你可以选择发射导弹杀死 <strong>6名</strong> 敌国士兵，但会误杀附近的 <strong>1名</strong> 敌国平民。</p> <p>平民照片如下图所示。</p> <p></p> <img src='stimuli/faces/PCF6.jpg', style='max-width: 30%;'> </img> <p><strong>你是否选择发射武器？</strong></p>","1",""
"","","","","","html-keyboard-response","120","425334","0.0-4.0-0.58","29","1","2022-11-13 08:23:11","a60ee176136a54a92dc2853177adfa2c","183.6.41.108","Mozilla/5.0 (Windows NT 6.1; WOW64) AppleWebKit/537.36 (KHTML, like Gecko) Chrome/49.0.2623.87 Safari/537.36","WebKit","Chrome","49.0.2623.87","Windows","6.1","null","<div style=""font-size:60px;"">+</div>","null",""
"","","","","","html-button-response","121","425946","0.0-4.0-1.58","29","1","2022-11-13 08:23:11","a60ee176136a54a92dc2853177adfa2c","183.6.41.108","Mozilla/5.0 (Windows NT 6.1; WOW64) AppleWebKit/537.36 (KHTML, like Gecko) Chrome/49.0.2623.87 Safari/537.36","WebKit","Chrome","49.0.2623.87","Windows","6.1","592","<p>作为军队的指挥官，你可以选择发射导弹杀死 <strong>8名</strong> 敌国士兵，但会炸毁附近的 <strong>1棵</strong> 敌国树木。</p> <p>树木的照片如下图所示。</p> <p></p> <img src='stimuli/trees/9.png', style='max-width: 30%;'> </img> <p><strong>你是否选择发射武器？</strong></p>","1",""
"","","","","","html-keyboard-response","122","426961","0.0-4.0-0.59","29","1","2022-11-13 08:23:11","a60ee176136a54a92dc2853177adfa2c","183.6.41.108","Mozilla/5.0 (Windows NT 6.1; WOW64) AppleWebKit/537.36 (KHTML, like Gecko) Chrome/49.0.2623.87 Safari/537.36","WebKit","Chrome","49.0.2623.87","Windows","6.1","null","<div style=""font-size:60px;"">+</div>","null",""
"","","","","","html-button-response","123","430987","0.0-4.0-1.59","29","1","2022-11-13 08:23:11","a60ee176136a54a92dc2853177adfa2c","183.6.41.108","Mozilla/5.0 (Windows NT 6.1; WOW64) AppleWebKit/537.36 (KHTML, like Gecko) Chrome/49.0.2623.87 Safari/537.36","WebKit","Chrome","49.0.2623.87","Windows","6.1","4005","<p>作为军队的指挥官，你可以选择发射导弹杀死 <strong>5名</strong> 敌国士兵，但会炸毁附近的 <strong>1棵</strong> 敌国树木。</p> <p>树木的照片如下图所示。</p> <p></p> <img src='stimuli/trees/13.png', style='max-width: 30%;'> </img> <p><strong>你是否选择发射武器？</strong></p>","0",""
"","","","","","html-keyboard-response","124","432004","0.0-4.0-0.60","29","1","2022-11-13 08:23:11","a60ee176136a54a92dc2853177adfa2c","183.6.41.108","Mozilla/5.0 (Windows NT 6.1; WOW64) AppleWebKit/537.36 (KHTML, like Gecko) Chrome/49.0.2623.87 Safari/537.36","WebKit","Chrome","49.0.2623.87","Windows","6.1","null","<div style=""font-size:60px;"">+</div>","null",""
"","","","","","html-button-response","125","434106","0.0-4.0-1.60","29","1","2022-11-13 08:23:11","a60ee176136a54a92dc2853177adfa2c","183.6.41.108","Mozilla/5.0 (Windows NT 6.1; WOW64) AppleWebKit/537.36 (KHTML, like Gecko) Chrome/49.0.2623.87 Safari/537.36","WebKit","Chrome","49.0.2623.87","Windows","6.1","2084","<p>作为军队的指挥官，你可以选择发射导弹杀死 <strong>6名</strong> 敌国士兵，但会误杀附近的 <strong>1名</strong> 敌国平民。</p> <p>平民照片如下图所示。</p> <p></p> <img src='stimuli/faces/PCM4.jpg', style='max-width: 30%;'> </img> <p><strong>你是否选择发射武器？</strong></p>","0",""
"","","","","","html-keyboard-response","126","435121","0.0-4.0-0.61","29","1","2022-11-13 08:23:11","a60ee176136a54a92dc2853177adfa2c","183.6.41.108","Mozilla/5.0 (Windows NT 6.1; WOW64) AppleWebKit/537.36 (KHTML, like Gecko) Chrome/49.0.2623.87 Safari/537.36","WebKit","Chrome","49.0.2623.87","Windows","6.1","null","<div style=""font-size:60px;"">+</div>","null",""
"","","","","","html-button-response","127","440904","0.0-4.0-1.61","29","1","2022-11-13 08:23:11","a60ee176136a54a92dc2853177adfa2c","183.6.41.108","Mozilla/5.0 (Windows NT 6.1; WOW64) AppleWebKit/537.36 (KHTML, like Gecko) Chrome/49.0.2623.87 Safari/537.36","WebKit","Chrome","49.0.2623.87","Windows","6.1","5762","<p>作为军队的指挥官，你可以选择发射导弹杀死 <strong>4名</strong> 敌国士兵，但会炸毁附近的 <strong>1棵</strong> 敌国树木。</p> <p>树木的照片如下图所示。</p> <p></p> <img src='stimuli/trees/2.png', style='max-width: 30%;'> </img> <p><strong>你是否选择发射武器？</strong></p>","0",""
"","","","","","html-keyboard-response","128","441919","0.0-4.0-0.62","29","1","2022-11-13 08:23:11","a60ee176136a54a92dc2853177adfa2c","183.6.41.108","Mozilla/5.0 (Windows NT 6.1; WOW64) AppleWebKit/537.36 (KHTML, like Gecko) Chrome/49.0.2623.87 Safari/537.36","WebKit","Chrome","49.0.2623.87","Windows","6.1","null","<div style=""font-size:60px;"">+</div>","null",""
"","","","","","html-button-response","129","443004","0.0-4.0-1.62","29","1","2022-11-13 08:23:11","a60ee176136a54a92dc2853177adfa2c","183.6.41.108","Mozilla/5.0 (Windows NT 6.1; WOW64) AppleWebKit/537.36 (KHTML, like Gecko) Chrome/49.0.2623.87 Safari/537.36","WebKit","Chrome","49.0.2623.87","Windows","6.1","1065","<p>作为军队的指挥官，你可以选择发射导弹杀死 <strong>7名</strong> 敌国士兵，但会炸毁附近的 <strong>1棵</strong> 敌国树木。</p> <p>树木的照片如下图所示。</p> <p></p> <img src='stimuli/trees/8.png', style='max-width: 30%;'> </img> <p><strong>你是否选择发射武器？</strong></p>","0",""
"","","","","","html-keyboard-response","130","444021","0.0-4.0-0.63","29","1","2022-11-13 08:23:11","a60ee176136a54a92dc2853177adfa2c","183.6.41.108","Mozilla/5.0 (Windows NT 6.1; WOW64) AppleWebKit/537.36 (KHTML, like Gecko) Chrome/49.0.2623.87 Safari/537.36","WebKit","Chrome","49.0.2623.87","Windows","6.1","null","<div style=""font-size:60px;"">+</div>","null",""
"","","","","","html-button-response","131","445085","0.0-4.0-1.63","29","1","2022-11-13 08:23:11","a60ee176136a54a92dc2853177adfa2c","183.6.41.108","Mozilla/5.0 (Windows NT 6.1; WOW64) AppleWebKit/537.36 (KHTML, like Gecko) Chrome/49.0.2623.87 Safari/537.36","WebKit","Chrome","49.0.2623.87","Windows","6.1","1044","<p>作为军队的指挥官，你可以选择发射导弹杀死 <strong>6名</strong> 敌国士兵，但会炸毁附近的 <strong>1棵</strong> 敌国树木。</p> <p>树木的照片如下图所示。</p> <p></p> <img src='stimuli/trees/16.png', style='max-width: 30%;'> </img> <p><strong>你是否选择发射武器？</strong></p>","0",""
"","","","","","survey-multi-choice","132","478558","0.0-5.0","29","1","2022-11-13 08:23:11","a60ee176136a54a92dc2853177adfa2c","183.6.41.108","Mozilla/5.0 (Windows NT 6.1; WOW64) AppleWebKit/537.36 (KHTML, like Gecko) Chrome/49.0.2623.87 Safari/537.36","WebKit","Chrome","49.0.2623.87","Windows","6.1","33453","","{""Attention1"":""""}","[0]"
"","","","","","html-button-response","133","481068","0.0-6.0","29","1","2022-11-13 08:23:11","a60ee176136a54a92dc2853177adfa2c","183.6.41.108","Mozilla/5.0 (Windows NT 6.1; WOW64) AppleWebKit/537.36 (KHTML, like Gecko) Chrome/49.0.2623.87 Safari/537.36","WebKit","Chrome","49.0.2623.87","Windows","6.1","2488","<p style=""font-size:20px;font-weight:bold;"">恭喜！</p><p>你已经完成了实验的第一部分。</p><p>请休息放松一下，然后进入第二部分。</p><p>这部分大约需要10分钟。</p>","0",""
"","","","","","survey-text","134","586413","0.0-7.0","29","1","2022-11-13 08:23:11","a60ee176136a54a92dc2853177adfa2c","183.6.41.108","Mozilla/5.0 (Windows NT 6.1; WOW64) AppleWebKit/537.36 (KHTML, like Gecko) Chrome/49.0.2623.87 Safari/537.36","WebKit","Chrome","49.0.2623.87","Windows","6.1","104310","","{""Age"":""21"",""Nation"":""中国"",""Born"":""广东省广州市"",""Live"":""广东省深圳"",""Ethnic"":""汉"",""Alipay"":""18129917283""}",""
"","","","","","survey-multi-choice","135","621343","0.0-8.0","29","1","2022-11-13 08:23:11","a60ee176136a54a92dc2853177adfa2c","183.6.41.108","Mozilla/5.0 (Windows NT 6.1; WOW64) AppleWebKit/537.36 (KHTML, like Gecko) Chrome/49.0.2623.87 Safari/537.36","WebKit","Chrome","49.0.2623.87","Windows","6.1","34910","","{""Gender"":""男"",""Education"":""本科毕业"",""Income"":""￥140,000-￥269,999"",""Children"":""0"",""Race"":""亚洲人""}","[0,1,2,3,4]"
"","","","","","survey-multi-select","136","634964","0.0-9.0","29","1","2022-11-13 08:23:11","a60ee176136a54a92dc2853177adfa2c","183.6.41.108","Mozilla/5.0 (Windows NT 6.1; WOW64) AppleWebKit/537.36 (KHTML, like Gecko) Chrome/49.0.2623.87 Safari/537.36","WebKit","Chrome","49.0.2623.87","Windows","6.1","13581","","{""Marriage"":[""未婚""],""Religion"":[""无宗教信仰""]}","[0,1]"
"","","","","","survey-multi-choice","137","682689","0.0-10.0","29","1","2022-11-13 08:23:11","a60ee176136a54a92dc2853177adfa2c","183.6.41.108","Mozilla/5.0 (Windows NT 6.1; WOW64) AppleWebKit/537.36 (KHTML, like Gecko) Chrome/49.0.2623.87 Safari/537.36","WebKit","Chrome","49.0.2623.87","Windows","6.1","47703","","{""SES"":""6""}","[0]"
"","","","","","html-button-response","138","697716","0.0-11.0","29","1","2022-11-13 08:23:11","a60ee176136a54a92dc2853177adfa2c","183.6.41.108","Mozilla/5.0 (Windows NT 6.1; WOW64) AppleWebKit/537.36 (KHTML, like Gecko) Chrome/49.0.2623.87 Safari/537.36","WebKit","Chrome","49.0.2623.87","Windows","6.1","15008","<p><strong>请判断下列陈述在多大程度上可以形容你？</p><p> (1 = ""和我一点都不像"" to 5 = ""非常像我"".)</strong></p>","0",""
"","","","","","survey-likert","139","724722","0.0-12.0","29","1","2022-11-13 08:23:11","a60ee176136a54a92dc2853177adfa2c","183.6.41.108","Mozilla/5.0 (Windows NT 6.1; WOW64) AppleWebKit/537.36 (KHTML, like Gecko) Chrome/49.0.2623.87 Safari/537.36","WebKit","Chrome","49.0.2623.87","Windows","6.1","26976","","{""Aggression1"":1,""Aggression2"":1,""Aggression3"":0,""Aggression4"":1,""Aggression5"":0,""Aggression6"":1,""Aggression7"":1,""Aggression8"":0,""Aggression9"":0}","[0,1,2,3,4,5,6,7,8]"
"","","","","","html-button-response","140","725816","0.0-13.0","29","1","2022-11-13 08:23:11","a60ee176136a54a92dc2853177adfa2c","183.6.41.108","Mozilla/5.0 (Windows NT 6.1; WOW64) AppleWebKit/537.36 (KHTML, like Gecko) Chrome/49.0.2623.87 Safari/537.36","WebKit","Chrome","49.0.2623.87","Windows","6.1","1077","<p><strong>请判断你在多大程度上同意下列陈述。</strong></p>","0",""
"","","","","","survey-likert","141","860194","0.0-14.0","29","1","2022-11-13 08:23:11","a60ee176136a54a92dc2853177adfa2c","183.6.41.108","Mozilla/5.0 (Windows NT 6.1; WOW64) AppleWebKit/537.36 (KHTML, like Gecko) Chrome/49.0.2623.87 Safari/537.36","WebKit","Chrome","49.0.2623.87","Windows","6.1","134343","","{""scale25"":3,""scale5"":3,""scale21"":3,""scale7"":1,""scale6"":1,""scale8"":3,""scale18"":1,""scale27"":1,""scale19"":3,""scale26"":3,""scale28"":3,""scale1"":1,""scale14"":3,""scale13"":2,""scale24"":1,""scale20"":3,""scale17"":1,""scale2"":3,""scale23"":3,""scale15"":1,""scale3"":1,""scale16"":3,""scale11"":3,""scale9"":3,""scale12"":1,""scale22"":2,""scale4"":1,""scale10"":1}","[24,4,20,6,5,7,17,26,18,25,27,0,13,12,23,19,16,1,22,14,2,15,10,8,11,21,3,9]"
"","","","","","html-button-response","142","861244","0.0-15.0","29","1","2022-11-13 08:23:11","a60ee176136a54a92dc2853177adfa2c","183.6.41.108","Mozilla/5.0 (Windows NT 6.1; WOW64) AppleWebKit/537.36 (KHTML, like Gecko) Chrome/49.0.2623.87 Safari/537.36","WebKit","Chrome","49.0.2623.87","Windows","6.1","1031","<p><strong>请判断你在多大程度上同意下列陈述。</strong></p>","0",""
"","","","","","survey-likert","143","888342","0.0-16.0","29","1","2022-11-13 08:23:11","a60ee176136a54a92dc2853177adfa2c","183.6.41.108","Mozilla/5.0 (Windows NT 6.1; WOW64) AppleWebKit/537.36 (KHTML, like Gecko) Chrome/49.0.2623.87 Safari/537.36","WebKit","Chrome","49.0.2623.87","Windows","6.1","27066","","{""sdo13"":5,""sdo4"":3,""sdo10"":5,""sdo16"":3,""sdo7"":6,""sdo2"":2,""sdo6"":5,""sdo12"":5,""sdo9"":4,""sdo3"":5,""sdo11"":4,""sdo15"":5,""sdo5"":4,""sdo14"":5,""sdo8"":4,""sdo1"":5}","[12,3,9,15,6,1,5,11,8,2,10,14,4,13,7,0]"
"","","","","","html-button-response","144","889250","0.0-17.0","29","1","2022-11-13 08:23:11","a60ee176136a54a92dc2853177adfa2c","183.6.41.108","Mozilla/5.0 (Windows NT 6.1; WOW64) AppleWebKit/537.36 (KHTML, like Gecko) Chrome/49.0.2623.87 Safari/537.36","WebKit","Chrome","49.0.2623.87","Windows","6.1","889","<p><strong>请判断你在多大程度上同意下列陈述。</strong></p>","0",""
"","","","","","survey-likert","145","927481","0.0-18.0","29","1","2022-11-13 08:23:11","a60ee176136a54a92dc2853177adfa2c","183.6.41.108","Mozilla/5.0 (Windows NT 6.1; WOW64) AppleWebKit/537.36 (KHTML, like Gecko) Chrome/49.0.2623.87 Safari/537.36","WebKit","Chrome","49.0.2623.87","Windows","6.1","38205","","{""caring1"":3,""liking1"":1,""caring2"":3,""protection1"":1,""liking2"":1,""caring3"":3,""protection2"":3,""liking3"":1,""protection3"":3,""caring4"":3,""liking4"":1,""protection4"":1,""caring5"":3,""liking5"":3,""protection5"":3}","[0,1,2,3,4,5,6,7,8,9,10,11,12,13,14]"
"","","","","","html-button-response","146","928379","0.0-19.0","29","1","2022-11-13 08:23:11","a60ee176136a54a92dc2853177adfa2c","183.6.41.108","Mozilla/5.0 (Windows NT 6.1; WOW64) AppleWebKit/537.36 (KHTML, like Gecko) Chrome/49.0.2623.87 Safari/537.36","WebKit","Chrome","49.0.2623.87","Windows","6.1","879","<p><strong>请判断下列场景中你的内心感受有多柔软。</strong></p>","0",""
"","","","","","survey-likert","147","958968","0.0-20.0","29","1","2022-11-13 08:23:11","a60ee176136a54a92dc2853177adfa2c","183.6.41.108","Mozilla/5.0 (Windows NT 6.1; WOW64) AppleWebKit/537.36 (KHTML, like Gecko) Chrome/49.0.2623.87 Safari/537.36","WebKit","Chrome","49.0.2623.87","Windows","6.1","30567","","{""tenderness-positive1"":3,""tenderness-negative1"":1,""tenderness-negative2"":3,""tenderness-positive2"":3,""tenderness-positive3"":3,""tenderness-negative3"":1,""tenderness-positive4"":3,""tenderness-negative4"":3,""tenderness-negative5"":3,""tenderness-positive5"":3}","[0,1,2,3,4,5,6,7,8,9]"
"","","","","","survey-multi-choice","148","975663","0.0-21.0","29","1","2022-11-13 08:23:11","a60ee176136a54a92dc2853177adfa2c","183.6.41.108","Mozilla/5.0 (Windows NT 6.1; WOW64) AppleWebKit/537.36 (KHTML, like Gecko) Chrome/49.0.2623.87 Safari/537.36","WebKit","Chrome","49.0.2623.87","Windows","6.1","16676","","{""Attention2"":""其他""}","[0]"
"","","","","","html-button-response","149","976715","0.0-22.0","29","1","2022-11-13 08:23:11","a60ee176136a54a92dc2853177adfa2c","183.6.41.108","Mozilla/5.0 (Windows NT 6.1; WOW64) AppleWebKit/537.36 (KHTML, like Gecko) Chrome/49.0.2623.87 Safari/537.36","WebKit","Chrome","49.0.2623.87","Windows","6.1","1029","<p><strong>请判断你在多大程度上同意下列陈述。</strong></p>","0",""
"","","","","","survey-likert","150","1147525","0.0-23.0","29","1","2022-11-13 08:23:11","a60ee176136a54a92dc2853177adfa2c","183.6.41.108","Mozilla/5.0 (Windows NT 6.1; WOW64) AppleWebKit/537.36 (KHTML, like Gecko) Chrome/49.0.2623.87 Safari/537.36","WebKit","Chrome","49.0.2623.87","Windows","6.1","170781","","{""Patri5"":3,""Patri2"":3,""Patri6"":1,""Patri3"":2,""Patri10"":0,""Nation7"":3,""Nation2"":3,""Patri11"":0,""Patri12"":1,""Patri7"":4,""Nation8"":0,""Patri9"":0,""Patri8"":3,""Nation1"":2,""Nation6"":3,""Patri1"":4,""Nation5"":3,""Nation4"":2,""Nation3"":3,""Patri4"":4}","[4,1,5,2,9,18,13,10,11,6,19,8,7,12,17,0,16,15,14,3]"
"","","","","","html-button-response","151","1149026","0.0-24.0","29","1","2022-11-13 08:23:11","a60ee176136a54a92dc2853177adfa2c","183.6.41.108","Mozilla/5.0 (Windows NT 6.1; WOW64) AppleWebKit/537.36 (KHTML, like Gecko) Chrome/49.0.2623.87 Safari/537.36","WebKit","Chrome","49.0.2623.87","Windows","6.1","1481","<p><strong>请判断你在多大程度上同意下列陈述。</strong></p>","0",""
"","","","","","survey-likert","152","1185445","0.0-25.0","29","1","2022-11-13 08:23:11","a60ee176136a54a92dc2853177adfa2c","183.6.41.108","Mozilla/5.0 (Windows NT 6.1; WOW64) AppleWebKit/537.36 (KHTML, like Gecko) Chrome/49.0.2623.87 Safari/537.36","WebKit","Chrome","49.0.2623.87","Windows","6.1","36391","","{""hi1"":4,""vi4"":6,""hc1"":6,""hc2"":6,""Robot"":6,""vi1"":6,""vi2"":7,""hc3"":7,""hi4"":6,""hi3"":3,""hi2"":4,""hc4"":5,""vc3"":6,""vi3"":7,""vc2"":6,""vc1"":6,""vc4"":6}","[0,8,9,10,7,4,5,11,3,2,1,12,15,6,14,13,16]"
"","","","","","survey-text","153","1189465","0.0-26.0","29","1","2022-11-13 08:23:11","a60ee176136a54a92dc2853177adfa2c","183.6.41.108","Mozilla/5.0 (Windows NT 6.1; WOW64) AppleWebKit/537.36 (KHTML, like Gecko) Chrome/49.0.2623.87 Safari/537.36","WebKit","Chrome","49.0.2623.87","Windows","6.1","3996","","{""Comments"":""无""}",""
"","","","","","html-button-response","154","1190356","0.0-27.0","29","1","2022-11-13 08:23:11","a60ee176136a54a92dc2853177adfa2c","183.6.41.108","Mozilla/5.0 (Windows NT 6.1; WOW64) AppleWebKit/537.36 (KHTML, like Gecko) Chrome/49.0.2623.87 Safari/537.36","WebKit","Chrome","49.0.2623.87","Windows","6.1","874","<strong><p>恭喜你完成了实验！</p><p>感谢您的参与。</p></strong>","0",""
