"success","timeout","failed_images","failed_audio","failed_video","trial_type","trial_index","time_elapsed","internal_node_id","run_id","condition","recorded_at","source_code_version","ip","user_agent","device","browser","browser_version","platform","platform_version","rt","stimulus","response","question_order"
"true","false","[]","[]","[]","preload","0","117","0.0-0.0","113","1","2022-11-27 13:21:00","7b1eb8be57ff77859c7d9ac988e43411","120.197.198.29","Mozilla/5.0 (Windows NT 10.0; WOW64) AppleWebKit/537.36 (KHTML, like Gecko) Chrome/92.0.4515.131 Safari/537.36 SLBrowser/8.0.0.9071 SLBChan/25","WebKit","Chrome","92.0.4515.131","Windows","10.0","","","",""
"true","","","","","fullscreen","1","2805","0.0-1.0","113","1","2022-11-27 13:21:00","7b1eb8be57ff77859c7d9ac988e43411","120.197.198.29","Mozilla/5.0 (Windows NT 10.0; WOW64) AppleWebKit/537.36 (KHTML, like Gecko) Chrome/92.0.4515.131 Safari/537.36 SLBrowser/8.0.0.9071 SLBChan/25","WebKit","Chrome","92.0.4515.131","Windows","10.0","","","",""
"","","","","","html-button-response","2","24796","0.0-2.0","113","1","2022-11-27 13:21:00","7b1eb8be57ff77859c7d9ac988e43411","120.197.198.29","Mozilla/5.0 (Windows NT 10.0; WOW64) AppleWebKit/537.36 (KHTML, like Gecko) Chrome/92.0.4515.131 Safari/537.36 SLBrowser/8.0.0.9071 SLBChan/25","WebKit","Chrome","92.0.4515.131","Windows","10.0","21989","<p style=""font-size:20px;font-weight:bold;"">实验知情同意书</p><p style=""text-align:left;""><strong>实验名称：</strong>社会冲突研究</p><p style=""text-align:left;""><strong>主要研究者：</strong>韩晓春副教授（北京师范大学心理学部）</p><p style=""text-align:left;""><strong>联系方式：</strong>发送邮件至xiaochun.han@bnu.edu.cn</p><p style=""text-align:left;""><strong>研究目的：</strong>研究旨在了解人类面对群体冲突时的决策方式，以及相关的心理学特质。实验调查大约需要20分钟。</p><p style=""text-align:left;""><strong>实验流程：</strong>实验包含两部分。第一部分呈现一系列群体冲突场景，请你决定如何对这些冲突进行反应，大约需要10分钟完成。第二部分包含一系列人口统计学信息收集和心理学问卷，大约需要10分钟完成。</p><p style=""text-align:left;""><strong>参加及退出规则：</strong>参加本实验完全取决于您的个人意愿。在参与过程中，您可以随时退出，并且不用承担任何后果。</p><p style=""text-align:left;""><strong>隐私：</strong>本实验完全匿名进行，不会收集您的姓名或其他能够识别您身份的信息。实验中收集的作答仅用作科学研究使用，可能会在学术期刊/书籍上发表，或者用于教学，您的数据未来可能会和其他研究者或实验室分享，但您的个人身份不会被识别。</p><p style=""text-align:left;""><strong>实验报酬：</strong>实验完成后，您将获得15元人民币报酬，以感谢您的时间和努力。调查问卷中包含几道题目用以测验您作答时的认真度。只有完成全部实验，并且正确回答认真度测验的被试才能获得实验报酬。实验报酬将通过支付宝转账发放。</p><p style=""text-align:left;font-size:20px;""><strong>如果您同意以上实验知情同意书的内容，请点击'同意并且开始实验'按钮；否则请关闭浏览器界面，退出实验。</strong></p>","0",""
"","","","","","html-button-response","3","35797","0.0-3.0","113","1","2022-11-27 13:21:00","7b1eb8be57ff77859c7d9ac988e43411","120.197.198.29","Mozilla/5.0 (Windows NT 10.0; WOW64) AppleWebKit/537.36 (KHTML, like Gecko) Chrome/92.0.4515.131 Safari/537.36 SLBrowser/8.0.0.9071 SLBChan/25","WebKit","Chrome","92.0.4515.131","Windows","10.0","10999","<p ><strong>实验任务一：</strong></p><p>请想象你的国家与另一个国家发生了军事冲突。</p><p>你是国家军队的指挥官，你将如何在冲突中进行决策。</p><p>具体来说，作为军队指挥官，请你决定是否发射导弹进行打击。</p><p>接下来，你会面对一系列场景，请仔细阅读每个场景，然后进行决策。</p><p>这部分实验任务大约需要10分钟。</p><p><strong>实验过程中，请集中注意力。</strong></p>","0",""
"","","","","","html-keyboard-response","4","36815","0.0-4.0-0.0","113","1","2022-11-27 13:21:00","7b1eb8be57ff77859c7d9ac988e43411","120.197.198.29","Mozilla/5.0 (Windows NT 10.0; WOW64) AppleWebKit/537.36 (KHTML, like Gecko) Chrome/92.0.4515.131 Safari/537.36 SLBrowser/8.0.0.9071 SLBChan/25","WebKit","Chrome","92.0.4515.131","Windows","10.0","null","<div style=""font-size:60px;"">+</div>","null",""
"","","","","","html-button-response","5","52969","0.0-4.0-1.0","113","1","2022-11-27 13:21:00","7b1eb8be57ff77859c7d9ac988e43411","120.197.198.29","Mozilla/5.0 (Windows NT 10.0; WOW64) AppleWebKit/537.36 (KHTML, like Gecko) Chrome/92.0.4515.131 Safari/537.36 SLBrowser/8.0.0.9071 SLBChan/25","WebKit","Chrome","92.0.4515.131","Windows","10.0","16151","<p>作为军队的指挥官，你可以选择发射导弹杀死 <strong>9名</strong> 敌国士兵，但会炸毁附近的 <strong>1棵</strong> 敌国树木。</p> <p>树木的照片如下图所示。</p> <p></p> <img src='stimuli/trees/9.png', style='max-width: 30%;'> </img> <p><strong>你是否选择发射武器？</strong></p>","0",""
"","","","","","html-keyboard-response","6","53986","0.0-4.0-0.1","113","1","2022-11-27 13:21:00","7b1eb8be57ff77859c7d9ac988e43411","120.197.198.29","Mozilla/5.0 (Windows NT 10.0; WOW64) AppleWebKit/537.36 (KHTML, like Gecko) Chrome/92.0.4515.131 Safari/537.36 SLBrowser/8.0.0.9071 SLBChan/25","WebKit","Chrome","92.0.4515.131","Windows","10.0","null","<div style=""font-size:60px;"">+</div>","null",""
"","","","","","html-button-response","7","61748","0.0-4.0-1.1","113","1","2022-11-27 13:21:00","7b1eb8be57ff77859c7d9ac988e43411","120.197.198.29","Mozilla/5.0 (Windows NT 10.0; WOW64) AppleWebKit/537.36 (KHTML, like Gecko) Chrome/92.0.4515.131 Safari/537.36 SLBrowser/8.0.0.9071 SLBChan/25","WebKit","Chrome","92.0.4515.131","Windows","10.0","7759","<p>作为军队的指挥官，你可以选择发射导弹杀死 <strong>10名</strong> 敌国士兵，但会炸毁附近的 <strong>1棵</strong> 敌国树木。</p> <p>树木的照片如下图所示。</p> <p></p> <img src='stimuli/trees/15.png', style='max-width: 30%;'> </img> <p><strong>你是否选择发射武器？</strong></p>","1",""
"","","","","","html-keyboard-response","8","62750","0.0-4.0-0.2","113","1","2022-11-27 13:21:00","7b1eb8be57ff77859c7d9ac988e43411","120.197.198.29","Mozilla/5.0 (Windows NT 10.0; WOW64) AppleWebKit/537.36 (KHTML, like Gecko) Chrome/92.0.4515.131 Safari/537.36 SLBrowser/8.0.0.9071 SLBChan/25","WebKit","Chrome","92.0.4515.131","Windows","10.0","null","<div style=""font-size:60px;"">+</div>","null",""
"","","","","","html-button-response","9","67464","0.0-4.0-1.2","113","1","2022-11-27 13:21:00","7b1eb8be57ff77859c7d9ac988e43411","120.197.198.29","Mozilla/5.0 (Windows NT 10.0; WOW64) AppleWebKit/537.36 (KHTML, like Gecko) Chrome/92.0.4515.131 Safari/537.36 SLBrowser/8.0.0.9071 SLBChan/25","WebKit","Chrome","92.0.4515.131","Windows","10.0","4711","<p>作为军队的指挥官，你可以选择发射导弹杀死 <strong>4名</strong> 敌国士兵，但会误杀附近的 <strong>1名</strong> 敌国平民。</p> <p>平民照片如下图所示。</p> <p></p> <img src='stimuli/faces/PCF4.jpg', style='max-width: 30%;'> </img> <p><strong>你是否选择发射武器？</strong></p>","1",""
"","","","","","html-keyboard-response","10","68473","0.0-4.0-0.3","113","1","2022-11-27 13:21:00","7b1eb8be57ff77859c7d9ac988e43411","120.197.198.29","Mozilla/5.0 (Windows NT 10.0; WOW64) AppleWebKit/537.36 (KHTML, like Gecko) Chrome/92.0.4515.131 Safari/537.36 SLBrowser/8.0.0.9071 SLBChan/25","WebKit","Chrome","92.0.4515.131","Windows","10.0","null","<div style=""font-size:60px;"">+</div>","null",""
"","","","","","html-button-response","11","73164","0.0-4.0-1.3","113","1","2022-11-27 13:21:00","7b1eb8be57ff77859c7d9ac988e43411","120.197.198.29","Mozilla/5.0 (Windows NT 10.0; WOW64) AppleWebKit/537.36 (KHTML, like Gecko) Chrome/92.0.4515.131 Safari/537.36 SLBrowser/8.0.0.9071 SLBChan/25","WebKit","Chrome","92.0.4515.131","Windows","10.0","4687","<p>作为军队的指挥官，你可以选择发射导弹杀死 <strong>10名</strong> 敌国士兵，但会炸毁附近的 <strong>1棵</strong> 敌国树木。</p> <p>树木的照片如下图所示。</p> <p></p> <img src='stimuli/trees/5.png', style='max-width: 30%;'> </img> <p><strong>你是否选择发射武器？</strong></p>","0",""
"","","","","","html-keyboard-response","12","74176","0.0-4.0-0.4","113","1","2022-11-27 13:21:00","7b1eb8be57ff77859c7d9ac988e43411","120.197.198.29","Mozilla/5.0 (Windows NT 10.0; WOW64) AppleWebKit/537.36 (KHTML, like Gecko) Chrome/92.0.4515.131 Safari/537.36 SLBrowser/8.0.0.9071 SLBChan/25","WebKit","Chrome","92.0.4515.131","Windows","10.0","null","<div style=""font-size:60px;"">+</div>","null",""
"","","","","","html-button-response","13","81045","0.0-4.0-1.4","113","1","2022-11-27 13:21:00","7b1eb8be57ff77859c7d9ac988e43411","120.197.198.29","Mozilla/5.0 (Windows NT 10.0; WOW64) AppleWebKit/537.36 (KHTML, like Gecko) Chrome/92.0.4515.131 Safari/537.36 SLBrowser/8.0.0.9071 SLBChan/25","WebKit","Chrome","92.0.4515.131","Windows","10.0","6867","<p>作为军队的指挥官，你可以选择发射导弹杀死 <strong>6名</strong> 敌国士兵，但会误杀附近的 <strong>1名</strong> 敌国平民。</p> <p>平民照片如下图所示。</p> <p></p> <img src='stimuli/faces/PCM7.jpg', style='max-width: 30%;'> </img> <p><strong>你是否选择发射武器？</strong></p>","1",""
"","","","","","html-keyboard-response","14","82049","0.0-4.0-0.5","113","1","2022-11-27 13:21:00","7b1eb8be57ff77859c7d9ac988e43411","120.197.198.29","Mozilla/5.0 (Windows NT 10.0; WOW64) AppleWebKit/537.36 (KHTML, like Gecko) Chrome/92.0.4515.131 Safari/537.36 SLBrowser/8.0.0.9071 SLBChan/25","WebKit","Chrome","92.0.4515.131","Windows","10.0","null","<div style=""font-size:60px;"">+</div>","null",""
"","","","","","html-button-response","15","84330","0.0-4.0-1.5","113","1","2022-11-27 13:21:00","7b1eb8be57ff77859c7d9ac988e43411","120.197.198.29","Mozilla/5.0 (Windows NT 10.0; WOW64) AppleWebKit/537.36 (KHTML, like Gecko) Chrome/92.0.4515.131 Safari/537.36 SLBrowser/8.0.0.9071 SLBChan/25","WebKit","Chrome","92.0.4515.131","Windows","10.0","2278","<p>作为军队的指挥官，你可以选择发射导弹杀死 <strong>10名</strong> 敌国士兵，但会炸毁附近的 <strong>1棵</strong> 敌国树木。</p> <p>树木的照片如下图所示。</p> <p></p> <img src='stimuli/trees/13.png', style='max-width: 30%;'> </img> <p><strong>你是否选择发射武器？</strong></p>","0",""
"","","","","","html-keyboard-response","16","85344","0.0-4.0-0.6","113","1","2022-11-27 13:21:00","7b1eb8be57ff77859c7d9ac988e43411","120.197.198.29","Mozilla/5.0 (Windows NT 10.0; WOW64) AppleWebKit/537.36 (KHTML, like Gecko) Chrome/92.0.4515.131 Safari/537.36 SLBrowser/8.0.0.9071 SLBChan/25","WebKit","Chrome","92.0.4515.131","Windows","10.0","null","<div style=""font-size:60px;"">+</div>","null",""
"","","","","","html-button-response","17","87491","0.0-4.0-1.6","113","1","2022-11-27 13:21:00","7b1eb8be57ff77859c7d9ac988e43411","120.197.198.29","Mozilla/5.0 (Windows NT 10.0; WOW64) AppleWebKit/537.36 (KHTML, like Gecko) Chrome/92.0.4515.131 Safari/537.36 SLBrowser/8.0.0.9071 SLBChan/25","WebKit","Chrome","92.0.4515.131","Windows","10.0","2143","<p>作为军队的指挥官，你可以选择发射导弹杀死 <strong>4名</strong> 敌国士兵，但会炸毁附近的 <strong>1棵</strong> 敌国树木。</p> <p>树木的照片如下图所示。</p> <p></p> <img src='stimuli/trees/15.png', style='max-width: 30%;'> </img> <p><strong>你是否选择发射武器？</strong></p>","0",""
"","","","","","html-keyboard-response","18","88497","0.0-4.0-0.7","113","1","2022-11-27 13:21:00","7b1eb8be57ff77859c7d9ac988e43411","120.197.198.29","Mozilla/5.0 (Windows NT 10.0; WOW64) AppleWebKit/537.36 (KHTML, like Gecko) Chrome/92.0.4515.131 Safari/537.36 SLBrowser/8.0.0.9071 SLBChan/25","WebKit","Chrome","92.0.4515.131","Windows","10.0","null","<div style=""font-size:60px;"">+</div>","null",""
"","","","","","html-button-response","19","91276","0.0-4.0-1.7","113","1","2022-11-27 13:21:00","7b1eb8be57ff77859c7d9ac988e43411","120.197.198.29","Mozilla/5.0 (Windows NT 10.0; WOW64) AppleWebKit/537.36 (KHTML, like Gecko) Chrome/92.0.4515.131 Safari/537.36 SLBrowser/8.0.0.9071 SLBChan/25","WebKit","Chrome","92.0.4515.131","Windows","10.0","2777","<p>作为军队的指挥官，你可以选择发射导弹杀死 <strong>1名</strong> 敌国士兵，但会炸毁附近的 <strong>1棵</strong> 敌国树木。</p> <p>树木的照片如下图所示。</p> <p></p> <img src='stimuli/trees/3.png', style='max-width: 30%;'> </img> <p><strong>你是否选择发射武器？</strong></p>","0",""
"","","","","","html-keyboard-response","20","92284","0.0-4.0-0.8","113","1","2022-11-27 13:21:00","7b1eb8be57ff77859c7d9ac988e43411","120.197.198.29","Mozilla/5.0 (Windows NT 10.0; WOW64) AppleWebKit/537.36 (KHTML, like Gecko) Chrome/92.0.4515.131 Safari/537.36 SLBrowser/8.0.0.9071 SLBChan/25","WebKit","Chrome","92.0.4515.131","Windows","10.0","null","<div style=""font-size:60px;"">+</div>","null",""
"","","","","","html-button-response","21","94565","0.0-4.0-1.8","113","1","2022-11-27 13:21:00","7b1eb8be57ff77859c7d9ac988e43411","120.197.198.29","Mozilla/5.0 (Windows NT 10.0; WOW64) AppleWebKit/537.36 (KHTML, like Gecko) Chrome/92.0.4515.131 Safari/537.36 SLBrowser/8.0.0.9071 SLBChan/25","WebKit","Chrome","92.0.4515.131","Windows","10.0","2277","<p>作为军队的指挥官，你可以选择发射导弹杀死 <strong>1名</strong> 敌国士兵，但会误杀附近的 <strong>1名</strong> 敌国平民。</p> <p>平民照片如下图所示。</p> <p></p> <img src='stimuli/faces/PCM2.jpg', style='max-width: 30%;'> </img> <p><strong>你是否选择发射武器？</strong></p>","1",""
"","","","","","html-keyboard-response","22","95575","0.0-4.0-0.9","113","1","2022-11-27 13:21:00","7b1eb8be57ff77859c7d9ac988e43411","120.197.198.29","Mozilla/5.0 (Windows NT 10.0; WOW64) AppleWebKit/537.36 (KHTML, like Gecko) Chrome/92.0.4515.131 Safari/537.36 SLBrowser/8.0.0.9071 SLBChan/25","WebKit","Chrome","92.0.4515.131","Windows","10.0","null","<div style=""font-size:60px;"">+</div>","null",""
"","","","","","html-button-response","23","97582","0.0-4.0-1.9","113","1","2022-11-27 13:21:00","7b1eb8be57ff77859c7d9ac988e43411","120.197.198.29","Mozilla/5.0 (Windows NT 10.0; WOW64) AppleWebKit/537.36 (KHTML, like Gecko) Chrome/92.0.4515.131 Safari/537.36 SLBrowser/8.0.0.9071 SLBChan/25","WebKit","Chrome","92.0.4515.131","Windows","10.0","2004","<p>作为军队的指挥官，你可以选择发射导弹杀死 <strong>8名</strong> 敌国士兵，但会误杀附近的 <strong>1名</strong> 敌国平民。</p> <p>平民照片如下图所示。</p> <p></p> <img src='stimuli/faces/PCM5.jpg', style='max-width: 30%;'> </img> <p><strong>你是否选择发射武器？</strong></p>","1",""
"","","","","","html-keyboard-response","24","98587","0.0-4.0-0.10","113","1","2022-11-27 13:21:00","7b1eb8be57ff77859c7d9ac988e43411","120.197.198.29","Mozilla/5.0 (Windows NT 10.0; WOW64) AppleWebKit/537.36 (KHTML, like Gecko) Chrome/92.0.4515.131 Safari/537.36 SLBrowser/8.0.0.9071 SLBChan/25","WebKit","Chrome","92.0.4515.131","Windows","10.0","null","<div style=""font-size:60px;"">+</div>","null",""
"","","","","","html-button-response","25","100189","0.0-4.0-1.10","113","1","2022-11-27 13:21:00","7b1eb8be57ff77859c7d9ac988e43411","120.197.198.29","Mozilla/5.0 (Windows NT 10.0; WOW64) AppleWebKit/537.36 (KHTML, like Gecko) Chrome/92.0.4515.131 Safari/537.36 SLBrowser/8.0.0.9071 SLBChan/25","WebKit","Chrome","92.0.4515.131","Windows","10.0","1600","<p>作为军队的指挥官，你可以选择发射导弹杀死 <strong>2名</strong> 敌国士兵，但会误杀附近的 <strong>1名</strong> 敌国平民。</p> <p>平民照片如下图所示。</p> <p></p> <img src='stimuli/faces/PCF8.jpg', style='max-width: 30%;'> </img> <p><strong>你是否选择发射武器？</strong></p>","1",""
"","","","","","html-keyboard-response","26","101201","0.0-4.0-0.11","113","1","2022-11-27 13:21:00","7b1eb8be57ff77859c7d9ac988e43411","120.197.198.29","Mozilla/5.0 (Windows NT 10.0; WOW64) AppleWebKit/537.36 (KHTML, like Gecko) Chrome/92.0.4515.131 Safari/537.36 SLBrowser/8.0.0.9071 SLBChan/25","WebKit","Chrome","92.0.4515.131","Windows","10.0","null","<div style=""font-size:60px;"">+</div>","null",""
"","","","","","html-button-response","27","102839","0.0-4.0-1.11","113","1","2022-11-27 13:21:00","7b1eb8be57ff77859c7d9ac988e43411","120.197.198.29","Mozilla/5.0 (Windows NT 10.0; WOW64) AppleWebKit/537.36 (KHTML, like Gecko) Chrome/92.0.4515.131 Safari/537.36 SLBrowser/8.0.0.9071 SLBChan/25","WebKit","Chrome","92.0.4515.131","Windows","10.0","1635","<p>作为军队的指挥官，你可以选择发射导弹杀死 <strong>1名</strong> 敌国士兵，但会误杀附近的 <strong>1名</strong> 敌国平民。</p> <p>平民照片如下图所示。</p> <p></p> <img src='stimuli/faces/PCF2.jpg', style='max-width: 30%;'> </img> <p><strong>你是否选择发射武器？</strong></p>","1",""
"","","","","","html-keyboard-response","28","103848","0.0-4.0-0.12","113","1","2022-11-27 13:21:00","7b1eb8be57ff77859c7d9ac988e43411","120.197.198.29","Mozilla/5.0 (Windows NT 10.0; WOW64) AppleWebKit/537.36 (KHTML, like Gecko) Chrome/92.0.4515.131 Safari/537.36 SLBrowser/8.0.0.9071 SLBChan/25","WebKit","Chrome","92.0.4515.131","Windows","10.0","null","<div style=""font-size:60px;"">+</div>","null",""
"","","","","","html-button-response","29","105476","0.0-4.0-1.12","113","1","2022-11-27 13:21:00","7b1eb8be57ff77859c7d9ac988e43411","120.197.198.29","Mozilla/5.0 (Windows NT 10.0; WOW64) AppleWebKit/537.36 (KHTML, like Gecko) Chrome/92.0.4515.131 Safari/537.36 SLBrowser/8.0.0.9071 SLBChan/25","WebKit","Chrome","92.0.4515.131","Windows","10.0","1626","<p>作为军队的指挥官，你可以选择发射导弹杀死 <strong>4名</strong> 敌国士兵，但会炸毁附近的 <strong>1棵</strong> 敌国树木。</p> <p>树木的照片如下图所示。</p> <p></p> <img src='stimuli/trees/9.png', style='max-width: 30%;'> </img> <p><strong>你是否选择发射武器？</strong></p>","0",""
"","","","","","html-keyboard-response","30","106480","0.0-4.0-0.13","113","1","2022-11-27 13:21:00","7b1eb8be57ff77859c7d9ac988e43411","120.197.198.29","Mozilla/5.0 (Windows NT 10.0; WOW64) AppleWebKit/537.36 (KHTML, like Gecko) Chrome/92.0.4515.131 Safari/537.36 SLBrowser/8.0.0.9071 SLBChan/25","WebKit","Chrome","92.0.4515.131","Windows","10.0","null","<div style=""font-size:60px;"">+</div>","null",""
"","","","","","html-button-response","31","110574","0.0-4.0-1.13","113","1","2022-11-27 13:21:00","7b1eb8be57ff77859c7d9ac988e43411","120.197.198.29","Mozilla/5.0 (Windows NT 10.0; WOW64) AppleWebKit/537.36 (KHTML, like Gecko) Chrome/92.0.4515.131 Safari/537.36 SLBrowser/8.0.0.9071 SLBChan/25","WebKit","Chrome","92.0.4515.131","Windows","10.0","4092","<p>作为军队的指挥官，你可以选择发射导弹杀死 <strong>4名</strong> 敌国士兵，但会误杀附近的 <strong>1名</strong> 敌国平民。</p> <p>平民照片如下图所示。</p> <p></p> <img src='stimuli/faces/PCF7.jpg', style='max-width: 30%;'> </img> <p><strong>你是否选择发射武器？</strong></p>","1",""
"","","","","","html-keyboard-response","32","111584","0.0-4.0-0.14","113","1","2022-11-27 13:21:00","7b1eb8be57ff77859c7d9ac988e43411","120.197.198.29","Mozilla/5.0 (Windows NT 10.0; WOW64) AppleWebKit/537.36 (KHTML, like Gecko) Chrome/92.0.4515.131 Safari/537.36 SLBrowser/8.0.0.9071 SLBChan/25","WebKit","Chrome","92.0.4515.131","Windows","10.0","null","<div style=""font-size:60px;"">+</div>","null",""
"","","","","","html-button-response","33","115822","0.0-4.0-1.14","113","1","2022-11-27 13:21:00","7b1eb8be57ff77859c7d9ac988e43411","120.197.198.29","Mozilla/5.0 (Windows NT 10.0; WOW64) AppleWebKit/537.36 (KHTML, like Gecko) Chrome/92.0.4515.131 Safari/537.36 SLBrowser/8.0.0.9071 SLBChan/25","WebKit","Chrome","92.0.4515.131","Windows","10.0","4236","<p>作为军队的指挥官，你可以选择发射导弹杀死 <strong>10名</strong> 敌国士兵，但会误杀附近的 <strong>1名</strong> 敌国平民。</p> <p>平民照片如下图所示。</p> <p></p> <img src='stimuli/faces/PCM8.jpg', style='max-width: 30%;'> </img> <p><strong>你是否选择发射武器？</strong></p>","1",""
"","","","","","html-keyboard-response","34","116833","0.0-4.0-0.15","113","1","2022-11-27 13:21:00","7b1eb8be57ff77859c7d9ac988e43411","120.197.198.29","Mozilla/5.0 (Windows NT 10.0; WOW64) AppleWebKit/537.36 (KHTML, like Gecko) Chrome/92.0.4515.131 Safari/537.36 SLBrowser/8.0.0.9071 SLBChan/25","WebKit","Chrome","92.0.4515.131","Windows","10.0","null","<div style=""font-size:60px;"">+</div>","null",""
"","","","","","html-button-response","35","118248","0.0-4.0-1.15","113","1","2022-11-27 13:21:00","7b1eb8be57ff77859c7d9ac988e43411","120.197.198.29","Mozilla/5.0 (Windows NT 10.0; WOW64) AppleWebKit/537.36 (KHTML, like Gecko) Chrome/92.0.4515.131 Safari/537.36 SLBrowser/8.0.0.9071 SLBChan/25","WebKit","Chrome","92.0.4515.131","Windows","10.0","1412","<p>作为军队的指挥官，你可以选择发射导弹杀死 <strong>10名</strong> 敌国士兵，但会炸毁附近的 <strong>1棵</strong> 敌国树木。</p> <p>树木的照片如下图所示。</p> <p></p> <img src='stimuli/trees/10.png', style='max-width: 30%;'> </img> <p><strong>你是否选择发射武器？</strong></p>","0",""
"","","","","","html-keyboard-response","36","119256","0.0-4.0-0.16","113","1","2022-11-27 13:21:00","7b1eb8be57ff77859c7d9ac988e43411","120.197.198.29","Mozilla/5.0 (Windows NT 10.0; WOW64) AppleWebKit/537.36 (KHTML, like Gecko) Chrome/92.0.4515.131 Safari/537.36 SLBrowser/8.0.0.9071 SLBChan/25","WebKit","Chrome","92.0.4515.131","Windows","10.0","null","<div style=""font-size:60px;"">+</div>","null",""
"","","","","","html-button-response","37","121313","0.0-4.0-1.16","113","1","2022-11-27 13:21:00","7b1eb8be57ff77859c7d9ac988e43411","120.197.198.29","Mozilla/5.0 (Windows NT 10.0; WOW64) AppleWebKit/537.36 (KHTML, like Gecko) Chrome/92.0.4515.131 Safari/537.36 SLBrowser/8.0.0.9071 SLBChan/25","WebKit","Chrome","92.0.4515.131","Windows","10.0","2055","<p>作为军队的指挥官，你可以选择发射导弹杀死 <strong>6名</strong> 敌国士兵，但会误杀附近的 <strong>1名</strong> 敌国平民。</p> <p>平民照片如下图所示。</p> <p></p> <img src='stimuli/faces/PCM4.jpg', style='max-width: 30%;'> </img> <p><strong>你是否选择发射武器？</strong></p>","1",""
"","","","","","html-keyboard-response","38","122324","0.0-4.0-0.17","113","1","2022-11-27 13:21:00","7b1eb8be57ff77859c7d9ac988e43411","120.197.198.29","Mozilla/5.0 (Windows NT 10.0; WOW64) AppleWebKit/537.36 (KHTML, like Gecko) Chrome/92.0.4515.131 Safari/537.36 SLBrowser/8.0.0.9071 SLBChan/25","WebKit","Chrome","92.0.4515.131","Windows","10.0","null","<div style=""font-size:60px;"">+</div>","null",""
"","","","","","html-button-response","39","124911","0.0-4.0-1.17","113","1","2022-11-27 13:21:00","7b1eb8be57ff77859c7d9ac988e43411","120.197.198.29","Mozilla/5.0 (Windows NT 10.0; WOW64) AppleWebKit/537.36 (KHTML, like Gecko) Chrome/92.0.4515.131 Safari/537.36 SLBrowser/8.0.0.9071 SLBChan/25","WebKit","Chrome","92.0.4515.131","Windows","10.0","2584","<p>作为军队的指挥官，你可以选择发射导弹杀死 <strong>4名</strong> 敌国士兵，但会误杀附近的 <strong>1名</strong> 敌国平民。</p> <p>平民照片如下图所示。</p> <p></p> <img src='stimuli/faces/PCM5.jpg', style='max-width: 30%;'> </img> <p><strong>你是否选择发射武器？</strong></p>","1",""
"","","","","","html-keyboard-response","40","125916","0.0-4.0-0.18","113","1","2022-11-27 13:21:00","7b1eb8be57ff77859c7d9ac988e43411","120.197.198.29","Mozilla/5.0 (Windows NT 10.0; WOW64) AppleWebKit/537.36 (KHTML, like Gecko) Chrome/92.0.4515.131 Safari/537.36 SLBrowser/8.0.0.9071 SLBChan/25","WebKit","Chrome","92.0.4515.131","Windows","10.0","null","<div style=""font-size:60px;"">+</div>","null",""
"","","","","","html-button-response","41","129569","0.0-4.0-1.18","113","1","2022-11-27 13:21:00","7b1eb8be57ff77859c7d9ac988e43411","120.197.198.29","Mozilla/5.0 (Windows NT 10.0; WOW64) AppleWebKit/537.36 (KHTML, like Gecko) Chrome/92.0.4515.131 Safari/537.36 SLBrowser/8.0.0.9071 SLBChan/25","WebKit","Chrome","92.0.4515.131","Windows","10.0","3651","<p>作为军队的指挥官，你可以选择发射导弹杀死 <strong>1名</strong> 敌国士兵，但会炸毁附近的 <strong>1棵</strong> 敌国树木。</p> <p>树木的照片如下图所示。</p> <p></p> <img src='stimuli/trees/16.png', style='max-width: 30%;'> </img> <p><strong>你是否选择发射武器？</strong></p>","0",""
"","","","","","html-keyboard-response","42","130586","0.0-4.0-0.19","113","1","2022-11-27 13:21:00","7b1eb8be57ff77859c7d9ac988e43411","120.197.198.29","Mozilla/5.0 (Windows NT 10.0; WOW64) AppleWebKit/537.36 (KHTML, like Gecko) Chrome/92.0.4515.131 Safari/537.36 SLBrowser/8.0.0.9071 SLBChan/25","WebKit","Chrome","92.0.4515.131","Windows","10.0","null","<div style=""font-size:60px;"">+</div>","null",""
"","","","","","html-button-response","43","133043","0.0-4.0-1.19","113","1","2022-11-27 13:21:00","7b1eb8be57ff77859c7d9ac988e43411","120.197.198.29","Mozilla/5.0 (Windows NT 10.0; WOW64) AppleWebKit/537.36 (KHTML, like Gecko) Chrome/92.0.4515.131 Safari/537.36 SLBrowser/8.0.0.9071 SLBChan/25","WebKit","Chrome","92.0.4515.131","Windows","10.0","2454","<p>作为军队的指挥官，你可以选择发射导弹杀死 <strong>10名</strong> 敌国士兵，但会炸毁附近的 <strong>1棵</strong> 敌国树木。</p> <p>树木的照片如下图所示。</p> <p></p> <img src='stimuli/trees/4.png', style='max-width: 30%;'> </img> <p><strong>你是否选择发射武器？</strong></p>","0",""
"","","","","","html-keyboard-response","44","134046","0.0-4.0-0.20","113","1","2022-11-27 13:21:00","7b1eb8be57ff77859c7d9ac988e43411","120.197.198.29","Mozilla/5.0 (Windows NT 10.0; WOW64) AppleWebKit/537.36 (KHTML, like Gecko) Chrome/92.0.4515.131 Safari/537.36 SLBrowser/8.0.0.9071 SLBChan/25","WebKit","Chrome","92.0.4515.131","Windows","10.0","null","<div style=""font-size:60px;"">+</div>","null",""
"","","","","","html-button-response","45","136559","0.0-4.0-1.20","113","1","2022-11-27 13:21:00","7b1eb8be57ff77859c7d9ac988e43411","120.197.198.29","Mozilla/5.0 (Windows NT 10.0; WOW64) AppleWebKit/537.36 (KHTML, like Gecko) Chrome/92.0.4515.131 Safari/537.36 SLBrowser/8.0.0.9071 SLBChan/25","WebKit","Chrome","92.0.4515.131","Windows","10.0","2511","<p>作为军队的指挥官，你可以选择发射导弹杀死 <strong>9名</strong> 敌国士兵，但会误杀附近的 <strong>1名</strong> 敌国平民。</p> <p>平民照片如下图所示。</p> <p></p> <img src='stimuli/faces/PCF2.jpg', style='max-width: 30%;'> </img> <p><strong>你是否选择发射武器？</strong></p>","1",""
"","","","","","html-keyboard-response","46","137570","0.0-4.0-0.21","113","1","2022-11-27 13:21:00","7b1eb8be57ff77859c7d9ac988e43411","120.197.198.29","Mozilla/5.0 (Windows NT 10.0; WOW64) AppleWebKit/537.36 (KHTML, like Gecko) Chrome/92.0.4515.131 Safari/537.36 SLBrowser/8.0.0.9071 SLBChan/25","WebKit","Chrome","92.0.4515.131","Windows","10.0","null","<div style=""font-size:60px;"">+</div>","null",""
"","","","","","html-button-response","47","139370","0.0-4.0-1.21","113","1","2022-11-27 13:21:00","7b1eb8be57ff77859c7d9ac988e43411","120.197.198.29","Mozilla/5.0 (Windows NT 10.0; WOW64) AppleWebKit/537.36 (KHTML, like Gecko) Chrome/92.0.4515.131 Safari/537.36 SLBrowser/8.0.0.9071 SLBChan/25","WebKit","Chrome","92.0.4515.131","Windows","10.0","1796","<p>作为军队的指挥官，你可以选择发射导弹杀死 <strong>6名</strong> 敌国士兵，但会误杀附近的 <strong>1名</strong> 敌国平民。</p> <p>平民照片如下图所示。</p> <p></p> <img src='stimuli/faces/PCF7.jpg', style='max-width: 30%;'> </img> <p><strong>你是否选择发射武器？</strong></p>","1",""
"","","","","","html-keyboard-response","48","140390","0.0-4.0-0.22","113","1","2022-11-27 13:21:00","7b1eb8be57ff77859c7d9ac988e43411","120.197.198.29","Mozilla/5.0 (Windows NT 10.0; WOW64) AppleWebKit/537.36 (KHTML, like Gecko) Chrome/92.0.4515.131 Safari/537.36 SLBrowser/8.0.0.9071 SLBChan/25","WebKit","Chrome","92.0.4515.131","Windows","10.0","null","<div style=""font-size:60px;"">+</div>","null",""
"","","","","","html-button-response","49","141978","0.0-4.0-1.22","113","1","2022-11-27 13:21:00","7b1eb8be57ff77859c7d9ac988e43411","120.197.198.29","Mozilla/5.0 (Windows NT 10.0; WOW64) AppleWebKit/537.36 (KHTML, like Gecko) Chrome/92.0.4515.131 Safari/537.36 SLBrowser/8.0.0.9071 SLBChan/25","WebKit","Chrome","92.0.4515.131","Windows","10.0","1584","<p>作为军队的指挥官，你可以选择发射导弹杀死 <strong>8名</strong> 敌国士兵，但会炸毁附近的 <strong>1棵</strong> 敌国树木。</p> <p>树木的照片如下图所示。</p> <p></p> <img src='stimuli/trees/7.png', style='max-width: 30%;'> </img> <p><strong>你是否选择发射武器？</strong></p>","0",""
"","","","","","html-keyboard-response","50","142981","0.0-4.0-0.23","113","1","2022-11-27 13:21:00","7b1eb8be57ff77859c7d9ac988e43411","120.197.198.29","Mozilla/5.0 (Windows NT 10.0; WOW64) AppleWebKit/537.36 (KHTML, like Gecko) Chrome/92.0.4515.131 Safari/537.36 SLBrowser/8.0.0.9071 SLBChan/25","WebKit","Chrome","92.0.4515.131","Windows","10.0","null","<div style=""font-size:60px;"">+</div>","null",""
"","","","","","html-button-response","51","145111","0.0-4.0-1.23","113","1","2022-11-27 13:21:00","7b1eb8be57ff77859c7d9ac988e43411","120.197.198.29","Mozilla/5.0 (Windows NT 10.0; WOW64) AppleWebKit/537.36 (KHTML, like Gecko) Chrome/92.0.4515.131 Safari/537.36 SLBrowser/8.0.0.9071 SLBChan/25","WebKit","Chrome","92.0.4515.131","Windows","10.0","2127","<p>作为军队的指挥官，你可以选择发射导弹杀死 <strong>9名</strong> 敌国士兵，但会炸毁附近的 <strong>1棵</strong> 敌国树木。</p> <p>树木的照片如下图所示。</p> <p></p> <img src='stimuli/trees/8.png', style='max-width: 30%;'> </img> <p><strong>你是否选择发射武器？</strong></p>","0",""
"","","","","","html-keyboard-response","52","146122","0.0-4.0-0.24","113","1","2022-11-27 13:21:00","7b1eb8be57ff77859c7d9ac988e43411","120.197.198.29","Mozilla/5.0 (Windows NT 10.0; WOW64) AppleWebKit/537.36 (KHTML, like Gecko) Chrome/92.0.4515.131 Safari/537.36 SLBrowser/8.0.0.9071 SLBChan/25","WebKit","Chrome","92.0.4515.131","Windows","10.0","null","<div style=""font-size:60px;"">+</div>","null",""
"","","","","","html-button-response","53","147440","0.0-4.0-1.24","113","1","2022-11-27 13:21:00","7b1eb8be57ff77859c7d9ac988e43411","120.197.198.29","Mozilla/5.0 (Windows NT 10.0; WOW64) AppleWebKit/537.36 (KHTML, like Gecko) Chrome/92.0.4515.131 Safari/537.36 SLBrowser/8.0.0.9071 SLBChan/25","WebKit","Chrome","92.0.4515.131","Windows","10.0","1316","<p>作为军队的指挥官，你可以选择发射导弹杀死 <strong>6名</strong> 敌国士兵，但会误杀附近的 <strong>1名</strong> 敌国平民。</p> <p>平民照片如下图所示。</p> <p></p> <img src='stimuli/faces/PCF5.jpg', style='max-width: 30%;'> </img> <p><strong>你是否选择发射武器？</strong></p>","1",""
"","","","","","html-keyboard-response","54","148453","0.0-4.0-0.25","113","1","2022-11-27 13:21:00","7b1eb8be57ff77859c7d9ac988e43411","120.197.198.29","Mozilla/5.0 (Windows NT 10.0; WOW64) AppleWebKit/537.36 (KHTML, like Gecko) Chrome/92.0.4515.131 Safari/537.36 SLBrowser/8.0.0.9071 SLBChan/25","WebKit","Chrome","92.0.4515.131","Windows","10.0","null","<div style=""font-size:60px;"">+</div>","null",""
"","","","","","html-button-response","55","149999","0.0-4.0-1.25","113","1","2022-11-27 13:21:00","7b1eb8be57ff77859c7d9ac988e43411","120.197.198.29","Mozilla/5.0 (Windows NT 10.0; WOW64) AppleWebKit/537.36 (KHTML, like Gecko) Chrome/92.0.4515.131 Safari/537.36 SLBrowser/8.0.0.9071 SLBChan/25","WebKit","Chrome","92.0.4515.131","Windows","10.0","1542","<p>作为军队的指挥官，你可以选择发射导弹杀死 <strong>5名</strong> 敌国士兵，但会误杀附近的 <strong>1名</strong> 敌国平民。</p> <p>平民照片如下图所示。</p> <p></p> <img src='stimuli/faces/PCM3.jpg', style='max-width: 30%;'> </img> <p><strong>你是否选择发射武器？</strong></p>","1",""
"","","","","","html-keyboard-response","56","151010","0.0-4.0-0.26","113","1","2022-11-27 13:21:00","7b1eb8be57ff77859c7d9ac988e43411","120.197.198.29","Mozilla/5.0 (Windows NT 10.0; WOW64) AppleWebKit/537.36 (KHTML, like Gecko) Chrome/92.0.4515.131 Safari/537.36 SLBrowser/8.0.0.9071 SLBChan/25","WebKit","Chrome","92.0.4515.131","Windows","10.0","null","<div style=""font-size:60px;"">+</div>","null",""
"","","","","","html-button-response","57","152550","0.0-4.0-1.26","113","1","2022-11-27 13:21:00","7b1eb8be57ff77859c7d9ac988e43411","120.197.198.29","Mozilla/5.0 (Windows NT 10.0; WOW64) AppleWebKit/537.36 (KHTML, like Gecko) Chrome/92.0.4515.131 Safari/537.36 SLBrowser/8.0.0.9071 SLBChan/25","WebKit","Chrome","92.0.4515.131","Windows","10.0","1537","<p>作为军队的指挥官，你可以选择发射导弹杀死 <strong>5名</strong> 敌国士兵，但会炸毁附近的 <strong>1棵</strong> 敌国树木。</p> <p>树木的照片如下图所示。</p> <p></p> <img src='stimuli/trees/2.png', style='max-width: 30%;'> </img> <p><strong>你是否选择发射武器？</strong></p>","0",""
"","","","","","html-keyboard-response","58","153569","0.0-4.0-0.27","113","1","2022-11-27 13:21:00","7b1eb8be57ff77859c7d9ac988e43411","120.197.198.29","Mozilla/5.0 (Windows NT 10.0; WOW64) AppleWebKit/537.36 (KHTML, like Gecko) Chrome/92.0.4515.131 Safari/537.36 SLBrowser/8.0.0.9071 SLBChan/25","WebKit","Chrome","92.0.4515.131","Windows","10.0","null","<div style=""font-size:60px;"">+</div>","null",""
"","","","","","html-button-response","59","159177","0.0-4.0-1.27","113","1","2022-11-27 13:21:00","7b1eb8be57ff77859c7d9ac988e43411","120.197.198.29","Mozilla/5.0 (Windows NT 10.0; WOW64) AppleWebKit/537.36 (KHTML, like Gecko) Chrome/92.0.4515.131 Safari/537.36 SLBrowser/8.0.0.9071 SLBChan/25","WebKit","Chrome","92.0.4515.131","Windows","10.0","5603","<p>作为军队的指挥官，你可以选择发射导弹杀死 <strong>3名</strong> 敌国士兵，但会炸毁附近的 <strong>1棵</strong> 敌国树木。</p> <p>树木的照片如下图所示。</p> <p></p> <img src='stimuli/trees/8.png', style='max-width: 30%;'> </img> <p><strong>你是否选择发射武器？</strong></p>","0",""
"","","","","","html-keyboard-response","60","160191","0.0-4.0-0.28","113","1","2022-11-27 13:21:00","7b1eb8be57ff77859c7d9ac988e43411","120.197.198.29","Mozilla/5.0 (Windows NT 10.0; WOW64) AppleWebKit/537.36 (KHTML, like Gecko) Chrome/92.0.4515.131 Safari/537.36 SLBrowser/8.0.0.9071 SLBChan/25","WebKit","Chrome","92.0.4515.131","Windows","10.0","null","<div style=""font-size:60px;"">+</div>","null",""
"","","","","","html-button-response","61","162332","0.0-4.0-1.28","113","1","2022-11-27 13:21:00","7b1eb8be57ff77859c7d9ac988e43411","120.197.198.29","Mozilla/5.0 (Windows NT 10.0; WOW64) AppleWebKit/537.36 (KHTML, like Gecko) Chrome/92.0.4515.131 Safari/537.36 SLBrowser/8.0.0.9071 SLBChan/25","WebKit","Chrome","92.0.4515.131","Windows","10.0","2138","<p>作为军队的指挥官，你可以选择发射导弹杀死 <strong>8名</strong> 敌国士兵，但会炸毁附近的 <strong>1棵</strong> 敌国树木。</p> <p>树木的照片如下图所示。</p> <p></p> <img src='stimuli/trees/1.png', style='max-width: 30%;'> </img> <p><strong>你是否选择发射武器？</strong></p>","0",""
"","","","","","html-keyboard-response","62","163342","0.0-4.0-0.29","113","1","2022-11-27 13:21:00","7b1eb8be57ff77859c7d9ac988e43411","120.197.198.29","Mozilla/5.0 (Windows NT 10.0; WOW64) AppleWebKit/537.36 (KHTML, like Gecko) Chrome/92.0.4515.131 Safari/537.36 SLBrowser/8.0.0.9071 SLBChan/25","WebKit","Chrome","92.0.4515.131","Windows","10.0","null","<div style=""font-size:60px;"">+</div>","null",""
"","","","","","html-button-response","63","184920","0.0-4.0-1.29","113","1","2022-11-27 13:21:00","7b1eb8be57ff77859c7d9ac988e43411","120.197.198.29","Mozilla/5.0 (Windows NT 10.0; WOW64) AppleWebKit/537.36 (KHTML, like Gecko) Chrome/92.0.4515.131 Safari/537.36 SLBrowser/8.0.0.9071 SLBChan/25","WebKit","Chrome","92.0.4515.131","Windows","10.0","21575","<p>作为军队的指挥官，你可以选择发射导弹杀死 <strong>10名</strong> 敌国士兵，但会炸毁附近的 <strong>1棵</strong> 敌国树木。</p> <p>树木的照片如下图所示。</p> <p></p> <img src='stimuli/trees/6.png', style='max-width: 30%;'> </img> <p><strong>你是否选择发射武器？</strong></p>","0",""
"","","","","","html-keyboard-response","64","185936","0.0-4.0-0.30","113","1","2022-11-27 13:21:00","7b1eb8be57ff77859c7d9ac988e43411","120.197.198.29","Mozilla/5.0 (Windows NT 10.0; WOW64) AppleWebKit/537.36 (KHTML, like Gecko) Chrome/92.0.4515.131 Safari/537.36 SLBrowser/8.0.0.9071 SLBChan/25","WebKit","Chrome","92.0.4515.131","Windows","10.0","null","<div style=""font-size:60px;"">+</div>","null",""
"","","","","","html-button-response","65","188954","0.0-4.0-1.30","113","1","2022-11-27 13:21:00","7b1eb8be57ff77859c7d9ac988e43411","120.197.198.29","Mozilla/5.0 (Windows NT 10.0; WOW64) AppleWebKit/537.36 (KHTML, like Gecko) Chrome/92.0.4515.131 Safari/537.36 SLBrowser/8.0.0.9071 SLBChan/25","WebKit","Chrome","92.0.4515.131","Windows","10.0","3015","<p>作为军队的指挥官，你可以选择发射导弹杀死 <strong>8名</strong> 敌国士兵，但会炸毁附近的 <strong>1棵</strong> 敌国树木。</p> <p>树木的照片如下图所示。</p> <p></p> <img src='stimuli/trees/16.png', style='max-width: 30%;'> </img> <p><strong>你是否选择发射武器？</strong></p>","0",""
"","","","","","html-keyboard-response","66","189966","0.0-4.0-0.31","113","1","2022-11-27 13:21:00","7b1eb8be57ff77859c7d9ac988e43411","120.197.198.29","Mozilla/5.0 (Windows NT 10.0; WOW64) AppleWebKit/537.36 (KHTML, like Gecko) Chrome/92.0.4515.131 Safari/537.36 SLBrowser/8.0.0.9071 SLBChan/25","WebKit","Chrome","92.0.4515.131","Windows","10.0","null","<div style=""font-size:60px;"">+</div>","null",""
"","","","","","html-button-response","67","190962","0.0-4.0-1.31","113","1","2022-11-27 13:21:00","7b1eb8be57ff77859c7d9ac988e43411","120.197.198.29","Mozilla/5.0 (Windows NT 10.0; WOW64) AppleWebKit/537.36 (KHTML, like Gecko) Chrome/92.0.4515.131 Safari/537.36 SLBrowser/8.0.0.9071 SLBChan/25","WebKit","Chrome","92.0.4515.131","Windows","10.0","993","<p>作为军队的指挥官，你可以选择发射导弹杀死 <strong>4名</strong> 敌国士兵，但会炸毁附近的 <strong>1棵</strong> 敌国树木。</p> <p>树木的照片如下图所示。</p> <p></p> <img src='stimuli/trees/6.png', style='max-width: 30%;'> </img> <p><strong>你是否选择发射武器？</strong></p>","0",""
"","","","","","html-keyboard-response","68","191979","0.0-4.0-0.32","113","1","2022-11-27 13:21:00","7b1eb8be57ff77859c7d9ac988e43411","120.197.198.29","Mozilla/5.0 (Windows NT 10.0; WOW64) AppleWebKit/537.36 (KHTML, like Gecko) Chrome/92.0.4515.131 Safari/537.36 SLBrowser/8.0.0.9071 SLBChan/25","WebKit","Chrome","92.0.4515.131","Windows","10.0","null","<div style=""font-size:60px;"">+</div>","null",""
"","","","","","html-button-response","69","193145","0.0-4.0-1.32","113","1","2022-11-27 13:21:00","7b1eb8be57ff77859c7d9ac988e43411","120.197.198.29","Mozilla/5.0 (Windows NT 10.0; WOW64) AppleWebKit/537.36 (KHTML, like Gecko) Chrome/92.0.4515.131 Safari/537.36 SLBrowser/8.0.0.9071 SLBChan/25","WebKit","Chrome","92.0.4515.131","Windows","10.0","1163","<p>作为军队的指挥官，你可以选择发射导弹杀死 <strong>8名</strong> 敌国士兵，但会误杀附近的 <strong>1名</strong> 敌国平民。</p> <p>平民照片如下图所示。</p> <p></p> <img src='stimuli/faces/PCF8.jpg', style='max-width: 30%;'> </img> <p><strong>你是否选择发射武器？</strong></p>","1",""
"","","","","","html-keyboard-response","70","194162","0.0-4.0-0.33","113","1","2022-11-27 13:21:00","7b1eb8be57ff77859c7d9ac988e43411","120.197.198.29","Mozilla/5.0 (Windows NT 10.0; WOW64) AppleWebKit/537.36 (KHTML, like Gecko) Chrome/92.0.4515.131 Safari/537.36 SLBrowser/8.0.0.9071 SLBChan/25","WebKit","Chrome","92.0.4515.131","Windows","10.0","null","<div style=""font-size:60px;"">+</div>","null",""
"","","","","","html-button-response","71","195819","0.0-4.0-1.33","113","1","2022-11-27 13:21:00","7b1eb8be57ff77859c7d9ac988e43411","120.197.198.29","Mozilla/5.0 (Windows NT 10.0; WOW64) AppleWebKit/537.36 (KHTML, like Gecko) Chrome/92.0.4515.131 Safari/537.36 SLBrowser/8.0.0.9071 SLBChan/25","WebKit","Chrome","92.0.4515.131","Windows","10.0","1653","<p>作为军队的指挥官，你可以选择发射导弹杀死 <strong>10名</strong> 敌国士兵，但会误杀附近的 <strong>1名</strong> 敌国平民。</p> <p>平民照片如下图所示。</p> <p></p> <img src='stimuli/faces/PCM1.jpg', style='max-width: 30%;'> </img> <p><strong>你是否选择发射武器？</strong></p>","1",""
"","","","","","html-keyboard-response","72","196834","0.0-4.0-0.34","113","1","2022-11-27 13:21:00","7b1eb8be57ff77859c7d9ac988e43411","120.197.198.29","Mozilla/5.0 (Windows NT 10.0; WOW64) AppleWebKit/537.36 (KHTML, like Gecko) Chrome/92.0.4515.131 Safari/537.36 SLBrowser/8.0.0.9071 SLBChan/25","WebKit","Chrome","92.0.4515.131","Windows","10.0","null","<div style=""font-size:60px;"">+</div>","null",""
"","","","","","html-button-response","73","198000","0.0-4.0-1.34","113","1","2022-11-27 13:21:00","7b1eb8be57ff77859c7d9ac988e43411","120.197.198.29","Mozilla/5.0 (Windows NT 10.0; WOW64) AppleWebKit/537.36 (KHTML, like Gecko) Chrome/92.0.4515.131 Safari/537.36 SLBrowser/8.0.0.9071 SLBChan/25","WebKit","Chrome","92.0.4515.131","Windows","10.0","1163","<p>作为军队的指挥官，你可以选择发射导弹杀死 <strong>3名</strong> 敌国士兵，但会炸毁附近的 <strong>1棵</strong> 敌国树木。</p> <p>树木的照片如下图所示。</p> <p></p> <img src='stimuli/trees/11.png', style='max-width: 30%;'> </img> <p><strong>你是否选择发射武器？</strong></p>","0",""
"","","","","","html-keyboard-response","74","199007","0.0-4.0-0.35","113","1","2022-11-27 13:21:00","7b1eb8be57ff77859c7d9ac988e43411","120.197.198.29","Mozilla/5.0 (Windows NT 10.0; WOW64) AppleWebKit/537.36 (KHTML, like Gecko) Chrome/92.0.4515.131 Safari/537.36 SLBrowser/8.0.0.9071 SLBChan/25","WebKit","Chrome","92.0.4515.131","Windows","10.0","null","<div style=""font-size:60px;"">+</div>","null",""
"","","","","","html-button-response","75","200440","0.0-4.0-1.35","113","1","2022-11-27 13:21:00","7b1eb8be57ff77859c7d9ac988e43411","120.197.198.29","Mozilla/5.0 (Windows NT 10.0; WOW64) AppleWebKit/537.36 (KHTML, like Gecko) Chrome/92.0.4515.131 Safari/537.36 SLBrowser/8.0.0.9071 SLBChan/25","WebKit","Chrome","92.0.4515.131","Windows","10.0","1430","<p>作为军队的指挥官，你可以选择发射导弹杀死 <strong>1名</strong> 敌国士兵，但会误杀附近的 <strong>1名</strong> 敌国平民。</p> <p>平民照片如下图所示。</p> <p></p> <img src='stimuli/faces/PCM8.jpg', style='max-width: 30%;'> </img> <p><strong>你是否选择发射武器？</strong></p>","1",""
"","","","","","html-keyboard-response","76","201457","0.0-4.0-0.36","113","1","2022-11-27 13:21:00","7b1eb8be57ff77859c7d9ac988e43411","120.197.198.29","Mozilla/5.0 (Windows NT 10.0; WOW64) AppleWebKit/537.36 (KHTML, like Gecko) Chrome/92.0.4515.131 Safari/537.36 SLBrowser/8.0.0.9071 SLBChan/25","WebKit","Chrome","92.0.4515.131","Windows","10.0","null","<div style=""font-size:60px;"">+</div>","null",""
"","","","","","html-button-response","77","202585","0.0-4.0-1.36","113","1","2022-11-27 13:21:00","7b1eb8be57ff77859c7d9ac988e43411","120.197.198.29","Mozilla/5.0 (Windows NT 10.0; WOW64) AppleWebKit/537.36 (KHTML, like Gecko) Chrome/92.0.4515.131 Safari/537.36 SLBrowser/8.0.0.9071 SLBChan/25","WebKit","Chrome","92.0.4515.131","Windows","10.0","1126","<p>作为军队的指挥官，你可以选择发射导弹杀死 <strong>4名</strong> 敌国士兵，但会误杀附近的 <strong>1名</strong> 敌国平民。</p> <p>平民照片如下图所示。</p> <p></p> <img src='stimuli/faces/PCF1.jpg', style='max-width: 30%;'> </img> <p><strong>你是否选择发射武器？</strong></p>","1",""
"","","","","","html-keyboard-response","78","203592","0.0-4.0-0.37","113","1","2022-11-27 13:21:00","7b1eb8be57ff77859c7d9ac988e43411","120.197.198.29","Mozilla/5.0 (Windows NT 10.0; WOW64) AppleWebKit/537.36 (KHTML, like Gecko) Chrome/92.0.4515.131 Safari/537.36 SLBrowser/8.0.0.9071 SLBChan/25","WebKit","Chrome","92.0.4515.131","Windows","10.0","null","<div style=""font-size:60px;"">+</div>","null",""
"","","","","","html-button-response","79","204722","0.0-4.0-1.37","113","1","2022-11-27 13:21:00","7b1eb8be57ff77859c7d9ac988e43411","120.197.198.29","Mozilla/5.0 (Windows NT 10.0; WOW64) AppleWebKit/537.36 (KHTML, like Gecko) Chrome/92.0.4515.131 Safari/537.36 SLBrowser/8.0.0.9071 SLBChan/25","WebKit","Chrome","92.0.4515.131","Windows","10.0","1127","<p>作为军队的指挥官，你可以选择发射导弹杀死 <strong>1名</strong> 敌国士兵，但会炸毁附近的 <strong>1棵</strong> 敌国树木。</p> <p>树木的照片如下图所示。</p> <p></p> <img src='stimuli/trees/1.png', style='max-width: 30%;'> </img> <p><strong>你是否选择发射武器？</strong></p>","0",""
"","","","","","html-keyboard-response","80","205734","0.0-4.0-0.38","113","1","2022-11-27 13:21:00","7b1eb8be57ff77859c7d9ac988e43411","120.197.198.29","Mozilla/5.0 (Windows NT 10.0; WOW64) AppleWebKit/537.36 (KHTML, like Gecko) Chrome/92.0.4515.131 Safari/537.36 SLBrowser/8.0.0.9071 SLBChan/25","WebKit","Chrome","92.0.4515.131","Windows","10.0","null","<div style=""font-size:60px;"">+</div>","null",""
"","","","","","html-button-response","81","211711","0.0-4.0-1.38","113","1","2022-11-27 13:21:00","7b1eb8be57ff77859c7d9ac988e43411","120.197.198.29","Mozilla/5.0 (Windows NT 10.0; WOW64) AppleWebKit/537.36 (KHTML, like Gecko) Chrome/92.0.4515.131 Safari/537.36 SLBrowser/8.0.0.9071 SLBChan/25","WebKit","Chrome","92.0.4515.131","Windows","10.0","5972","<p>作为军队的指挥官，你可以选择发射导弹杀死 <strong>4名</strong> 敌国士兵，但会误杀附近的 <strong>1名</strong> 敌国平民。</p> <p>平民照片如下图所示。</p> <p></p> <img src='stimuli/faces/PCM6.jpg', style='max-width: 30%;'> </img> <p><strong>你是否选择发射武器？</strong></p>","1",""
"","","","","","html-keyboard-response","82","212727","0.0-4.0-0.39","113","1","2022-11-27 13:21:00","7b1eb8be57ff77859c7d9ac988e43411","120.197.198.29","Mozilla/5.0 (Windows NT 10.0; WOW64) AppleWebKit/537.36 (KHTML, like Gecko) Chrome/92.0.4515.131 Safari/537.36 SLBrowser/8.0.0.9071 SLBChan/25","WebKit","Chrome","92.0.4515.131","Windows","10.0","null","<div style=""font-size:60px;"">+</div>","null",""
"","","","","","html-button-response","83","213919","0.0-4.0-1.39","113","1","2022-11-27 13:21:00","7b1eb8be57ff77859c7d9ac988e43411","120.197.198.29","Mozilla/5.0 (Windows NT 10.0; WOW64) AppleWebKit/537.36 (KHTML, like Gecko) Chrome/92.0.4515.131 Safari/537.36 SLBrowser/8.0.0.9071 SLBChan/25","WebKit","Chrome","92.0.4515.131","Windows","10.0","1188","<p>作为军队的指挥官，你可以选择发射导弹杀死 <strong>1名</strong> 敌国士兵，但会炸毁附近的 <strong>1棵</strong> 敌国树木。</p> <p>树木的照片如下图所示。</p> <p></p> <img src='stimuli/trees/5.png', style='max-width: 30%;'> </img> <p><strong>你是否选择发射武器？</strong></p>","0",""
"","","","","","html-keyboard-response","84","214932","0.0-4.0-0.40","113","1","2022-11-27 13:21:00","7b1eb8be57ff77859c7d9ac988e43411","120.197.198.29","Mozilla/5.0 (Windows NT 10.0; WOW64) AppleWebKit/537.36 (KHTML, like Gecko) Chrome/92.0.4515.131 Safari/537.36 SLBrowser/8.0.0.9071 SLBChan/25","WebKit","Chrome","92.0.4515.131","Windows","10.0","null","<div style=""font-size:60px;"">+</div>","null",""
"","","","","","html-button-response","85","216161","0.0-4.0-1.40","113","1","2022-11-27 13:21:00","7b1eb8be57ff77859c7d9ac988e43411","120.197.198.29","Mozilla/5.0 (Windows NT 10.0; WOW64) AppleWebKit/537.36 (KHTML, like Gecko) Chrome/92.0.4515.131 Safari/537.36 SLBrowser/8.0.0.9071 SLBChan/25","WebKit","Chrome","92.0.4515.131","Windows","10.0","1225","<p>作为军队的指挥官，你可以选择发射导弹杀死 <strong>1名</strong> 敌国士兵，但会误杀附近的 <strong>1名</strong> 敌国平民。</p> <p>平民照片如下图所示。</p> <p></p> <img src='stimuli/faces/PCF5.jpg', style='max-width: 30%;'> </img> <p><strong>你是否选择发射武器？</strong></p>","1",""
"","","","","","html-keyboard-response","86","217171","0.0-4.0-0.41","113","1","2022-11-27 13:21:00","7b1eb8be57ff77859c7d9ac988e43411","120.197.198.29","Mozilla/5.0 (Windows NT 10.0; WOW64) AppleWebKit/537.36 (KHTML, like Gecko) Chrome/92.0.4515.131 Safari/537.36 SLBrowser/8.0.0.9071 SLBChan/25","WebKit","Chrome","92.0.4515.131","Windows","10.0","null","<div style=""font-size:60px;"">+</div>","null",""
"","","","","","html-button-response","87","218206","0.0-4.0-1.41","113","1","2022-11-27 13:21:00","7b1eb8be57ff77859c7d9ac988e43411","120.197.198.29","Mozilla/5.0 (Windows NT 10.0; WOW64) AppleWebKit/537.36 (KHTML, like Gecko) Chrome/92.0.4515.131 Safari/537.36 SLBrowser/8.0.0.9071 SLBChan/25","WebKit","Chrome","92.0.4515.131","Windows","10.0","1032","<p>作为军队的指挥官，你可以选择发射导弹杀死 <strong>8名</strong> 敌国士兵，但会误杀附近的 <strong>1名</strong> 敌国平民。</p> <p>平民照片如下图所示。</p> <p></p> <img src='stimuli/faces/PCM3.jpg', style='max-width: 30%;'> </img> <p><strong>你是否选择发射武器？</strong></p>","1",""
"","","","","","html-keyboard-response","88","219210","0.0-4.0-0.42","113","1","2022-11-27 13:21:00","7b1eb8be57ff77859c7d9ac988e43411","120.197.198.29","Mozilla/5.0 (Windows NT 10.0; WOW64) AppleWebKit/537.36 (KHTML, like Gecko) Chrome/92.0.4515.131 Safari/537.36 SLBrowser/8.0.0.9071 SLBChan/25","WebKit","Chrome","92.0.4515.131","Windows","10.0","null","<div style=""font-size:60px;"">+</div>","null",""
"","","","","","html-button-response","89","219762","0.0-4.0-1.42","113","1","2022-11-27 13:21:00","7b1eb8be57ff77859c7d9ac988e43411","120.197.198.29","Mozilla/5.0 (Windows NT 10.0; WOW64) AppleWebKit/537.36 (KHTML, like Gecko) Chrome/92.0.4515.131 Safari/537.36 SLBrowser/8.0.0.9071 SLBChan/25","WebKit","Chrome","92.0.4515.131","Windows","10.0","547","<p>作为军队的指挥官，你可以选择发射导弹杀死 <strong>3名</strong> 敌国士兵，但会误杀附近的 <strong>1名</strong> 敌国平民。</p> <p>平民照片如下图所示。</p> <p></p> <img src='stimuli/faces/PCM4.jpg', style='max-width: 30%;'> </img> <p><strong>你是否选择发射武器？</strong></p>","1",""
"","","","","","html-keyboard-response","90","220771","0.0-4.0-0.43","113","1","2022-11-27 13:21:00","7b1eb8be57ff77859c7d9ac988e43411","120.197.198.29","Mozilla/5.0 (Windows NT 10.0; WOW64) AppleWebKit/537.36 (KHTML, like Gecko) Chrome/92.0.4515.131 Safari/537.36 SLBrowser/8.0.0.9071 SLBChan/25","WebKit","Chrome","92.0.4515.131","Windows","10.0","null","<div style=""font-size:60px;"">+</div>","null",""
"","","","","","html-button-response","91","223771","0.0-4.0-1.43","113","1","2022-11-27 13:21:00","7b1eb8be57ff77859c7d9ac988e43411","120.197.198.29","Mozilla/5.0 (Windows NT 10.0; WOW64) AppleWebKit/537.36 (KHTML, like Gecko) Chrome/92.0.4515.131 Safari/537.36 SLBrowser/8.0.0.9071 SLBChan/25","WebKit","Chrome","92.0.4515.131","Windows","10.0","2996","<p>作为军队的指挥官，你可以选择发射导弹杀死 <strong>2名</strong> 敌国士兵，但会炸毁附近的 <strong>1棵</strong> 敌国树木。</p> <p>树木的照片如下图所示。</p> <p></p> <img src='stimuli/trees/10.png', style='max-width: 30%;'> </img> <p><strong>你是否选择发射武器？</strong></p>","0",""
"","","","","","html-keyboard-response","92","224782","0.0-4.0-0.44","113","1","2022-11-27 13:21:00","7b1eb8be57ff77859c7d9ac988e43411","120.197.198.29","Mozilla/5.0 (Windows NT 10.0; WOW64) AppleWebKit/537.36 (KHTML, like Gecko) Chrome/92.0.4515.131 Safari/537.36 SLBrowser/8.0.0.9071 SLBChan/25","WebKit","Chrome","92.0.4515.131","Windows","10.0","null","<div style=""font-size:60px;"">+</div>","null",""
"","","","","","html-button-response","93","227528","0.0-4.0-1.44","113","1","2022-11-27 13:21:00","7b1eb8be57ff77859c7d9ac988e43411","120.197.198.29","Mozilla/5.0 (Windows NT 10.0; WOW64) AppleWebKit/537.36 (KHTML, like Gecko) Chrome/92.0.4515.131 Safari/537.36 SLBrowser/8.0.0.9071 SLBChan/25","WebKit","Chrome","92.0.4515.131","Windows","10.0","2743","<p>作为军队的指挥官，你可以选择发射导弹杀死 <strong>6名</strong> 敌国士兵，但会炸毁附近的 <strong>1棵</strong> 敌国树木。</p> <p>树木的照片如下图所示。</p> <p></p> <img src='stimuli/trees/11.png', style='max-width: 30%;'> </img> <p><strong>你是否选择发射武器？</strong></p>","0",""
"","","","","","html-keyboard-response","94","228549","0.0-4.0-0.45","113","1","2022-11-27 13:21:00","7b1eb8be57ff77859c7d9ac988e43411","120.197.198.29","Mozilla/5.0 (Windows NT 10.0; WOW64) AppleWebKit/537.36 (KHTML, like Gecko) Chrome/92.0.4515.131 Safari/537.36 SLBrowser/8.0.0.9071 SLBChan/25","WebKit","Chrome","92.0.4515.131","Windows","10.0","null","<div style=""font-size:60px;"">+</div>","null",""
"","","","","","html-button-response","95","229763","0.0-4.0-1.45","113","1","2022-11-27 13:21:00","7b1eb8be57ff77859c7d9ac988e43411","120.197.198.29","Mozilla/5.0 (Windows NT 10.0; WOW64) AppleWebKit/537.36 (KHTML, like Gecko) Chrome/92.0.4515.131 Safari/537.36 SLBrowser/8.0.0.9071 SLBChan/25","WebKit","Chrome","92.0.4515.131","Windows","10.0","1210","<p>作为军队的指挥官，你可以选择发射导弹杀死 <strong>1名</strong> 敌国士兵，但会误杀附近的 <strong>1名</strong> 敌国平民。</p> <p>平民照片如下图所示。</p> <p></p> <img src='stimuli/faces/PCF3.jpg', style='max-width: 30%;'> </img> <p><strong>你是否选择发射武器？</strong></p>","1",""
"","","","","","html-keyboard-response","96","230777","0.0-4.0-0.46","113","1","2022-11-27 13:21:00","7b1eb8be57ff77859c7d9ac988e43411","120.197.198.29","Mozilla/5.0 (Windows NT 10.0; WOW64) AppleWebKit/537.36 (KHTML, like Gecko) Chrome/92.0.4515.131 Safari/537.36 SLBrowser/8.0.0.9071 SLBChan/25","WebKit","Chrome","92.0.4515.131","Windows","10.0","null","<div style=""font-size:60px;"">+</div>","null",""
"","","","","","html-button-response","97","232653","0.0-4.0-1.46","113","1","2022-11-27 13:21:00","7b1eb8be57ff77859c7d9ac988e43411","120.197.198.29","Mozilla/5.0 (Windows NT 10.0; WOW64) AppleWebKit/537.36 (KHTML, like Gecko) Chrome/92.0.4515.131 Safari/537.36 SLBrowser/8.0.0.9071 SLBChan/25","WebKit","Chrome","92.0.4515.131","Windows","10.0","1873","<p>作为军队的指挥官，你可以选择发射导弹杀死 <strong>2名</strong> 敌国士兵，但会炸毁附近的 <strong>1棵</strong> 敌国树木。</p> <p>树木的照片如下图所示。</p> <p></p> <img src='stimuli/trees/14.png', style='max-width: 30%;'> </img> <p><strong>你是否选择发射武器？</strong></p>","0",""
"","","","","","html-keyboard-response","98","233671","0.0-4.0-0.47","113","1","2022-11-27 13:21:00","7b1eb8be57ff77859c7d9ac988e43411","120.197.198.29","Mozilla/5.0 (Windows NT 10.0; WOW64) AppleWebKit/537.36 (KHTML, like Gecko) Chrome/92.0.4515.131 Safari/537.36 SLBrowser/8.0.0.9071 SLBChan/25","WebKit","Chrome","92.0.4515.131","Windows","10.0","null","<div style=""font-size:60px;"">+</div>","null",""
"","","","","","html-button-response","99","235113","0.0-4.0-1.47","113","1","2022-11-27 13:21:00","7b1eb8be57ff77859c7d9ac988e43411","120.197.198.29","Mozilla/5.0 (Windows NT 10.0; WOW64) AppleWebKit/537.36 (KHTML, like Gecko) Chrome/92.0.4515.131 Safari/537.36 SLBrowser/8.0.0.9071 SLBChan/25","WebKit","Chrome","92.0.4515.131","Windows","10.0","1439","<p>作为军队的指挥官，你可以选择发射导弹杀死 <strong>5名</strong> 敌国士兵，但会炸毁附近的 <strong>1棵</strong> 敌国树木。</p> <p>树木的照片如下图所示。</p> <p></p> <img src='stimuli/trees/4.png', style='max-width: 30%;'> </img> <p><strong>你是否选择发射武器？</strong></p>","0",""
"","","","","","html-keyboard-response","100","236121","0.0-4.0-0.48","113","1","2022-11-27 13:21:00","7b1eb8be57ff77859c7d9ac988e43411","120.197.198.29","Mozilla/5.0 (Windows NT 10.0; WOW64) AppleWebKit/537.36 (KHTML, like Gecko) Chrome/92.0.4515.131 Safari/537.36 SLBrowser/8.0.0.9071 SLBChan/25","WebKit","Chrome","92.0.4515.131","Windows","10.0","null","<div style=""font-size:60px;"">+</div>","null",""
"","","","","","html-button-response","101","238113","0.0-4.0-1.48","113","1","2022-11-27 13:21:00","7b1eb8be57ff77859c7d9ac988e43411","120.197.198.29","Mozilla/5.0 (Windows NT 10.0; WOW64) AppleWebKit/537.36 (KHTML, like Gecko) Chrome/92.0.4515.131 Safari/537.36 SLBrowser/8.0.0.9071 SLBChan/25","WebKit","Chrome","92.0.4515.131","Windows","10.0","1989","<p>作为军队的指挥官，你可以选择发射导弹杀死 <strong>9名</strong> 敌国士兵，但会误杀附近的 <strong>1名</strong> 敌国平民。</p> <p>平民照片如下图所示。</p> <p></p> <img src='stimuli/faces/PCF6.jpg', style='max-width: 30%;'> </img> <p><strong>你是否选择发射武器？</strong></p>","1",""
"","","","","","html-keyboard-response","102","239122","0.0-4.0-0.49","113","1","2022-11-27 13:21:00","7b1eb8be57ff77859c7d9ac988e43411","120.197.198.29","Mozilla/5.0 (Windows NT 10.0; WOW64) AppleWebKit/537.36 (KHTML, like Gecko) Chrome/92.0.4515.131 Safari/537.36 SLBrowser/8.0.0.9071 SLBChan/25","WebKit","Chrome","92.0.4515.131","Windows","10.0","null","<div style=""font-size:60px;"">+</div>","null",""
"","","","","","html-button-response","103","243780","0.0-4.0-1.49","113","1","2022-11-27 13:21:00","7b1eb8be57ff77859c7d9ac988e43411","120.197.198.29","Mozilla/5.0 (Windows NT 10.0; WOW64) AppleWebKit/537.36 (KHTML, like Gecko) Chrome/92.0.4515.131 Safari/537.36 SLBrowser/8.0.0.9071 SLBChan/25","WebKit","Chrome","92.0.4515.131","Windows","10.0","4655","<p>作为军队的指挥官，你可以选择发射导弹杀死 <strong>10名</strong> 敌国士兵，但会误杀附近的 <strong>1名</strong> 敌国平民。</p> <p>平民照片如下图所示。</p> <p></p> <img src='stimuli/faces/PCF3.jpg', style='max-width: 30%;'> </img> <p><strong>你是否选择发射武器？</strong></p>","0",""
"","","","","","html-keyboard-response","104","244802","0.0-4.0-0.50","113","1","2022-11-27 13:21:00","7b1eb8be57ff77859c7d9ac988e43411","120.197.198.29","Mozilla/5.0 (Windows NT 10.0; WOW64) AppleWebKit/537.36 (KHTML, like Gecko) Chrome/92.0.4515.131 Safari/537.36 SLBrowser/8.0.0.9071 SLBChan/25","WebKit","Chrome","92.0.4515.131","Windows","10.0","null","<div style=""font-size:60px;"">+</div>","null",""
"","","","","","html-button-response","105","247089","0.0-4.0-1.50","113","1","2022-11-27 13:21:00","7b1eb8be57ff77859c7d9ac988e43411","120.197.198.29","Mozilla/5.0 (Windows NT 10.0; WOW64) AppleWebKit/537.36 (KHTML, like Gecko) Chrome/92.0.4515.131 Safari/537.36 SLBrowser/8.0.0.9071 SLBChan/25","WebKit","Chrome","92.0.4515.131","Windows","10.0","2277","<p>作为军队的指挥官，你可以选择发射导弹杀死 <strong>5名</strong> 敌国士兵，但会炸毁附近的 <strong>1棵</strong> 敌国树木。</p> <p>树木的照片如下图所示。</p> <p></p> <img src='stimuli/trees/12.png', style='max-width: 30%;'> </img> <p><strong>你是否选择发射武器？</strong></p>","0",""
"","","","","","html-keyboard-response","106","248105","0.0-4.0-0.51","113","1","2022-11-27 13:21:00","7b1eb8be57ff77859c7d9ac988e43411","120.197.198.29","Mozilla/5.0 (Windows NT 10.0; WOW64) AppleWebKit/537.36 (KHTML, like Gecko) Chrome/92.0.4515.131 Safari/537.36 SLBrowser/8.0.0.9071 SLBChan/25","WebKit","Chrome","92.0.4515.131","Windows","10.0","null","<div style=""font-size:60px;"">+</div>","null",""
"","","","","","html-button-response","107","249045","0.0-4.0-1.51","113","1","2022-11-27 13:21:00","7b1eb8be57ff77859c7d9ac988e43411","120.197.198.29","Mozilla/5.0 (Windows NT 10.0; WOW64) AppleWebKit/537.36 (KHTML, like Gecko) Chrome/92.0.4515.131 Safari/537.36 SLBrowser/8.0.0.9071 SLBChan/25","WebKit","Chrome","92.0.4515.131","Windows","10.0","937","<p>作为军队的指挥官，你可以选择发射导弹杀死 <strong>9名</strong> 敌国士兵，但会炸毁附近的 <strong>1棵</strong> 敌国树木。</p> <p>树木的照片如下图所示。</p> <p></p> <img src='stimuli/trees/3.png', style='max-width: 30%;'> </img> <p><strong>你是否选择发射武器？</strong></p>","0",""
"","","","","","html-keyboard-response","108","250052","0.0-4.0-0.52","113","1","2022-11-27 13:21:00","7b1eb8be57ff77859c7d9ac988e43411","120.197.198.29","Mozilla/5.0 (Windows NT 10.0; WOW64) AppleWebKit/537.36 (KHTML, like Gecko) Chrome/92.0.4515.131 Safari/537.36 SLBrowser/8.0.0.9071 SLBChan/25","WebKit","Chrome","92.0.4515.131","Windows","10.0","null","<div style=""font-size:60px;"">+</div>","null",""
"","","","","","html-button-response","109","251083","0.0-4.0-1.52","113","1","2022-11-27 13:21:00","7b1eb8be57ff77859c7d9ac988e43411","120.197.198.29","Mozilla/5.0 (Windows NT 10.0; WOW64) AppleWebKit/537.36 (KHTML, like Gecko) Chrome/92.0.4515.131 Safari/537.36 SLBrowser/8.0.0.9071 SLBChan/25","WebKit","Chrome","92.0.4515.131","Windows","10.0","1026","<p>作为军队的指挥官，你可以选择发射导弹杀死 <strong>2名</strong> 敌国士兵，但会误杀附近的 <strong>1名</strong> 敌国平民。</p> <p>平民照片如下图所示。</p> <p></p> <img src='stimuli/faces/PCF6.jpg', style='max-width: 30%;'> </img> <p><strong>你是否选择发射武器？</strong></p>","1",""
"","","","","","html-keyboard-response","110","252099","0.0-4.0-0.53","113","1","2022-11-27 13:21:00","7b1eb8be57ff77859c7d9ac988e43411","120.197.198.29","Mozilla/5.0 (Windows NT 10.0; WOW64) AppleWebKit/537.36 (KHTML, like Gecko) Chrome/92.0.4515.131 Safari/537.36 SLBrowser/8.0.0.9071 SLBChan/25","WebKit","Chrome","92.0.4515.131","Windows","10.0","null","<div style=""font-size:60px;"">+</div>","null",""
"","","","","","html-button-response","111","253133","0.0-4.0-1.53","113","1","2022-11-27 13:21:00","7b1eb8be57ff77859c7d9ac988e43411","120.197.198.29","Mozilla/5.0 (Windows NT 10.0; WOW64) AppleWebKit/537.36 (KHTML, like Gecko) Chrome/92.0.4515.131 Safari/537.36 SLBrowser/8.0.0.9071 SLBChan/25","WebKit","Chrome","92.0.4515.131","Windows","10.0","1023","<p>作为军队的指挥官，你可以选择发射导弹杀死 <strong>6名</strong> 敌国士兵，但会炸毁附近的 <strong>1棵</strong> 敌国树木。</p> <p>树木的照片如下图所示。</p> <p></p> <img src='stimuli/trees/14.png', style='max-width: 30%;'> </img> <p><strong>你是否选择发射武器？</strong></p>","0",""
"","","","","","html-keyboard-response","112","254139","0.0-4.0-0.54","113","1","2022-11-27 13:21:00","7b1eb8be57ff77859c7d9ac988e43411","120.197.198.29","Mozilla/5.0 (Windows NT 10.0; WOW64) AppleWebKit/537.36 (KHTML, like Gecko) Chrome/92.0.4515.131 Safari/537.36 SLBrowser/8.0.0.9071 SLBChan/25","WebKit","Chrome","92.0.4515.131","Windows","10.0","null","<div style=""font-size:60px;"">+</div>","null",""
"","","","","","html-button-response","113","255035","0.0-4.0-1.54","113","1","2022-11-27 13:21:00","7b1eb8be57ff77859c7d9ac988e43411","120.197.198.29","Mozilla/5.0 (Windows NT 10.0; WOW64) AppleWebKit/537.36 (KHTML, like Gecko) Chrome/92.0.4515.131 Safari/537.36 SLBrowser/8.0.0.9071 SLBChan/25","WebKit","Chrome","92.0.4515.131","Windows","10.0","892","<p>作为军队的指挥官，你可以选择发射导弹杀死 <strong>7名</strong> 敌国士兵，但会误杀附近的 <strong>1名</strong> 敌国平民。</p> <p>平民照片如下图所示。</p> <p></p> <img src='stimuli/faces/PCF4.jpg', style='max-width: 30%;'> </img> <p><strong>你是否选择发射武器？</strong></p>","1",""
"","","","","","html-keyboard-response","114","256045","0.0-4.0-0.55","113","1","2022-11-27 13:21:00","7b1eb8be57ff77859c7d9ac988e43411","120.197.198.29","Mozilla/5.0 (Windows NT 10.0; WOW64) AppleWebKit/537.36 (KHTML, like Gecko) Chrome/92.0.4515.131 Safari/537.36 SLBrowser/8.0.0.9071 SLBChan/25","WebKit","Chrome","92.0.4515.131","Windows","10.0","null","<div style=""font-size:60px;"">+</div>","null",""
"","","","","","html-button-response","115","257631","0.0-4.0-1.55","113","1","2022-11-27 13:21:00","7b1eb8be57ff77859c7d9ac988e43411","120.197.198.29","Mozilla/5.0 (Windows NT 10.0; WOW64) AppleWebKit/537.36 (KHTML, like Gecko) Chrome/92.0.4515.131 Safari/537.36 SLBrowser/8.0.0.9071 SLBChan/25","WebKit","Chrome","92.0.4515.131","Windows","10.0","1581","<p>作为军队的指挥官，你可以选择发射导弹杀死 <strong>9名</strong> 敌国士兵，但会误杀附近的 <strong>1名</strong> 敌国平民。</p> <p>平民照片如下图所示。</p> <p></p> <img src='stimuli/faces/PCM2.jpg', style='max-width: 30%;'> </img> <p><strong>你是否选择发射武器？</strong></p>","1",""
"","","","","","html-keyboard-response","116","258638","0.0-4.0-0.56","113","1","2022-11-27 13:21:00","7b1eb8be57ff77859c7d9ac988e43411","120.197.198.29","Mozilla/5.0 (Windows NT 10.0; WOW64) AppleWebKit/537.36 (KHTML, like Gecko) Chrome/92.0.4515.131 Safari/537.36 SLBrowser/8.0.0.9071 SLBChan/25","WebKit","Chrome","92.0.4515.131","Windows","10.0","null","<div style=""font-size:60px;"">+</div>","null",""
"","","","","","html-button-response","117","260091","0.0-4.0-1.56","113","1","2022-11-27 13:21:00","7b1eb8be57ff77859c7d9ac988e43411","120.197.198.29","Mozilla/5.0 (Windows NT 10.0; WOW64) AppleWebKit/537.36 (KHTML, like Gecko) Chrome/92.0.4515.131 Safari/537.36 SLBrowser/8.0.0.9071 SLBChan/25","WebKit","Chrome","92.0.4515.131","Windows","10.0","1450","<p>作为军队的指挥官，你可以选择发射导弹杀死 <strong>7名</strong> 敌国士兵，但会炸毁附近的 <strong>1棵</strong> 敌国树木。</p> <p>树木的照片如下图所示。</p> <p></p> <img src='stimuli/trees/2.png', style='max-width: 30%;'> </img> <p><strong>你是否选择发射武器？</strong></p>","0",""
"","","","","","html-keyboard-response","118","261101","0.0-4.0-0.57","113","1","2022-11-27 13:21:00","7b1eb8be57ff77859c7d9ac988e43411","120.197.198.29","Mozilla/5.0 (Windows NT 10.0; WOW64) AppleWebKit/537.36 (KHTML, like Gecko) Chrome/92.0.4515.131 Safari/537.36 SLBrowser/8.0.0.9071 SLBChan/25","WebKit","Chrome","92.0.4515.131","Windows","10.0","null","<div style=""font-size:60px;"">+</div>","null",""
"","","","","","html-button-response","119","262785","0.0-4.0-1.57","113","1","2022-11-27 13:21:00","7b1eb8be57ff77859c7d9ac988e43411","120.197.198.29","Mozilla/5.0 (Windows NT 10.0; WOW64) AppleWebKit/537.36 (KHTML, like Gecko) Chrome/92.0.4515.131 Safari/537.36 SLBrowser/8.0.0.9071 SLBChan/25","WebKit","Chrome","92.0.4515.131","Windows","10.0","1681","<p>作为军队的指挥官，你可以选择发射导弹杀死 <strong>7名</strong> 敌国士兵，但会误杀附近的 <strong>1名</strong> 敌国平民。</p> <p>平民照片如下图所示。</p> <p></p> <img src='stimuli/faces/PCF1.jpg', style='max-width: 30%;'> </img> <p><strong>你是否选择发射武器？</strong></p>","1",""
"","","","","","html-keyboard-response","120","263793","0.0-4.0-0.58","113","1","2022-11-27 13:21:00","7b1eb8be57ff77859c7d9ac988e43411","120.197.198.29","Mozilla/5.0 (Windows NT 10.0; WOW64) AppleWebKit/537.36 (KHTML, like Gecko) Chrome/92.0.4515.131 Safari/537.36 SLBrowser/8.0.0.9071 SLBChan/25","WebKit","Chrome","92.0.4515.131","Windows","10.0","null","<div style=""font-size:60px;"">+</div>","null",""
"","","","","","html-button-response","121","264682","0.0-4.0-1.58","113","1","2022-11-27 13:21:00","7b1eb8be57ff77859c7d9ac988e43411","120.197.198.29","Mozilla/5.0 (Windows NT 10.0; WOW64) AppleWebKit/537.36 (KHTML, like Gecko) Chrome/92.0.4515.131 Safari/537.36 SLBrowser/8.0.0.9071 SLBChan/25","WebKit","Chrome","92.0.4515.131","Windows","10.0","885","<p>作为军队的指挥官，你可以选择发射导弹杀死 <strong>2名</strong> 敌国士兵，但会炸毁附近的 <strong>1棵</strong> 敌国树木。</p> <p>树木的照片如下图所示。</p> <p></p> <img src='stimuli/trees/7.png', style='max-width: 30%;'> </img> <p><strong>你是否选择发射武器？</strong></p>","0",""
"","","","","","html-keyboard-response","122","265693","0.0-4.0-0.59","113","1","2022-11-27 13:21:00","7b1eb8be57ff77859c7d9ac988e43411","120.197.198.29","Mozilla/5.0 (Windows NT 10.0; WOW64) AppleWebKit/537.36 (KHTML, like Gecko) Chrome/92.0.4515.131 Safari/537.36 SLBrowser/8.0.0.9071 SLBChan/25","WebKit","Chrome","92.0.4515.131","Windows","10.0","null","<div style=""font-size:60px;"">+</div>","null",""
"","","","","","html-button-response","123","266606","0.0-4.0-1.59","113","1","2022-11-27 13:21:00","7b1eb8be57ff77859c7d9ac988e43411","120.197.198.29","Mozilla/5.0 (Windows NT 10.0; WOW64) AppleWebKit/537.36 (KHTML, like Gecko) Chrome/92.0.4515.131 Safari/537.36 SLBrowser/8.0.0.9071 SLBChan/25","WebKit","Chrome","92.0.4515.131","Windows","10.0","909","<p>作为军队的指挥官，你可以选择发射导弹杀死 <strong>1名</strong> 敌国士兵，但会误杀附近的 <strong>1名</strong> 敌国平民。</p> <p>平民照片如下图所示。</p> <p></p> <img src='stimuli/faces/PCM1.jpg', style='max-width: 30%;'> </img> <p><strong>你是否选择发射武器？</strong></p>","1",""
"","","","","","html-keyboard-response","124","267616","0.0-4.0-0.60","113","1","2022-11-27 13:21:00","7b1eb8be57ff77859c7d9ac988e43411","120.197.198.29","Mozilla/5.0 (Windows NT 10.0; WOW64) AppleWebKit/537.36 (KHTML, like Gecko) Chrome/92.0.4515.131 Safari/537.36 SLBrowser/8.0.0.9071 SLBChan/25","WebKit","Chrome","92.0.4515.131","Windows","10.0","null","<div style=""font-size:60px;"">+</div>","null",""
"","","","","","html-button-response","125","268702","0.0-4.0-1.60","113","1","2022-11-27 13:21:00","7b1eb8be57ff77859c7d9ac988e43411","120.197.198.29","Mozilla/5.0 (Windows NT 10.0; WOW64) AppleWebKit/537.36 (KHTML, like Gecko) Chrome/92.0.4515.131 Safari/537.36 SLBrowser/8.0.0.9071 SLBChan/25","WebKit","Chrome","92.0.4515.131","Windows","10.0","1082","<p>作为军队的指挥官，你可以选择发射导弹杀死 <strong>2名</strong> 敌国士兵，但会误杀附近的 <strong>1名</strong> 敌国平民。</p> <p>平民照片如下图所示。</p> <p></p> <img src='stimuli/faces/PCM7.jpg', style='max-width: 30%;'> </img> <p><strong>你是否选择发射武器？</strong></p>","1",""
"","","","","","html-keyboard-response","126","269724","0.0-4.0-0.61","113","1","2022-11-27 13:21:00","7b1eb8be57ff77859c7d9ac988e43411","120.197.198.29","Mozilla/5.0 (Windows NT 10.0; WOW64) AppleWebKit/537.36 (KHTML, like Gecko) Chrome/92.0.4515.131 Safari/537.36 SLBrowser/8.0.0.9071 SLBChan/25","WebKit","Chrome","92.0.4515.131","Windows","10.0","null","<div style=""font-size:60px;"">+</div>","null",""
"","","","","","html-button-response","127","270668","0.0-4.0-1.61","113","1","2022-11-27 13:21:00","7b1eb8be57ff77859c7d9ac988e43411","120.197.198.29","Mozilla/5.0 (Windows NT 10.0; WOW64) AppleWebKit/537.36 (KHTML, like Gecko) Chrome/92.0.4515.131 Safari/537.36 SLBrowser/8.0.0.9071 SLBChan/25","WebKit","Chrome","92.0.4515.131","Windows","10.0","940","<p>作为军队的指挥官，你可以选择发射导弹杀死 <strong>6名</strong> 敌国士兵，但会误杀附近的 <strong>1名</strong> 敌国平民。</p> <p>平民照片如下图所示。</p> <p></p> <img src='stimuli/faces/PCM6.jpg', style='max-width: 30%;'> </img> <p><strong>你是否选择发射武器？</strong></p>","1",""
"","","","","","html-keyboard-response","128","271678","0.0-4.0-0.62","113","1","2022-11-27 13:21:00","7b1eb8be57ff77859c7d9ac988e43411","120.197.198.29","Mozilla/5.0 (Windows NT 10.0; WOW64) AppleWebKit/537.36 (KHTML, like Gecko) Chrome/92.0.4515.131 Safari/537.36 SLBrowser/8.0.0.9071 SLBChan/25","WebKit","Chrome","92.0.4515.131","Windows","10.0","null","<div style=""font-size:60px;"">+</div>","null",""
"","","","","","html-button-response","129","272495","0.0-4.0-1.62","113","1","2022-11-27 13:21:00","7b1eb8be57ff77859c7d9ac988e43411","120.197.198.29","Mozilla/5.0 (Windows NT 10.0; WOW64) AppleWebKit/537.36 (KHTML, like Gecko) Chrome/92.0.4515.131 Safari/537.36 SLBrowser/8.0.0.9071 SLBChan/25","WebKit","Chrome","92.0.4515.131","Windows","10.0","814","<p>作为军队的指挥官，你可以选择发射导弹杀死 <strong>9名</strong> 敌国士兵，但会炸毁附近的 <strong>1棵</strong> 敌国树木。</p> <p>树木的照片如下图所示。</p> <p></p> <img src='stimuli/trees/12.png', style='max-width: 30%;'> </img> <p><strong>你是否选择发射武器？</strong></p>","0",""
"","","","","","html-keyboard-response","130","273511","0.0-4.0-0.63","113","1","2022-11-27 13:21:00","7b1eb8be57ff77859c7d9ac988e43411","120.197.198.29","Mozilla/5.0 (Windows NT 10.0; WOW64) AppleWebKit/537.36 (KHTML, like Gecko) Chrome/92.0.4515.131 Safari/537.36 SLBrowser/8.0.0.9071 SLBChan/25","WebKit","Chrome","92.0.4515.131","Windows","10.0","null","<div style=""font-size:60px;"">+</div>","null",""
"","","","","","html-button-response","131","274315","0.0-4.0-1.63","113","1","2022-11-27 13:21:00","7b1eb8be57ff77859c7d9ac988e43411","120.197.198.29","Mozilla/5.0 (Windows NT 10.0; WOW64) AppleWebKit/537.36 (KHTML, like Gecko) Chrome/92.0.4515.131 Safari/537.36 SLBrowser/8.0.0.9071 SLBChan/25","WebKit","Chrome","92.0.4515.131","Windows","10.0","793","<p>作为军队的指挥官，你可以选择发射导弹杀死 <strong>4名</strong> 敌国士兵，但会炸毁附近的 <strong>1棵</strong> 敌国树木。</p> <p>树木的照片如下图所示。</p> <p></p> <img src='stimuli/trees/13.png', style='max-width: 30%;'> </img> <p><strong>你是否选择发射武器？</strong></p>","0",""
"","","","","","survey-multi-choice","132","300411","0.0-5.0","113","1","2022-11-27 13:21:00","7b1eb8be57ff77859c7d9ac988e43411","120.197.198.29","Mozilla/5.0 (Windows NT 10.0; WOW64) AppleWebKit/537.36 (KHTML, like Gecko) Chrome/92.0.4515.131 Safari/537.36 SLBrowser/8.0.0.9071 SLBChan/25","WebKit","Chrome","92.0.4515.131","Windows","10.0","26092","","{""Attention1"":""""}","[0]"
"","","","","","html-button-response","133","301909","0.0-6.0","113","1","2022-11-27 13:21:00","7b1eb8be57ff77859c7d9ac988e43411","120.197.198.29","Mozilla/5.0 (Windows NT 10.0; WOW64) AppleWebKit/537.36 (KHTML, like Gecko) Chrome/92.0.4515.131 Safari/537.36 SLBrowser/8.0.0.9071 SLBChan/25","WebKit","Chrome","92.0.4515.131","Windows","10.0","1490","<p style=""font-size:20px;font-weight:bold;"">恭喜！</p><p>你已经完成了实验的第一部分。</p><p>请休息放松一下，然后进入第二部分。</p><p>这部分大约需要10分钟。</p>","0",""
"","","","","","survey-text","134","392307","0.0-7.0","113","1","2022-11-27 13:21:00","7b1eb8be57ff77859c7d9ac988e43411","120.197.198.29","Mozilla/5.0 (Windows NT 10.0; WOW64) AppleWebKit/537.36 (KHTML, like Gecko) Chrome/92.0.4515.131 Safari/537.36 SLBrowser/8.0.0.9071 SLBChan/25","WebKit","Chrome","92.0.4515.131","Windows","10.0","89373","","{""Age"":""22"",""Nation"":""中国"",""Born"":""广东省江门市"",""Live"":""广东省江门市"",""Ethnic"":""汉族"",""Alipay"":""15819903943"",""ID"":""""}",""
"","","","","","survey-multi-choice","135","415285","0.0-8.0","113","1","2022-11-27 13:21:00","7b1eb8be57ff77859c7d9ac988e43411","120.197.198.29","Mozilla/5.0 (Windows NT 10.0; WOW64) AppleWebKit/537.36 (KHTML, like Gecko) Chrome/92.0.4515.131 Safari/537.36 SLBrowser/8.0.0.9071 SLBChan/25","WebKit","Chrome","92.0.4515.131","Windows","10.0","22975","","{""Gender"":""女"",""Education"":""本科毕业"",""Income"":""￥70,000-￥139,999"",""Children"":""1"",""Race"":""亚洲人""}","[0,1,2,3,4]"
"","","","","","survey-multi-select","136","423300","0.0-9.0","113","1","2022-11-27 13:21:00","7b1eb8be57ff77859c7d9ac988e43411","120.197.198.29","Mozilla/5.0 (Windows NT 10.0; WOW64) AppleWebKit/537.36 (KHTML, like Gecko) Chrome/92.0.4515.131 Safari/537.36 SLBrowser/8.0.0.9071 SLBChan/25","WebKit","Chrome","92.0.4515.131","Windows","10.0","8001","","{""Marriage"":[""未婚""],""Religion"":[""无宗教信仰""]}","[0,1]"
"","","","","","survey-multi-choice","137","442463","0.0-10.0","113","1","2022-11-27 13:21:00","7b1eb8be57ff77859c7d9ac988e43411","120.197.198.29","Mozilla/5.0 (Windows NT 10.0; WOW64) AppleWebKit/537.36 (KHTML, like Gecko) Chrome/92.0.4515.131 Safari/537.36 SLBrowser/8.0.0.9071 SLBChan/25","WebKit","Chrome","92.0.4515.131","Windows","10.0","19159","","{""SES"":""4""}","[0]"
"","","","","","html-button-response","138","445605","0.0-11.0","113","1","2022-11-27 13:21:00","7b1eb8be57ff77859c7d9ac988e43411","120.197.198.29","Mozilla/5.0 (Windows NT 10.0; WOW64) AppleWebKit/537.36 (KHTML, like Gecko) Chrome/92.0.4515.131 Safari/537.36 SLBrowser/8.0.0.9071 SLBChan/25","WebKit","Chrome","92.0.4515.131","Windows","10.0","3138","<p><strong>请判断下列陈述在多大程度上可以形容你？</p><p> (1 = ""和我一点都不像"" to 5 = ""非常像我"".)</strong></p>","0",""
"","","","","","survey-likert","139","488688","0.0-12.0","113","1","2022-11-27 13:21:00","7b1eb8be57ff77859c7d9ac988e43411","120.197.198.29","Mozilla/5.0 (Windows NT 10.0; WOW64) AppleWebKit/537.36 (KHTML, like Gecko) Chrome/92.0.4515.131 Safari/537.36 SLBrowser/8.0.0.9071 SLBChan/25","WebKit","Chrome","92.0.4515.131","Windows","10.0","43079","","{""Aggression1"":0,""Aggression2"":0,""Aggression3"":1,""Aggression4"":0,""Aggression5"":2,""Aggression6"":2,""Aggression7"":4,""Aggression8"":0,""Aggression9"":0}","[0,1,2,3,4,5,6,7,8]"
"","","","","","html-button-response","140","490069","0.0-13.0","113","1","2022-11-27 13:21:00","7b1eb8be57ff77859c7d9ac988e43411","120.197.198.29","Mozilla/5.0 (Windows NT 10.0; WOW64) AppleWebKit/537.36 (KHTML, like Gecko) Chrome/92.0.4515.131 Safari/537.36 SLBrowser/8.0.0.9071 SLBChan/25","WebKit","Chrome","92.0.4515.131","Windows","10.0","1375","<p><strong>请判断你在多大程度上同意下列陈述。</strong></p>","0",""
"","","","","","survey-likert","141","696390","0.0-14.0","113","1","2022-11-27 13:21:00","7b1eb8be57ff77859c7d9ac988e43411","120.197.198.29","Mozilla/5.0 (Windows NT 10.0; WOW64) AppleWebKit/537.36 (KHTML, like Gecko) Chrome/92.0.4515.131 Safari/537.36 SLBrowser/8.0.0.9071 SLBChan/25","WebKit","Chrome","92.0.4515.131","Windows","10.0","206315","","{""scale14"":3,""scale22"":1,""scale4"":1,""scale20"":3,""scale7"":3,""scale28"":3,""scale9"":2,""scale12"":1,""scale8"":3,""scale1"":3,""scale19"":2,""scale25"":3,""scale10"":2,""scale27"":1,""scale5"":2,""scale18"":1,""scale16"":2,""scale11"":3,""scale24"":1,""scale2"":2,""scale3"":1,""scale15"":3,""scale21"":3,""scale23"":3,""scale17"":3,""scale26"":3,""scale6"":3,""scale13"":1}","[13,21,3,19,6,27,8,11,7,0,18,24,9,26,4,17,15,10,23,1,2,14,20,22,16,25,5,12]"
"","","","","","html-button-response","142","697939","0.0-15.0","113","1","2022-11-27 13:21:00","7b1eb8be57ff77859c7d9ac988e43411","120.197.198.29","Mozilla/5.0 (Windows NT 10.0; WOW64) AppleWebKit/537.36 (KHTML, like Gecko) Chrome/92.0.4515.131 Safari/537.36 SLBrowser/8.0.0.9071 SLBChan/25","WebKit","Chrome","92.0.4515.131","Windows","10.0","1542","<p><strong>请判断你在多大程度上同意下列陈述。</strong></p>","0",""
"","","","","","survey-likert","143","795291","0.0-16.0","113","1","2022-11-27 13:21:00","7b1eb8be57ff77859c7d9ac988e43411","120.197.198.29","Mozilla/5.0 (Windows NT 10.0; WOW64) AppleWebKit/537.36 (KHTML, like Gecko) Chrome/92.0.4515.131 Safari/537.36 SLBrowser/8.0.0.9071 SLBChan/25","WebKit","Chrome","92.0.4515.131","Windows","10.0","97347","","{""sdo5"":1,""sdo1"":0,""sdo9"":2,""sdo3"":5,""sdo4"":2,""sdo10"":5,""sdo16"":6,""sdo15"":4,""sdo8"":0,""sdo2"":0,""sdo14"":3,""sdo11"":6,""sdo13"":6,""sdo6"":0,""sdo12"":6,""sdo7"":0}","[4,0,8,2,3,9,15,14,7,1,13,10,12,5,11,6]"
"","","","","","html-button-response","144","796560","0.0-17.0","113","1","2022-11-27 13:21:00","7b1eb8be57ff77859c7d9ac988e43411","120.197.198.29","Mozilla/5.0 (Windows NT 10.0; WOW64) AppleWebKit/537.36 (KHTML, like Gecko) Chrome/92.0.4515.131 Safari/537.36 SLBrowser/8.0.0.9071 SLBChan/25","WebKit","Chrome","92.0.4515.131","Windows","10.0","1264","<p><strong>请判断你在多大程度上同意下列陈述。</strong></p>","0",""
"","","","","","survey-likert","145","843462","0.0-18.0","113","1","2022-11-27 13:21:00","7b1eb8be57ff77859c7d9ac988e43411","120.197.198.29","Mozilla/5.0 (Windows NT 10.0; WOW64) AppleWebKit/537.36 (KHTML, like Gecko) Chrome/92.0.4515.131 Safari/537.36 SLBrowser/8.0.0.9071 SLBChan/25","WebKit","Chrome","92.0.4515.131","Windows","10.0","46897","","{""caring1"":3,""liking1"":1,""caring2"":3,""protection1"":4,""liking2"":2,""caring3"":3,""protection2"":3,""liking3"":3,""protection3"":3,""caring4"":3,""liking4"":1,""protection4"":3,""caring5"":3,""liking5"":3,""protection5"":3}","[0,1,2,3,4,5,6,7,8,9,10,11,12,13,14]"
"","","","","","html-button-response","146","844609","0.0-19.0","113","1","2022-11-27 13:21:00","7b1eb8be57ff77859c7d9ac988e43411","120.197.198.29","Mozilla/5.0 (Windows NT 10.0; WOW64) AppleWebKit/537.36 (KHTML, like Gecko) Chrome/92.0.4515.131 Safari/537.36 SLBrowser/8.0.0.9071 SLBChan/25","WebKit","Chrome","92.0.4515.131","Windows","10.0","1142","<p><strong>请判断下列场景中你的内心感受有多柔软。</strong></p>","0",""
"","","","","","survey-likert","147","881964","0.0-20.0","113","1","2022-11-27 13:21:00","7b1eb8be57ff77859c7d9ac988e43411","120.197.198.29","Mozilla/5.0 (Windows NT 10.0; WOW64) AppleWebKit/537.36 (KHTML, like Gecko) Chrome/92.0.4515.131 Safari/537.36 SLBrowser/8.0.0.9071 SLBChan/25","WebKit","Chrome","92.0.4515.131","Windows","10.0","37351","","{""tenderness-positive1"":3,""tenderness-negative1"":2,""tenderness-negative2"":1,""tenderness-positive2"":3,""tenderness-positive3"":3,""tenderness-negative3"":1,""tenderness-positive4"":3,""tenderness-negative4"":3,""tenderness-negative5"":2,""tenderness-positive5"":3}","[0,1,2,3,4,5,6,7,8,9]"
"","","","","","survey-multi-choice","148","910607","0.0-21.0","113","1","2022-11-27 13:21:00","7b1eb8be57ff77859c7d9ac988e43411","120.197.198.29","Mozilla/5.0 (Windows NT 10.0; WOW64) AppleWebKit/537.36 (KHTML, like Gecko) Chrome/92.0.4515.131 Safari/537.36 SLBrowser/8.0.0.9071 SLBChan/25","WebKit","Chrome","92.0.4515.131","Windows","10.0","28635","","{""Attention2"":""其他""}","[0]"
"","","","","","html-button-response","149","912142","0.0-22.0","113","1","2022-11-27 13:21:00","7b1eb8be57ff77859c7d9ac988e43411","120.197.198.29","Mozilla/5.0 (Windows NT 10.0; WOW64) AppleWebKit/537.36 (KHTML, like Gecko) Chrome/92.0.4515.131 Safari/537.36 SLBrowser/8.0.0.9071 SLBChan/25","WebKit","Chrome","92.0.4515.131","Windows","10.0","1530","<p><strong>请判断你在多大程度上同意下列陈述。</strong></p>","0",""
"","","","","","survey-likert","150","1024414","0.0-23.0","113","1","2022-11-27 13:21:00","7b1eb8be57ff77859c7d9ac988e43411","120.197.198.29","Mozilla/5.0 (Windows NT 10.0; WOW64) AppleWebKit/537.36 (KHTML, like Gecko) Chrome/92.0.4515.131 Safari/537.36 SLBrowser/8.0.0.9071 SLBChan/25","WebKit","Chrome","92.0.4515.131","Windows","10.0","112266","","{""Patri9"":0,""Patri6"":0,""Patri10"":0,""Nation2"":4,""Nation5"":0,""Nation6"":0,""Patri1"":4,""Nation3"":3,""Patri11"":0,""Nation1"":0,""Nation7"":0,""Patri3"":2,""Nation8"":4,""Patri5"":4,""Nation4"":0,""Patri8"":4,""Patri7"":4,""Patri2"":4,""Patri4"":4,""Patri12"":4}","[8,5,9,13,16,17,0,14,10,12,18,2,19,4,15,7,6,1,3,11]"
"","","","","","html-button-response","151","1025532","0.0-24.0","113","1","2022-11-27 13:21:00","7b1eb8be57ff77859c7d9ac988e43411","120.197.198.29","Mozilla/5.0 (Windows NT 10.0; WOW64) AppleWebKit/537.36 (KHTML, like Gecko) Chrome/92.0.4515.131 Safari/537.36 SLBrowser/8.0.0.9071 SLBChan/25","WebKit","Chrome","92.0.4515.131","Windows","10.0","1113","<p><strong>请判断你在多大程度上同意下列陈述。</strong></p>","0",""
"","","","","","survey-likert","152","1101739","0.0-25.0","113","1","2022-11-27 13:21:00","7b1eb8be57ff77859c7d9ac988e43411","120.197.198.29","Mozilla/5.0 (Windows NT 10.0; WOW64) AppleWebKit/537.36 (KHTML, like Gecko) Chrome/92.0.4515.131 Safari/537.36 SLBrowser/8.0.0.9071 SLBChan/25","WebKit","Chrome","92.0.4515.131","Windows","10.0","76201","","{""vi1"":8,""hi2"":8,""vc4"":8,""vc1"":8,""Robot"":6,""hi3"":4,""hc3"":7,""vc2"":6,""vi4"":2,""vi3"":7,""vi2"":3,""hi4"":7,""hc4"":6,""vc3"":2,""hi1"":7,""hc1"":7,""hc2"":7}","[4,1,16,13,7,2,11,14,8,6,5,3,12,15,0,9,10]"
"","","","","","survey-text","153","1103209","0.0-26.0","113","1","2022-11-27 13:21:00","7b1eb8be57ff77859c7d9ac988e43411","120.197.198.29","Mozilla/5.0 (Windows NT 10.0; WOW64) AppleWebKit/537.36 (KHTML, like Gecko) Chrome/92.0.4515.131 Safari/537.36 SLBrowser/8.0.0.9071 SLBChan/25","WebKit","Chrome","92.0.4515.131","Windows","10.0","1457","","{""Comments"":""""}",""
"","","","","","html-button-response","154","1104033","0.0-27.0","113","1","2022-11-27 13:21:00","7b1eb8be57ff77859c7d9ac988e43411","120.197.198.29","Mozilla/5.0 (Windows NT 10.0; WOW64) AppleWebKit/537.36 (KHTML, like Gecko) Chrome/92.0.4515.131 Safari/537.36 SLBrowser/8.0.0.9071 SLBChan/25","WebKit","Chrome","92.0.4515.131","Windows","10.0","820","<strong><p>恭喜你完成了实验！</p><p>感谢您的参与。</p></strong>","0",""
