"success","timeout","failed_images","failed_audio","failed_video","trial_type","trial_index","time_elapsed","internal_node_id","run_id","condition","recorded_at","source_code_version","ip","user_agent","device","browser","browser_version","platform","platform_version","rt","stimulus","response","question_order"
"true","false","[]","[]","[]","preload","0","1890","0.0-0.0","128","1","2022-11-28 03:40:47","7b1eb8be57ff77859c7d9ac988e43411","223.104.31.60","Mozilla/5.0 (Windows NT 10.0; Win64; x64) AppleWebKit/537.36 (KHTML, like Gecko) Chrome/107.0.0.0 Safari/537.36 Edg/107.0.1418.56","WebKit","Edge","107.0.1418.56","Windows","10.0","","","",""
"true","","","","","fullscreen","1","6686","0.0-1.0","128","1","2022-11-28 03:40:47","7b1eb8be57ff77859c7d9ac988e43411","223.104.31.60","Mozilla/5.0 (Windows NT 10.0; Win64; x64) AppleWebKit/537.36 (KHTML, like Gecko) Chrome/107.0.0.0 Safari/537.36 Edg/107.0.1418.56","WebKit","Edge","107.0.1418.56","Windows","10.0","","","",""
"","","","","","html-button-response","2","12612","0.0-2.0","128","1","2022-11-28 03:40:47","7b1eb8be57ff77859c7d9ac988e43411","223.104.31.60","Mozilla/5.0 (Windows NT 10.0; Win64; x64) AppleWebKit/537.36 (KHTML, like Gecko) Chrome/107.0.0.0 Safari/537.36 Edg/107.0.1418.56","WebKit","Edge","107.0.1418.56","Windows","10.0","5924","<p style=""font-size:20px;font-weight:bold;"">实验知情同意书</p><p style=""text-align:left;""><strong>实验名称：</strong>社会冲突研究</p><p style=""text-align:left;""><strong>主要研究者：</strong>韩晓春副教授（北京师范大学心理学部）</p><p style=""text-align:left;""><strong>联系方式：</strong>发送邮件至xiaochun.han@bnu.edu.cn</p><p style=""text-align:left;""><strong>研究目的：</strong>研究旨在了解人类面对群体冲突时的决策方式，以及相关的心理学特质。实验调查大约需要20分钟。</p><p style=""text-align:left;""><strong>实验流程：</strong>实验包含两部分。第一部分呈现一系列群体冲突场景，请你决定如何对这些冲突进行反应，大约需要10分钟完成。第二部分包含一系列人口统计学信息收集和心理学问卷，大约需要10分钟完成。</p><p style=""text-align:left;""><strong>参加及退出规则：</strong>参加本实验完全取决于您的个人意愿。在参与过程中，您可以随时退出，并且不用承担任何后果。</p><p style=""text-align:left;""><strong>隐私：</strong>本实验完全匿名进行，不会收集您的姓名或其他能够识别您身份的信息。实验中收集的作答仅用作科学研究使用，可能会在学术期刊/书籍上发表，或者用于教学，您的数据未来可能会和其他研究者或实验室分享，但您的个人身份不会被识别。</p><p style=""text-align:left;""><strong>实验报酬：</strong>实验完成后，您将获得15元人民币报酬，以感谢您的时间和努力。调查问卷中包含几道题目用以测验您作答时的认真度。只有完成全部实验，并且正确回答认真度测验的被试才能获得实验报酬。实验报酬将通过支付宝转账发放。</p><p style=""text-align:left;font-size:20px;""><strong>如果您同意以上实验知情同意书的内容，请点击'同意并且开始实验'按钮；否则请关闭浏览器界面，退出实验。</strong></p>","0",""
"","","","","","html-button-response","3","55793","0.0-3.0","128","1","2022-11-28 03:40:47","7b1eb8be57ff77859c7d9ac988e43411","223.104.31.60","Mozilla/5.0 (Windows NT 10.0; Win64; x64) AppleWebKit/537.36 (KHTML, like Gecko) Chrome/107.0.0.0 Safari/537.36 Edg/107.0.1418.56","WebKit","Edge","107.0.1418.56","Windows","10.0","43172","<p ><strong>实验任务一：</strong></p><p>请想象你的国家与另一个国家发生了军事冲突。</p><p>你是国家军队的指挥官，你将如何在冲突中进行决策。</p><p>具体来说，作为军队指挥官，请你决定是否发射导弹进行打击。</p><p>接下来，你会面对一系列场景，请仔细阅读每个场景，然后进行决策。</p><p>这部分实验任务大约需要10分钟。</p><p><strong>实验过程中，请集中注意力。</strong></p>","0",""
"","","","","","html-keyboard-response","4","56798","0.0-4.0-0.0","128","1","2022-11-28 03:40:47","7b1eb8be57ff77859c7d9ac988e43411","223.104.31.60","Mozilla/5.0 (Windows NT 10.0; Win64; x64) AppleWebKit/537.36 (KHTML, like Gecko) Chrome/107.0.0.0 Safari/537.36 Edg/107.0.1418.56","WebKit","Edge","107.0.1418.56","Windows","10.0","null","<div style=""font-size:60px;"">+</div>","null",""
"","","","","","html-button-response","5","70152","0.0-4.0-1.0","128","1","2022-11-28 03:40:47","7b1eb8be57ff77859c7d9ac988e43411","223.104.31.60","Mozilla/5.0 (Windows NT 10.0; Win64; x64) AppleWebKit/537.36 (KHTML, like Gecko) Chrome/107.0.0.0 Safari/537.36 Edg/107.0.1418.56","WebKit","Edge","107.0.1418.56","Windows","10.0","13352","<p>作为军队的指挥官，你可以选择发射导弹杀死 <strong>2名</strong> 敌国士兵，但会炸毁附近的 <strong>1棵</strong> 敌国树木。</p> <p>树木的照片如下图所示。</p> <p></p> <img src='stimuli/trees/14.png', style='max-width: 30%;'> </img> <p><strong>你是否选择发射武器？</strong></p>","0",""
"","","","","","html-keyboard-response","6","71158","0.0-4.0-0.1","128","1","2022-11-28 03:40:47","7b1eb8be57ff77859c7d9ac988e43411","223.104.31.60","Mozilla/5.0 (Windows NT 10.0; Win64; x64) AppleWebKit/537.36 (KHTML, like Gecko) Chrome/107.0.0.0 Safari/537.36 Edg/107.0.1418.56","WebKit","Edge","107.0.1418.56","Windows","10.0","null","<div style=""font-size:60px;"">+</div>","null",""
"","","","","","html-button-response","7","111008","0.0-4.0-1.1","128","1","2022-11-28 03:40:47","7b1eb8be57ff77859c7d9ac988e43411","223.104.31.60","Mozilla/5.0 (Windows NT 10.0; Win64; x64) AppleWebKit/537.36 (KHTML, like Gecko) Chrome/107.0.0.0 Safari/537.36 Edg/107.0.1418.56","WebKit","Edge","107.0.1418.56","Windows","10.0","39848","<p>作为军队的指挥官，你可以选择发射导弹杀死 <strong>4名</strong> 敌国士兵，但会误杀附近的 <strong>1名</strong> 敌国平民。</p> <p>平民照片如下图所示。</p> <p></p> <img src='stimuli/faces/PCF6.jpg', style='max-width: 30%;'> </img> <p><strong>你是否选择发射武器？</strong></p>","1",""
"","","","","","html-keyboard-response","8","112016","0.0-4.0-0.2","128","1","2022-11-28 03:40:47","7b1eb8be57ff77859c7d9ac988e43411","223.104.31.60","Mozilla/5.0 (Windows NT 10.0; Win64; x64) AppleWebKit/537.36 (KHTML, like Gecko) Chrome/107.0.0.0 Safari/537.36 Edg/107.0.1418.56","WebKit","Edge","107.0.1418.56","Windows","10.0","null","<div style=""font-size:60px;"">+</div>","null",""
"","","","","","html-button-response","9","114586","0.0-4.0-1.2","128","1","2022-11-28 03:40:47","7b1eb8be57ff77859c7d9ac988e43411","223.104.31.60","Mozilla/5.0 (Windows NT 10.0; Win64; x64) AppleWebKit/537.36 (KHTML, like Gecko) Chrome/107.0.0.0 Safari/537.36 Edg/107.0.1418.56","WebKit","Edge","107.0.1418.56","Windows","10.0","2568","<p>作为军队的指挥官，你可以选择发射导弹杀死 <strong>3名</strong> 敌国士兵，但会炸毁附近的 <strong>1棵</strong> 敌国树木。</p> <p>树木的照片如下图所示。</p> <p></p> <img src='stimuli/trees/6.png', style='max-width: 30%;'> </img> <p><strong>你是否选择发射武器？</strong></p>","0",""
"","","","","","html-keyboard-response","10","115597","0.0-4.0-0.3","128","1","2022-11-28 03:40:47","7b1eb8be57ff77859c7d9ac988e43411","223.104.31.60","Mozilla/5.0 (Windows NT 10.0; Win64; x64) AppleWebKit/537.36 (KHTML, like Gecko) Chrome/107.0.0.0 Safari/537.36 Edg/107.0.1418.56","WebKit","Edge","107.0.1418.56","Windows","10.0","null","<div style=""font-size:60px;"">+</div>","null",""
"","","","","","html-button-response","11","119600","0.0-4.0-1.3","128","1","2022-11-28 03:40:47","7b1eb8be57ff77859c7d9ac988e43411","223.104.31.60","Mozilla/5.0 (Windows NT 10.0; Win64; x64) AppleWebKit/537.36 (KHTML, like Gecko) Chrome/107.0.0.0 Safari/537.36 Edg/107.0.1418.56","WebKit","Edge","107.0.1418.56","Windows","10.0","4001","<p>作为军队的指挥官，你可以选择发射导弹杀死 <strong>2名</strong> 敌国士兵，但会误杀附近的 <strong>1名</strong> 敌国平民。</p> <p>平民照片如下图所示。</p> <p></p> <img src='stimuli/faces/PCM4.jpg', style='max-width: 30%;'> </img> <p><strong>你是否选择发射武器？</strong></p>","1",""
"","","","","","html-keyboard-response","12","120614","0.0-4.0-0.4","128","1","2022-11-28 03:40:47","7b1eb8be57ff77859c7d9ac988e43411","223.104.31.60","Mozilla/5.0 (Windows NT 10.0; Win64; x64) AppleWebKit/537.36 (KHTML, like Gecko) Chrome/107.0.0.0 Safari/537.36 Edg/107.0.1418.56","WebKit","Edge","107.0.1418.56","Windows","10.0","null","<div style=""font-size:60px;"">+</div>","null",""
"","","","","","html-button-response","13","122366","0.0-4.0-1.4","128","1","2022-11-28 03:40:47","7b1eb8be57ff77859c7d9ac988e43411","223.104.31.60","Mozilla/5.0 (Windows NT 10.0; Win64; x64) AppleWebKit/537.36 (KHTML, like Gecko) Chrome/107.0.0.0 Safari/537.36 Edg/107.0.1418.56","WebKit","Edge","107.0.1418.56","Windows","10.0","1750","<p>作为军队的指挥官，你可以选择发射导弹杀死 <strong>5名</strong> 敌国士兵，但会炸毁附近的 <strong>1棵</strong> 敌国树木。</p> <p>树木的照片如下图所示。</p> <p></p> <img src='stimuli/trees/5.png', style='max-width: 30%;'> </img> <p><strong>你是否选择发射武器？</strong></p>","0",""
"","","","","","html-keyboard-response","14","123375","0.0-4.0-0.5","128","1","2022-11-28 03:40:47","7b1eb8be57ff77859c7d9ac988e43411","223.104.31.60","Mozilla/5.0 (Windows NT 10.0; Win64; x64) AppleWebKit/537.36 (KHTML, like Gecko) Chrome/107.0.0.0 Safari/537.36 Edg/107.0.1418.56","WebKit","Edge","107.0.1418.56","Windows","10.0","null","<div style=""font-size:60px;"">+</div>","null",""
"","","","","","html-button-response","15","124650","0.0-4.0-1.5","128","1","2022-11-28 03:40:47","7b1eb8be57ff77859c7d9ac988e43411","223.104.31.60","Mozilla/5.0 (Windows NT 10.0; Win64; x64) AppleWebKit/537.36 (KHTML, like Gecko) Chrome/107.0.0.0 Safari/537.36 Edg/107.0.1418.56","WebKit","Edge","107.0.1418.56","Windows","10.0","1273","<p>作为军队的指挥官，你可以选择发射导弹杀死 <strong>9名</strong> 敌国士兵，但会误杀附近的 <strong>1名</strong> 敌国平民。</p> <p>平民照片如下图所示。</p> <p></p> <img src='stimuli/faces/PCM3.jpg', style='max-width: 30%;'> </img> <p><strong>你是否选择发射武器？</strong></p>","1",""
"","","","","","html-keyboard-response","16","125653","0.0-4.0-0.6","128","1","2022-11-28 03:40:47","7b1eb8be57ff77859c7d9ac988e43411","223.104.31.60","Mozilla/5.0 (Windows NT 10.0; Win64; x64) AppleWebKit/537.36 (KHTML, like Gecko) Chrome/107.0.0.0 Safari/537.36 Edg/107.0.1418.56","WebKit","Edge","107.0.1418.56","Windows","10.0","null","<div style=""font-size:60px;"">+</div>","null",""
"","","","","","html-button-response","17","127196","0.0-4.0-1.6","128","1","2022-11-28 03:40:47","7b1eb8be57ff77859c7d9ac988e43411","223.104.31.60","Mozilla/5.0 (Windows NT 10.0; Win64; x64) AppleWebKit/537.36 (KHTML, like Gecko) Chrome/107.0.0.0 Safari/537.36 Edg/107.0.1418.56","WebKit","Edge","107.0.1418.56","Windows","10.0","1541","<p>作为军队的指挥官，你可以选择发射导弹杀死 <strong>1名</strong> 敌国士兵，但会炸毁附近的 <strong>1棵</strong> 敌国树木。</p> <p>树木的照片如下图所示。</p> <p></p> <img src='stimuli/trees/13.png', style='max-width: 30%;'> </img> <p><strong>你是否选择发射武器？</strong></p>","0",""
"","","","","","html-keyboard-response","18","128220","0.0-4.0-0.7","128","1","2022-11-28 03:40:47","7b1eb8be57ff77859c7d9ac988e43411","223.104.31.60","Mozilla/5.0 (Windows NT 10.0; Win64; x64) AppleWebKit/537.36 (KHTML, like Gecko) Chrome/107.0.0.0 Safari/537.36 Edg/107.0.1418.56","WebKit","Edge","107.0.1418.56","Windows","10.0","null","<div style=""font-size:60px;"">+</div>","null",""
"","","","","","html-button-response","19","129322","0.0-4.0-1.7","128","1","2022-11-28 03:40:47","7b1eb8be57ff77859c7d9ac988e43411","223.104.31.60","Mozilla/5.0 (Windows NT 10.0; Win64; x64) AppleWebKit/537.36 (KHTML, like Gecko) Chrome/107.0.0.0 Safari/537.36 Edg/107.0.1418.56","WebKit","Edge","107.0.1418.56","Windows","10.0","1101","<p>作为军队的指挥官，你可以选择发射导弹杀死 <strong>4名</strong> 敌国士兵，但会误杀附近的 <strong>1名</strong> 敌国平民。</p> <p>平民照片如下图所示。</p> <p></p> <img src='stimuli/faces/PCM3.jpg', style='max-width: 30%;'> </img> <p><strong>你是否选择发射武器？</strong></p>","1",""
"","","","","","html-keyboard-response","20","130326","0.0-4.0-0.8","128","1","2022-11-28 03:40:47","7b1eb8be57ff77859c7d9ac988e43411","223.104.31.60","Mozilla/5.0 (Windows NT 10.0; Win64; x64) AppleWebKit/537.36 (KHTML, like Gecko) Chrome/107.0.0.0 Safari/537.36 Edg/107.0.1418.56","WebKit","Edge","107.0.1418.56","Windows","10.0","null","<div style=""font-size:60px;"">+</div>","null",""
"","","","","","html-button-response","21","132262","0.0-4.0-1.8","128","1","2022-11-28 03:40:47","7b1eb8be57ff77859c7d9ac988e43411","223.104.31.60","Mozilla/5.0 (Windows NT 10.0; Win64; x64) AppleWebKit/537.36 (KHTML, like Gecko) Chrome/107.0.0.0 Safari/537.36 Edg/107.0.1418.56","WebKit","Edge","107.0.1418.56","Windows","10.0","1935","<p>作为军队的指挥官，你可以选择发射导弹杀死 <strong>1名</strong> 敌国士兵，但会误杀附近的 <strong>1名</strong> 敌国平民。</p> <p>平民照片如下图所示。</p> <p></p> <img src='stimuli/faces/PCM5.jpg', style='max-width: 30%;'> </img> <p><strong>你是否选择发射武器？</strong></p>","0",""
"","","","","","html-keyboard-response","22","133271","0.0-4.0-0.9","128","1","2022-11-28 03:40:47","7b1eb8be57ff77859c7d9ac988e43411","223.104.31.60","Mozilla/5.0 (Windows NT 10.0; Win64; x64) AppleWebKit/537.36 (KHTML, like Gecko) Chrome/107.0.0.0 Safari/537.36 Edg/107.0.1418.56","WebKit","Edge","107.0.1418.56","Windows","10.0","null","<div style=""font-size:60px;"">+</div>","null",""
"","","","","","html-button-response","23","134817","0.0-4.0-1.9","128","1","2022-11-28 03:40:47","7b1eb8be57ff77859c7d9ac988e43411","223.104.31.60","Mozilla/5.0 (Windows NT 10.0; Win64; x64) AppleWebKit/537.36 (KHTML, like Gecko) Chrome/107.0.0.0 Safari/537.36 Edg/107.0.1418.56","WebKit","Edge","107.0.1418.56","Windows","10.0","1544","<p>作为军队的指挥官，你可以选择发射导弹杀死 <strong>9名</strong> 敌国士兵，但会误杀附近的 <strong>1名</strong> 敌国平民。</p> <p>平民照片如下图所示。</p> <p></p> <img src='stimuli/faces/PCM8.jpg', style='max-width: 30%;'> </img> <p><strong>你是否选择发射武器？</strong></p>","1",""
"","","","","","html-keyboard-response","24","135824","0.0-4.0-0.10","128","1","2022-11-28 03:40:47","7b1eb8be57ff77859c7d9ac988e43411","223.104.31.60","Mozilla/5.0 (Windows NT 10.0; Win64; x64) AppleWebKit/537.36 (KHTML, like Gecko) Chrome/107.0.0.0 Safari/537.36 Edg/107.0.1418.56","WebKit","Edge","107.0.1418.56","Windows","10.0","null","<div style=""font-size:60px;"">+</div>","null",""
"","","","","","html-button-response","25","137495","0.0-4.0-1.10","128","1","2022-11-28 03:40:47","7b1eb8be57ff77859c7d9ac988e43411","223.104.31.60","Mozilla/5.0 (Windows NT 10.0; Win64; x64) AppleWebKit/537.36 (KHTML, like Gecko) Chrome/107.0.0.0 Safari/537.36 Edg/107.0.1418.56","WebKit","Edge","107.0.1418.56","Windows","10.0","1670","<p>作为军队的指挥官，你可以选择发射导弹杀死 <strong>5名</strong> 敌国士兵，但会误杀附近的 <strong>1名</strong> 敌国平民。</p> <p>平民照片如下图所示。</p> <p></p> <img src='stimuli/faces/PCF5.jpg', style='max-width: 30%;'> </img> <p><strong>你是否选择发射武器？</strong></p>","1",""
"","","","","","html-keyboard-response","26","138508","0.0-4.0-0.11","128","1","2022-11-28 03:40:47","7b1eb8be57ff77859c7d9ac988e43411","223.104.31.60","Mozilla/5.0 (Windows NT 10.0; Win64; x64) AppleWebKit/537.36 (KHTML, like Gecko) Chrome/107.0.0.0 Safari/537.36 Edg/107.0.1418.56","WebKit","Edge","107.0.1418.56","Windows","10.0","null","<div style=""font-size:60px;"">+</div>","null",""
"","","","","","html-button-response","27","139831","0.0-4.0-1.11","128","1","2022-11-28 03:40:47","7b1eb8be57ff77859c7d9ac988e43411","223.104.31.60","Mozilla/5.0 (Windows NT 10.0; Win64; x64) AppleWebKit/537.36 (KHTML, like Gecko) Chrome/107.0.0.0 Safari/537.36 Edg/107.0.1418.56","WebKit","Edge","107.0.1418.56","Windows","10.0","1321","<p>作为军队的指挥官，你可以选择发射导弹杀死 <strong>1名</strong> 敌国士兵，但会炸毁附近的 <strong>1棵</strong> 敌国树木。</p> <p>树木的照片如下图所示。</p> <p></p> <img src='stimuli/trees/10.png', style='max-width: 30%;'> </img> <p><strong>你是否选择发射武器？</strong></p>","0",""
"","","","","","html-keyboard-response","28","140841","0.0-4.0-0.12","128","1","2022-11-28 03:40:47","7b1eb8be57ff77859c7d9ac988e43411","223.104.31.60","Mozilla/5.0 (Windows NT 10.0; Win64; x64) AppleWebKit/537.36 (KHTML, like Gecko) Chrome/107.0.0.0 Safari/537.36 Edg/107.0.1418.56","WebKit","Edge","107.0.1418.56","Windows","10.0","null","<div style=""font-size:60px;"">+</div>","null",""
"","","","","","html-button-response","29","150760","0.0-4.0-1.12","128","1","2022-11-28 03:40:47","7b1eb8be57ff77859c7d9ac988e43411","223.104.31.60","Mozilla/5.0 (Windows NT 10.0; Win64; x64) AppleWebKit/537.36 (KHTML, like Gecko) Chrome/107.0.0.0 Safari/537.36 Edg/107.0.1418.56","WebKit","Edge","107.0.1418.56","Windows","10.0","9916","<p>作为军队的指挥官，你可以选择发射导弹杀死 <strong>7名</strong> 敌国士兵，但会炸毁附近的 <strong>1棵</strong> 敌国树木。</p> <p>树木的照片如下图所示。</p> <p></p> <img src='stimuli/trees/13.png', style='max-width: 30%;'> </img> <p><strong>你是否选择发射武器？</strong></p>","0",""
"","","","","","html-keyboard-response","30","151769","0.0-4.0-0.13","128","1","2022-11-28 03:40:47","7b1eb8be57ff77859c7d9ac988e43411","223.104.31.60","Mozilla/5.0 (Windows NT 10.0; Win64; x64) AppleWebKit/537.36 (KHTML, like Gecko) Chrome/107.0.0.0 Safari/537.36 Edg/107.0.1418.56","WebKit","Edge","107.0.1418.56","Windows","10.0","null","<div style=""font-size:60px;"">+</div>","null",""
"","","","","","html-button-response","31","175752","0.0-4.0-1.13","128","1","2022-11-28 03:40:47","7b1eb8be57ff77859c7d9ac988e43411","223.104.31.60","Mozilla/5.0 (Windows NT 10.0; Win64; x64) AppleWebKit/537.36 (KHTML, like Gecko) Chrome/107.0.0.0 Safari/537.36 Edg/107.0.1418.56","WebKit","Edge","107.0.1418.56","Windows","10.0","23981","<p>作为军队的指挥官，你可以选择发射导弹杀死 <strong>3名</strong> 敌国士兵，但会误杀附近的 <strong>1名</strong> 敌国平民。</p> <p>平民照片如下图所示。</p> <p></p> <img src='stimuli/faces/PCM6.jpg', style='max-width: 30%;'> </img> <p><strong>你是否选择发射武器？</strong></p>","1",""
"","","","","","html-keyboard-response","32","176767","0.0-4.0-0.14","128","1","2022-11-28 03:40:47","7b1eb8be57ff77859c7d9ac988e43411","223.104.31.60","Mozilla/5.0 (Windows NT 10.0; Win64; x64) AppleWebKit/537.36 (KHTML, like Gecko) Chrome/107.0.0.0 Safari/537.36 Edg/107.0.1418.56","WebKit","Edge","107.0.1418.56","Windows","10.0","null","<div style=""font-size:60px;"">+</div>","null",""
"","","","","","html-button-response","33","177651","0.0-4.0-1.14","128","1","2022-11-28 03:40:47","7b1eb8be57ff77859c7d9ac988e43411","223.104.31.60","Mozilla/5.0 (Windows NT 10.0; Win64; x64) AppleWebKit/537.36 (KHTML, like Gecko) Chrome/107.0.0.0 Safari/537.36 Edg/107.0.1418.56","WebKit","Edge","107.0.1418.56","Windows","10.0","882","<p>作为军队的指挥官，你可以选择发射导弹杀死 <strong>6名</strong> 敌国士兵，但会误杀附近的 <strong>1名</strong> 敌国平民。</p> <p>平民照片如下图所示。</p> <p></p> <img src='stimuli/faces/PCF4.jpg', style='max-width: 30%;'> </img> <p><strong>你是否选择发射武器？</strong></p>","1",""
"","","","","","html-keyboard-response","34","178654","0.0-4.0-0.15","128","1","2022-11-28 03:40:47","7b1eb8be57ff77859c7d9ac988e43411","223.104.31.60","Mozilla/5.0 (Windows NT 10.0; Win64; x64) AppleWebKit/537.36 (KHTML, like Gecko) Chrome/107.0.0.0 Safari/537.36 Edg/107.0.1418.56","WebKit","Edge","107.0.1418.56","Windows","10.0","null","<div style=""font-size:60px;"">+</div>","null",""
"","","","","","html-button-response","35","180031","0.0-4.0-1.15","128","1","2022-11-28 03:40:47","7b1eb8be57ff77859c7d9ac988e43411","223.104.31.60","Mozilla/5.0 (Windows NT 10.0; Win64; x64) AppleWebKit/537.36 (KHTML, like Gecko) Chrome/107.0.0.0 Safari/537.36 Edg/107.0.1418.56","WebKit","Edge","107.0.1418.56","Windows","10.0","1375","<p>作为军队的指挥官，你可以选择发射导弹杀死 <strong>7名</strong> 敌国士兵，但会炸毁附近的 <strong>1棵</strong> 敌国树木。</p> <p>树木的照片如下图所示。</p> <p></p> <img src='stimuli/trees/12.png', style='max-width: 30%;'> </img> <p><strong>你是否选择发射武器？</strong></p>","0",""
"","","","","","html-keyboard-response","36","181053","0.0-4.0-0.16","128","1","2022-11-28 03:40:47","7b1eb8be57ff77859c7d9ac988e43411","223.104.31.60","Mozilla/5.0 (Windows NT 10.0; Win64; x64) AppleWebKit/537.36 (KHTML, like Gecko) Chrome/107.0.0.0 Safari/537.36 Edg/107.0.1418.56","WebKit","Edge","107.0.1418.56","Windows","10.0","null","<div style=""font-size:60px;"">+</div>","null",""
"","","","","","html-button-response","37","182455","0.0-4.0-1.16","128","1","2022-11-28 03:40:47","7b1eb8be57ff77859c7d9ac988e43411","223.104.31.60","Mozilla/5.0 (Windows NT 10.0; Win64; x64) AppleWebKit/537.36 (KHTML, like Gecko) Chrome/107.0.0.0 Safari/537.36 Edg/107.0.1418.56","WebKit","Edge","107.0.1418.56","Windows","10.0","1399","<p>作为军队的指挥官，你可以选择发射导弹杀死 <strong>8名</strong> 敌国士兵，但会炸毁附近的 <strong>1棵</strong> 敌国树木。</p> <p>树木的照片如下图所示。</p> <p></p> <img src='stimuli/trees/4.png', style='max-width: 30%;'> </img> <p><strong>你是否选择发射武器？</strong></p>","0",""
"","","","","","html-keyboard-response","38","183459","0.0-4.0-0.17","128","1","2022-11-28 03:40:47","7b1eb8be57ff77859c7d9ac988e43411","223.104.31.60","Mozilla/5.0 (Windows NT 10.0; Win64; x64) AppleWebKit/537.36 (KHTML, like Gecko) Chrome/107.0.0.0 Safari/537.36 Edg/107.0.1418.56","WebKit","Edge","107.0.1418.56","Windows","10.0","null","<div style=""font-size:60px;"">+</div>","null",""
"","","","","","html-button-response","39","184301","0.0-4.0-1.17","128","1","2022-11-28 03:40:47","7b1eb8be57ff77859c7d9ac988e43411","223.104.31.60","Mozilla/5.0 (Windows NT 10.0; Win64; x64) AppleWebKit/537.36 (KHTML, like Gecko) Chrome/107.0.0.0 Safari/537.36 Edg/107.0.1418.56","WebKit","Edge","107.0.1418.56","Windows","10.0","840","<p>作为军队的指挥官，你可以选择发射导弹杀死 <strong>7名</strong> 敌国士兵，但会误杀附近的 <strong>1名</strong> 敌国平民。</p> <p>平民照片如下图所示。</p> <p></p> <img src='stimuli/faces/PCM4.jpg', style='max-width: 30%;'> </img> <p><strong>你是否选择发射武器？</strong></p>","1",""
"","","","","","html-keyboard-response","40","185321","0.0-4.0-0.18","128","1","2022-11-28 03:40:47","7b1eb8be57ff77859c7d9ac988e43411","223.104.31.60","Mozilla/5.0 (Windows NT 10.0; Win64; x64) AppleWebKit/537.36 (KHTML, like Gecko) Chrome/107.0.0.0 Safari/537.36 Edg/107.0.1418.56","WebKit","Edge","107.0.1418.56","Windows","10.0","null","<div style=""font-size:60px;"">+</div>","null",""
"","","","","","html-button-response","41","186961","0.0-4.0-1.18","128","1","2022-11-28 03:40:47","7b1eb8be57ff77859c7d9ac988e43411","223.104.31.60","Mozilla/5.0 (Windows NT 10.0; Win64; x64) AppleWebKit/537.36 (KHTML, like Gecko) Chrome/107.0.0.0 Safari/537.36 Edg/107.0.1418.56","WebKit","Edge","107.0.1418.56","Windows","10.0","1638","<p>作为军队的指挥官，你可以选择发射导弹杀死 <strong>6名</strong> 敌国士兵，但会误杀附近的 <strong>1名</strong> 敌国平民。</p> <p>平民照片如下图所示。</p> <p></p> <img src='stimuli/faces/PCF8.jpg', style='max-width: 30%;'> </img> <p><strong>你是否选择发射武器？</strong></p>","1",""
"","","","","","html-keyboard-response","42","187980","0.0-4.0-0.19","128","1","2022-11-28 03:40:47","7b1eb8be57ff77859c7d9ac988e43411","223.104.31.60","Mozilla/5.0 (Windows NT 10.0; Win64; x64) AppleWebKit/537.36 (KHTML, like Gecko) Chrome/107.0.0.0 Safari/537.36 Edg/107.0.1418.56","WebKit","Edge","107.0.1418.56","Windows","10.0","null","<div style=""font-size:60px;"">+</div>","null",""
"","","","","","html-button-response","43","189586","0.0-4.0-1.19","128","1","2022-11-28 03:40:47","7b1eb8be57ff77859c7d9ac988e43411","223.104.31.60","Mozilla/5.0 (Windows NT 10.0; Win64; x64) AppleWebKit/537.36 (KHTML, like Gecko) Chrome/107.0.0.0 Safari/537.36 Edg/107.0.1418.56","WebKit","Edge","107.0.1418.56","Windows","10.0","1604","<p>作为军队的指挥官，你可以选择发射导弹杀死 <strong>2名</strong> 敌国士兵，但会误杀附近的 <strong>1名</strong> 敌国平民。</p> <p>平民照片如下图所示。</p> <p></p> <img src='stimuli/faces/PCF7.jpg', style='max-width: 30%;'> </img> <p><strong>你是否选择发射武器？</strong></p>","1",""
"","","","","","html-keyboard-response","44","190599","0.0-4.0-0.20","128","1","2022-11-28 03:40:47","7b1eb8be57ff77859c7d9ac988e43411","223.104.31.60","Mozilla/5.0 (Windows NT 10.0; Win64; x64) AppleWebKit/537.36 (KHTML, like Gecko) Chrome/107.0.0.0 Safari/537.36 Edg/107.0.1418.56","WebKit","Edge","107.0.1418.56","Windows","10.0","null","<div style=""font-size:60px;"">+</div>","null",""
"","","","","","html-button-response","45","191039","0.0-4.0-1.20","128","1","2022-11-28 03:40:47","7b1eb8be57ff77859c7d9ac988e43411","223.104.31.60","Mozilla/5.0 (Windows NT 10.0; Win64; x64) AppleWebKit/537.36 (KHTML, like Gecko) Chrome/107.0.0.0 Safari/537.36 Edg/107.0.1418.56","WebKit","Edge","107.0.1418.56","Windows","10.0","437","<p>作为军队的指挥官，你可以选择发射导弹杀死 <strong>2名</strong> 敌国士兵，但会误杀附近的 <strong>1名</strong> 敌国平民。</p> <p>平民照片如下图所示。</p> <p></p> <img src='stimuli/faces/PCM8.jpg', style='max-width: 30%;'> </img> <p><strong>你是否选择发射武器？</strong></p>","1",""
"","","","","","html-keyboard-response","46","192048","0.0-4.0-0.21","128","1","2022-11-28 03:40:47","7b1eb8be57ff77859c7d9ac988e43411","223.104.31.60","Mozilla/5.0 (Windows NT 10.0; Win64; x64) AppleWebKit/537.36 (KHTML, like Gecko) Chrome/107.0.0.0 Safari/537.36 Edg/107.0.1418.56","WebKit","Edge","107.0.1418.56","Windows","10.0","null","<div style=""font-size:60px;"">+</div>","null",""
"","","","","","html-button-response","47","192544","0.0-4.0-1.21","128","1","2022-11-28 03:40:47","7b1eb8be57ff77859c7d9ac988e43411","223.104.31.60","Mozilla/5.0 (Windows NT 10.0; Win64; x64) AppleWebKit/537.36 (KHTML, like Gecko) Chrome/107.0.0.0 Safari/537.36 Edg/107.0.1418.56","WebKit","Edge","107.0.1418.56","Windows","10.0","494","<p>作为军队的指挥官，你可以选择发射导弹杀死 <strong>4名</strong> 敌国士兵，但会误杀附近的 <strong>1名</strong> 敌国平民。</p> <p>平民照片如下图所示。</p> <p></p> <img src='stimuli/faces/PCM2.jpg', style='max-width: 30%;'> </img> <p><strong>你是否选择发射武器？</strong></p>","1",""
"","","","","","html-keyboard-response","48","193560","0.0-4.0-0.22","128","1","2022-11-28 03:40:47","7b1eb8be57ff77859c7d9ac988e43411","223.104.31.60","Mozilla/5.0 (Windows NT 10.0; Win64; x64) AppleWebKit/537.36 (KHTML, like Gecko) Chrome/107.0.0.0 Safari/537.36 Edg/107.0.1418.56","WebKit","Edge","107.0.1418.56","Windows","10.0","null","<div style=""font-size:60px;"">+</div>","null",""
"","","","","","html-button-response","49","194311","0.0-4.0-1.22","128","1","2022-11-28 03:40:47","7b1eb8be57ff77859c7d9ac988e43411","223.104.31.60","Mozilla/5.0 (Windows NT 10.0; Win64; x64) AppleWebKit/537.36 (KHTML, like Gecko) Chrome/107.0.0.0 Safari/537.36 Edg/107.0.1418.56","WebKit","Edge","107.0.1418.56","Windows","10.0","749","<p>作为军队的指挥官，你可以选择发射导弹杀死 <strong>9名</strong> 敌国士兵，但会误杀附近的 <strong>1名</strong> 敌国平民。</p> <p>平民照片如下图所示。</p> <p></p> <img src='stimuli/faces/PCM2.jpg', style='max-width: 30%;'> </img> <p><strong>你是否选择发射武器？</strong></p>","1",""
"","","","","","html-keyboard-response","50","195320","0.0-4.0-0.23","128","1","2022-11-28 03:40:47","7b1eb8be57ff77859c7d9ac988e43411","223.104.31.60","Mozilla/5.0 (Windows NT 10.0; Win64; x64) AppleWebKit/537.36 (KHTML, like Gecko) Chrome/107.0.0.0 Safari/537.36 Edg/107.0.1418.56","WebKit","Edge","107.0.1418.56","Windows","10.0","null","<div style=""font-size:60px;"">+</div>","null",""
"","","","","","html-button-response","51","196420","0.0-4.0-1.23","128","1","2022-11-28 03:40:47","7b1eb8be57ff77859c7d9ac988e43411","223.104.31.60","Mozilla/5.0 (Windows NT 10.0; Win64; x64) AppleWebKit/537.36 (KHTML, like Gecko) Chrome/107.0.0.0 Safari/537.36 Edg/107.0.1418.56","WebKit","Edge","107.0.1418.56","Windows","10.0","1097","<p>作为军队的指挥官，你可以选择发射导弹杀死 <strong>7名</strong> 敌国士兵，但会炸毁附近的 <strong>1棵</strong> 敌国树木。</p> <p>树木的照片如下图所示。</p> <p></p> <img src='stimuli/trees/6.png', style='max-width: 30%;'> </img> <p><strong>你是否选择发射武器？</strong></p>","0",""
"","","","","","html-keyboard-response","52","197430","0.0-4.0-0.24","128","1","2022-11-28 03:40:47","7b1eb8be57ff77859c7d9ac988e43411","223.104.31.60","Mozilla/5.0 (Windows NT 10.0; Win64; x64) AppleWebKit/537.36 (KHTML, like Gecko) Chrome/107.0.0.0 Safari/537.36 Edg/107.0.1418.56","WebKit","Edge","107.0.1418.56","Windows","10.0","null","<div style=""font-size:60px;"">+</div>","null",""
"","","","","","html-button-response","53","198345","0.0-4.0-1.24","128","1","2022-11-28 03:40:47","7b1eb8be57ff77859c7d9ac988e43411","223.104.31.60","Mozilla/5.0 (Windows NT 10.0; Win64; x64) AppleWebKit/537.36 (KHTML, like Gecko) Chrome/107.0.0.0 Safari/537.36 Edg/107.0.1418.56","WebKit","Edge","107.0.1418.56","Windows","10.0","913","<p>作为军队的指挥官，你可以选择发射导弹杀死 <strong>5名</strong> 敌国士兵，但会炸毁附近的 <strong>1棵</strong> 敌国树木。</p> <p>树木的照片如下图所示。</p> <p></p> <img src='stimuli/trees/9.png', style='max-width: 30%;'> </img> <p><strong>你是否选择发射武器？</strong></p>","1",""
"","","","","","html-keyboard-response","54","199350","0.0-4.0-0.25","128","1","2022-11-28 03:40:47","7b1eb8be57ff77859c7d9ac988e43411","223.104.31.60","Mozilla/5.0 (Windows NT 10.0; Win64; x64) AppleWebKit/537.36 (KHTML, like Gecko) Chrome/107.0.0.0 Safari/537.36 Edg/107.0.1418.56","WebKit","Edge","107.0.1418.56","Windows","10.0","null","<div style=""font-size:60px;"">+</div>","null",""
"","","","","","html-button-response","55","199929","0.0-4.0-1.25","128","1","2022-11-28 03:40:47","7b1eb8be57ff77859c7d9ac988e43411","223.104.31.60","Mozilla/5.0 (Windows NT 10.0; Win64; x64) AppleWebKit/537.36 (KHTML, like Gecko) Chrome/107.0.0.0 Safari/537.36 Edg/107.0.1418.56","WebKit","Edge","107.0.1418.56","Windows","10.0","577","<p>作为军队的指挥官，你可以选择发射导弹杀死 <strong>5名</strong> 敌国士兵，但会炸毁附近的 <strong>1棵</strong> 敌国树木。</p> <p>树木的照片如下图所示。</p> <p></p> <img src='stimuli/trees/15.png', style='max-width: 30%;'> </img> <p><strong>你是否选择发射武器？</strong></p>","0",""
"","","","","","html-keyboard-response","56","200945","0.0-4.0-0.26","128","1","2022-11-28 03:40:47","7b1eb8be57ff77859c7d9ac988e43411","223.104.31.60","Mozilla/5.0 (Windows NT 10.0; Win64; x64) AppleWebKit/537.36 (KHTML, like Gecko) Chrome/107.0.0.0 Safari/537.36 Edg/107.0.1418.56","WebKit","Edge","107.0.1418.56","Windows","10.0","null","<div style=""font-size:60px;"">+</div>","null",""
"","","","","","html-button-response","57","202431","0.0-4.0-1.26","128","1","2022-11-28 03:40:47","7b1eb8be57ff77859c7d9ac988e43411","223.104.31.60","Mozilla/5.0 (Windows NT 10.0; Win64; x64) AppleWebKit/537.36 (KHTML, like Gecko) Chrome/107.0.0.0 Safari/537.36 Edg/107.0.1418.56","WebKit","Edge","107.0.1418.56","Windows","10.0","1485","<p>作为军队的指挥官，你可以选择发射导弹杀死 <strong>10名</strong> 敌国士兵，但会误杀附近的 <strong>1名</strong> 敌国平民。</p> <p>平民照片如下图所示。</p> <p></p> <img src='stimuli/faces/PCF7.jpg', style='max-width: 30%;'> </img> <p><strong>你是否选择发射武器？</strong></p>","1",""
"","","","","","html-keyboard-response","58","203442","0.0-4.0-0.27","128","1","2022-11-28 03:40:47","7b1eb8be57ff77859c7d9ac988e43411","223.104.31.60","Mozilla/5.0 (Windows NT 10.0; Win64; x64) AppleWebKit/537.36 (KHTML, like Gecko) Chrome/107.0.0.0 Safari/537.36 Edg/107.0.1418.56","WebKit","Edge","107.0.1418.56","Windows","10.0","null","<div style=""font-size:60px;"">+</div>","null",""
"","","","","","html-button-response","59","204706","0.0-4.0-1.27","128","1","2022-11-28 03:40:47","7b1eb8be57ff77859c7d9ac988e43411","223.104.31.60","Mozilla/5.0 (Windows NT 10.0; Win64; x64) AppleWebKit/537.36 (KHTML, like Gecko) Chrome/107.0.0.0 Safari/537.36 Edg/107.0.1418.56","WebKit","Edge","107.0.1418.56","Windows","10.0","1262","<p>作为军队的指挥官，你可以选择发射导弹杀死 <strong>6名</strong> 敌国士兵，但会误杀附近的 <strong>1名</strong> 敌国平民。</p> <p>平民照片如下图所示。</p> <p></p> <img src='stimuli/faces/PCM7.jpg', style='max-width: 30%;'> </img> <p><strong>你是否选择发射武器？</strong></p>","1",""
"","","","","","html-keyboard-response","60","205710","0.0-4.0-0.28","128","1","2022-11-28 03:40:47","7b1eb8be57ff77859c7d9ac988e43411","223.104.31.60","Mozilla/5.0 (Windows NT 10.0; Win64; x64) AppleWebKit/537.36 (KHTML, like Gecko) Chrome/107.0.0.0 Safari/537.36 Edg/107.0.1418.56","WebKit","Edge","107.0.1418.56","Windows","10.0","null","<div style=""font-size:60px;"">+</div>","null",""
"","","","","","html-button-response","61","206360","0.0-4.0-1.28","128","1","2022-11-28 03:40:47","7b1eb8be57ff77859c7d9ac988e43411","223.104.31.60","Mozilla/5.0 (Windows NT 10.0; Win64; x64) AppleWebKit/537.36 (KHTML, like Gecko) Chrome/107.0.0.0 Safari/537.36 Edg/107.0.1418.56","WebKit","Edge","107.0.1418.56","Windows","10.0","648","<p>作为军队的指挥官，你可以选择发射导弹杀死 <strong>2名</strong> 敌国士兵，但会误杀附近的 <strong>1名</strong> 敌国平民。</p> <p>平民照片如下图所示。</p> <p></p> <img src='stimuli/faces/PCF4.jpg', style='max-width: 30%;'> </img> <p><strong>你是否选择发射武器？</strong></p>","1",""
"","","","","","html-keyboard-response","62","207373","0.0-4.0-0.29","128","1","2022-11-28 03:40:47","7b1eb8be57ff77859c7d9ac988e43411","223.104.31.60","Mozilla/5.0 (Windows NT 10.0; Win64; x64) AppleWebKit/537.36 (KHTML, like Gecko) Chrome/107.0.0.0 Safari/537.36 Edg/107.0.1418.56","WebKit","Edge","107.0.1418.56","Windows","10.0","null","<div style=""font-size:60px;"">+</div>","null",""
"","","","","","html-button-response","63","209029","0.0-4.0-1.29","128","1","2022-11-28 03:40:47","7b1eb8be57ff77859c7d9ac988e43411","223.104.31.60","Mozilla/5.0 (Windows NT 10.0; Win64; x64) AppleWebKit/537.36 (KHTML, like Gecko) Chrome/107.0.0.0 Safari/537.36 Edg/107.0.1418.56","WebKit","Edge","107.0.1418.56","Windows","10.0","1654","<p>作为军队的指挥官，你可以选择发射导弹杀死 <strong>7名</strong> 敌国士兵，但会炸毁附近的 <strong>1棵</strong> 敌国树木。</p> <p>树木的照片如下图所示。</p> <p></p> <img src='stimuli/trees/15.png', style='max-width: 30%;'> </img> <p><strong>你是否选择发射武器？</strong></p>","0",""
"","","","","","html-keyboard-response","64","210041","0.0-4.0-0.30","128","1","2022-11-28 03:40:47","7b1eb8be57ff77859c7d9ac988e43411","223.104.31.60","Mozilla/5.0 (Windows NT 10.0; Win64; x64) AppleWebKit/537.36 (KHTML, like Gecko) Chrome/107.0.0.0 Safari/537.36 Edg/107.0.1418.56","WebKit","Edge","107.0.1418.56","Windows","10.0","null","<div style=""font-size:60px;"">+</div>","null",""
"","","","","","html-button-response","65","210832","0.0-4.0-1.30","128","1","2022-11-28 03:40:47","7b1eb8be57ff77859c7d9ac988e43411","223.104.31.60","Mozilla/5.0 (Windows NT 10.0; Win64; x64) AppleWebKit/537.36 (KHTML, like Gecko) Chrome/107.0.0.0 Safari/537.36 Edg/107.0.1418.56","WebKit","Edge","107.0.1418.56","Windows","10.0","789","<p>作为军队的指挥官，你可以选择发射导弹杀死 <strong>2名</strong> 敌国士兵，但会误杀附近的 <strong>1名</strong> 敌国平民。</p> <p>平民照片如下图所示。</p> <p></p> <img src='stimuli/faces/PCF3.jpg', style='max-width: 30%;'> </img> <p><strong>你是否选择发射武器？</strong></p>","1",""
"","","","","","html-keyboard-response","66","211842","0.0-4.0-0.31","128","1","2022-11-28 03:40:47","7b1eb8be57ff77859c7d9ac988e43411","223.104.31.60","Mozilla/5.0 (Windows NT 10.0; Win64; x64) AppleWebKit/537.36 (KHTML, like Gecko) Chrome/107.0.0.0 Safari/537.36 Edg/107.0.1418.56","WebKit","Edge","107.0.1418.56","Windows","10.0","null","<div style=""font-size:60px;"">+</div>","null",""
"","","","","","html-button-response","67","212756","0.0-4.0-1.31","128","1","2022-11-28 03:40:47","7b1eb8be57ff77859c7d9ac988e43411","223.104.31.60","Mozilla/5.0 (Windows NT 10.0; Win64; x64) AppleWebKit/537.36 (KHTML, like Gecko) Chrome/107.0.0.0 Safari/537.36 Edg/107.0.1418.56","WebKit","Edge","107.0.1418.56","Windows","10.0","913","<p>作为军队的指挥官，你可以选择发射导弹杀死 <strong>9名</strong> 敌国士兵，但会炸毁附近的 <strong>1棵</strong> 敌国树木。</p> <p>树木的照片如下图所示。</p> <p></p> <img src='stimuli/trees/5.png', style='max-width: 30%;'> </img> <p><strong>你是否选择发射武器？</strong></p>","0",""
"","","","","","html-keyboard-response","68","213772","0.0-4.0-0.32","128","1","2022-11-28 03:40:47","7b1eb8be57ff77859c7d9ac988e43411","223.104.31.60","Mozilla/5.0 (Windows NT 10.0; Win64; x64) AppleWebKit/537.36 (KHTML, like Gecko) Chrome/107.0.0.0 Safari/537.36 Edg/107.0.1418.56","WebKit","Edge","107.0.1418.56","Windows","10.0","null","<div style=""font-size:60px;"">+</div>","null",""
"","","","","","html-button-response","69","215179","0.0-4.0-1.32","128","1","2022-11-28 03:40:47","7b1eb8be57ff77859c7d9ac988e43411","223.104.31.60","Mozilla/5.0 (Windows NT 10.0; Win64; x64) AppleWebKit/537.36 (KHTML, like Gecko) Chrome/107.0.0.0 Safari/537.36 Edg/107.0.1418.56","WebKit","Edge","107.0.1418.56","Windows","10.0","1405","<p>作为军队的指挥官，你可以选择发射导弹杀死 <strong>8名</strong> 敌国士兵，但会炸毁附近的 <strong>1棵</strong> 敌国树木。</p> <p>树木的照片如下图所示。</p> <p></p> <img src='stimuli/trees/16.png', style='max-width: 30%;'> </img> <p><strong>你是否选择发射武器？</strong></p>","0",""
"","","","","","html-keyboard-response","70","216191","0.0-4.0-0.33","128","1","2022-11-28 03:40:47","7b1eb8be57ff77859c7d9ac988e43411","223.104.31.60","Mozilla/5.0 (Windows NT 10.0; Win64; x64) AppleWebKit/537.36 (KHTML, like Gecko) Chrome/107.0.0.0 Safari/537.36 Edg/107.0.1418.56","WebKit","Edge","107.0.1418.56","Windows","10.0","null","<div style=""font-size:60px;"">+</div>","null",""
"","","","","","html-button-response","71","217587","0.0-4.0-1.33","128","1","2022-11-28 03:40:47","7b1eb8be57ff77859c7d9ac988e43411","223.104.31.60","Mozilla/5.0 (Windows NT 10.0; Win64; x64) AppleWebKit/537.36 (KHTML, like Gecko) Chrome/107.0.0.0 Safari/537.36 Edg/107.0.1418.56","WebKit","Edge","107.0.1418.56","Windows","10.0","1394","<p>作为军队的指挥官，你可以选择发射导弹杀死 <strong>9名</strong> 敌国士兵，但会炸毁附近的 <strong>1棵</strong> 敌国树木。</p> <p>树木的照片如下图所示。</p> <p></p> <img src='stimuli/trees/10.png', style='max-width: 30%;'> </img> <p><strong>你是否选择发射武器？</strong></p>","0",""
"","","","","","html-keyboard-response","72","218600","0.0-4.0-0.34","128","1","2022-11-28 03:40:47","7b1eb8be57ff77859c7d9ac988e43411","223.104.31.60","Mozilla/5.0 (Windows NT 10.0; Win64; x64) AppleWebKit/537.36 (KHTML, like Gecko) Chrome/107.0.0.0 Safari/537.36 Edg/107.0.1418.56","WebKit","Edge","107.0.1418.56","Windows","10.0","null","<div style=""font-size:60px;"">+</div>","null",""
"","","","","","html-button-response","73","219643","0.0-4.0-1.34","128","1","2022-11-28 03:40:47","7b1eb8be57ff77859c7d9ac988e43411","223.104.31.60","Mozilla/5.0 (Windows NT 10.0; Win64; x64) AppleWebKit/537.36 (KHTML, like Gecko) Chrome/107.0.0.0 Safari/537.36 Edg/107.0.1418.56","WebKit","Edge","107.0.1418.56","Windows","10.0","1041","<p>作为军队的指挥官，你可以选择发射导弹杀死 <strong>6名</strong> 敌国士兵，但会误杀附近的 <strong>1名</strong> 敌国平民。</p> <p>平民照片如下图所示。</p> <p></p> <img src='stimuli/faces/PCF3.jpg', style='max-width: 30%;'> </img> <p><strong>你是否选择发射武器？</strong></p>","1",""
"","","","","","html-keyboard-response","74","220646","0.0-4.0-0.35","128","1","2022-11-28 03:40:47","7b1eb8be57ff77859c7d9ac988e43411","223.104.31.60","Mozilla/5.0 (Windows NT 10.0; Win64; x64) AppleWebKit/537.36 (KHTML, like Gecko) Chrome/107.0.0.0 Safari/537.36 Edg/107.0.1418.56","WebKit","Edge","107.0.1418.56","Windows","10.0","null","<div style=""font-size:60px;"">+</div>","null",""
"","","","","","html-button-response","75","223405","0.0-4.0-1.35","128","1","2022-11-28 03:40:47","7b1eb8be57ff77859c7d9ac988e43411","223.104.31.60","Mozilla/5.0 (Windows NT 10.0; Win64; x64) AppleWebKit/537.36 (KHTML, like Gecko) Chrome/107.0.0.0 Safari/537.36 Edg/107.0.1418.56","WebKit","Edge","107.0.1418.56","Windows","10.0","2758","<p>作为军队的指挥官，你可以选择发射导弹杀死 <strong>1名</strong> 敌国士兵，但会炸毁附近的 <strong>1棵</strong> 敌国树木。</p> <p>树木的照片如下图所示。</p> <p></p> <img src='stimuli/trees/12.png', style='max-width: 30%;'> </img> <p><strong>你是否选择发射武器？</strong></p>","0",""
"","","","","","html-keyboard-response","76","224411","0.0-4.0-0.36","128","1","2022-11-28 03:40:47","7b1eb8be57ff77859c7d9ac988e43411","223.104.31.60","Mozilla/5.0 (Windows NT 10.0; Win64; x64) AppleWebKit/537.36 (KHTML, like Gecko) Chrome/107.0.0.0 Safari/537.36 Edg/107.0.1418.56","WebKit","Edge","107.0.1418.56","Windows","10.0","null","<div style=""font-size:60px;"">+</div>","null",""
"","","","","","html-button-response","77","226188","0.0-4.0-1.36","128","1","2022-11-28 03:40:47","7b1eb8be57ff77859c7d9ac988e43411","223.104.31.60","Mozilla/5.0 (Windows NT 10.0; Win64; x64) AppleWebKit/537.36 (KHTML, like Gecko) Chrome/107.0.0.0 Safari/537.36 Edg/107.0.1418.56","WebKit","Edge","107.0.1418.56","Windows","10.0","1775","<p>作为军队的指挥官，你可以选择发射导弹杀死 <strong>7名</strong> 敌国士兵，但会炸毁附近的 <strong>1棵</strong> 敌国树木。</p> <p>树木的照片如下图所示。</p> <p></p> <img src='stimuli/trees/7.png', style='max-width: 30%;'> </img> <p><strong>你是否选择发射武器？</strong></p>","0",""
"","","","","","html-keyboard-response","78","227202","0.0-4.0-0.37","128","1","2022-11-28 03:40:47","7b1eb8be57ff77859c7d9ac988e43411","223.104.31.60","Mozilla/5.0 (Windows NT 10.0; Win64; x64) AppleWebKit/537.36 (KHTML, like Gecko) Chrome/107.0.0.0 Safari/537.36 Edg/107.0.1418.56","WebKit","Edge","107.0.1418.56","Windows","10.0","null","<div style=""font-size:60px;"">+</div>","null",""
"","","","","","html-button-response","79","227895","0.0-4.0-1.37","128","1","2022-11-28 03:40:47","7b1eb8be57ff77859c7d9ac988e43411","223.104.31.60","Mozilla/5.0 (Windows NT 10.0; Win64; x64) AppleWebKit/537.36 (KHTML, like Gecko) Chrome/107.0.0.0 Safari/537.36 Edg/107.0.1418.56","WebKit","Edge","107.0.1418.56","Windows","10.0","690","<p>作为军队的指挥官，你可以选择发射导弹杀死 <strong>3名</strong> 敌国士兵，但会炸毁附近的 <strong>1棵</strong> 敌国树木。</p> <p>树木的照片如下图所示。</p> <p></p> <img src='stimuli/trees/4.png', style='max-width: 30%;'> </img> <p><strong>你是否选择发射武器？</strong></p>","0",""
"","","","","","html-keyboard-response","80","228910","0.0-4.0-0.38","128","1","2022-11-28 03:40:47","7b1eb8be57ff77859c7d9ac988e43411","223.104.31.60","Mozilla/5.0 (Windows NT 10.0; Win64; x64) AppleWebKit/537.36 (KHTML, like Gecko) Chrome/107.0.0.0 Safari/537.36 Edg/107.0.1418.56","WebKit","Edge","107.0.1418.56","Windows","10.0","null","<div style=""font-size:60px;"">+</div>","null",""
"","","","","","html-button-response","81","230424","0.0-4.0-1.38","128","1","2022-11-28 03:40:47","7b1eb8be57ff77859c7d9ac988e43411","223.104.31.60","Mozilla/5.0 (Windows NT 10.0; Win64; x64) AppleWebKit/537.36 (KHTML, like Gecko) Chrome/107.0.0.0 Safari/537.36 Edg/107.0.1418.56","WebKit","Edge","107.0.1418.56","Windows","10.0","1511","<p>作为军队的指挥官，你可以选择发射导弹杀死 <strong>10名</strong> 敌国士兵，但会误杀附近的 <strong>1名</strong> 敌国平民。</p> <p>平民照片如下图所示。</p> <p></p> <img src='stimuli/faces/PCM6.jpg', style='max-width: 30%;'> </img> <p><strong>你是否选择发射武器？</strong></p>","0",""
"","","","","","html-keyboard-response","82","231439","0.0-4.0-0.39","128","1","2022-11-28 03:40:47","7b1eb8be57ff77859c7d9ac988e43411","223.104.31.60","Mozilla/5.0 (Windows NT 10.0; Win64; x64) AppleWebKit/537.36 (KHTML, like Gecko) Chrome/107.0.0.0 Safari/537.36 Edg/107.0.1418.56","WebKit","Edge","107.0.1418.56","Windows","10.0","null","<div style=""font-size:60px;"">+</div>","null",""
"","","","","","html-button-response","83","232988","0.0-4.0-1.39","128","1","2022-11-28 03:40:47","7b1eb8be57ff77859c7d9ac988e43411","223.104.31.60","Mozilla/5.0 (Windows NT 10.0; Win64; x64) AppleWebKit/537.36 (KHTML, like Gecko) Chrome/107.0.0.0 Safari/537.36 Edg/107.0.1418.56","WebKit","Edge","107.0.1418.56","Windows","10.0","1546","<p>作为军队的指挥官，你可以选择发射导弹杀死 <strong>5名</strong> 敌国士兵，但会炸毁附近的 <strong>1棵</strong> 敌国树木。</p> <p>树木的照片如下图所示。</p> <p></p> <img src='stimuli/trees/11.png', style='max-width: 30%;'> </img> <p><strong>你是否选择发射武器？</strong></p>","0",""
"","","","","","html-keyboard-response","84","234004","0.0-4.0-0.40","128","1","2022-11-28 03:40:47","7b1eb8be57ff77859c7d9ac988e43411","223.104.31.60","Mozilla/5.0 (Windows NT 10.0; Win64; x64) AppleWebKit/537.36 (KHTML, like Gecko) Chrome/107.0.0.0 Safari/537.36 Edg/107.0.1418.56","WebKit","Edge","107.0.1418.56","Windows","10.0","null","<div style=""font-size:60px;"">+</div>","null",""
"","","","","","html-button-response","85","234948","0.0-4.0-1.40","128","1","2022-11-28 03:40:47","7b1eb8be57ff77859c7d9ac988e43411","223.104.31.60","Mozilla/5.0 (Windows NT 10.0; Win64; x64) AppleWebKit/537.36 (KHTML, like Gecko) Chrome/107.0.0.0 Safari/537.36 Edg/107.0.1418.56","WebKit","Edge","107.0.1418.56","Windows","10.0","941","<p>作为军队的指挥官，你可以选择发射导弹杀死 <strong>9名</strong> 敌国士兵，但会误杀附近的 <strong>1名</strong> 敌国平民。</p> <p>平民照片如下图所示。</p> <p></p> <img src='stimuli/faces/PCF5.jpg', style='max-width: 30%;'> </img> <p><strong>你是否选择发射武器？</strong></p>","1",""
"","","","","","html-keyboard-response","86","235960","0.0-4.0-0.41","128","1","2022-11-28 03:40:47","7b1eb8be57ff77859c7d9ac988e43411","223.104.31.60","Mozilla/5.0 (Windows NT 10.0; Win64; x64) AppleWebKit/537.36 (KHTML, like Gecko) Chrome/107.0.0.0 Safari/537.36 Edg/107.0.1418.56","WebKit","Edge","107.0.1418.56","Windows","10.0","null","<div style=""font-size:60px;"">+</div>","null",""
"","","","","","html-button-response","87","237319","0.0-4.0-1.41","128","1","2022-11-28 03:40:47","7b1eb8be57ff77859c7d9ac988e43411","223.104.31.60","Mozilla/5.0 (Windows NT 10.0; Win64; x64) AppleWebKit/537.36 (KHTML, like Gecko) Chrome/107.0.0.0 Safari/537.36 Edg/107.0.1418.56","WebKit","Edge","107.0.1418.56","Windows","10.0","1356","<p>作为军队的指挥官，你可以选择发射导弹杀死 <strong>9名</strong> 敌国士兵，但会炸毁附近的 <strong>1棵</strong> 敌国树木。</p> <p>树木的照片如下图所示。</p> <p></p> <img src='stimuli/trees/9.png', style='max-width: 30%;'> </img> <p><strong>你是否选择发射武器？</strong></p>","0",""
"","","","","","html-keyboard-response","88","238326","0.0-4.0-0.42","128","1","2022-11-28 03:40:47","7b1eb8be57ff77859c7d9ac988e43411","223.104.31.60","Mozilla/5.0 (Windows NT 10.0; Win64; x64) AppleWebKit/537.36 (KHTML, like Gecko) Chrome/107.0.0.0 Safari/537.36 Edg/107.0.1418.56","WebKit","Edge","107.0.1418.56","Windows","10.0","null","<div style=""font-size:60px;"">+</div>","null",""
"","","","","","html-button-response","89","239410","0.0-4.0-1.42","128","1","2022-11-28 03:40:47","7b1eb8be57ff77859c7d9ac988e43411","223.104.31.60","Mozilla/5.0 (Windows NT 10.0; Win64; x64) AppleWebKit/537.36 (KHTML, like Gecko) Chrome/107.0.0.0 Safari/537.36 Edg/107.0.1418.56","WebKit","Edge","107.0.1418.56","Windows","10.0","1082","<p>作为军队的指挥官，你可以选择发射导弹杀死 <strong>5名</strong> 敌国士兵，但会炸毁附近的 <strong>1棵</strong> 敌国树木。</p> <p>树木的照片如下图所示。</p> <p></p> <img src='stimuli/trees/7.png', style='max-width: 30%;'> </img> <p><strong>你是否选择发射武器？</strong></p>","0",""
"","","","","","html-keyboard-response","90","240420","0.0-4.0-0.43","128","1","2022-11-28 03:40:47","7b1eb8be57ff77859c7d9ac988e43411","223.104.31.60","Mozilla/5.0 (Windows NT 10.0; Win64; x64) AppleWebKit/537.36 (KHTML, like Gecko) Chrome/107.0.0.0 Safari/537.36 Edg/107.0.1418.56","WebKit","Edge","107.0.1418.56","Windows","10.0","null","<div style=""font-size:60px;"">+</div>","null",""
"","","","","","html-button-response","91","243041","0.0-4.0-1.43","128","1","2022-11-28 03:40:47","7b1eb8be57ff77859c7d9ac988e43411","223.104.31.60","Mozilla/5.0 (Windows NT 10.0; Win64; x64) AppleWebKit/537.36 (KHTML, like Gecko) Chrome/107.0.0.0 Safari/537.36 Edg/107.0.1418.56","WebKit","Edge","107.0.1418.56","Windows","10.0","2618","<p>作为军队的指挥官，你可以选择发射导弹杀死 <strong>9名</strong> 敌国士兵，但会炸毁附近的 <strong>1棵</strong> 敌国树木。</p> <p>树木的照片如下图所示。</p> <p></p> <img src='stimuli/trees/11.png', style='max-width: 30%;'> </img> <p><strong>你是否选择发射武器？</strong></p>","0",""
"","","","","","html-keyboard-response","92","244054","0.0-4.0-0.44","128","1","2022-11-28 03:40:47","7b1eb8be57ff77859c7d9ac988e43411","223.104.31.60","Mozilla/5.0 (Windows NT 10.0; Win64; x64) AppleWebKit/537.36 (KHTML, like Gecko) Chrome/107.0.0.0 Safari/537.36 Edg/107.0.1418.56","WebKit","Edge","107.0.1418.56","Windows","10.0","null","<div style=""font-size:60px;"">+</div>","null",""
"","","","","","html-button-response","93","245877","0.0-4.0-1.44","128","1","2022-11-28 03:40:47","7b1eb8be57ff77859c7d9ac988e43411","223.104.31.60","Mozilla/5.0 (Windows NT 10.0; Win64; x64) AppleWebKit/537.36 (KHTML, like Gecko) Chrome/107.0.0.0 Safari/537.36 Edg/107.0.1418.56","WebKit","Edge","107.0.1418.56","Windows","10.0","1820","<p>作为军队的指挥官，你可以选择发射导弹杀死 <strong>4名</strong> 敌国士兵，但会炸毁附近的 <strong>1棵</strong> 敌国树木。</p> <p>树木的照片如下图所示。</p> <p></p> <img src='stimuli/trees/3.png', style='max-width: 30%;'> </img> <p><strong>你是否选择发射武器？</strong></p>","0",""
"","","","","","html-keyboard-response","94","246900","0.0-4.0-0.45","128","1","2022-11-28 03:40:47","7b1eb8be57ff77859c7d9ac988e43411","223.104.31.60","Mozilla/5.0 (Windows NT 10.0; Win64; x64) AppleWebKit/537.36 (KHTML, like Gecko) Chrome/107.0.0.0 Safari/537.36 Edg/107.0.1418.56","WebKit","Edge","107.0.1418.56","Windows","10.0","null","<div style=""font-size:60px;"">+</div>","null",""
"","","","","","html-button-response","95","248161","0.0-4.0-1.45","128","1","2022-11-28 03:40:47","7b1eb8be57ff77859c7d9ac988e43411","223.104.31.60","Mozilla/5.0 (Windows NT 10.0; Win64; x64) AppleWebKit/537.36 (KHTML, like Gecko) Chrome/107.0.0.0 Safari/537.36 Edg/107.0.1418.56","WebKit","Edge","107.0.1418.56","Windows","10.0","1259","<p>作为军队的指挥官，你可以选择发射导弹杀死 <strong>6名</strong> 敌国士兵，但会误杀附近的 <strong>1名</strong> 敌国平民。</p> <p>平民照片如下图所示。</p> <p></p> <img src='stimuli/faces/PCF6.jpg', style='max-width: 30%;'> </img> <p><strong>你是否选择发射武器？</strong></p>","1",""
"","","","","","html-keyboard-response","96","249174","0.0-4.0-0.46","128","1","2022-11-28 03:40:47","7b1eb8be57ff77859c7d9ac988e43411","223.104.31.60","Mozilla/5.0 (Windows NT 10.0; Win64; x64) AppleWebKit/537.36 (KHTML, like Gecko) Chrome/107.0.0.0 Safari/537.36 Edg/107.0.1418.56","WebKit","Edge","107.0.1418.56","Windows","10.0","null","<div style=""font-size:60px;"">+</div>","null",""
"","","","","","html-button-response","97","250418","0.0-4.0-1.46","128","1","2022-11-28 03:40:47","7b1eb8be57ff77859c7d9ac988e43411","223.104.31.60","Mozilla/5.0 (Windows NT 10.0; Win64; x64) AppleWebKit/537.36 (KHTML, like Gecko) Chrome/107.0.0.0 Safari/537.36 Edg/107.0.1418.56","WebKit","Edge","107.0.1418.56","Windows","10.0","1242","<p>作为军队的指挥官，你可以选择发射导弹杀死 <strong>4名</strong> 敌国士兵，但会炸毁附近的 <strong>1棵</strong> 敌国树木。</p> <p>树木的照片如下图所示。</p> <p></p> <img src='stimuli/trees/8.png', style='max-width: 30%;'> </img> <p><strong>你是否选择发射武器？</strong></p>","1",""
"","","","","","html-keyboard-response","98","251424","0.0-4.0-0.47","128","1","2022-11-28 03:40:47","7b1eb8be57ff77859c7d9ac988e43411","223.104.31.60","Mozilla/5.0 (Windows NT 10.0; Win64; x64) AppleWebKit/537.36 (KHTML, like Gecko) Chrome/107.0.0.0 Safari/537.36 Edg/107.0.1418.56","WebKit","Edge","107.0.1418.56","Windows","10.0","null","<div style=""font-size:60px;"">+</div>","null",""
"","","","","","html-button-response","99","252186","0.0-4.0-1.47","128","1","2022-11-28 03:40:47","7b1eb8be57ff77859c7d9ac988e43411","223.104.31.60","Mozilla/5.0 (Windows NT 10.0; Win64; x64) AppleWebKit/537.36 (KHTML, like Gecko) Chrome/107.0.0.0 Safari/537.36 Edg/107.0.1418.56","WebKit","Edge","107.0.1418.56","Windows","10.0","759","<p>作为军队的指挥官，你可以选择发射导弹杀死 <strong>7名</strong> 敌国士兵，但会误杀附近的 <strong>1名</strong> 敌国平民。</p> <p>平民照片如下图所示。</p> <p></p> <img src='stimuli/faces/PCF1.jpg', style='max-width: 30%;'> </img> <p><strong>你是否选择发射武器？</strong></p>","1",""
"","","","","","html-keyboard-response","100","253205","0.0-4.0-0.48","128","1","2022-11-28 03:40:47","7b1eb8be57ff77859c7d9ac988e43411","223.104.31.60","Mozilla/5.0 (Windows NT 10.0; Win64; x64) AppleWebKit/537.36 (KHTML, like Gecko) Chrome/107.0.0.0 Safari/537.36 Edg/107.0.1418.56","WebKit","Edge","107.0.1418.56","Windows","10.0","null","<div style=""font-size:60px;"">+</div>","null",""
"","","","","","html-button-response","101","253980","0.0-4.0-1.48","128","1","2022-11-28 03:40:47","7b1eb8be57ff77859c7d9ac988e43411","223.104.31.60","Mozilla/5.0 (Windows NT 10.0; Win64; x64) AppleWebKit/537.36 (KHTML, like Gecko) Chrome/107.0.0.0 Safari/537.36 Edg/107.0.1418.56","WebKit","Edge","107.0.1418.56","Windows","10.0","772","<p>作为军队的指挥官，你可以选择发射导弹杀死 <strong>5名</strong> 敌国士兵，但会误杀附近的 <strong>1名</strong> 敌国平民。</p> <p>平民照片如下图所示。</p> <p></p> <img src='stimuli/faces/PCF1.jpg', style='max-width: 30%;'> </img> <p><strong>你是否选择发射武器？</strong></p>","1",""
"","","","","","html-keyboard-response","102","254992","0.0-4.0-0.49","128","1","2022-11-28 03:40:47","7b1eb8be57ff77859c7d9ac988e43411","223.104.31.60","Mozilla/5.0 (Windows NT 10.0; Win64; x64) AppleWebKit/537.36 (KHTML, like Gecko) Chrome/107.0.0.0 Safari/537.36 Edg/107.0.1418.56","WebKit","Edge","107.0.1418.56","Windows","10.0","null","<div style=""font-size:60px;"">+</div>","null",""
"","","","","","html-button-response","103","255616","0.0-4.0-1.49","128","1","2022-11-28 03:40:47","7b1eb8be57ff77859c7d9ac988e43411","223.104.31.60","Mozilla/5.0 (Windows NT 10.0; Win64; x64) AppleWebKit/537.36 (KHTML, like Gecko) Chrome/107.0.0.0 Safari/537.36 Edg/107.0.1418.56","WebKit","Edge","107.0.1418.56","Windows","10.0","621","<p>作为军队的指挥官，你可以选择发射导弹杀死 <strong>9名</strong> 敌国士兵，但会误杀附近的 <strong>1名</strong> 敌国平民。</p> <p>平民照片如下图所示。</p> <p></p> <img src='stimuli/faces/PCM5.jpg', style='max-width: 30%;'> </img> <p><strong>你是否选择发射武器？</strong></p>","1",""
"","","","","","html-keyboard-response","104","256622","0.0-4.0-0.50","128","1","2022-11-28 03:40:47","7b1eb8be57ff77859c7d9ac988e43411","223.104.31.60","Mozilla/5.0 (Windows NT 10.0; Win64; x64) AppleWebKit/537.36 (KHTML, like Gecko) Chrome/107.0.0.0 Safari/537.36 Edg/107.0.1418.56","WebKit","Edge","107.0.1418.56","Windows","10.0","null","<div style=""font-size:60px;"">+</div>","null",""
"","","","","","html-button-response","105","257191","0.0-4.0-1.50","128","1","2022-11-28 03:40:47","7b1eb8be57ff77859c7d9ac988e43411","223.104.31.60","Mozilla/5.0 (Windows NT 10.0; Win64; x64) AppleWebKit/537.36 (KHTML, like Gecko) Chrome/107.0.0.0 Safari/537.36 Edg/107.0.1418.56","WebKit","Edge","107.0.1418.56","Windows","10.0","566","<p>作为军队的指挥官，你可以选择发射导弹杀死 <strong>1名</strong> 敌国士兵，但会误杀附近的 <strong>1名</strong> 敌国平民。</p> <p>平民照片如下图所示。</p> <p></p> <img src='stimuli/faces/PCF2.jpg', style='max-width: 30%;'> </img> <p><strong>你是否选择发射武器？</strong></p>","1",""
"","","","","","html-keyboard-response","106","258203","0.0-4.0-0.51","128","1","2022-11-28 03:40:47","7b1eb8be57ff77859c7d9ac988e43411","223.104.31.60","Mozilla/5.0 (Windows NT 10.0; Win64; x64) AppleWebKit/537.36 (KHTML, like Gecko) Chrome/107.0.0.0 Safari/537.36 Edg/107.0.1418.56","WebKit","Edge","107.0.1418.56","Windows","10.0","null","<div style=""font-size:60px;"">+</div>","null",""
"","","","","","html-button-response","107","259781","0.0-4.0-1.51","128","1","2022-11-28 03:40:47","7b1eb8be57ff77859c7d9ac988e43411","223.104.31.60","Mozilla/5.0 (Windows NT 10.0; Win64; x64) AppleWebKit/537.36 (KHTML, like Gecko) Chrome/107.0.0.0 Safari/537.36 Edg/107.0.1418.56","WebKit","Edge","107.0.1418.56","Windows","10.0","1575","<p>作为军队的指挥官，你可以选择发射导弹杀死 <strong>7名</strong> 敌国士兵，但会炸毁附近的 <strong>1棵</strong> 敌国树木。</p> <p>树木的照片如下图所示。</p> <p></p> <img src='stimuli/trees/8.png', style='max-width: 30%;'> </img> <p><strong>你是否选择发射武器？</strong></p>","1",""
"","","","","","html-keyboard-response","108","260799","0.0-4.0-0.52","128","1","2022-11-28 03:40:47","7b1eb8be57ff77859c7d9ac988e43411","223.104.31.60","Mozilla/5.0 (Windows NT 10.0; Win64; x64) AppleWebKit/537.36 (KHTML, like Gecko) Chrome/107.0.0.0 Safari/537.36 Edg/107.0.1418.56","WebKit","Edge","107.0.1418.56","Windows","10.0","null","<div style=""font-size:60px;"">+</div>","null",""
"","","","","","html-button-response","109","262056","0.0-4.0-1.52","128","1","2022-11-28 03:40:47","7b1eb8be57ff77859c7d9ac988e43411","223.104.31.60","Mozilla/5.0 (Windows NT 10.0; Win64; x64) AppleWebKit/537.36 (KHTML, like Gecko) Chrome/107.0.0.0 Safari/537.36 Edg/107.0.1418.56","WebKit","Edge","107.0.1418.56","Windows","10.0","1254","<p>作为军队的指挥官，你可以选择发射导弹杀死 <strong>1名</strong> 敌国士兵，但会炸毁附近的 <strong>1棵</strong> 敌国树木。</p> <p>树木的照片如下图所示。</p> <p></p> <img src='stimuli/trees/1.png', style='max-width: 30%;'> </img> <p><strong>你是否选择发射武器？</strong></p>","1",""
"","","","","","html-keyboard-response","110","263071","0.0-4.0-0.53","128","1","2022-11-28 03:40:47","7b1eb8be57ff77859c7d9ac988e43411","223.104.31.60","Mozilla/5.0 (Windows NT 10.0; Win64; x64) AppleWebKit/537.36 (KHTML, like Gecko) Chrome/107.0.0.0 Safari/537.36 Edg/107.0.1418.56","WebKit","Edge","107.0.1418.56","Windows","10.0","null","<div style=""font-size:60px;"">+</div>","null",""
"","","","","","html-button-response","111","264016","0.0-4.0-1.53","128","1","2022-11-28 03:40:47","7b1eb8be57ff77859c7d9ac988e43411","223.104.31.60","Mozilla/5.0 (Windows NT 10.0; Win64; x64) AppleWebKit/537.36 (KHTML, like Gecko) Chrome/107.0.0.0 Safari/537.36 Edg/107.0.1418.56","WebKit","Edge","107.0.1418.56","Windows","10.0","942","<p>作为军队的指挥官，你可以选择发射导弹杀死 <strong>2名</strong> 敌国士兵，但会误杀附近的 <strong>1名</strong> 敌国平民。</p> <p>平民照片如下图所示。</p> <p></p> <img src='stimuli/faces/PCM1.jpg', style='max-width: 30%;'> </img> <p><strong>你是否选择发射武器？</strong></p>","1",""
"","","","","","html-keyboard-response","112","265022","0.0-4.0-0.54","128","1","2022-11-28 03:40:47","7b1eb8be57ff77859c7d9ac988e43411","223.104.31.60","Mozilla/5.0 (Windows NT 10.0; Win64; x64) AppleWebKit/537.36 (KHTML, like Gecko) Chrome/107.0.0.0 Safari/537.36 Edg/107.0.1418.56","WebKit","Edge","107.0.1418.56","Windows","10.0","null","<div style=""font-size:60px;"">+</div>","null",""
"","","","","","html-button-response","113","267131","0.0-4.0-1.54","128","1","2022-11-28 03:40:47","7b1eb8be57ff77859c7d9ac988e43411","223.104.31.60","Mozilla/5.0 (Windows NT 10.0; Win64; x64) AppleWebKit/537.36 (KHTML, like Gecko) Chrome/107.0.0.0 Safari/537.36 Edg/107.0.1418.56","WebKit","Edge","107.0.1418.56","Windows","10.0","2106","<p>作为军队的指挥官，你可以选择发射导弹杀死 <strong>2名</strong> 敌国士兵，但会炸毁附近的 <strong>1棵</strong> 敌国树木。</p> <p>树木的照片如下图所示。</p> <p></p> <img src='stimuli/trees/2.png', style='max-width: 30%;'> </img> <p><strong>你是否选择发射武器？</strong></p>","0",""
"","","","","","html-keyboard-response","114","268155","0.0-4.0-0.55","128","1","2022-11-28 03:40:47","7b1eb8be57ff77859c7d9ac988e43411","223.104.31.60","Mozilla/5.0 (Windows NT 10.0; Win64; x64) AppleWebKit/537.36 (KHTML, like Gecko) Chrome/107.0.0.0 Safari/537.36 Edg/107.0.1418.56","WebKit","Edge","107.0.1418.56","Windows","10.0","null","<div style=""font-size:60px;"">+</div>","null",""
"","","","","","html-button-response","115","269074","0.0-4.0-1.55","128","1","2022-11-28 03:40:47","7b1eb8be57ff77859c7d9ac988e43411","223.104.31.60","Mozilla/5.0 (Windows NT 10.0; Win64; x64) AppleWebKit/537.36 (KHTML, like Gecko) Chrome/107.0.0.0 Safari/537.36 Edg/107.0.1418.56","WebKit","Edge","107.0.1418.56","Windows","10.0","916","<p>作为军队的指挥官，你可以选择发射导弹杀死 <strong>5名</strong> 敌国士兵，但会误杀附近的 <strong>1名</strong> 敌国平民。</p> <p>平民照片如下图所示。</p> <p></p> <img src='stimuli/faces/PCM7.jpg', style='max-width: 30%;'> </img> <p><strong>你是否选择发射武器？</strong></p>","1",""
"","","","","","html-keyboard-response","116","270093","0.0-4.0-0.56","128","1","2022-11-28 03:40:47","7b1eb8be57ff77859c7d9ac988e43411","223.104.31.60","Mozilla/5.0 (Windows NT 10.0; Win64; x64) AppleWebKit/537.36 (KHTML, like Gecko) Chrome/107.0.0.0 Safari/537.36 Edg/107.0.1418.56","WebKit","Edge","107.0.1418.56","Windows","10.0","null","<div style=""font-size:60px;"">+</div>","null",""
"","","","","","html-button-response","117","270850","0.0-4.0-1.56","128","1","2022-11-28 03:40:47","7b1eb8be57ff77859c7d9ac988e43411","223.104.31.60","Mozilla/5.0 (Windows NT 10.0; Win64; x64) AppleWebKit/537.36 (KHTML, like Gecko) Chrome/107.0.0.0 Safari/537.36 Edg/107.0.1418.56","WebKit","Edge","107.0.1418.56","Windows","10.0","754","<p>作为军队的指挥官，你可以选择发射导弹杀死 <strong>6名</strong> 敌国士兵，但会炸毁附近的 <strong>1棵</strong> 敌国树木。</p> <p>树木的照片如下图所示。</p> <p></p> <img src='stimuli/trees/3.png', style='max-width: 30%;'> </img> <p><strong>你是否选择发射武器？</strong></p>","1",""
"","","","","","html-keyboard-response","118","271863","0.0-4.0-0.57","128","1","2022-11-28 03:40:47","7b1eb8be57ff77859c7d9ac988e43411","223.104.31.60","Mozilla/5.0 (Windows NT 10.0; Win64; x64) AppleWebKit/537.36 (KHTML, like Gecko) Chrome/107.0.0.0 Safari/537.36 Edg/107.0.1418.56","WebKit","Edge","107.0.1418.56","Windows","10.0","null","<div style=""font-size:60px;"">+</div>","null",""
"","","","","","html-button-response","119","272880","0.0-4.0-1.57","128","1","2022-11-28 03:40:47","7b1eb8be57ff77859c7d9ac988e43411","223.104.31.60","Mozilla/5.0 (Windows NT 10.0; Win64; x64) AppleWebKit/537.36 (KHTML, like Gecko) Chrome/107.0.0.0 Safari/537.36 Edg/107.0.1418.56","WebKit","Edge","107.0.1418.56","Windows","10.0","1014","<p>作为军队的指挥官，你可以选择发射导弹杀死 <strong>7名</strong> 敌国士兵，但会炸毁附近的 <strong>1棵</strong> 敌国树木。</p> <p>树木的照片如下图所示。</p> <p></p> <img src='stimuli/trees/14.png', style='max-width: 30%;'> </img> <p><strong>你是否选择发射武器？</strong></p>","0",""
"","","","","","html-keyboard-response","120","273894","0.0-4.0-0.58","128","1","2022-11-28 03:40:47","7b1eb8be57ff77859c7d9ac988e43411","223.104.31.60","Mozilla/5.0 (Windows NT 10.0; Win64; x64) AppleWebKit/537.36 (KHTML, like Gecko) Chrome/107.0.0.0 Safari/537.36 Edg/107.0.1418.56","WebKit","Edge","107.0.1418.56","Windows","10.0","null","<div style=""font-size:60px;"">+</div>","null",""
"","","","","","html-button-response","121","274884","0.0-4.0-1.58","128","1","2022-11-28 03:40:47","7b1eb8be57ff77859c7d9ac988e43411","223.104.31.60","Mozilla/5.0 (Windows NT 10.0; Win64; x64) AppleWebKit/537.36 (KHTML, like Gecko) Chrome/107.0.0.0 Safari/537.36 Edg/107.0.1418.56","WebKit","Edge","107.0.1418.56","Windows","10.0","988","<p>作为军队的指挥官，你可以选择发射导弹杀死 <strong>5名</strong> 敌国士兵，但会炸毁附近的 <strong>1棵</strong> 敌国树木。</p> <p>树木的照片如下图所示。</p> <p></p> <img src='stimuli/trees/16.png', style='max-width: 30%;'> </img> <p><strong>你是否选择发射武器？</strong></p>","0",""
"","","","","","html-keyboard-response","122","275894","0.0-4.0-0.59","128","1","2022-11-28 03:40:47","7b1eb8be57ff77859c7d9ac988e43411","223.104.31.60","Mozilla/5.0 (Windows NT 10.0; Win64; x64) AppleWebKit/537.36 (KHTML, like Gecko) Chrome/107.0.0.0 Safari/537.36 Edg/107.0.1418.56","WebKit","Edge","107.0.1418.56","Windows","10.0","null","<div style=""font-size:60px;"">+</div>","null",""
"","","","","","html-button-response","123","278157","0.0-4.0-1.59","128","1","2022-11-28 03:40:47","7b1eb8be57ff77859c7d9ac988e43411","223.104.31.60","Mozilla/5.0 (Windows NT 10.0; Win64; x64) AppleWebKit/537.36 (KHTML, like Gecko) Chrome/107.0.0.0 Safari/537.36 Edg/107.0.1418.56","WebKit","Edge","107.0.1418.56","Windows","10.0","2259","<p>作为军队的指挥官，你可以选择发射导弹杀死 <strong>6名</strong> 敌国士兵，但会炸毁附近的 <strong>1棵</strong> 敌国树木。</p> <p>树木的照片如下图所示。</p> <p></p> <img src='stimuli/trees/1.png', style='max-width: 30%;'> </img> <p><strong>你是否选择发射武器？</strong></p>","1",""
"","","","","","html-keyboard-response","124","279175","0.0-4.0-0.60","128","1","2022-11-28 03:40:47","7b1eb8be57ff77859c7d9ac988e43411","223.104.31.60","Mozilla/5.0 (Windows NT 10.0; Win64; x64) AppleWebKit/537.36 (KHTML, like Gecko) Chrome/107.0.0.0 Safari/537.36 Edg/107.0.1418.56","WebKit","Edge","107.0.1418.56","Windows","10.0","null","<div style=""font-size:60px;"">+</div>","null",""
"","","","","","html-button-response","125","279845","0.0-4.0-1.60","128","1","2022-11-28 03:40:47","7b1eb8be57ff77859c7d9ac988e43411","223.104.31.60","Mozilla/5.0 (Windows NT 10.0; Win64; x64) AppleWebKit/537.36 (KHTML, like Gecko) Chrome/107.0.0.0 Safari/537.36 Edg/107.0.1418.56","WebKit","Edge","107.0.1418.56","Windows","10.0","667","<p>作为军队的指挥官，你可以选择发射导弹杀死 <strong>8名</strong> 敌国士兵，但会误杀附近的 <strong>1名</strong> 敌国平民。</p> <p>平民照片如下图所示。</p> <p></p> <img src='stimuli/faces/PCM1.jpg', style='max-width: 30%;'> </img> <p><strong>你是否选择发射武器？</strong></p>","1",""
"","","","","","html-keyboard-response","126","280855","0.0-4.0-0.61","128","1","2022-11-28 03:40:47","7b1eb8be57ff77859c7d9ac988e43411","223.104.31.60","Mozilla/5.0 (Windows NT 10.0; Win64; x64) AppleWebKit/537.36 (KHTML, like Gecko) Chrome/107.0.0.0 Safari/537.36 Edg/107.0.1418.56","WebKit","Edge","107.0.1418.56","Windows","10.0","null","<div style=""font-size:60px;"">+</div>","null",""
"","","","","","html-button-response","127","281578","0.0-4.0-1.61","128","1","2022-11-28 03:40:47","7b1eb8be57ff77859c7d9ac988e43411","223.104.31.60","Mozilla/5.0 (Windows NT 10.0; Win64; x64) AppleWebKit/537.36 (KHTML, like Gecko) Chrome/107.0.0.0 Safari/537.36 Edg/107.0.1418.56","WebKit","Edge","107.0.1418.56","Windows","10.0","720","<p>作为军队的指挥官，你可以选择发射导弹杀死 <strong>2名</strong> 敌国士兵，但会误杀附近的 <strong>1名</strong> 敌国平民。</p> <p>平民照片如下图所示。</p> <p></p> <img src='stimuli/faces/PCF8.jpg', style='max-width: 30%;'> </img> <p><strong>你是否选择发射武器？</strong></p>","1",""
"","","","","","html-keyboard-response","128","282586","0.0-4.0-0.62","128","1","2022-11-28 03:40:47","7b1eb8be57ff77859c7d9ac988e43411","223.104.31.60","Mozilla/5.0 (Windows NT 10.0; Win64; x64) AppleWebKit/537.36 (KHTML, like Gecko) Chrome/107.0.0.0 Safari/537.36 Edg/107.0.1418.56","WebKit","Edge","107.0.1418.56","Windows","10.0","null","<div style=""font-size:60px;"">+</div>","null",""
"","","","","","html-button-response","129","283355","0.0-4.0-1.62","128","1","2022-11-28 03:40:47","7b1eb8be57ff77859c7d9ac988e43411","223.104.31.60","Mozilla/5.0 (Windows NT 10.0; Win64; x64) AppleWebKit/537.36 (KHTML, like Gecko) Chrome/107.0.0.0 Safari/537.36 Edg/107.0.1418.56","WebKit","Edge","107.0.1418.56","Windows","10.0","765","<p>作为军队的指挥官，你可以选择发射导弹杀死 <strong>10名</strong> 敌国士兵，但会炸毁附近的 <strong>1棵</strong> 敌国树木。</p> <p>树木的照片如下图所示。</p> <p></p> <img src='stimuli/trees/2.png', style='max-width: 30%;'> </img> <p><strong>你是否选择发射武器？</strong></p>","1",""
"","","","","","html-keyboard-response","130","284377","0.0-4.0-0.63","128","1","2022-11-28 03:40:47","7b1eb8be57ff77859c7d9ac988e43411","223.104.31.60","Mozilla/5.0 (Windows NT 10.0; Win64; x64) AppleWebKit/537.36 (KHTML, like Gecko) Chrome/107.0.0.0 Safari/537.36 Edg/107.0.1418.56","WebKit","Edge","107.0.1418.56","Windows","10.0","null","<div style=""font-size:60px;"">+</div>","null",""
"","","","","","html-button-response","131","285831","0.0-4.0-1.63","128","1","2022-11-28 03:40:47","7b1eb8be57ff77859c7d9ac988e43411","223.104.31.60","Mozilla/5.0 (Windows NT 10.0; Win64; x64) AppleWebKit/537.36 (KHTML, like Gecko) Chrome/107.0.0.0 Safari/537.36 Edg/107.0.1418.56","WebKit","Edge","107.0.1418.56","Windows","10.0","1450","<p>作为军队的指挥官，你可以选择发射导弹杀死 <strong>9名</strong> 敌国士兵，但会误杀附近的 <strong>1名</strong> 敌国平民。</p> <p>平民照片如下图所示。</p> <p></p> <img src='stimuli/faces/PCF2.jpg', style='max-width: 30%;'> </img> <p><strong>你是否选择发射武器？</strong></p>","1",""
"","","","","","survey-multi-choice","132","291440","0.0-5.0","128","1","2022-11-28 03:40:47","7b1eb8be57ff77859c7d9ac988e43411","223.104.31.60","Mozilla/5.0 (Windows NT 10.0; Win64; x64) AppleWebKit/537.36 (KHTML, like Gecko) Chrome/107.0.0.0 Safari/537.36 Edg/107.0.1418.56","WebKit","Edge","107.0.1418.56","Windows","10.0","5605","","{""Attention1"":""""}","[0]"
"","","","","","html-button-response","133","294624","0.0-6.0","128","1","2022-11-28 03:40:47","7b1eb8be57ff77859c7d9ac988e43411","223.104.31.60","Mozilla/5.0 (Windows NT 10.0; Win64; x64) AppleWebKit/537.36 (KHTML, like Gecko) Chrome/107.0.0.0 Safari/537.36 Edg/107.0.1418.56","WebKit","Edge","107.0.1418.56","Windows","10.0","3180","<p style=""font-size:20px;font-weight:bold;"">恭喜！</p><p>你已经完成了实验的第一部分。</p><p>请休息放松一下，然后进入第二部分。</p><p>这部分大约需要10分钟。</p>","0",""
"","","","","","survey-text","134","334553","0.0-7.0","128","1","2022-11-28 03:40:47","7b1eb8be57ff77859c7d9ac988e43411","223.104.31.60","Mozilla/5.0 (Windows NT 10.0; Win64; x64) AppleWebKit/537.36 (KHTML, like Gecko) Chrome/107.0.0.0 Safari/537.36 Edg/107.0.1418.56","WebKit","Edge","107.0.1418.56","Windows","10.0","38906","","{""Age"":""22"",""Nation"":""中国"",""Born"":""江西宜春"",""Live"":""江西宜春"",""Ethnic"":""汉族"",""Alipay"":""18270567132"",""ID"":""""}",""
"","","","","","survey-multi-choice","135","346323","0.0-8.0","128","1","2022-11-28 03:40:47","7b1eb8be57ff77859c7d9ac988e43411","223.104.31.60","Mozilla/5.0 (Windows NT 10.0; Win64; x64) AppleWebKit/537.36 (KHTML, like Gecko) Chrome/107.0.0.0 Safari/537.36 Edg/107.0.1418.56","WebKit","Edge","107.0.1418.56","Windows","10.0","11765","","{""Gender"":""女"",""Education"":""本科毕业"",""Income"":""￥0-￥34,999"",""Children"":""0"",""Race"":""亚洲人""}","[0,1,2,3,4]"
"","","","","","survey-multi-select","136","351205","0.0-9.0","128","1","2022-11-28 03:40:47","7b1eb8be57ff77859c7d9ac988e43411","223.104.31.60","Mozilla/5.0 (Windows NT 10.0; Win64; x64) AppleWebKit/537.36 (KHTML, like Gecko) Chrome/107.0.0.0 Safari/537.36 Edg/107.0.1418.56","WebKit","Edge","107.0.1418.56","Windows","10.0","4874","","{""Marriage"":[""未婚""],""Religion"":[""无宗教信仰""]}","[0,1]"
"","","","","","survey-multi-choice","137","356892","0.0-10.0","128","1","2022-11-28 03:40:47","7b1eb8be57ff77859c7d9ac988e43411","223.104.31.60","Mozilla/5.0 (Windows NT 10.0; Win64; x64) AppleWebKit/537.36 (KHTML, like Gecko) Chrome/107.0.0.0 Safari/537.36 Edg/107.0.1418.56","WebKit","Edge","107.0.1418.56","Windows","10.0","5684","","{""SES"":""5""}","[0]"
"","","","","","html-button-response","138","359307","0.0-11.0","128","1","2022-11-28 03:40:47","7b1eb8be57ff77859c7d9ac988e43411","223.104.31.60","Mozilla/5.0 (Windows NT 10.0; Win64; x64) AppleWebKit/537.36 (KHTML, like Gecko) Chrome/107.0.0.0 Safari/537.36 Edg/107.0.1418.56","WebKit","Edge","107.0.1418.56","Windows","10.0","2410","<p><strong>请判断下列陈述在多大程度上可以形容你？</p><p> (1 = ""和我一点都不像"" to 5 = ""非常像我"".)</strong></p>","0",""
"","","","","","survey-likert","139","381647","0.0-12.0","128","1","2022-11-28 03:40:47","7b1eb8be57ff77859c7d9ac988e43411","223.104.31.60","Mozilla/5.0 (Windows NT 10.0; Win64; x64) AppleWebKit/537.36 (KHTML, like Gecko) Chrome/107.0.0.0 Safari/537.36 Edg/107.0.1418.56","WebKit","Edge","107.0.1418.56","Windows","10.0","22337","","{""Aggression1"":1,""Aggression2"":2,""Aggression3"":3,""Aggression4"":1,""Aggression5"":3,""Aggression6"":3,""Aggression7"":4,""Aggression8"":1,""Aggression9"":0}","[0,1,2,3,4,5,6,7,8]"
"","","","","","html-button-response","140","383099","0.0-13.0","128","1","2022-11-28 03:40:47","7b1eb8be57ff77859c7d9ac988e43411","223.104.31.60","Mozilla/5.0 (Windows NT 10.0; Win64; x64) AppleWebKit/537.36 (KHTML, like Gecko) Chrome/107.0.0.0 Safari/537.36 Edg/107.0.1418.56","WebKit","Edge","107.0.1418.56","Windows","10.0","1448","<p><strong>请判断你在多大程度上同意下列陈述。</strong></p>","0",""
"","","","","","survey-likert","141","461232","0.0-14.0","128","1","2022-11-28 03:40:47","7b1eb8be57ff77859c7d9ac988e43411","223.104.31.60","Mozilla/5.0 (Windows NT 10.0; Win64; x64) AppleWebKit/537.36 (KHTML, like Gecko) Chrome/107.0.0.0 Safari/537.36 Edg/107.0.1418.56","WebKit","Edge","107.0.1418.56","Windows","10.0","78129","","{""scale6"":2,""scale5"":3,""scale26"":3,""scale23"":3,""scale11"":3,""scale14"":1,""scale1"":2,""scale20"":2,""scale18"":1,""scale7"":2,""scale9"":2,""scale17"":1,""scale25"":2,""scale28"":2,""scale2"":3,""scale4"":1,""scale12"":1,""scale22"":2,""scale16"":2,""scale27"":1,""scale21"":3,""scale10"":2,""scale13"":1,""scale3"":3,""scale24"":1,""scale15"":3,""scale8"":3,""scale19"":3}","[5,4,25,22,10,13,0,19,17,6,8,16,24,27,1,3,11,21,15,26,20,9,12,2,23,14,7,18]"
"","","","","","html-button-response","142","463103","0.0-15.0","128","1","2022-11-28 03:40:47","7b1eb8be57ff77859c7d9ac988e43411","223.104.31.60","Mozilla/5.0 (Windows NT 10.0; Win64; x64) AppleWebKit/537.36 (KHTML, like Gecko) Chrome/107.0.0.0 Safari/537.36 Edg/107.0.1418.56","WebKit","Edge","107.0.1418.56","Windows","10.0","1866","<p><strong>请判断你在多大程度上同意下列陈述。</strong></p>","0",""
"","","","","","survey-likert","143","505638","0.0-16.0","128","1","2022-11-28 03:40:47","7b1eb8be57ff77859c7d9ac988e43411","223.104.31.60","Mozilla/5.0 (Windows NT 10.0; Win64; x64) AppleWebKit/537.36 (KHTML, like Gecko) Chrome/107.0.0.0 Safari/537.36 Edg/107.0.1418.56","WebKit","Edge","107.0.1418.56","Windows","10.0","42532","","{""sdo14"":4,""sdo3"":5,""sdo16"":5,""sdo10"":5,""sdo5"":3,""sdo7"":3,""sdo9"":4,""sdo2"":2,""sdo12"":4,""sdo15"":3,""sdo6"":4,""sdo1"":0,""sdo8"":1,""sdo11"":4,""sdo4"":1,""sdo13"":5}","[13,2,15,9,4,6,8,1,11,14,5,0,7,10,3,12]"
"","","","","","html-button-response","144","507152","0.0-17.0","128","1","2022-11-28 03:40:47","7b1eb8be57ff77859c7d9ac988e43411","223.104.31.60","Mozilla/5.0 (Windows NT 10.0; Win64; x64) AppleWebKit/537.36 (KHTML, like Gecko) Chrome/107.0.0.0 Safari/537.36 Edg/107.0.1418.56","WebKit","Edge","107.0.1418.56","Windows","10.0","1510","<p><strong>请判断你在多大程度上同意下列陈述。</strong></p>","0",""
"","","","","","survey-likert","145","539267","0.0-18.0","128","1","2022-11-28 03:40:47","7b1eb8be57ff77859c7d9ac988e43411","223.104.31.60","Mozilla/5.0 (Windows NT 10.0; Win64; x64) AppleWebKit/537.36 (KHTML, like Gecko) Chrome/107.0.0.0 Safari/537.36 Edg/107.0.1418.56","WebKit","Edge","107.0.1418.56","Windows","10.0","32110","","{""caring1"":3,""liking1"":1,""caring2"":3,""protection1"":2,""liking2"":2,""caring3"":3,""protection2"":1,""liking3"":1,""protection3"":3,""caring4"":3,""liking4"":1,""protection4"":2,""caring5"":4,""liking5"":2,""protection5"":2}","[0,1,2,3,4,5,6,7,8,9,10,11,12,13,14]"
"","","","","","html-button-response","146","540884","0.0-19.0","128","1","2022-11-28 03:40:47","7b1eb8be57ff77859c7d9ac988e43411","223.104.31.60","Mozilla/5.0 (Windows NT 10.0; Win64; x64) AppleWebKit/537.36 (KHTML, like Gecko) Chrome/107.0.0.0 Safari/537.36 Edg/107.0.1418.56","WebKit","Edge","107.0.1418.56","Windows","10.0","1613","<p><strong>请判断下列场景中你的内心感受有多柔软。</strong></p>","0",""
"","","","","","survey-likert","147","567180","0.0-20.0","128","1","2022-11-28 03:40:47","7b1eb8be57ff77859c7d9ac988e43411","223.104.31.60","Mozilla/5.0 (Windows NT 10.0; Win64; x64) AppleWebKit/537.36 (KHTML, like Gecko) Chrome/107.0.0.0 Safari/537.36 Edg/107.0.1418.56","WebKit","Edge","107.0.1418.56","Windows","10.0","26292","","{""tenderness-positive1"":3,""tenderness-negative1"":3,""tenderness-negative2"":2,""tenderness-positive2"":4,""tenderness-positive3"":3,""tenderness-negative3"":2,""tenderness-positive4"":3,""tenderness-negative4"":3,""tenderness-negative5"":4,""tenderness-positive5"":3}","[0,1,2,3,4,5,6,7,8,9]"
"","","","","","survey-multi-choice","148","572779","0.0-21.0","128","1","2022-11-28 03:40:47","7b1eb8be57ff77859c7d9ac988e43411","223.104.31.60","Mozilla/5.0 (Windows NT 10.0; Win64; x64) AppleWebKit/537.36 (KHTML, like Gecko) Chrome/107.0.0.0 Safari/537.36 Edg/107.0.1418.56","WebKit","Edge","107.0.1418.56","Windows","10.0","5596","","{""Attention2"":""其他""}","[0]"
"","","","","","html-button-response","149","574083","0.0-22.0","128","1","2022-11-28 03:40:47","7b1eb8be57ff77859c7d9ac988e43411","223.104.31.60","Mozilla/5.0 (Windows NT 10.0; Win64; x64) AppleWebKit/537.36 (KHTML, like Gecko) Chrome/107.0.0.0 Safari/537.36 Edg/107.0.1418.56","WebKit","Edge","107.0.1418.56","Windows","10.0","1299","<p><strong>请判断你在多大程度上同意下列陈述。</strong></p>","0",""
"","","","","","survey-likert","150","632982","0.0-23.0","128","1","2022-11-28 03:40:47","7b1eb8be57ff77859c7d9ac988e43411","223.104.31.60","Mozilla/5.0 (Windows NT 10.0; Win64; x64) AppleWebKit/537.36 (KHTML, like Gecko) Chrome/107.0.0.0 Safari/537.36 Edg/107.0.1418.56","WebKit","Edge","107.0.1418.56","Windows","10.0","58895","","{""Nation4"":3,""Nation8"":3,""Patri5"":4,""Patri6"":0,""Nation1"":3,""Patri4"":4,""Nation5"":3,""Patri3"":4,""Patri10"":0,""Patri8"":4,""Patri2"":4,""Nation3"":0,""Nation2"":4,""Nation6"":3,""Patri12"":0,""Patri1"":4,""Nation7"":3,""Patri11"":0,""Patri7"":4,""Patri9"":0}","[15,19,4,5,12,3,16,2,9,7,1,14,13,17,11,0,18,10,6,8]"
"","","","","","html-button-response","151","634503","0.0-24.0","128","1","2022-11-28 03:40:47","7b1eb8be57ff77859c7d9ac988e43411","223.104.31.60","Mozilla/5.0 (Windows NT 10.0; Win64; x64) AppleWebKit/537.36 (KHTML, like Gecko) Chrome/107.0.0.0 Safari/537.36 Edg/107.0.1418.56","WebKit","Edge","107.0.1418.56","Windows","10.0","1517","<p><strong>请判断你在多大程度上同意下列陈述。</strong></p>","0",""
"","","","","","survey-likert","152","683533","0.0-25.0","128","1","2022-11-28 03:40:47","7b1eb8be57ff77859c7d9ac988e43411","223.104.31.60","Mozilla/5.0 (Windows NT 10.0; Win64; x64) AppleWebKit/537.36 (KHTML, like Gecko) Chrome/107.0.0.0 Safari/537.36 Edg/107.0.1418.56","WebKit","Edge","107.0.1418.56","Windows","10.0","49025","","{""vc2"":6,""vi4"":4,""hc1"":7,""hi1"":6,""hi2"":6,""hc4"":7,""vi1"":7,""hi4"":7,""vc1"":6,""hc2"":7,""hi3"":6,""Robot"":6,""hc3"":7,""vi3"":8,""vc3"":7,""vc4"":8,""vi2"":4}","[14,8,9,0,1,12,4,3,13,10,2,7,11,6,15,16,5]"
"","","","","","survey-text","153","690270","0.0-26.0","128","1","2022-11-28 03:40:47","7b1eb8be57ff77859c7d9ac988e43411","223.104.31.60","Mozilla/5.0 (Windows NT 10.0; Win64; x64) AppleWebKit/537.36 (KHTML, like Gecko) Chrome/107.0.0.0 Safari/537.36 Edg/107.0.1418.56","WebKit","Edge","107.0.1418.56","Windows","10.0","6727","","{""Comments"":""无""}",""
"","","","","","html-button-response","154","692474","0.0-27.0","128","1","2022-11-28 03:40:47","7b1eb8be57ff77859c7d9ac988e43411","223.104.31.60","Mozilla/5.0 (Windows NT 10.0; Win64; x64) AppleWebKit/537.36 (KHTML, like Gecko) Chrome/107.0.0.0 Safari/537.36 Edg/107.0.1418.56","WebKit","Edge","107.0.1418.56","Windows","10.0","2202","<strong><p>恭喜你完成了实验！</p><p>感谢您的参与。</p></strong>","0",""
