"success","timeout","failed_images","failed_audio","failed_video","trial_type","trial_index","time_elapsed","internal_node_id","run_id","condition","recorded_at","source_code_version","ip","user_agent","device","browser","browser_version","platform","platform_version","rt","stimulus","response","question_order"
"true","false","[]","[]","[]","preload","0","4181","0.0-0.0","127","1","2022-11-28 03:40:04","7b1eb8be57ff77859c7d9ac988e43411","219.142.99.7","Mozilla/5.0 (Windows NT 10.0; WOW64) AppleWebKit/537.36 (KHTML, like Gecko) Chrome/94.0.4606.71 Safari/537.36 Core/1.94.172.400 QQBrowser/11.1.5140.400","WebKit","Chrome","94.0.4606.71","Windows","10.0","","","",""
"true","","","","","fullscreen","1","9101","0.0-1.0","127","1","2022-11-28 03:40:04","7b1eb8be57ff77859c7d9ac988e43411","219.142.99.7","Mozilla/5.0 (Windows NT 10.0; WOW64) AppleWebKit/537.36 (KHTML, like Gecko) Chrome/94.0.4606.71 Safari/537.36 Core/1.94.172.400 QQBrowser/11.1.5140.400","WebKit","Chrome","94.0.4606.71","Windows","10.0","","","",""
"","","","","","html-button-response","2","53170","0.0-2.0","127","1","2022-11-28 03:40:04","7b1eb8be57ff77859c7d9ac988e43411","219.142.99.7","Mozilla/5.0 (Windows NT 10.0; WOW64) AppleWebKit/537.36 (KHTML, like Gecko) Chrome/94.0.4606.71 Safari/537.36 Core/1.94.172.400 QQBrowser/11.1.5140.400","WebKit","Chrome","94.0.4606.71","Windows","10.0","44067","<p style=""font-size:20px;font-weight:bold;"">实验知情同意书</p><p style=""text-align:left;""><strong>实验名称：</strong>社会冲突研究</p><p style=""text-align:left;""><strong>主要研究者：</strong>韩晓春副教授（北京师范大学心理学部）</p><p style=""text-align:left;""><strong>联系方式：</strong>发送邮件至xiaochun.han@bnu.edu.cn</p><p style=""text-align:left;""><strong>研究目的：</strong>研究旨在了解人类面对群体冲突时的决策方式，以及相关的心理学特质。实验调查大约需要20分钟。</p><p style=""text-align:left;""><strong>实验流程：</strong>实验包含两部分。第一部分呈现一系列群体冲突场景，请你决定如何对这些冲突进行反应，大约需要10分钟完成。第二部分包含一系列人口统计学信息收集和心理学问卷，大约需要10分钟完成。</p><p style=""text-align:left;""><strong>参加及退出规则：</strong>参加本实验完全取决于您的个人意愿。在参与过程中，您可以随时退出，并且不用承担任何后果。</p><p style=""text-align:left;""><strong>隐私：</strong>本实验完全匿名进行，不会收集您的姓名或其他能够识别您身份的信息。实验中收集的作答仅用作科学研究使用，可能会在学术期刊/书籍上发表，或者用于教学，您的数据未来可能会和其他研究者或实验室分享，但您的个人身份不会被识别。</p><p style=""text-align:left;""><strong>实验报酬：</strong>实验完成后，您将获得15元人民币报酬，以感谢您的时间和努力。调查问卷中包含几道题目用以测验您作答时的认真度。只有完成全部实验，并且正确回答认真度测验的被试才能获得实验报酬。实验报酬将通过支付宝转账发放。</p><p style=""text-align:left;font-size:20px;""><strong>如果您同意以上实验知情同意书的内容，请点击'同意并且开始实验'按钮；否则请关闭浏览器界面，退出实验。</strong></p>","0",""
"","","","","","html-button-response","3","73677","0.0-3.0","127","1","2022-11-28 03:40:04","7b1eb8be57ff77859c7d9ac988e43411","219.142.99.7","Mozilla/5.0 (Windows NT 10.0; WOW64) AppleWebKit/537.36 (KHTML, like Gecko) Chrome/94.0.4606.71 Safari/537.36 Core/1.94.172.400 QQBrowser/11.1.5140.400","WebKit","Chrome","94.0.4606.71","Windows","10.0","20505","<p ><strong>实验任务一：</strong></p><p>请想象你的国家与另一个国家发生了军事冲突。</p><p>你是国家军队的指挥官，你将如何在冲突中进行决策。</p><p>具体来说，作为军队指挥官，请你决定是否发射导弹进行打击。</p><p>接下来，你会面对一系列场景，请仔细阅读每个场景，然后进行决策。</p><p>这部分实验任务大约需要10分钟。</p><p><strong>实验过程中，请集中注意力。</strong></p>","0",""
"","","","","","html-keyboard-response","4","74679","0.0-4.0-0.0","127","1","2022-11-28 03:40:04","7b1eb8be57ff77859c7d9ac988e43411","219.142.99.7","Mozilla/5.0 (Windows NT 10.0; WOW64) AppleWebKit/537.36 (KHTML, like Gecko) Chrome/94.0.4606.71 Safari/537.36 Core/1.94.172.400 QQBrowser/11.1.5140.400","WebKit","Chrome","94.0.4606.71","Windows","10.0","null","<div style=""font-size:60px;"">+</div>","null",""
"","","","","","html-button-response","5","85492","0.0-4.0-1.0","127","1","2022-11-28 03:40:04","7b1eb8be57ff77859c7d9ac988e43411","219.142.99.7","Mozilla/5.0 (Windows NT 10.0; WOW64) AppleWebKit/537.36 (KHTML, like Gecko) Chrome/94.0.4606.71 Safari/537.36 Core/1.94.172.400 QQBrowser/11.1.5140.400","WebKit","Chrome","94.0.4606.71","Windows","10.0","10807","<p>作为军队的指挥官，你可以选择发射导弹杀死 <strong>5名</strong> 敌国士兵，但会误杀附近的 <strong>1名</strong> 敌国平民。</p> <p>平民照片如下图所示。</p> <p></p> <img src='stimuli/faces/PCM3.jpg', style='max-width: 30%;'> </img> <p><strong>你是否选择发射武器？</strong></p>","1",""
"","","","","","html-keyboard-response","6","86495","0.0-4.0-0.1","127","1","2022-11-28 03:40:04","7b1eb8be57ff77859c7d9ac988e43411","219.142.99.7","Mozilla/5.0 (Windows NT 10.0; WOW64) AppleWebKit/537.36 (KHTML, like Gecko) Chrome/94.0.4606.71 Safari/537.36 Core/1.94.172.400 QQBrowser/11.1.5140.400","WebKit","Chrome","94.0.4606.71","Windows","10.0","null","<div style=""font-size:60px;"">+</div>","null",""
"","","","","","html-button-response","7","94229","0.0-4.0-1.1","127","1","2022-11-28 03:40:04","7b1eb8be57ff77859c7d9ac988e43411","219.142.99.7","Mozilla/5.0 (Windows NT 10.0; WOW64) AppleWebKit/537.36 (KHTML, like Gecko) Chrome/94.0.4606.71 Safari/537.36 Core/1.94.172.400 QQBrowser/11.1.5140.400","WebKit","Chrome","94.0.4606.71","Windows","10.0","7730","<p>作为军队的指挥官，你可以选择发射导弹杀死 <strong>9名</strong> 敌国士兵，但会炸毁附近的 <strong>1棵</strong> 敌国树木。</p> <p>树木的照片如下图所示。</p> <p></p> <img src='stimuli/trees/15.png', style='max-width: 30%;'> </img> <p><strong>你是否选择发射武器？</strong></p>","0",""
"","","","","","html-keyboard-response","8","95230","0.0-4.0-0.2","127","1","2022-11-28 03:40:04","7b1eb8be57ff77859c7d9ac988e43411","219.142.99.7","Mozilla/5.0 (Windows NT 10.0; WOW64) AppleWebKit/537.36 (KHTML, like Gecko) Chrome/94.0.4606.71 Safari/537.36 Core/1.94.172.400 QQBrowser/11.1.5140.400","WebKit","Chrome","94.0.4606.71","Windows","10.0","null","<div style=""font-size:60px;"">+</div>","null",""
"","","","","","html-button-response","9","116887","0.0-4.0-1.2","127","1","2022-11-28 03:40:04","7b1eb8be57ff77859c7d9ac988e43411","219.142.99.7","Mozilla/5.0 (Windows NT 10.0; WOW64) AppleWebKit/537.36 (KHTML, like Gecko) Chrome/94.0.4606.71 Safari/537.36 Core/1.94.172.400 QQBrowser/11.1.5140.400","WebKit","Chrome","94.0.4606.71","Windows","10.0","21655","<p>作为军队的指挥官，你可以选择发射导弹杀死 <strong>2名</strong> 敌国士兵，但会炸毁附近的 <strong>1棵</strong> 敌国树木。</p> <p>树木的照片如下图所示。</p> <p></p> <img src='stimuli/trees/6.png', style='max-width: 30%;'> </img> <p><strong>你是否选择发射武器？</strong></p>","1",""
"","","","","","html-keyboard-response","10","117890","0.0-4.0-0.3","127","1","2022-11-28 03:40:04","7b1eb8be57ff77859c7d9ac988e43411","219.142.99.7","Mozilla/5.0 (Windows NT 10.0; WOW64) AppleWebKit/537.36 (KHTML, like Gecko) Chrome/94.0.4606.71 Safari/537.36 Core/1.94.172.400 QQBrowser/11.1.5140.400","WebKit","Chrome","94.0.4606.71","Windows","10.0","null","<div style=""font-size:60px;"">+</div>","null",""
"","","","","","html-button-response","11","128157","0.0-4.0-1.3","127","1","2022-11-28 03:40:04","7b1eb8be57ff77859c7d9ac988e43411","219.142.99.7","Mozilla/5.0 (Windows NT 10.0; WOW64) AppleWebKit/537.36 (KHTML, like Gecko) Chrome/94.0.4606.71 Safari/537.36 Core/1.94.172.400 QQBrowser/11.1.5140.400","WebKit","Chrome","94.0.4606.71","Windows","10.0","10265","<p>作为军队的指挥官，你可以选择发射导弹杀死 <strong>1名</strong> 敌国士兵，但会炸毁附近的 <strong>1棵</strong> 敌国树木。</p> <p>树木的照片如下图所示。</p> <p></p> <img src='stimuli/trees/3.png', style='max-width: 30%;'> </img> <p><strong>你是否选择发射武器？</strong></p>","1",""
"","","","","","html-keyboard-response","12","129159","0.0-4.0-0.4","127","1","2022-11-28 03:40:04","7b1eb8be57ff77859c7d9ac988e43411","219.142.99.7","Mozilla/5.0 (Windows NT 10.0; WOW64) AppleWebKit/537.36 (KHTML, like Gecko) Chrome/94.0.4606.71 Safari/537.36 Core/1.94.172.400 QQBrowser/11.1.5140.400","WebKit","Chrome","94.0.4606.71","Windows","10.0","null","<div style=""font-size:60px;"">+</div>","null",""
"","","","","","html-button-response","13","140040","0.0-4.0-1.4","127","1","2022-11-28 03:40:04","7b1eb8be57ff77859c7d9ac988e43411","219.142.99.7","Mozilla/5.0 (Windows NT 10.0; WOW64) AppleWebKit/537.36 (KHTML, like Gecko) Chrome/94.0.4606.71 Safari/537.36 Core/1.94.172.400 QQBrowser/11.1.5140.400","WebKit","Chrome","94.0.4606.71","Windows","10.0","10877","<p>作为军队的指挥官，你可以选择发射导弹杀死 <strong>9名</strong> 敌国士兵，但会误杀附近的 <strong>1名</strong> 敌国平民。</p> <p>平民照片如下图所示。</p> <p></p> <img src='stimuli/faces/PCF4.jpg', style='max-width: 30%;'> </img> <p><strong>你是否选择发射武器？</strong></p>","1",""
"","","","","","html-keyboard-response","14","141052","0.0-4.0-0.5","127","1","2022-11-28 03:40:04","7b1eb8be57ff77859c7d9ac988e43411","219.142.99.7","Mozilla/5.0 (Windows NT 10.0; WOW64) AppleWebKit/537.36 (KHTML, like Gecko) Chrome/94.0.4606.71 Safari/537.36 Core/1.94.172.400 QQBrowser/11.1.5140.400","WebKit","Chrome","94.0.4606.71","Windows","10.0","null","<div style=""font-size:60px;"">+</div>","null",""
"","","","","","html-button-response","15","149076","0.0-4.0-1.5","127","1","2022-11-28 03:40:04","7b1eb8be57ff77859c7d9ac988e43411","219.142.99.7","Mozilla/5.0 (Windows NT 10.0; WOW64) AppleWebKit/537.36 (KHTML, like Gecko) Chrome/94.0.4606.71 Safari/537.36 Core/1.94.172.400 QQBrowser/11.1.5140.400","WebKit","Chrome","94.0.4606.71","Windows","10.0","8023","<p>作为军队的指挥官，你可以选择发射导弹杀死 <strong>2名</strong> 敌国士兵，但会误杀附近的 <strong>1名</strong> 敌国平民。</p> <p>平民照片如下图所示。</p> <p></p> <img src='stimuli/faces/PCF1.jpg', style='max-width: 30%;'> </img> <p><strong>你是否选择发射武器？</strong></p>","1",""
"","","","","","html-keyboard-response","16","150080","0.0-4.0-0.6","127","1","2022-11-28 03:40:04","7b1eb8be57ff77859c7d9ac988e43411","219.142.99.7","Mozilla/5.0 (Windows NT 10.0; WOW64) AppleWebKit/537.36 (KHTML, like Gecko) Chrome/94.0.4606.71 Safari/537.36 Core/1.94.172.400 QQBrowser/11.1.5140.400","WebKit","Chrome","94.0.4606.71","Windows","10.0","null","<div style=""font-size:60px;"">+</div>","null",""
"","","","","","html-button-response","17","153842","0.0-4.0-1.6","127","1","2022-11-28 03:40:04","7b1eb8be57ff77859c7d9ac988e43411","219.142.99.7","Mozilla/5.0 (Windows NT 10.0; WOW64) AppleWebKit/537.36 (KHTML, like Gecko) Chrome/94.0.4606.71 Safari/537.36 Core/1.94.172.400 QQBrowser/11.1.5140.400","WebKit","Chrome","94.0.4606.71","Windows","10.0","3761","<p>作为军队的指挥官，你可以选择发射导弹杀死 <strong>6名</strong> 敌国士兵，但会炸毁附近的 <strong>1棵</strong> 敌国树木。</p> <p>树木的照片如下图所示。</p> <p></p> <img src='stimuli/trees/3.png', style='max-width: 30%;'> </img> <p><strong>你是否选择发射武器？</strong></p>","0",""
"","","","","","html-keyboard-response","18","154844","0.0-4.0-0.7","127","1","2022-11-28 03:40:04","7b1eb8be57ff77859c7d9ac988e43411","219.142.99.7","Mozilla/5.0 (Windows NT 10.0; WOW64) AppleWebKit/537.36 (KHTML, like Gecko) Chrome/94.0.4606.71 Safari/537.36 Core/1.94.172.400 QQBrowser/11.1.5140.400","WebKit","Chrome","94.0.4606.71","Windows","10.0","null","<div style=""font-size:60px;"">+</div>","null",""
"","","","","","html-button-response","19","160382","0.0-4.0-1.7","127","1","2022-11-28 03:40:04","7b1eb8be57ff77859c7d9ac988e43411","219.142.99.7","Mozilla/5.0 (Windows NT 10.0; WOW64) AppleWebKit/537.36 (KHTML, like Gecko) Chrome/94.0.4606.71 Safari/537.36 Core/1.94.172.400 QQBrowser/11.1.5140.400","WebKit","Chrome","94.0.4606.71","Windows","10.0","5535","<p>作为军队的指挥官，你可以选择发射导弹杀死 <strong>8名</strong> 敌国士兵，但会误杀附近的 <strong>1名</strong> 敌国平民。</p> <p>平民照片如下图所示。</p> <p></p> <img src='stimuli/faces/PCM6.jpg', style='max-width: 30%;'> </img> <p><strong>你是否选择发射武器？</strong></p>","1",""
"","","","","","html-keyboard-response","20","161383","0.0-4.0-0.8","127","1","2022-11-28 03:40:04","7b1eb8be57ff77859c7d9ac988e43411","219.142.99.7","Mozilla/5.0 (Windows NT 10.0; WOW64) AppleWebKit/537.36 (KHTML, like Gecko) Chrome/94.0.4606.71 Safari/537.36 Core/1.94.172.400 QQBrowser/11.1.5140.400","WebKit","Chrome","94.0.4606.71","Windows","10.0","null","<div style=""font-size:60px;"">+</div>","null",""
"","","","","","html-button-response","21","164964","0.0-4.0-1.8","127","1","2022-11-28 03:40:04","7b1eb8be57ff77859c7d9ac988e43411","219.142.99.7","Mozilla/5.0 (Windows NT 10.0; WOW64) AppleWebKit/537.36 (KHTML, like Gecko) Chrome/94.0.4606.71 Safari/537.36 Core/1.94.172.400 QQBrowser/11.1.5140.400","WebKit","Chrome","94.0.4606.71","Windows","10.0","3579","<p>作为军队的指挥官，你可以选择发射导弹杀死 <strong>4名</strong> 敌国士兵，但会误杀附近的 <strong>1名</strong> 敌国平民。</p> <p>平民照片如下图所示。</p> <p></p> <img src='stimuli/faces/PCM2.jpg', style='max-width: 30%;'> </img> <p><strong>你是否选择发射武器？</strong></p>","1",""
"","","","","","html-keyboard-response","22","165971","0.0-4.0-0.9","127","1","2022-11-28 03:40:04","7b1eb8be57ff77859c7d9ac988e43411","219.142.99.7","Mozilla/5.0 (Windows NT 10.0; WOW64) AppleWebKit/537.36 (KHTML, like Gecko) Chrome/94.0.4606.71 Safari/537.36 Core/1.94.172.400 QQBrowser/11.1.5140.400","WebKit","Chrome","94.0.4606.71","Windows","10.0","null","<div style=""font-size:60px;"">+</div>","null",""
"","","","","","html-button-response","23","169546","0.0-4.0-1.9","127","1","2022-11-28 03:40:04","7b1eb8be57ff77859c7d9ac988e43411","219.142.99.7","Mozilla/5.0 (Windows NT 10.0; WOW64) AppleWebKit/537.36 (KHTML, like Gecko) Chrome/94.0.4606.71 Safari/537.36 Core/1.94.172.400 QQBrowser/11.1.5140.400","WebKit","Chrome","94.0.4606.71","Windows","10.0","3573","<p>作为军队的指挥官，你可以选择发射导弹杀死 <strong>9名</strong> 敌国士兵，但会误杀附近的 <strong>1名</strong> 敌国平民。</p> <p>平民照片如下图所示。</p> <p></p> <img src='stimuli/faces/PCF3.jpg', style='max-width: 30%;'> </img> <p><strong>你是否选择发射武器？</strong></p>","1",""
"","","","","","html-keyboard-response","24","170549","0.0-4.0-0.10","127","1","2022-11-28 03:40:04","7b1eb8be57ff77859c7d9ac988e43411","219.142.99.7","Mozilla/5.0 (Windows NT 10.0; WOW64) AppleWebKit/537.36 (KHTML, like Gecko) Chrome/94.0.4606.71 Safari/537.36 Core/1.94.172.400 QQBrowser/11.1.5140.400","WebKit","Chrome","94.0.4606.71","Windows","10.0","null","<div style=""font-size:60px;"">+</div>","null",""
"","","","","","html-button-response","25","175809","0.0-4.0-1.10","127","1","2022-11-28 03:40:04","7b1eb8be57ff77859c7d9ac988e43411","219.142.99.7","Mozilla/5.0 (Windows NT 10.0; WOW64) AppleWebKit/537.36 (KHTML, like Gecko) Chrome/94.0.4606.71 Safari/537.36 Core/1.94.172.400 QQBrowser/11.1.5140.400","WebKit","Chrome","94.0.4606.71","Windows","10.0","5258","<p>作为军队的指挥官，你可以选择发射导弹杀死 <strong>6名</strong> 敌国士兵，但会炸毁附近的 <strong>1棵</strong> 敌国树木。</p> <p>树木的照片如下图所示。</p> <p></p> <img src='stimuli/trees/1.png', style='max-width: 30%;'> </img> <p><strong>你是否选择发射武器？</strong></p>","0",""
"","","","","","html-keyboard-response","26","176824","0.0-4.0-0.11","127","1","2022-11-28 03:40:04","7b1eb8be57ff77859c7d9ac988e43411","219.142.99.7","Mozilla/5.0 (Windows NT 10.0; WOW64) AppleWebKit/537.36 (KHTML, like Gecko) Chrome/94.0.4606.71 Safari/537.36 Core/1.94.172.400 QQBrowser/11.1.5140.400","WebKit","Chrome","94.0.4606.71","Windows","10.0","null","<div style=""font-size:60px;"">+</div>","null",""
"","","","","","html-button-response","27","180869","0.0-4.0-1.11","127","1","2022-11-28 03:40:04","7b1eb8be57ff77859c7d9ac988e43411","219.142.99.7","Mozilla/5.0 (Windows NT 10.0; WOW64) AppleWebKit/537.36 (KHTML, like Gecko) Chrome/94.0.4606.71 Safari/537.36 Core/1.94.172.400 QQBrowser/11.1.5140.400","WebKit","Chrome","94.0.4606.71","Windows","10.0","4043","<p>作为军队的指挥官，你可以选择发射导弹杀死 <strong>2名</strong> 敌国士兵，但会炸毁附近的 <strong>1棵</strong> 敌国树木。</p> <p>树木的照片如下图所示。</p> <p></p> <img src='stimuli/trees/14.png', style='max-width: 30%;'> </img> <p><strong>你是否选择发射武器？</strong></p>","1",""
"","","","","","html-keyboard-response","28","181875","0.0-4.0-0.12","127","1","2022-11-28 03:40:04","7b1eb8be57ff77859c7d9ac988e43411","219.142.99.7","Mozilla/5.0 (Windows NT 10.0; WOW64) AppleWebKit/537.36 (KHTML, like Gecko) Chrome/94.0.4606.71 Safari/537.36 Core/1.94.172.400 QQBrowser/11.1.5140.400","WebKit","Chrome","94.0.4606.71","Windows","10.0","null","<div style=""font-size:60px;"">+</div>","null",""
"","","","","","html-button-response","29","185211","0.0-4.0-1.12","127","1","2022-11-28 03:40:04","7b1eb8be57ff77859c7d9ac988e43411","219.142.99.7","Mozilla/5.0 (Windows NT 10.0; WOW64) AppleWebKit/537.36 (KHTML, like Gecko) Chrome/94.0.4606.71 Safari/537.36 Core/1.94.172.400 QQBrowser/11.1.5140.400","WebKit","Chrome","94.0.4606.71","Windows","10.0","3334","<p>作为军队的指挥官，你可以选择发射导弹杀死 <strong>4名</strong> 敌国士兵，但会炸毁附近的 <strong>1棵</strong> 敌国树木。</p> <p>树木的照片如下图所示。</p> <p></p> <img src='stimuli/trees/10.png', style='max-width: 30%;'> </img> <p><strong>你是否选择发射武器？</strong></p>","0",""
"","","","","","html-keyboard-response","30","186227","0.0-4.0-0.13","127","1","2022-11-28 03:40:04","7b1eb8be57ff77859c7d9ac988e43411","219.142.99.7","Mozilla/5.0 (Windows NT 10.0; WOW64) AppleWebKit/537.36 (KHTML, like Gecko) Chrome/94.0.4606.71 Safari/537.36 Core/1.94.172.400 QQBrowser/11.1.5140.400","WebKit","Chrome","94.0.4606.71","Windows","10.0","null","<div style=""font-size:60px;"">+</div>","null",""
"","","","","","html-button-response","31","188822","0.0-4.0-1.13","127","1","2022-11-28 03:40:04","7b1eb8be57ff77859c7d9ac988e43411","219.142.99.7","Mozilla/5.0 (Windows NT 10.0; WOW64) AppleWebKit/537.36 (KHTML, like Gecko) Chrome/94.0.4606.71 Safari/537.36 Core/1.94.172.400 QQBrowser/11.1.5140.400","WebKit","Chrome","94.0.4606.71","Windows","10.0","2593","<p>作为军队的指挥官，你可以选择发射导弹杀死 <strong>1名</strong> 敌国士兵，但会炸毁附近的 <strong>1棵</strong> 敌国树木。</p> <p>树木的照片如下图所示。</p> <p></p> <img src='stimuli/trees/15.png', style='max-width: 30%;'> </img> <p><strong>你是否选择发射武器？</strong></p>","1",""
"","","","","","html-keyboard-response","32","189832","0.0-4.0-0.14","127","1","2022-11-28 03:40:04","7b1eb8be57ff77859c7d9ac988e43411","219.142.99.7","Mozilla/5.0 (Windows NT 10.0; WOW64) AppleWebKit/537.36 (KHTML, like Gecko) Chrome/94.0.4606.71 Safari/537.36 Core/1.94.172.400 QQBrowser/11.1.5140.400","WebKit","Chrome","94.0.4606.71","Windows","10.0","null","<div style=""font-size:60px;"">+</div>","null",""
"","","","","","html-button-response","33","192183","0.0-4.0-1.14","127","1","2022-11-28 03:40:04","7b1eb8be57ff77859c7d9ac988e43411","219.142.99.7","Mozilla/5.0 (Windows NT 10.0; WOW64) AppleWebKit/537.36 (KHTML, like Gecko) Chrome/94.0.4606.71 Safari/537.36 Core/1.94.172.400 QQBrowser/11.1.5140.400","WebKit","Chrome","94.0.4606.71","Windows","10.0","2349","<p>作为军队的指挥官，你可以选择发射导弹杀死 <strong>8名</strong> 敌国士兵，但会炸毁附近的 <strong>1棵</strong> 敌国树木。</p> <p>树木的照片如下图所示。</p> <p></p> <img src='stimuli/trees/9.png', style='max-width: 30%;'> </img> <p><strong>你是否选择发射武器？</strong></p>","0",""
"","","","","","html-keyboard-response","34","193189","0.0-4.0-0.15","127","1","2022-11-28 03:40:04","7b1eb8be57ff77859c7d9ac988e43411","219.142.99.7","Mozilla/5.0 (Windows NT 10.0; WOW64) AppleWebKit/537.36 (KHTML, like Gecko) Chrome/94.0.4606.71 Safari/537.36 Core/1.94.172.400 QQBrowser/11.1.5140.400","WebKit","Chrome","94.0.4606.71","Windows","10.0","null","<div style=""font-size:60px;"">+</div>","null",""
"","","","","","html-button-response","35","197141","0.0-4.0-1.15","127","1","2022-11-28 03:40:04","7b1eb8be57ff77859c7d9ac988e43411","219.142.99.7","Mozilla/5.0 (Windows NT 10.0; WOW64) AppleWebKit/537.36 (KHTML, like Gecko) Chrome/94.0.4606.71 Safari/537.36 Core/1.94.172.400 QQBrowser/11.1.5140.400","WebKit","Chrome","94.0.4606.71","Windows","10.0","3950","<p>作为军队的指挥官，你可以选择发射导弹杀死 <strong>7名</strong> 敌国士兵，但会误杀附近的 <strong>1名</strong> 敌国平民。</p> <p>平民照片如下图所示。</p> <p></p> <img src='stimuli/faces/PCF8.jpg', style='max-width: 30%;'> </img> <p><strong>你是否选择发射武器？</strong></p>","1",""
"","","","","","html-keyboard-response","36","198151","0.0-4.0-0.16","127","1","2022-11-28 03:40:04","7b1eb8be57ff77859c7d9ac988e43411","219.142.99.7","Mozilla/5.0 (Windows NT 10.0; WOW64) AppleWebKit/537.36 (KHTML, like Gecko) Chrome/94.0.4606.71 Safari/537.36 Core/1.94.172.400 QQBrowser/11.1.5140.400","WebKit","Chrome","94.0.4606.71","Windows","10.0","null","<div style=""font-size:60px;"">+</div>","null",""
"","","","","","html-button-response","37","201432","0.0-4.0-1.16","127","1","2022-11-28 03:40:04","7b1eb8be57ff77859c7d9ac988e43411","219.142.99.7","Mozilla/5.0 (Windows NT 10.0; WOW64) AppleWebKit/537.36 (KHTML, like Gecko) Chrome/94.0.4606.71 Safari/537.36 Core/1.94.172.400 QQBrowser/11.1.5140.400","WebKit","Chrome","94.0.4606.71","Windows","10.0","3279","<p>作为军队的指挥官，你可以选择发射导弹杀死 <strong>7名</strong> 敌国士兵，但会误杀附近的 <strong>1名</strong> 敌国平民。</p> <p>平民照片如下图所示。</p> <p></p> <img src='stimuli/faces/PCM3.jpg', style='max-width: 30%;'> </img> <p><strong>你是否选择发射武器？</strong></p>","1",""
"","","","","","html-keyboard-response","38","202435","0.0-4.0-0.17","127","1","2022-11-28 03:40:04","7b1eb8be57ff77859c7d9ac988e43411","219.142.99.7","Mozilla/5.0 (Windows NT 10.0; WOW64) AppleWebKit/537.36 (KHTML, like Gecko) Chrome/94.0.4606.71 Safari/537.36 Core/1.94.172.400 QQBrowser/11.1.5140.400","WebKit","Chrome","94.0.4606.71","Windows","10.0","null","<div style=""font-size:60px;"">+</div>","null",""
"","","","","","html-button-response","39","205130","0.0-4.0-1.17","127","1","2022-11-28 03:40:04","7b1eb8be57ff77859c7d9ac988e43411","219.142.99.7","Mozilla/5.0 (Windows NT 10.0; WOW64) AppleWebKit/537.36 (KHTML, like Gecko) Chrome/94.0.4606.71 Safari/537.36 Core/1.94.172.400 QQBrowser/11.1.5140.400","WebKit","Chrome","94.0.4606.71","Windows","10.0","2693","<p>作为军队的指挥官，你可以选择发射导弹杀死 <strong>7名</strong> 敌国士兵，但会误杀附近的 <strong>1名</strong> 敌国平民。</p> <p>平民照片如下图所示。</p> <p></p> <img src='stimuli/faces/PCF2.jpg', style='max-width: 30%;'> </img> <p><strong>你是否选择发射武器？</strong></p>","1",""
"","","","","","html-keyboard-response","40","206134","0.0-4.0-0.18","127","1","2022-11-28 03:40:04","7b1eb8be57ff77859c7d9ac988e43411","219.142.99.7","Mozilla/5.0 (Windows NT 10.0; WOW64) AppleWebKit/537.36 (KHTML, like Gecko) Chrome/94.0.4606.71 Safari/537.36 Core/1.94.172.400 QQBrowser/11.1.5140.400","WebKit","Chrome","94.0.4606.71","Windows","10.0","null","<div style=""font-size:60px;"">+</div>","null",""
"","","","","","html-button-response","41","209869","0.0-4.0-1.18","127","1","2022-11-28 03:40:04","7b1eb8be57ff77859c7d9ac988e43411","219.142.99.7","Mozilla/5.0 (Windows NT 10.0; WOW64) AppleWebKit/537.36 (KHTML, like Gecko) Chrome/94.0.4606.71 Safari/537.36 Core/1.94.172.400 QQBrowser/11.1.5140.400","WebKit","Chrome","94.0.4606.71","Windows","10.0","3731","<p>作为军队的指挥官，你可以选择发射导弹杀死 <strong>6名</strong> 敌国士兵，但会炸毁附近的 <strong>1棵</strong> 敌国树木。</p> <p>树木的照片如下图所示。</p> <p></p> <img src='stimuli/trees/16.png', style='max-width: 30%;'> </img> <p><strong>你是否选择发射武器？</strong></p>","0",""
"","","","","","html-keyboard-response","42","210876","0.0-4.0-0.19","127","1","2022-11-28 03:40:04","7b1eb8be57ff77859c7d9ac988e43411","219.142.99.7","Mozilla/5.0 (Windows NT 10.0; WOW64) AppleWebKit/537.36 (KHTML, like Gecko) Chrome/94.0.4606.71 Safari/537.36 Core/1.94.172.400 QQBrowser/11.1.5140.400","WebKit","Chrome","94.0.4606.71","Windows","10.0","null","<div style=""font-size:60px;"">+</div>","null",""
"","","","","","html-button-response","43","220954","0.0-4.0-1.19","127","1","2022-11-28 03:40:04","7b1eb8be57ff77859c7d9ac988e43411","219.142.99.7","Mozilla/5.0 (Windows NT 10.0; WOW64) AppleWebKit/537.36 (KHTML, like Gecko) Chrome/94.0.4606.71 Safari/537.36 Core/1.94.172.400 QQBrowser/11.1.5140.400","WebKit","Chrome","94.0.4606.71","Windows","10.0","10076","<p>作为军队的指挥官，你可以选择发射导弹杀死 <strong>2名</strong> 敌国士兵，但会炸毁附近的 <strong>1棵</strong> 敌国树木。</p> <p>树木的照片如下图所示。</p> <p></p> <img src='stimuli/trees/2.png', style='max-width: 30%;'> </img> <p><strong>你是否选择发射武器？</strong></p>","1",""
"","","","","","html-keyboard-response","44","221961","0.0-4.0-0.20","127","1","2022-11-28 03:40:04","7b1eb8be57ff77859c7d9ac988e43411","219.142.99.7","Mozilla/5.0 (Windows NT 10.0; WOW64) AppleWebKit/537.36 (KHTML, like Gecko) Chrome/94.0.4606.71 Safari/537.36 Core/1.94.172.400 QQBrowser/11.1.5140.400","WebKit","Chrome","94.0.4606.71","Windows","10.0","null","<div style=""font-size:60px;"">+</div>","null",""
"","","","","","html-button-response","45","224683","0.0-4.0-1.20","127","1","2022-11-28 03:40:04","7b1eb8be57ff77859c7d9ac988e43411","219.142.99.7","Mozilla/5.0 (Windows NT 10.0; WOW64) AppleWebKit/537.36 (KHTML, like Gecko) Chrome/94.0.4606.71 Safari/537.36 Core/1.94.172.400 QQBrowser/11.1.5140.400","WebKit","Chrome","94.0.4606.71","Windows","10.0","2720","<p>作为军队的指挥官，你可以选择发射导弹杀死 <strong>3名</strong> 敌国士兵，但会炸毁附近的 <strong>1棵</strong> 敌国树木。</p> <p>树木的照片如下图所示。</p> <p></p> <img src='stimuli/trees/11.png', style='max-width: 30%;'> </img> <p><strong>你是否选择发射武器？</strong></p>","0",""
"","","","","","html-keyboard-response","46","225699","0.0-4.0-0.21","127","1","2022-11-28 03:40:04","7b1eb8be57ff77859c7d9ac988e43411","219.142.99.7","Mozilla/5.0 (Windows NT 10.0; WOW64) AppleWebKit/537.36 (KHTML, like Gecko) Chrome/94.0.4606.71 Safari/537.36 Core/1.94.172.400 QQBrowser/11.1.5140.400","WebKit","Chrome","94.0.4606.71","Windows","10.0","null","<div style=""font-size:60px;"">+</div>","null",""
"","","","","","html-button-response","47","231465","0.0-4.0-1.21","127","1","2022-11-28 03:40:04","7b1eb8be57ff77859c7d9ac988e43411","219.142.99.7","Mozilla/5.0 (Windows NT 10.0; WOW64) AppleWebKit/537.36 (KHTML, like Gecko) Chrome/94.0.4606.71 Safari/537.36 Core/1.94.172.400 QQBrowser/11.1.5140.400","WebKit","Chrome","94.0.4606.71","Windows","10.0","5763","<p>作为军队的指挥官，你可以选择发射导弹杀死 <strong>10名</strong> 敌国士兵，但会误杀附近的 <strong>1名</strong> 敌国平民。</p> <p>平民照片如下图所示。</p> <p></p> <img src='stimuli/faces/PCF6.jpg', style='max-width: 30%;'> </img> <p><strong>你是否选择发射武器？</strong></p>","1",""
"","","","","","html-keyboard-response","48","232478","0.0-4.0-0.22","127","1","2022-11-28 03:40:04","7b1eb8be57ff77859c7d9ac988e43411","219.142.99.7","Mozilla/5.0 (Windows NT 10.0; WOW64) AppleWebKit/537.36 (KHTML, like Gecko) Chrome/94.0.4606.71 Safari/537.36 Core/1.94.172.400 QQBrowser/11.1.5140.400","WebKit","Chrome","94.0.4606.71","Windows","10.0","null","<div style=""font-size:60px;"">+</div>","null",""
"","","","","","html-button-response","49","235332","0.0-4.0-1.22","127","1","2022-11-28 03:40:04","7b1eb8be57ff77859c7d9ac988e43411","219.142.99.7","Mozilla/5.0 (Windows NT 10.0; WOW64) AppleWebKit/537.36 (KHTML, like Gecko) Chrome/94.0.4606.71 Safari/537.36 Core/1.94.172.400 QQBrowser/11.1.5140.400","WebKit","Chrome","94.0.4606.71","Windows","10.0","2853","<p>作为军队的指挥官，你可以选择发射导弹杀死 <strong>1名</strong> 敌国士兵，但会误杀附近的 <strong>1名</strong> 敌国平民。</p> <p>平民照片如下图所示。</p> <p></p> <img src='stimuli/faces/PCF8.jpg', style='max-width: 30%;'> </img> <p><strong>你是否选择发射武器？</strong></p>","1",""
"","","","","","html-keyboard-response","50","236335","0.0-4.0-0.23","127","1","2022-11-28 03:40:04","7b1eb8be57ff77859c7d9ac988e43411","219.142.99.7","Mozilla/5.0 (Windows NT 10.0; WOW64) AppleWebKit/537.36 (KHTML, like Gecko) Chrome/94.0.4606.71 Safari/537.36 Core/1.94.172.400 QQBrowser/11.1.5140.400","WebKit","Chrome","94.0.4606.71","Windows","10.0","null","<div style=""font-size:60px;"">+</div>","null",""
"","","","","","html-button-response","51","238458","0.0-4.0-1.23","127","1","2022-11-28 03:40:04","7b1eb8be57ff77859c7d9ac988e43411","219.142.99.7","Mozilla/5.0 (Windows NT 10.0; WOW64) AppleWebKit/537.36 (KHTML, like Gecko) Chrome/94.0.4606.71 Safari/537.36 Core/1.94.172.400 QQBrowser/11.1.5140.400","WebKit","Chrome","94.0.4606.71","Windows","10.0","2120","<p>作为军队的指挥官，你可以选择发射导弹杀死 <strong>8名</strong> 敌国士兵，但会炸毁附近的 <strong>1棵</strong> 敌国树木。</p> <p>树木的照片如下图所示。</p> <p></p> <img src='stimuli/trees/7.png', style='max-width: 30%;'> </img> <p><strong>你是否选择发射武器？</strong></p>","0",""
"","","","","","html-keyboard-response","52","239468","0.0-4.0-0.24","127","1","2022-11-28 03:40:04","7b1eb8be57ff77859c7d9ac988e43411","219.142.99.7","Mozilla/5.0 (Windows NT 10.0; WOW64) AppleWebKit/537.36 (KHTML, like Gecko) Chrome/94.0.4606.71 Safari/537.36 Core/1.94.172.400 QQBrowser/11.1.5140.400","WebKit","Chrome","94.0.4606.71","Windows","10.0","null","<div style=""font-size:60px;"">+</div>","null",""
"","","","","","html-button-response","53","242491","0.0-4.0-1.24","127","1","2022-11-28 03:40:04","7b1eb8be57ff77859c7d9ac988e43411","219.142.99.7","Mozilla/5.0 (Windows NT 10.0; WOW64) AppleWebKit/537.36 (KHTML, like Gecko) Chrome/94.0.4606.71 Safari/537.36 Core/1.94.172.400 QQBrowser/11.1.5140.400","WebKit","Chrome","94.0.4606.71","Windows","10.0","3022","<p>作为军队的指挥官，你可以选择发射导弹杀死 <strong>1名</strong> 敌国士兵，但会误杀附近的 <strong>1名</strong> 敌国平民。</p> <p>平民照片如下图所示。</p> <p></p> <img src='stimuli/faces/PCF6.jpg', style='max-width: 30%;'> </img> <p><strong>你是否选择发射武器？</strong></p>","1",""
"","","","","","html-keyboard-response","54","243507","0.0-4.0-0.25","127","1","2022-11-28 03:40:04","7b1eb8be57ff77859c7d9ac988e43411","219.142.99.7","Mozilla/5.0 (Windows NT 10.0; WOW64) AppleWebKit/537.36 (KHTML, like Gecko) Chrome/94.0.4606.71 Safari/537.36 Core/1.94.172.400 QQBrowser/11.1.5140.400","WebKit","Chrome","94.0.4606.71","Windows","10.0","null","<div style=""font-size:60px;"">+</div>","null",""
"","","","","","html-button-response","55","245905","0.0-4.0-1.25","127","1","2022-11-28 03:40:04","7b1eb8be57ff77859c7d9ac988e43411","219.142.99.7","Mozilla/5.0 (Windows NT 10.0; WOW64) AppleWebKit/537.36 (KHTML, like Gecko) Chrome/94.0.4606.71 Safari/537.36 Core/1.94.172.400 QQBrowser/11.1.5140.400","WebKit","Chrome","94.0.4606.71","Windows","10.0","2396","<p>作为军队的指挥官，你可以选择发射导弹杀死 <strong>7名</strong> 敌国士兵，但会误杀附近的 <strong>1名</strong> 敌国平民。</p> <p>平民照片如下图所示。</p> <p></p> <img src='stimuli/faces/PCM7.jpg', style='max-width: 30%;'> </img> <p><strong>你是否选择发射武器？</strong></p>","1",""
"","","","","","html-keyboard-response","56","246919","0.0-4.0-0.26","127","1","2022-11-28 03:40:04","7b1eb8be57ff77859c7d9ac988e43411","219.142.99.7","Mozilla/5.0 (Windows NT 10.0; WOW64) AppleWebKit/537.36 (KHTML, like Gecko) Chrome/94.0.4606.71 Safari/537.36 Core/1.94.172.400 QQBrowser/11.1.5140.400","WebKit","Chrome","94.0.4606.71","Windows","10.0","null","<div style=""font-size:60px;"">+</div>","null",""
"","","","","","html-button-response","57","249056","0.0-4.0-1.26","127","1","2022-11-28 03:40:04","7b1eb8be57ff77859c7d9ac988e43411","219.142.99.7","Mozilla/5.0 (Windows NT 10.0; WOW64) AppleWebKit/537.36 (KHTML, like Gecko) Chrome/94.0.4606.71 Safari/537.36 Core/1.94.172.400 QQBrowser/11.1.5140.400","WebKit","Chrome","94.0.4606.71","Windows","10.0","2135","<p>作为军队的指挥官，你可以选择发射导弹杀死 <strong>10名</strong> 敌国士兵，但会误杀附近的 <strong>1名</strong> 敌国平民。</p> <p>平民照片如下图所示。</p> <p></p> <img src='stimuli/faces/PCM4.jpg', style='max-width: 30%;'> </img> <p><strong>你是否选择发射武器？</strong></p>","1",""
"","","","","","html-keyboard-response","58","250070","0.0-4.0-0.27","127","1","2022-11-28 03:40:04","7b1eb8be57ff77859c7d9ac988e43411","219.142.99.7","Mozilla/5.0 (Windows NT 10.0; WOW64) AppleWebKit/537.36 (KHTML, like Gecko) Chrome/94.0.4606.71 Safari/537.36 Core/1.94.172.400 QQBrowser/11.1.5140.400","WebKit","Chrome","94.0.4606.71","Windows","10.0","null","<div style=""font-size:60px;"">+</div>","null",""
"","","","","","html-button-response","59","254004","0.0-4.0-1.27","127","1","2022-11-28 03:40:04","7b1eb8be57ff77859c7d9ac988e43411","219.142.99.7","Mozilla/5.0 (Windows NT 10.0; WOW64) AppleWebKit/537.36 (KHTML, like Gecko) Chrome/94.0.4606.71 Safari/537.36 Core/1.94.172.400 QQBrowser/11.1.5140.400","WebKit","Chrome","94.0.4606.71","Windows","10.0","3932","<p>作为军队的指挥官，你可以选择发射导弹杀死 <strong>10名</strong> 敌国士兵，但会误杀附近的 <strong>1名</strong> 敌国平民。</p> <p>平民照片如下图所示。</p> <p></p> <img src='stimuli/faces/PCM5.jpg', style='max-width: 30%;'> </img> <p><strong>你是否选择发射武器？</strong></p>","1",""
"","","","","","html-keyboard-response","60","255020","0.0-4.0-0.28","127","1","2022-11-28 03:40:04","7b1eb8be57ff77859c7d9ac988e43411","219.142.99.7","Mozilla/5.0 (Windows NT 10.0; WOW64) AppleWebKit/537.36 (KHTML, like Gecko) Chrome/94.0.4606.71 Safari/537.36 Core/1.94.172.400 QQBrowser/11.1.5140.400","WebKit","Chrome","94.0.4606.71","Windows","10.0","null","<div style=""font-size:60px;"">+</div>","null",""
"","","","","","html-button-response","61","258316","0.0-4.0-1.28","127","1","2022-11-28 03:40:04","7b1eb8be57ff77859c7d9ac988e43411","219.142.99.7","Mozilla/5.0 (Windows NT 10.0; WOW64) AppleWebKit/537.36 (KHTML, like Gecko) Chrome/94.0.4606.71 Safari/537.36 Core/1.94.172.400 QQBrowser/11.1.5140.400","WebKit","Chrome","94.0.4606.71","Windows","10.0","3293","<p>作为军队的指挥官，你可以选择发射导弹杀死 <strong>1名</strong> 敌国士兵，但会误杀附近的 <strong>1名</strong> 敌国平民。</p> <p>平民照片如下图所示。</p> <p></p> <img src='stimuli/faces/PCM7.jpg', style='max-width: 30%;'> </img> <p><strong>你是否选择发射武器？</strong></p>","1",""
"","","","","","html-keyboard-response","62","259327","0.0-4.0-0.29","127","1","2022-11-28 03:40:04","7b1eb8be57ff77859c7d9ac988e43411","219.142.99.7","Mozilla/5.0 (Windows NT 10.0; WOW64) AppleWebKit/537.36 (KHTML, like Gecko) Chrome/94.0.4606.71 Safari/537.36 Core/1.94.172.400 QQBrowser/11.1.5140.400","WebKit","Chrome","94.0.4606.71","Windows","10.0","null","<div style=""font-size:60px;"">+</div>","null",""
"","","","","","html-button-response","63","261824","0.0-4.0-1.29","127","1","2022-11-28 03:40:04","7b1eb8be57ff77859c7d9ac988e43411","219.142.99.7","Mozilla/5.0 (Windows NT 10.0; WOW64) AppleWebKit/537.36 (KHTML, like Gecko) Chrome/94.0.4606.71 Safari/537.36 Core/1.94.172.400 QQBrowser/11.1.5140.400","WebKit","Chrome","94.0.4606.71","Windows","10.0","2494","<p>作为军队的指挥官，你可以选择发射导弹杀死 <strong>9名</strong> 敌国士兵，但会炸毁附近的 <strong>1棵</strong> 敌国树木。</p> <p>树木的照片如下图所示。</p> <p></p> <img src='stimuli/trees/2.png', style='max-width: 30%;'> </img> <p><strong>你是否选择发射武器？</strong></p>","0",""
"","","","","","html-keyboard-response","64","262834","0.0-4.0-0.30","127","1","2022-11-28 03:40:04","7b1eb8be57ff77859c7d9ac988e43411","219.142.99.7","Mozilla/5.0 (Windows NT 10.0; WOW64) AppleWebKit/537.36 (KHTML, like Gecko) Chrome/94.0.4606.71 Safari/537.36 Core/1.94.172.400 QQBrowser/11.1.5140.400","WebKit","Chrome","94.0.4606.71","Windows","10.0","null","<div style=""font-size:60px;"">+</div>","null",""
"","","","","","html-button-response","65","270640","0.0-4.0-1.30","127","1","2022-11-28 03:40:04","7b1eb8be57ff77859c7d9ac988e43411","219.142.99.7","Mozilla/5.0 (Windows NT 10.0; WOW64) AppleWebKit/537.36 (KHTML, like Gecko) Chrome/94.0.4606.71 Safari/537.36 Core/1.94.172.400 QQBrowser/11.1.5140.400","WebKit","Chrome","94.0.4606.71","Windows","10.0","7804","<p>作为军队的指挥官，你可以选择发射导弹杀死 <strong>3名</strong> 敌国士兵，但会炸毁附近的 <strong>1棵</strong> 敌国树木。</p> <p>树木的照片如下图所示。</p> <p></p> <img src='stimuli/trees/7.png', style='max-width: 30%;'> </img> <p><strong>你是否选择发射武器？</strong></p>","0",""
"","","","","","html-keyboard-response","66","271649","0.0-4.0-0.31","127","1","2022-11-28 03:40:04","7b1eb8be57ff77859c7d9ac988e43411","219.142.99.7","Mozilla/5.0 (Windows NT 10.0; WOW64) AppleWebKit/537.36 (KHTML, like Gecko) Chrome/94.0.4606.71 Safari/537.36 Core/1.94.172.400 QQBrowser/11.1.5140.400","WebKit","Chrome","94.0.4606.71","Windows","10.0","null","<div style=""font-size:60px;"">+</div>","null",""
"","","","","","html-button-response","67","278865","0.0-4.0-1.31","127","1","2022-11-28 03:40:04","7b1eb8be57ff77859c7d9ac988e43411","219.142.99.7","Mozilla/5.0 (Windows NT 10.0; WOW64) AppleWebKit/537.36 (KHTML, like Gecko) Chrome/94.0.4606.71 Safari/537.36 Core/1.94.172.400 QQBrowser/11.1.5140.400","WebKit","Chrome","94.0.4606.71","Windows","10.0","7213","<p>作为军队的指挥官，你可以选择发射导弹杀死 <strong>5名</strong> 敌国士兵，但会误杀附近的 <strong>1名</strong> 敌国平民。</p> <p>平民照片如下图所示。</p> <p></p> <img src='stimuli/faces/PCM4.jpg', style='max-width: 30%;'> </img> <p><strong>你是否选择发射武器？</strong></p>","1",""
"","","","","","html-keyboard-response","68","279869","0.0-4.0-0.32","127","1","2022-11-28 03:40:04","7b1eb8be57ff77859c7d9ac988e43411","219.142.99.7","Mozilla/5.0 (Windows NT 10.0; WOW64) AppleWebKit/537.36 (KHTML, like Gecko) Chrome/94.0.4606.71 Safari/537.36 Core/1.94.172.400 QQBrowser/11.1.5140.400","WebKit","Chrome","94.0.4606.71","Windows","10.0","null","<div style=""font-size:60px;"">+</div>","null",""
"","","","","","html-button-response","69","288293","0.0-4.0-1.32","127","1","2022-11-28 03:40:04","7b1eb8be57ff77859c7d9ac988e43411","219.142.99.7","Mozilla/5.0 (Windows NT 10.0; WOW64) AppleWebKit/537.36 (KHTML, like Gecko) Chrome/94.0.4606.71 Safari/537.36 Core/1.94.172.400 QQBrowser/11.1.5140.400","WebKit","Chrome","94.0.4606.71","Windows","10.0","8422","<p>作为军队的指挥官，你可以选择发射导弹杀死 <strong>2名</strong> 敌国士兵，但会炸毁附近的 <strong>1棵</strong> 敌国树木。</p> <p>树木的照片如下图所示。</p> <p></p> <img src='stimuli/trees/4.png', style='max-width: 30%;'> </img> <p><strong>你是否选择发射武器？</strong></p>","1",""
"","","","","","html-keyboard-response","70","289295","0.0-4.0-0.33","127","1","2022-11-28 03:40:04","7b1eb8be57ff77859c7d9ac988e43411","219.142.99.7","Mozilla/5.0 (Windows NT 10.0; WOW64) AppleWebKit/537.36 (KHTML, like Gecko) Chrome/94.0.4606.71 Safari/537.36 Core/1.94.172.400 QQBrowser/11.1.5140.400","WebKit","Chrome","94.0.4606.71","Windows","10.0","null","<div style=""font-size:60px;"">+</div>","null",""
"","","","","","html-button-response","71","291066","0.0-4.0-1.33","127","1","2022-11-28 03:40:04","7b1eb8be57ff77859c7d9ac988e43411","219.142.99.7","Mozilla/5.0 (Windows NT 10.0; WOW64) AppleWebKit/537.36 (KHTML, like Gecko) Chrome/94.0.4606.71 Safari/537.36 Core/1.94.172.400 QQBrowser/11.1.5140.400","WebKit","Chrome","94.0.4606.71","Windows","10.0","1768","<p>作为军队的指挥官，你可以选择发射导弹杀死 <strong>7名</strong> 敌国士兵，但会误杀附近的 <strong>1名</strong> 敌国平民。</p> <p>平民照片如下图所示。</p> <p></p> <img src='stimuli/faces/PCF5.jpg', style='max-width: 30%;'> </img> <p><strong>你是否选择发射武器？</strong></p>","1",""
"","","","","","html-keyboard-response","72","292068","0.0-4.0-0.34","127","1","2022-11-28 03:40:04","7b1eb8be57ff77859c7d9ac988e43411","219.142.99.7","Mozilla/5.0 (Windows NT 10.0; WOW64) AppleWebKit/537.36 (KHTML, like Gecko) Chrome/94.0.4606.71 Safari/537.36 Core/1.94.172.400 QQBrowser/11.1.5140.400","WebKit","Chrome","94.0.4606.71","Windows","10.0","null","<div style=""font-size:60px;"">+</div>","null",""
"","","","","","html-button-response","73","294349","0.0-4.0-1.34","127","1","2022-11-28 03:40:04","7b1eb8be57ff77859c7d9ac988e43411","219.142.99.7","Mozilla/5.0 (Windows NT 10.0; WOW64) AppleWebKit/537.36 (KHTML, like Gecko) Chrome/94.0.4606.71 Safari/537.36 Core/1.94.172.400 QQBrowser/11.1.5140.400","WebKit","Chrome","94.0.4606.71","Windows","10.0","2278","<p>作为军队的指挥官，你可以选择发射导弹杀死 <strong>1名</strong> 敌国士兵，但会误杀附近的 <strong>1名</strong> 敌国平民。</p> <p>平民照片如下图所示。</p> <p></p> <img src='stimuli/faces/PCF2.jpg', style='max-width: 30%;'> </img> <p><strong>你是否选择发射武器？</strong></p>","1",""
"","","","","","html-keyboard-response","74","295361","0.0-4.0-0.35","127","1","2022-11-28 03:40:04","7b1eb8be57ff77859c7d9ac988e43411","219.142.99.7","Mozilla/5.0 (Windows NT 10.0; WOW64) AppleWebKit/537.36 (KHTML, like Gecko) Chrome/94.0.4606.71 Safari/537.36 Core/1.94.172.400 QQBrowser/11.1.5140.400","WebKit","Chrome","94.0.4606.71","Windows","10.0","null","<div style=""font-size:60px;"">+</div>","null",""
"","","","","","html-button-response","75","298489","0.0-4.0-1.35","127","1","2022-11-28 03:40:04","7b1eb8be57ff77859c7d9ac988e43411","219.142.99.7","Mozilla/5.0 (Windows NT 10.0; WOW64) AppleWebKit/537.36 (KHTML, like Gecko) Chrome/94.0.4606.71 Safari/537.36 Core/1.94.172.400 QQBrowser/11.1.5140.400","WebKit","Chrome","94.0.4606.71","Windows","10.0","3126","<p>作为军队的指挥官，你可以选择发射导弹杀死 <strong>8名</strong> 敌国士兵，但会误杀附近的 <strong>1名</strong> 敌国平民。</p> <p>平民照片如下图所示。</p> <p></p> <img src='stimuli/faces/PCM8.jpg', style='max-width: 30%;'> </img> <p><strong>你是否选择发射武器？</strong></p>","1",""
"","","","","","html-keyboard-response","76","299500","0.0-4.0-0.36","127","1","2022-11-28 03:40:04","7b1eb8be57ff77859c7d9ac988e43411","219.142.99.7","Mozilla/5.0 (Windows NT 10.0; WOW64) AppleWebKit/537.36 (KHTML, like Gecko) Chrome/94.0.4606.71 Safari/537.36 Core/1.94.172.400 QQBrowser/11.1.5140.400","WebKit","Chrome","94.0.4606.71","Windows","10.0","null","<div style=""font-size:60px;"">+</div>","null",""
"","","","","","html-button-response","77","301225","0.0-4.0-1.36","127","1","2022-11-28 03:40:04","7b1eb8be57ff77859c7d9ac988e43411","219.142.99.7","Mozilla/5.0 (Windows NT 10.0; WOW64) AppleWebKit/537.36 (KHTML, like Gecko) Chrome/94.0.4606.71 Safari/537.36 Core/1.94.172.400 QQBrowser/11.1.5140.400","WebKit","Chrome","94.0.4606.71","Windows","10.0","1721","<p>作为军队的指挥官，你可以选择发射导弹杀死 <strong>10名</strong> 敌国士兵，但会误杀附近的 <strong>1名</strong> 敌国平民。</p> <p>平民照片如下图所示。</p> <p></p> <img src='stimuli/faces/PCF1.jpg', style='max-width: 30%;'> </img> <p><strong>你是否选择发射武器？</strong></p>","1",""
"","","","","","html-keyboard-response","78","302237","0.0-4.0-0.37","127","1","2022-11-28 03:40:04","7b1eb8be57ff77859c7d9ac988e43411","219.142.99.7","Mozilla/5.0 (Windows NT 10.0; WOW64) AppleWebKit/537.36 (KHTML, like Gecko) Chrome/94.0.4606.71 Safari/537.36 Core/1.94.172.400 QQBrowser/11.1.5140.400","WebKit","Chrome","94.0.4606.71","Windows","10.0","null","<div style=""font-size:60px;"">+</div>","null",""
"","","","","","html-button-response","79","304598","0.0-4.0-1.37","127","1","2022-11-28 03:40:04","7b1eb8be57ff77859c7d9ac988e43411","219.142.99.7","Mozilla/5.0 (Windows NT 10.0; WOW64) AppleWebKit/537.36 (KHTML, like Gecko) Chrome/94.0.4606.71 Safari/537.36 Core/1.94.172.400 QQBrowser/11.1.5140.400","WebKit","Chrome","94.0.4606.71","Windows","10.0","2358","<p>作为军队的指挥官，你可以选择发射导弹杀死 <strong>9名</strong> 敌国士兵，但会炸毁附近的 <strong>1棵</strong> 敌国树木。</p> <p>树木的照片如下图所示。</p> <p></p> <img src='stimuli/trees/14.png', style='max-width: 30%;'> </img> <p><strong>你是否选择发射武器？</strong></p>","0",""
"","","","","","html-keyboard-response","80","305608","0.0-4.0-0.38","127","1","2022-11-28 03:40:04","7b1eb8be57ff77859c7d9ac988e43411","219.142.99.7","Mozilla/5.0 (Windows NT 10.0; WOW64) AppleWebKit/537.36 (KHTML, like Gecko) Chrome/94.0.4606.71 Safari/537.36 Core/1.94.172.400 QQBrowser/11.1.5140.400","WebKit","Chrome","94.0.4606.71","Windows","10.0","null","<div style=""font-size:60px;"">+</div>","null",""
"","","","","","html-button-response","81","308191","0.0-4.0-1.38","127","1","2022-11-28 03:40:04","7b1eb8be57ff77859c7d9ac988e43411","219.142.99.7","Mozilla/5.0 (Windows NT 10.0; WOW64) AppleWebKit/537.36 (KHTML, like Gecko) Chrome/94.0.4606.71 Safari/537.36 Core/1.94.172.400 QQBrowser/11.1.5140.400","WebKit","Chrome","94.0.4606.71","Windows","10.0","2581","<p>作为军队的指挥官，你可以选择发射导弹杀死 <strong>1名</strong> 敌国士兵，但会炸毁附近的 <strong>1棵</strong> 敌国树木。</p> <p>树木的照片如下图所示。</p> <p></p> <img src='stimuli/trees/12.png', style='max-width: 30%;'> </img> <p><strong>你是否选择发射武器？</strong></p>","1",""
"","","","","","html-keyboard-response","82","309197","0.0-4.0-0.39","127","1","2022-11-28 03:40:04","7b1eb8be57ff77859c7d9ac988e43411","219.142.99.7","Mozilla/5.0 (Windows NT 10.0; WOW64) AppleWebKit/537.36 (KHTML, like Gecko) Chrome/94.0.4606.71 Safari/537.36 Core/1.94.172.400 QQBrowser/11.1.5140.400","WebKit","Chrome","94.0.4606.71","Windows","10.0","null","<div style=""font-size:60px;"">+</div>","null",""
"","","","","","html-button-response","83","310884","0.0-4.0-1.39","127","1","2022-11-28 03:40:04","7b1eb8be57ff77859c7d9ac988e43411","219.142.99.7","Mozilla/5.0 (Windows NT 10.0; WOW64) AppleWebKit/537.36 (KHTML, like Gecko) Chrome/94.0.4606.71 Safari/537.36 Core/1.94.172.400 QQBrowser/11.1.5140.400","WebKit","Chrome","94.0.4606.71","Windows","10.0","1684","<p>作为军队的指挥官，你可以选择发射导弹杀死 <strong>7名</strong> 敌国士兵，但会炸毁附近的 <strong>1棵</strong> 敌国树木。</p> <p>树木的照片如下图所示。</p> <p></p> <img src='stimuli/trees/10.png', style='max-width: 30%;'> </img> <p><strong>你是否选择发射武器？</strong></p>","0",""
"","","","","","html-keyboard-response","84","311892","0.0-4.0-0.40","127","1","2022-11-28 03:40:04","7b1eb8be57ff77859c7d9ac988e43411","219.142.99.7","Mozilla/5.0 (Windows NT 10.0; WOW64) AppleWebKit/537.36 (KHTML, like Gecko) Chrome/94.0.4606.71 Safari/537.36 Core/1.94.172.400 QQBrowser/11.1.5140.400","WebKit","Chrome","94.0.4606.71","Windows","10.0","null","<div style=""font-size:60px;"">+</div>","null",""
"","","","","","html-button-response","85","314043","0.0-4.0-1.40","127","1","2022-11-28 03:40:04","7b1eb8be57ff77859c7d9ac988e43411","219.142.99.7","Mozilla/5.0 (Windows NT 10.0; WOW64) AppleWebKit/537.36 (KHTML, like Gecko) Chrome/94.0.4606.71 Safari/537.36 Core/1.94.172.400 QQBrowser/11.1.5140.400","WebKit","Chrome","94.0.4606.71","Windows","10.0","2147","<p>作为军队的指挥官，你可以选择发射导弹杀死 <strong>10名</strong> 敌国士兵，但会炸毁附近的 <strong>1棵</strong> 敌国树木。</p> <p>树木的照片如下图所示。</p> <p></p> <img src='stimuli/trees/5.png', style='max-width: 30%;'> </img> <p><strong>你是否选择发射武器？</strong></p>","0",""
"","","","","","html-keyboard-response","86","315049","0.0-4.0-0.41","127","1","2022-11-28 03:40:04","7b1eb8be57ff77859c7d9ac988e43411","219.142.99.7","Mozilla/5.0 (Windows NT 10.0; WOW64) AppleWebKit/537.36 (KHTML, like Gecko) Chrome/94.0.4606.71 Safari/537.36 Core/1.94.172.400 QQBrowser/11.1.5140.400","WebKit","Chrome","94.0.4606.71","Windows","10.0","null","<div style=""font-size:60px;"">+</div>","null",""
"","","","","","html-button-response","87","318652","0.0-4.0-1.41","127","1","2022-11-28 03:40:04","7b1eb8be57ff77859c7d9ac988e43411","219.142.99.7","Mozilla/5.0 (Windows NT 10.0; WOW64) AppleWebKit/537.36 (KHTML, like Gecko) Chrome/94.0.4606.71 Safari/537.36 Core/1.94.172.400 QQBrowser/11.1.5140.400","WebKit","Chrome","94.0.4606.71","Windows","10.0","3601","<p>作为军队的指挥官，你可以选择发射导弹杀死 <strong>9名</strong> 敌国士兵，但会炸毁附近的 <strong>1棵</strong> 敌国树木。</p> <p>树木的照片如下图所示。</p> <p></p> <img src='stimuli/trees/12.png', style='max-width: 30%;'> </img> <p><strong>你是否选择发射武器？</strong></p>","0",""
"","","","","","html-keyboard-response","88","319663","0.0-4.0-0.42","127","1","2022-11-28 03:40:04","7b1eb8be57ff77859c7d9ac988e43411","219.142.99.7","Mozilla/5.0 (Windows NT 10.0; WOW64) AppleWebKit/537.36 (KHTML, like Gecko) Chrome/94.0.4606.71 Safari/537.36 Core/1.94.172.400 QQBrowser/11.1.5140.400","WebKit","Chrome","94.0.4606.71","Windows","10.0","null","<div style=""font-size:60px;"">+</div>","null",""
"","","","","","html-button-response","89","321116","0.0-4.0-1.42","127","1","2022-11-28 03:40:04","7b1eb8be57ff77859c7d9ac988e43411","219.142.99.7","Mozilla/5.0 (Windows NT 10.0; WOW64) AppleWebKit/537.36 (KHTML, like Gecko) Chrome/94.0.4606.71 Safari/537.36 Core/1.94.172.400 QQBrowser/11.1.5140.400","WebKit","Chrome","94.0.4606.71","Windows","10.0","1450","<p>作为军队的指挥官，你可以选择发射导弹杀死 <strong>5名</strong> 敌国士兵，但会误杀附近的 <strong>1名</strong> 敌国平民。</p> <p>平民照片如下图所示。</p> <p></p> <img src='stimuli/faces/PCF3.jpg', style='max-width: 30%;'> </img> <p><strong>你是否选择发射武器？</strong></p>","1",""
"","","","","","html-keyboard-response","90","322122","0.0-4.0-0.43","127","1","2022-11-28 03:40:04","7b1eb8be57ff77859c7d9ac988e43411","219.142.99.7","Mozilla/5.0 (Windows NT 10.0; WOW64) AppleWebKit/537.36 (KHTML, like Gecko) Chrome/94.0.4606.71 Safari/537.36 Core/1.94.172.400 QQBrowser/11.1.5140.400","WebKit","Chrome","94.0.4606.71","Windows","10.0","null","<div style=""font-size:60px;"">+</div>","null",""
"","","","","","html-button-response","91","323229","0.0-4.0-1.43","127","1","2022-11-28 03:40:04","7b1eb8be57ff77859c7d9ac988e43411","219.142.99.7","Mozilla/5.0 (Windows NT 10.0; WOW64) AppleWebKit/537.36 (KHTML, like Gecko) Chrome/94.0.4606.71 Safari/537.36 Core/1.94.172.400 QQBrowser/11.1.5140.400","WebKit","Chrome","94.0.4606.71","Windows","10.0","1105","<p>作为军队的指挥官，你可以选择发射导弹杀死 <strong>5名</strong> 敌国士兵，但会误杀附近的 <strong>1名</strong> 敌国平民。</p> <p>平民照片如下图所示。</p> <p></p> <img src='stimuli/faces/PCM6.jpg', style='max-width: 30%;'> </img> <p><strong>你是否选择发射武器？</strong></p>","1",""
"","","","","","html-keyboard-response","92","324234","0.0-4.0-0.44","127","1","2022-11-28 03:40:04","7b1eb8be57ff77859c7d9ac988e43411","219.142.99.7","Mozilla/5.0 (Windows NT 10.0; WOW64) AppleWebKit/537.36 (KHTML, like Gecko) Chrome/94.0.4606.71 Safari/537.36 Core/1.94.172.400 QQBrowser/11.1.5140.400","WebKit","Chrome","94.0.4606.71","Windows","10.0","null","<div style=""font-size:60px;"">+</div>","null",""
"","","","","","html-button-response","93","325998","0.0-4.0-1.44","127","1","2022-11-28 03:40:04","7b1eb8be57ff77859c7d9ac988e43411","219.142.99.7","Mozilla/5.0 (Windows NT 10.0; WOW64) AppleWebKit/537.36 (KHTML, like Gecko) Chrome/94.0.4606.71 Safari/537.36 Core/1.94.172.400 QQBrowser/11.1.5140.400","WebKit","Chrome","94.0.4606.71","Windows","10.0","1761","<p>作为军队的指挥官，你可以选择发射导弹杀死 <strong>5名</strong> 敌国士兵，但会炸毁附近的 <strong>1棵</strong> 敌国树木。</p> <p>树木的照片如下图所示。</p> <p></p> <img src='stimuli/trees/1.png', style='max-width: 30%;'> </img> <p><strong>你是否选择发射武器？</strong></p>","0",""
"","","","","","html-keyboard-response","94","327000","0.0-4.0-0.45","127","1","2022-11-28 03:40:04","7b1eb8be57ff77859c7d9ac988e43411","219.142.99.7","Mozilla/5.0 (Windows NT 10.0; WOW64) AppleWebKit/537.36 (KHTML, like Gecko) Chrome/94.0.4606.71 Safari/537.36 Core/1.94.172.400 QQBrowser/11.1.5140.400","WebKit","Chrome","94.0.4606.71","Windows","10.0","null","<div style=""font-size:60px;"">+</div>","null",""
"","","","","","html-button-response","95","328595","0.0-4.0-1.45","127","1","2022-11-28 03:40:04","7b1eb8be57ff77859c7d9ac988e43411","219.142.99.7","Mozilla/5.0 (Windows NT 10.0; WOW64) AppleWebKit/537.36 (KHTML, like Gecko) Chrome/94.0.4606.71 Safari/537.36 Core/1.94.172.400 QQBrowser/11.1.5140.400","WebKit","Chrome","94.0.4606.71","Windows","10.0","1592","<p>作为军队的指挥官，你可以选择发射导弹杀死 <strong>7名</strong> 敌国士兵，但会炸毁附近的 <strong>1棵</strong> 敌国树木。</p> <p>树木的照片如下图所示。</p> <p></p> <img src='stimuli/trees/11.png', style='max-width: 30%;'> </img> <p><strong>你是否选择发射武器？</strong></p>","0",""
"","","","","","html-keyboard-response","96","329601","0.0-4.0-0.46","127","1","2022-11-28 03:40:04","7b1eb8be57ff77859c7d9ac988e43411","219.142.99.7","Mozilla/5.0 (Windows NT 10.0; WOW64) AppleWebKit/537.36 (KHTML, like Gecko) Chrome/94.0.4606.71 Safari/537.36 Core/1.94.172.400 QQBrowser/11.1.5140.400","WebKit","Chrome","94.0.4606.71","Windows","10.0","null","<div style=""font-size:60px;"">+</div>","null",""
"","","","","","html-button-response","97","331386","0.0-4.0-1.46","127","1","2022-11-28 03:40:04","7b1eb8be57ff77859c7d9ac988e43411","219.142.99.7","Mozilla/5.0 (Windows NT 10.0; WOW64) AppleWebKit/537.36 (KHTML, like Gecko) Chrome/94.0.4606.71 Safari/537.36 Core/1.94.172.400 QQBrowser/11.1.5140.400","WebKit","Chrome","94.0.4606.71","Windows","10.0","1781","<p>作为军队的指挥官，你可以选择发射导弹杀死 <strong>5名</strong> 敌国士兵，但会炸毁附近的 <strong>1棵</strong> 敌国树木。</p> <p>树木的照片如下图所示。</p> <p></p> <img src='stimuli/trees/13.png', style='max-width: 30%;'> </img> <p><strong>你是否选择发射武器？</strong></p>","0",""
"","","","","","html-keyboard-response","98","332397","0.0-4.0-0.47","127","1","2022-11-28 03:40:04","7b1eb8be57ff77859c7d9ac988e43411","219.142.99.7","Mozilla/5.0 (Windows NT 10.0; WOW64) AppleWebKit/537.36 (KHTML, like Gecko) Chrome/94.0.4606.71 Safari/537.36 Core/1.94.172.400 QQBrowser/11.1.5140.400","WebKit","Chrome","94.0.4606.71","Windows","10.0","null","<div style=""font-size:60px;"">+</div>","null",""
"","","","","","html-button-response","99","334087","0.0-4.0-1.47","127","1","2022-11-28 03:40:04","7b1eb8be57ff77859c7d9ac988e43411","219.142.99.7","Mozilla/5.0 (Windows NT 10.0; WOW64) AppleWebKit/537.36 (KHTML, like Gecko) Chrome/94.0.4606.71 Safari/537.36 Core/1.94.172.400 QQBrowser/11.1.5140.400","WebKit","Chrome","94.0.4606.71","Windows","10.0","1687","<p>作为军队的指挥官，你可以选择发射导弹杀死 <strong>7名</strong> 敌国士兵，但会误杀附近的 <strong>1名</strong> 敌国平民。</p> <p>平民照片如下图所示。</p> <p></p> <img src='stimuli/faces/PCF7.jpg', style='max-width: 30%;'> </img> <p><strong>你是否选择发射武器？</strong></p>","1",""
"","","","","","html-keyboard-response","100","335100","0.0-4.0-0.48","127","1","2022-11-28 03:40:04","7b1eb8be57ff77859c7d9ac988e43411","219.142.99.7","Mozilla/5.0 (Windows NT 10.0; WOW64) AppleWebKit/537.36 (KHTML, like Gecko) Chrome/94.0.4606.71 Safari/537.36 Core/1.94.172.400 QQBrowser/11.1.5140.400","WebKit","Chrome","94.0.4606.71","Windows","10.0","null","<div style=""font-size:60px;"">+</div>","null",""
"","","","","","html-button-response","101","336702","0.0-4.0-1.48","127","1","2022-11-28 03:40:04","7b1eb8be57ff77859c7d9ac988e43411","219.142.99.7","Mozilla/5.0 (Windows NT 10.0; WOW64) AppleWebKit/537.36 (KHTML, like Gecko) Chrome/94.0.4606.71 Safari/537.36 Core/1.94.172.400 QQBrowser/11.1.5140.400","WebKit","Chrome","94.0.4606.71","Windows","10.0","1598","<p>作为军队的指挥官，你可以选择发射导弹杀死 <strong>4名</strong> 敌国士兵，但会炸毁附近的 <strong>1棵</strong> 敌国树木。</p> <p>树木的照片如下图所示。</p> <p></p> <img src='stimuli/trees/16.png', style='max-width: 30%;'> </img> <p><strong>你是否选择发射武器？</strong></p>","0",""
"","","","","","html-keyboard-response","102","337704","0.0-4.0-0.49","127","1","2022-11-28 03:40:04","7b1eb8be57ff77859c7d9ac988e43411","219.142.99.7","Mozilla/5.0 (Windows NT 10.0; WOW64) AppleWebKit/537.36 (KHTML, like Gecko) Chrome/94.0.4606.71 Safari/537.36 Core/1.94.172.400 QQBrowser/11.1.5140.400","WebKit","Chrome","94.0.4606.71","Windows","10.0","null","<div style=""font-size:60px;"">+</div>","null",""
"","","","","","html-button-response","103","339899","0.0-4.0-1.49","127","1","2022-11-28 03:40:04","7b1eb8be57ff77859c7d9ac988e43411","219.142.99.7","Mozilla/5.0 (Windows NT 10.0; WOW64) AppleWebKit/537.36 (KHTML, like Gecko) Chrome/94.0.4606.71 Safari/537.36 Core/1.94.172.400 QQBrowser/11.1.5140.400","WebKit","Chrome","94.0.4606.71","Windows","10.0","2192","<p>作为军队的指挥官，你可以选择发射导弹杀死 <strong>10名</strong> 敌国士兵，但会炸毁附近的 <strong>1棵</strong> 敌国树木。</p> <p>树木的照片如下图所示。</p> <p></p> <img src='stimuli/trees/13.png', style='max-width: 30%;'> </img> <p><strong>你是否选择发射武器？</strong></p>","0",""
"","","","","","html-keyboard-response","104","340906","0.0-4.0-0.50","127","1","2022-11-28 03:40:04","7b1eb8be57ff77859c7d9ac988e43411","219.142.99.7","Mozilla/5.0 (Windows NT 10.0; WOW64) AppleWebKit/537.36 (KHTML, like Gecko) Chrome/94.0.4606.71 Safari/537.36 Core/1.94.172.400 QQBrowser/11.1.5140.400","WebKit","Chrome","94.0.4606.71","Windows","10.0","null","<div style=""font-size:60px;"">+</div>","null",""
"","","","","","html-button-response","105","342805","0.0-4.0-1.50","127","1","2022-11-28 03:40:04","7b1eb8be57ff77859c7d9ac988e43411","219.142.99.7","Mozilla/5.0 (Windows NT 10.0; WOW64) AppleWebKit/537.36 (KHTML, like Gecko) Chrome/94.0.4606.71 Safari/537.36 Core/1.94.172.400 QQBrowser/11.1.5140.400","WebKit","Chrome","94.0.4606.71","Windows","10.0","1896","<p>作为军队的指挥官，你可以选择发射导弹杀死 <strong>4名</strong> 敌国士兵，但会炸毁附近的 <strong>1棵</strong> 敌国树木。</p> <p>树木的照片如下图所示。</p> <p></p> <img src='stimuli/trees/8.png', style='max-width: 30%;'> </img> <p><strong>你是否选择发射武器？</strong></p>","0",""
"","","","","","html-keyboard-response","106","343811","0.0-4.0-0.51","127","1","2022-11-28 03:40:04","7b1eb8be57ff77859c7d9ac988e43411","219.142.99.7","Mozilla/5.0 (Windows NT 10.0; WOW64) AppleWebKit/537.36 (KHTML, like Gecko) Chrome/94.0.4606.71 Safari/537.36 Core/1.94.172.400 QQBrowser/11.1.5140.400","WebKit","Chrome","94.0.4606.71","Windows","10.0","null","<div style=""font-size:60px;"">+</div>","null",""
"","","","","","html-button-response","107","347431","0.0-4.0-1.51","127","1","2022-11-28 03:40:04","7b1eb8be57ff77859c7d9ac988e43411","219.142.99.7","Mozilla/5.0 (Windows NT 10.0; WOW64) AppleWebKit/537.36 (KHTML, like Gecko) Chrome/94.0.4606.71 Safari/537.36 Core/1.94.172.400 QQBrowser/11.1.5140.400","WebKit","Chrome","94.0.4606.71","Windows","10.0","3616","<p>作为军队的指挥官，你可以选择发射导弹杀死 <strong>2名</strong> 敌国士兵，但会炸毁附近的 <strong>1棵</strong> 敌国树木。</p> <p>树木的照片如下图所示。</p> <p></p> <img src='stimuli/trees/9.png', style='max-width: 30%;'> </img> <p><strong>你是否选择发射武器？</strong></p>","1",""
"","","","","","html-keyboard-response","108","348442","0.0-4.0-0.52","127","1","2022-11-28 03:40:04","7b1eb8be57ff77859c7d9ac988e43411","219.142.99.7","Mozilla/5.0 (Windows NT 10.0; WOW64) AppleWebKit/537.36 (KHTML, like Gecko) Chrome/94.0.4606.71 Safari/537.36 Core/1.94.172.400 QQBrowser/11.1.5140.400","WebKit","Chrome","94.0.4606.71","Windows","10.0","null","<div style=""font-size:60px;"">+</div>","null",""
"","","","","","html-button-response","109","350455","0.0-4.0-1.52","127","1","2022-11-28 03:40:04","7b1eb8be57ff77859c7d9ac988e43411","219.142.99.7","Mozilla/5.0 (Windows NT 10.0; WOW64) AppleWebKit/537.36 (KHTML, like Gecko) Chrome/94.0.4606.71 Safari/537.36 Core/1.94.172.400 QQBrowser/11.1.5140.400","WebKit","Chrome","94.0.4606.71","Windows","10.0","2010","<p>作为军队的指挥官，你可以选择发射导弹杀死 <strong>2名</strong> 敌国士兵，但会误杀附近的 <strong>1名</strong> 敌国平民。</p> <p>平民照片如下图所示。</p> <p></p> <img src='stimuli/faces/PCF5.jpg', style='max-width: 30%;'> </img> <p><strong>你是否选择发射武器？</strong></p>","1",""
"","","","","","html-keyboard-response","110","351463","0.0-4.0-0.53","127","1","2022-11-28 03:40:04","7b1eb8be57ff77859c7d9ac988e43411","219.142.99.7","Mozilla/5.0 (Windows NT 10.0; WOW64) AppleWebKit/537.36 (KHTML, like Gecko) Chrome/94.0.4606.71 Safari/537.36 Core/1.94.172.400 QQBrowser/11.1.5140.400","WebKit","Chrome","94.0.4606.71","Windows","10.0","null","<div style=""font-size:60px;"">+</div>","null",""
"","","","","","html-button-response","111","352993","0.0-4.0-1.53","127","1","2022-11-28 03:40:04","7b1eb8be57ff77859c7d9ac988e43411","219.142.99.7","Mozilla/5.0 (Windows NT 10.0; WOW64) AppleWebKit/537.36 (KHTML, like Gecko) Chrome/94.0.4606.71 Safari/537.36 Core/1.94.172.400 QQBrowser/11.1.5140.400","WebKit","Chrome","94.0.4606.71","Windows","10.0","1528","<p>作为军队的指挥官，你可以选择发射导弹杀死 <strong>5名</strong> 敌国士兵，但会误杀附近的 <strong>1名</strong> 敌国平民。</p> <p>平民照片如下图所示。</p> <p></p> <img src='stimuli/faces/PCM5.jpg', style='max-width: 30%;'> </img> <p><strong>你是否选择发射武器？</strong></p>","1",""
"","","","","","html-keyboard-response","112","354006","0.0-4.0-0.54","127","1","2022-11-28 03:40:04","7b1eb8be57ff77859c7d9ac988e43411","219.142.99.7","Mozilla/5.0 (Windows NT 10.0; WOW64) AppleWebKit/537.36 (KHTML, like Gecko) Chrome/94.0.4606.71 Safari/537.36 Core/1.94.172.400 QQBrowser/11.1.5140.400","WebKit","Chrome","94.0.4606.71","Windows","10.0","null","<div style=""font-size:60px;"">+</div>","null",""
"","","","","","html-button-response","113","355982","0.0-4.0-1.54","127","1","2022-11-28 03:40:04","7b1eb8be57ff77859c7d9ac988e43411","219.142.99.7","Mozilla/5.0 (Windows NT 10.0; WOW64) AppleWebKit/537.36 (KHTML, like Gecko) Chrome/94.0.4606.71 Safari/537.36 Core/1.94.172.400 QQBrowser/11.1.5140.400","WebKit","Chrome","94.0.4606.71","Windows","10.0","1974","<p>作为军队的指挥官，你可以选择发射导弹杀死 <strong>3名</strong> 敌国士兵，但会误杀附近的 <strong>1名</strong> 敌国平民。</p> <p>平民照片如下图所示。</p> <p></p> <img src='stimuli/faces/PCM8.jpg', style='max-width: 30%;'> </img> <p><strong>你是否选择发射武器？</strong></p>","1",""
"","","","","","html-keyboard-response","114","356993","0.0-4.0-0.55","127","1","2022-11-28 03:40:04","7b1eb8be57ff77859c7d9ac988e43411","219.142.99.7","Mozilla/5.0 (Windows NT 10.0; WOW64) AppleWebKit/537.36 (KHTML, like Gecko) Chrome/94.0.4606.71 Safari/537.36 Core/1.94.172.400 QQBrowser/11.1.5140.400","WebKit","Chrome","94.0.4606.71","Windows","10.0","null","<div style=""font-size:60px;"">+</div>","null",""
"","","","","","html-button-response","115","358693","0.0-4.0-1.55","127","1","2022-11-28 03:40:04","7b1eb8be57ff77859c7d9ac988e43411","219.142.99.7","Mozilla/5.0 (Windows NT 10.0; WOW64) AppleWebKit/537.36 (KHTML, like Gecko) Chrome/94.0.4606.71 Safari/537.36 Core/1.94.172.400 QQBrowser/11.1.5140.400","WebKit","Chrome","94.0.4606.71","Windows","10.0","1697","<p>作为军队的指挥官，你可以选择发射导弹杀死 <strong>3名</strong> 敌国士兵，但会误杀附近的 <strong>1名</strong> 敌国平民。</p> <p>平民照片如下图所示。</p> <p></p> <img src='stimuli/faces/PCF4.jpg', style='max-width: 30%;'> </img> <p><strong>你是否选择发射武器？</strong></p>","1",""
"","","","","","html-keyboard-response","116","359705","0.0-4.0-0.56","127","1","2022-11-28 03:40:04","7b1eb8be57ff77859c7d9ac988e43411","219.142.99.7","Mozilla/5.0 (Windows NT 10.0; WOW64) AppleWebKit/537.36 (KHTML, like Gecko) Chrome/94.0.4606.71 Safari/537.36 Core/1.94.172.400 QQBrowser/11.1.5140.400","WebKit","Chrome","94.0.4606.71","Windows","10.0","null","<div style=""font-size:60px;"">+</div>","null",""
"","","","","","html-button-response","117","361910","0.0-4.0-1.56","127","1","2022-11-28 03:40:04","7b1eb8be57ff77859c7d9ac988e43411","219.142.99.7","Mozilla/5.0 (Windows NT 10.0; WOW64) AppleWebKit/537.36 (KHTML, like Gecko) Chrome/94.0.4606.71 Safari/537.36 Core/1.94.172.400 QQBrowser/11.1.5140.400","WebKit","Chrome","94.0.4606.71","Windows","10.0","2202","<p>作为军队的指挥官，你可以选择发射导弹杀死 <strong>2名</strong> 敌国士兵，但会误杀附近的 <strong>1名</strong> 敌国平民。</p> <p>平民照片如下图所示。</p> <p></p> <img src='stimuli/faces/PCM1.jpg', style='max-width: 30%;'> </img> <p><strong>你是否选择发射武器？</strong></p>","1",""
"","","","","","html-keyboard-response","118","362921","0.0-4.0-0.57","127","1","2022-11-28 03:40:04","7b1eb8be57ff77859c7d9ac988e43411","219.142.99.7","Mozilla/5.0 (Windows NT 10.0; WOW64) AppleWebKit/537.36 (KHTML, like Gecko) Chrome/94.0.4606.71 Safari/537.36 Core/1.94.172.400 QQBrowser/11.1.5140.400","WebKit","Chrome","94.0.4606.71","Windows","10.0","null","<div style=""font-size:60px;"">+</div>","null",""
"","","","","","html-button-response","119","366047","0.0-4.0-1.57","127","1","2022-11-28 03:40:04","7b1eb8be57ff77859c7d9ac988e43411","219.142.99.7","Mozilla/5.0 (Windows NT 10.0; WOW64) AppleWebKit/537.36 (KHTML, like Gecko) Chrome/94.0.4606.71 Safari/537.36 Core/1.94.172.400 QQBrowser/11.1.5140.400","WebKit","Chrome","94.0.4606.71","Windows","10.0","3120","<p>作为军队的指挥官，你可以选择发射导弹杀死 <strong>10名</strong> 敌国士兵，但会误杀附近的 <strong>1名</strong> 敌国平民。</p> <p>平民照片如下图所示。</p> <p></p> <img src='stimuli/faces/PCM1.jpg', style='max-width: 30%;'> </img> <p><strong>你是否选择发射武器？</strong></p>","1",""
"","","","","","html-keyboard-response","120","367053","0.0-4.0-0.58","127","1","2022-11-28 03:40:04","7b1eb8be57ff77859c7d9ac988e43411","219.142.99.7","Mozilla/5.0 (Windows NT 10.0; WOW64) AppleWebKit/537.36 (KHTML, like Gecko) Chrome/94.0.4606.71 Safari/537.36 Core/1.94.172.400 QQBrowser/11.1.5140.400","WebKit","Chrome","94.0.4606.71","Windows","10.0","null","<div style=""font-size:60px;"">+</div>","null",""
"","","","","","html-button-response","121","368851","0.0-4.0-1.58","127","1","2022-11-28 03:40:04","7b1eb8be57ff77859c7d9ac988e43411","219.142.99.7","Mozilla/5.0 (Windows NT 10.0; WOW64) AppleWebKit/537.36 (KHTML, like Gecko) Chrome/94.0.4606.71 Safari/537.36 Core/1.94.172.400 QQBrowser/11.1.5140.400","WebKit","Chrome","94.0.4606.71","Windows","10.0","1794","<p>作为军队的指挥官，你可以选择发射导弹杀死 <strong>8名</strong> 敌国士兵，但会炸毁附近的 <strong>1棵</strong> 敌国树木。</p> <p>树木的照片如下图所示。</p> <p></p> <img src='stimuli/trees/4.png', style='max-width: 30%;'> </img> <p><strong>你是否选择发射武器？</strong></p>","0",""
"","","","","","html-keyboard-response","122","369861","0.0-4.0-0.59","127","1","2022-11-28 03:40:04","7b1eb8be57ff77859c7d9ac988e43411","219.142.99.7","Mozilla/5.0 (Windows NT 10.0; WOW64) AppleWebKit/537.36 (KHTML, like Gecko) Chrome/94.0.4606.71 Safari/537.36 Core/1.94.172.400 QQBrowser/11.1.5140.400","WebKit","Chrome","94.0.4606.71","Windows","10.0","null","<div style=""font-size:60px;"">+</div>","null",""
"","","","","","html-button-response","123","371483","0.0-4.0-1.59","127","1","2022-11-28 03:40:04","7b1eb8be57ff77859c7d9ac988e43411","219.142.99.7","Mozilla/5.0 (Windows NT 10.0; WOW64) AppleWebKit/537.36 (KHTML, like Gecko) Chrome/94.0.4606.71 Safari/537.36 Core/1.94.172.400 QQBrowser/11.1.5140.400","WebKit","Chrome","94.0.4606.71","Windows","10.0","1620","<p>作为军队的指挥官，你可以选择发射导弹杀死 <strong>10名</strong> 敌国士兵，但会误杀附近的 <strong>1名</strong> 敌国平民。</p> <p>平民照片如下图所示。</p> <p></p> <img src='stimuli/faces/PCM2.jpg', style='max-width: 30%;'> </img> <p><strong>你是否选择发射武器？</strong></p>","1",""
"","","","","","html-keyboard-response","124","372493","0.0-4.0-0.60","127","1","2022-11-28 03:40:04","7b1eb8be57ff77859c7d9ac988e43411","219.142.99.7","Mozilla/5.0 (Windows NT 10.0; WOW64) AppleWebKit/537.36 (KHTML, like Gecko) Chrome/94.0.4606.71 Safari/537.36 Core/1.94.172.400 QQBrowser/11.1.5140.400","WebKit","Chrome","94.0.4606.71","Windows","10.0","null","<div style=""font-size:60px;"">+</div>","null",""
"","","","","","html-button-response","125","374382","0.0-4.0-1.60","127","1","2022-11-28 03:40:04","7b1eb8be57ff77859c7d9ac988e43411","219.142.99.7","Mozilla/5.0 (Windows NT 10.0; WOW64) AppleWebKit/537.36 (KHTML, like Gecko) Chrome/94.0.4606.71 Safari/537.36 Core/1.94.172.400 QQBrowser/11.1.5140.400","WebKit","Chrome","94.0.4606.71","Windows","10.0","1886","<p>作为军队的指挥官，你可以选择发射导弹杀死 <strong>7名</strong> 敌国士兵，但会炸毁附近的 <strong>1棵</strong> 敌国树木。</p> <p>树木的照片如下图所示。</p> <p></p> <img src='stimuli/trees/8.png', style='max-width: 30%;'> </img> <p><strong>你是否选择发射武器？</strong></p>","0",""
"","","","","","html-keyboard-response","126","375398","0.0-4.0-0.61","127","1","2022-11-28 03:40:04","7b1eb8be57ff77859c7d9ac988e43411","219.142.99.7","Mozilla/5.0 (Windows NT 10.0; WOW64) AppleWebKit/537.36 (KHTML, like Gecko) Chrome/94.0.4606.71 Safari/537.36 Core/1.94.172.400 QQBrowser/11.1.5140.400","WebKit","Chrome","94.0.4606.71","Windows","10.0","null","<div style=""font-size:60px;"">+</div>","null",""
"","","","","","html-button-response","127","376947","0.0-4.0-1.61","127","1","2022-11-28 03:40:04","7b1eb8be57ff77859c7d9ac988e43411","219.142.99.7","Mozilla/5.0 (Windows NT 10.0; WOW64) AppleWebKit/537.36 (KHTML, like Gecko) Chrome/94.0.4606.71 Safari/537.36 Core/1.94.172.400 QQBrowser/11.1.5140.400","WebKit","Chrome","94.0.4606.71","Windows","10.0","1546","<p>作为军队的指挥官，你可以选择发射导弹杀死 <strong>1名</strong> 敌国士兵，但会误杀附近的 <strong>1名</strong> 敌国平民。</p> <p>平民照片如下图所示。</p> <p></p> <img src='stimuli/faces/PCF7.jpg', style='max-width: 30%;'> </img> <p><strong>你是否选择发射武器？</strong></p>","1",""
"","","","","","html-keyboard-response","128","377958","0.0-4.0-0.62","127","1","2022-11-28 03:40:04","7b1eb8be57ff77859c7d9ac988e43411","219.142.99.7","Mozilla/5.0 (Windows NT 10.0; WOW64) AppleWebKit/537.36 (KHTML, like Gecko) Chrome/94.0.4606.71 Safari/537.36 Core/1.94.172.400 QQBrowser/11.1.5140.400","WebKit","Chrome","94.0.4606.71","Windows","10.0","null","<div style=""font-size:60px;"">+</div>","null",""
"","","","","","html-button-response","129","380245","0.0-4.0-1.62","127","1","2022-11-28 03:40:04","7b1eb8be57ff77859c7d9ac988e43411","219.142.99.7","Mozilla/5.0 (Windows NT 10.0; WOW64) AppleWebKit/537.36 (KHTML, like Gecko) Chrome/94.0.4606.71 Safari/537.36 Core/1.94.172.400 QQBrowser/11.1.5140.400","WebKit","Chrome","94.0.4606.71","Windows","10.0","2284","<p>作为军队的指挥官，你可以选择发射导弹杀死 <strong>1名</strong> 敌国士兵，但会炸毁附近的 <strong>1棵</strong> 敌国树木。</p> <p>树木的照片如下图所示。</p> <p></p> <img src='stimuli/trees/5.png', style='max-width: 30%;'> </img> <p><strong>你是否选择发射武器？</strong></p>","1",""
"","","","","","html-keyboard-response","130","381255","0.0-4.0-0.63","127","1","2022-11-28 03:40:04","7b1eb8be57ff77859c7d9ac988e43411","219.142.99.7","Mozilla/5.0 (Windows NT 10.0; WOW64) AppleWebKit/537.36 (KHTML, like Gecko) Chrome/94.0.4606.71 Safari/537.36 Core/1.94.172.400 QQBrowser/11.1.5140.400","WebKit","Chrome","94.0.4606.71","Windows","10.0","null","<div style=""font-size:60px;"">+</div>","null",""
"","","","","","html-button-response","131","383011","0.0-4.0-1.63","127","1","2022-11-28 03:40:04","7b1eb8be57ff77859c7d9ac988e43411","219.142.99.7","Mozilla/5.0 (Windows NT 10.0; WOW64) AppleWebKit/537.36 (KHTML, like Gecko) Chrome/94.0.4606.71 Safari/537.36 Core/1.94.172.400 QQBrowser/11.1.5140.400","WebKit","Chrome","94.0.4606.71","Windows","10.0","1752","<p>作为军队的指挥官，你可以选择发射导弹杀死 <strong>8名</strong> 敌国士兵，但会炸毁附近的 <strong>1棵</strong> 敌国树木。</p> <p>树木的照片如下图所示。</p> <p></p> <img src='stimuli/trees/6.png', style='max-width: 30%;'> </img> <p><strong>你是否选择发射武器？</strong></p>","0",""
"","","","","","survey-multi-choice","132","410316","0.0-5.0","127","1","2022-11-28 03:40:04","7b1eb8be57ff77859c7d9ac988e43411","219.142.99.7","Mozilla/5.0 (Windows NT 10.0; WOW64) AppleWebKit/537.36 (KHTML, like Gecko) Chrome/94.0.4606.71 Safari/537.36 Core/1.94.172.400 QQBrowser/11.1.5140.400","WebKit","Chrome","94.0.4606.71","Windows","10.0","27302","","{""Attention1"":""""}","[0]"
"","","","","","html-button-response","133","413913","0.0-6.0","127","1","2022-11-28 03:40:04","7b1eb8be57ff77859c7d9ac988e43411","219.142.99.7","Mozilla/5.0 (Windows NT 10.0; WOW64) AppleWebKit/537.36 (KHTML, like Gecko) Chrome/94.0.4606.71 Safari/537.36 Core/1.94.172.400 QQBrowser/11.1.5140.400","WebKit","Chrome","94.0.4606.71","Windows","10.0","3591","<p style=""font-size:20px;font-weight:bold;"">恭喜！</p><p>你已经完成了实验的第一部分。</p><p>请休息放松一下，然后进入第二部分。</p><p>这部分大约需要10分钟。</p>","0",""
"","","","","","survey-text","134","574008","0.0-7.0","127","1","2022-11-28 03:40:04","7b1eb8be57ff77859c7d9ac988e43411","219.142.99.7","Mozilla/5.0 (Windows NT 10.0; WOW64) AppleWebKit/537.36 (KHTML, like Gecko) Chrome/94.0.4606.71 Safari/537.36 Core/1.94.172.400 QQBrowser/11.1.5140.400","WebKit","Chrome","94.0.4606.71","Windows","10.0","159081","","{""Age"":""20"",""Nation"":""中国"",""Born"":""贵州省"",""Live"":""北京市"",""Ethnic"":""汉族"",""Alipay"":""16608579066"",""ID"":""202011080110""}",""
"","","","","","survey-multi-choice","135","646826","0.0-8.0","127","1","2022-11-28 03:40:04","7b1eb8be57ff77859c7d9ac988e43411","219.142.99.7","Mozilla/5.0 (Windows NT 10.0; WOW64) AppleWebKit/537.36 (KHTML, like Gecko) Chrome/94.0.4606.71 Safari/537.36 Core/1.94.172.400 QQBrowser/11.1.5140.400","WebKit","Chrome","94.0.4606.71","Windows","10.0","72813","","{""Gender"":""女"",""Education"":""高中毕业"",""Income"":""￥140,000-￥269,999"",""Children"":""0"",""Race"":""亚洲人""}","[0,1,2,3,4]"
"","","","","","survey-multi-select","136","667542","0.0-9.0","127","1","2022-11-28 03:40:04","7b1eb8be57ff77859c7d9ac988e43411","219.142.99.7","Mozilla/5.0 (Windows NT 10.0; WOW64) AppleWebKit/537.36 (KHTML, like Gecko) Chrome/94.0.4606.71 Safari/537.36 Core/1.94.172.400 QQBrowser/11.1.5140.400","WebKit","Chrome","94.0.4606.71","Windows","10.0","20701","","{""Marriage"":[""未婚""],""Religion"":[""无宗教信仰""]}","[0,1]"
"","","","","","survey-multi-choice","137","690370","0.0-10.0","127","1","2022-11-28 03:40:04","7b1eb8be57ff77859c7d9ac988e43411","219.142.99.7","Mozilla/5.0 (Windows NT 10.0; WOW64) AppleWebKit/537.36 (KHTML, like Gecko) Chrome/94.0.4606.71 Safari/537.36 Core/1.94.172.400 QQBrowser/11.1.5140.400","WebKit","Chrome","94.0.4606.71","Windows","10.0","22822","","{""SES"":""4""}","[0]"
"","","","","","html-button-response","138","696097","0.0-11.0","127","1","2022-11-28 03:40:04","7b1eb8be57ff77859c7d9ac988e43411","219.142.99.7","Mozilla/5.0 (Windows NT 10.0; WOW64) AppleWebKit/537.36 (KHTML, like Gecko) Chrome/94.0.4606.71 Safari/537.36 Core/1.94.172.400 QQBrowser/11.1.5140.400","WebKit","Chrome","94.0.4606.71","Windows","10.0","5722","<p><strong>请判断下列陈述在多大程度上可以形容你？</p><p> (1 = ""和我一点都不像"" to 5 = ""非常像我"".)</strong></p>","0",""
"","","","","","survey-likert","139","760824","0.0-12.0","127","1","2022-11-28 03:40:04","7b1eb8be57ff77859c7d9ac988e43411","219.142.99.7","Mozilla/5.0 (Windows NT 10.0; WOW64) AppleWebKit/537.36 (KHTML, like Gecko) Chrome/94.0.4606.71 Safari/537.36 Core/1.94.172.400 QQBrowser/11.1.5140.400","WebKit","Chrome","94.0.4606.71","Windows","10.0","64722","","{""Aggression1"":0,""Aggression2"":0,""Aggression3"":3,""Aggression4"":0,""Aggression5"":3,""Aggression6"":2,""Aggression7"":1,""Aggression8"":0,""Aggression9"":2}","[0,1,2,3,4,5,6,7,8]"
"","","","","","html-button-response","140","764083","0.0-13.0","127","1","2022-11-28 03:40:04","7b1eb8be57ff77859c7d9ac988e43411","219.142.99.7","Mozilla/5.0 (Windows NT 10.0; WOW64) AppleWebKit/537.36 (KHTML, like Gecko) Chrome/94.0.4606.71 Safari/537.36 Core/1.94.172.400 QQBrowser/11.1.5140.400","WebKit","Chrome","94.0.4606.71","Windows","10.0","3253","<p><strong>请判断你在多大程度上同意下列陈述。</strong></p>","0",""
"","","","","","survey-likert","141","929561","0.0-14.0","127","1","2022-11-28 03:40:04","7b1eb8be57ff77859c7d9ac988e43411","219.142.99.7","Mozilla/5.0 (Windows NT 10.0; WOW64) AppleWebKit/537.36 (KHTML, like Gecko) Chrome/94.0.4606.71 Safari/537.36 Core/1.94.172.400 QQBrowser/11.1.5140.400","WebKit","Chrome","94.0.4606.71","Windows","10.0","165470","","{""scale15"":1,""scale4"":2,""scale28"":4,""scale2"":3,""scale16"":1,""scale24"":1,""scale9"":3,""scale1"":1,""scale18"":3,""scale26"":1,""scale12"":1,""scale19"":1,""scale17"":1,""scale8"":3,""scale20"":2,""scale13"":1,""scale10"":1,""scale21"":3,""scale6"":2,""scale3"":3,""scale14"":2,""scale22"":1,""scale23"":2,""scale11"":2,""scale7"":1,""scale27"":1,""scale5"":2,""scale25"":2}","[14,3,27,1,15,23,8,0,17,25,11,18,16,7,19,12,9,20,5,2,13,21,22,10,6,26,4,24]"
"","","","","","html-button-response","142","931585","0.0-15.0","127","1","2022-11-28 03:40:04","7b1eb8be57ff77859c7d9ac988e43411","219.142.99.7","Mozilla/5.0 (Windows NT 10.0; WOW64) AppleWebKit/537.36 (KHTML, like Gecko) Chrome/94.0.4606.71 Safari/537.36 Core/1.94.172.400 QQBrowser/11.1.5140.400","WebKit","Chrome","94.0.4606.71","Windows","10.0","2016","<p><strong>请判断你在多大程度上同意下列陈述。</strong></p>","0",""
"","","","","","survey-likert","143","1063291","0.0-16.0","127","1","2022-11-28 03:40:04","7b1eb8be57ff77859c7d9ac988e43411","219.142.99.7","Mozilla/5.0 (Windows NT 10.0; WOW64) AppleWebKit/537.36 (KHTML, like Gecko) Chrome/94.0.4606.71 Safari/537.36 Core/1.94.172.400 QQBrowser/11.1.5140.400","WebKit","Chrome","94.0.4606.71","Windows","10.0","131700","","{""sdo6"":3,""sdo12"":4,""sdo4"":2,""sdo14"":4,""sdo11"":1,""sdo8"":2,""sdo2"":0,""sdo13"":5,""sdo1"":0,""sdo9"":3,""sdo3"":2,""sdo15"":2,""sdo16"":5,""sdo7"":1,""sdo5"":0,""sdo10"":3}","[5,11,3,13,10,7,1,12,0,8,2,14,15,6,4,9]"
"","","","","","html-button-response","144","1064938","0.0-17.0","127","1","2022-11-28 03:40:04","7b1eb8be57ff77859c7d9ac988e43411","219.142.99.7","Mozilla/5.0 (Windows NT 10.0; WOW64) AppleWebKit/537.36 (KHTML, like Gecko) Chrome/94.0.4606.71 Safari/537.36 Core/1.94.172.400 QQBrowser/11.1.5140.400","WebKit","Chrome","94.0.4606.71","Windows","10.0","1642","<p><strong>请判断你在多大程度上同意下列陈述。</strong></p>","0",""
"","","","","","survey-likert","145","1130694","0.0-18.0","127","1","2022-11-28 03:40:04","7b1eb8be57ff77859c7d9ac988e43411","219.142.99.7","Mozilla/5.0 (Windows NT 10.0; WOW64) AppleWebKit/537.36 (KHTML, like Gecko) Chrome/94.0.4606.71 Safari/537.36 Core/1.94.172.400 QQBrowser/11.1.5140.400","WebKit","Chrome","94.0.4606.71","Windows","10.0","65750","","{""caring1"":3,""liking1"":2,""caring2"":3,""protection1"":3,""liking2"":2,""caring3"":2,""protection2"":1,""liking3"":2,""protection3"":2,""caring4"":3,""liking4"":2,""protection4"":3,""caring5"":2,""liking5"":3,""protection5"":1}","[0,1,2,3,4,5,6,7,8,9,10,11,12,13,14]"
"","","","","","html-button-response","146","1138084","0.0-19.0","127","1","2022-11-28 03:40:04","7b1eb8be57ff77859c7d9ac988e43411","219.142.99.7","Mozilla/5.0 (Windows NT 10.0; WOW64) AppleWebKit/537.36 (KHTML, like Gecko) Chrome/94.0.4606.71 Safari/537.36 Core/1.94.172.400 QQBrowser/11.1.5140.400","WebKit","Chrome","94.0.4606.71","Windows","10.0","7384","<p><strong>请判断下列场景中你的内心感受有多柔软。</strong></p>","0",""
"","","","","","survey-likert","147","1191616","0.0-20.0","127","1","2022-11-28 03:40:04","7b1eb8be57ff77859c7d9ac988e43411","219.142.99.7","Mozilla/5.0 (Windows NT 10.0; WOW64) AppleWebKit/537.36 (KHTML, like Gecko) Chrome/94.0.4606.71 Safari/537.36 Core/1.94.172.400 QQBrowser/11.1.5140.400","WebKit","Chrome","94.0.4606.71","Windows","10.0","53528","","{""tenderness-positive1"":3,""tenderness-negative1"":2,""tenderness-negative2"":1,""tenderness-positive2"":4,""tenderness-positive3"":4,""tenderness-negative3"":3,""tenderness-positive4"":4,""tenderness-negative4"":3,""tenderness-negative5"":3,""tenderness-positive5"":4}","[0,1,2,3,4,5,6,7,8,9]"
"","","","","","survey-multi-choice","148","1209243","0.0-21.0","127","1","2022-11-28 03:40:04","7b1eb8be57ff77859c7d9ac988e43411","219.142.99.7","Mozilla/5.0 (Windows NT 10.0; WOW64) AppleWebKit/537.36 (KHTML, like Gecko) Chrome/94.0.4606.71 Safari/537.36 Core/1.94.172.400 QQBrowser/11.1.5140.400","WebKit","Chrome","94.0.4606.71","Windows","10.0","17620","","{""Attention2"":""其他""}","[0]"
"","","","","","html-button-response","149","1212147","0.0-22.0","127","1","2022-11-28 03:40:04","7b1eb8be57ff77859c7d9ac988e43411","219.142.99.7","Mozilla/5.0 (Windows NT 10.0; WOW64) AppleWebKit/537.36 (KHTML, like Gecko) Chrome/94.0.4606.71 Safari/537.36 Core/1.94.172.400 QQBrowser/11.1.5140.400","WebKit","Chrome","94.0.4606.71","Windows","10.0","2899","<p><strong>请判断你在多大程度上同意下列陈述。</strong></p>","0",""
"","","","","","survey-likert","150","1350233","0.0-23.0","127","1","2022-11-28 03:40:04","7b1eb8be57ff77859c7d9ac988e43411","219.142.99.7","Mozilla/5.0 (Windows NT 10.0; WOW64) AppleWebKit/537.36 (KHTML, like Gecko) Chrome/94.0.4606.71 Safari/537.36 Core/1.94.172.400 QQBrowser/11.1.5140.400","WebKit","Chrome","94.0.4606.71","Windows","10.0","138081","","{""Patri7"":4,""Patri10"":0,""Patri11"":1,""Nation3"":3,""Patri8"":4,""Patri9"":2,""Nation5"":1,""Patri3"":2,""Nation4"":0,""Patri5"":3,""Nation6"":2,""Patri4"":4,""Patri6"":1,""Nation7"":3,""Patri2"":3,""Nation8"":3,""Patri1"":4,""Nation2"":1,""Nation1"":1,""Patri12"":3}","[6,9,10,14,7,8,16,2,15,4,17,3,5,18,1,19,0,13,12,11]"
"","","","","","html-button-response","151","1351938","0.0-24.0","127","1","2022-11-28 03:40:04","7b1eb8be57ff77859c7d9ac988e43411","219.142.99.7","Mozilla/5.0 (Windows NT 10.0; WOW64) AppleWebKit/537.36 (KHTML, like Gecko) Chrome/94.0.4606.71 Safari/537.36 Core/1.94.172.400 QQBrowser/11.1.5140.400","WebKit","Chrome","94.0.4606.71","Windows","10.0","1700","<p><strong>请判断你在多大程度上同意下列陈述。</strong></p>","0",""
"","","","","","survey-likert","152","1436124","0.0-25.0","127","1","2022-11-28 03:40:04","7b1eb8be57ff77859c7d9ac988e43411","219.142.99.7","Mozilla/5.0 (Windows NT 10.0; WOW64) AppleWebKit/537.36 (KHTML, like Gecko) Chrome/94.0.4606.71 Safari/537.36 Core/1.94.172.400 QQBrowser/11.1.5140.400","WebKit","Chrome","94.0.4606.71","Windows","10.0","84179","","{""vc4"":7,""hc2"":8,""hi1"":5,""hi3"":3,""vi1"":3,""hc3"":4,""vc3"":2,""vi4"":3,""vc2"":3,""Robot"":6,""hi2"":5,""vc1"":2,""hc4"":4,""hi4"":8,""hc1"":8,""vi3"":8,""vi2"":0}","[16,10,0,2,4,11,15,8,14,7,1,13,12,3,9,6,5]"
"","","","","","survey-text","153","1445358","0.0-26.0","127","1","2022-11-28 03:40:04","7b1eb8be57ff77859c7d9ac988e43411","219.142.99.7","Mozilla/5.0 (Windows NT 10.0; WOW64) AppleWebKit/537.36 (KHTML, like Gecko) Chrome/94.0.4606.71 Safari/537.36 Core/1.94.172.400 QQBrowser/11.1.5140.400","WebKit","Chrome","94.0.4606.71","Windows","10.0","9212","","{""Comments"":""无""}",""
"","","","","","html-button-response","154","1447002","0.0-27.0","127","1","2022-11-28 03:40:04","7b1eb8be57ff77859c7d9ac988e43411","219.142.99.7","Mozilla/5.0 (Windows NT 10.0; WOW64) AppleWebKit/537.36 (KHTML, like Gecko) Chrome/94.0.4606.71 Safari/537.36 Core/1.94.172.400 QQBrowser/11.1.5140.400","WebKit","Chrome","94.0.4606.71","Windows","10.0","1640","<strong><p>恭喜你完成了实验！</p><p>感谢您的参与。</p></strong>","0",""
