"success","timeout","failed_images","failed_audio","failed_video","trial_type","trial_index","time_elapsed","internal_node_id","run_id","condition","recorded_at","source_code_version","ip","user_agent","device","browser","browser_version","platform","platform_version","rt","stimulus","response","question_order"
"true","false","[]","[]","[]","preload","0","1776","0.0-0.0","138","1","2022-11-28 04:39:00","7b1eb8be57ff77859c7d9ac988e43411","120.208.225.228","Mozilla/5.0 (Linux; Android 12; NTH-AN00; HMSCore 6.8.0.332) AppleWebKit/537.36 (KHTML, like Gecko) Chrome/92.0.4515.105 HuaweiBrowser/12.1.3.312 Mobile Safari/537.36","WebKit","Chrome","92.0.4515.105","AndroidOS","12","","","",""
"true","","","","","fullscreen","1","4321","0.0-1.0","138","1","2022-11-28 04:39:00","7b1eb8be57ff77859c7d9ac988e43411","120.208.225.228","Mozilla/5.0 (Linux; Android 12; NTH-AN00; HMSCore 6.8.0.332) AppleWebKit/537.36 (KHTML, like Gecko) Chrome/92.0.4515.105 HuaweiBrowser/12.1.3.312 Mobile Safari/537.36","WebKit","Chrome","92.0.4515.105","AndroidOS","12","","","",""
"","","","","","html-button-response","2","12298","0.0-2.0","138","1","2022-11-28 04:39:00","7b1eb8be57ff77859c7d9ac988e43411","120.208.225.228","Mozilla/5.0 (Linux; Android 12; NTH-AN00; HMSCore 6.8.0.332) AppleWebKit/537.36 (KHTML, like Gecko) Chrome/92.0.4515.105 HuaweiBrowser/12.1.3.312 Mobile Safari/537.36","WebKit","Chrome","92.0.4515.105","AndroidOS","12","7970","<p style=""font-size:20px;font-weight:bold;"">实验知情同意书</p><p style=""text-align:left;""><strong>实验名称：</strong>社会冲突研究</p><p style=""text-align:left;""><strong>主要研究者：</strong>韩晓春副教授（北京师范大学心理学部）</p><p style=""text-align:left;""><strong>联系方式：</strong>发送邮件至xiaochun.han@bnu.edu.cn</p><p style=""text-align:left;""><strong>研究目的：</strong>研究旨在了解人类面对群体冲突时的决策方式，以及相关的心理学特质。实验调查大约需要20分钟。</p><p style=""text-align:left;""><strong>实验流程：</strong>实验包含两部分。第一部分呈现一系列群体冲突场景，请你决定如何对这些冲突进行反应，大约需要10分钟完成。第二部分包含一系列人口统计学信息收集和心理学问卷，大约需要10分钟完成。</p><p style=""text-align:left;""><strong>参加及退出规则：</strong>参加本实验完全取决于您的个人意愿。在参与过程中，您可以随时退出，并且不用承担任何后果。</p><p style=""text-align:left;""><strong>隐私：</strong>本实验完全匿名进行，不会收集您的姓名或其他能够识别您身份的信息。实验中收集的作答仅用作科学研究使用，可能会在学术期刊/书籍上发表，或者用于教学，您的数据未来可能会和其他研究者或实验室分享，但您的个人身份不会被识别。</p><p style=""text-align:left;""><strong>实验报酬：</strong>实验完成后，您将获得15元人民币报酬，以感谢您的时间和努力。调查问卷中包含几道题目用以测验您作答时的认真度。只有完成全部实验，并且正确回答认真度测验的被试才能获得实验报酬。实验报酬将通过支付宝转账发放。</p><p style=""text-align:left;font-size:20px;""><strong>如果您同意以上实验知情同意书的内容，请点击'同意并且开始实验'按钮；否则请关闭浏览器界面，退出实验。</strong></p>","0",""
"","","","","","html-button-response","3","21832","0.0-3.0","138","1","2022-11-28 04:39:00","7b1eb8be57ff77859c7d9ac988e43411","120.208.225.228","Mozilla/5.0 (Linux; Android 12; NTH-AN00; HMSCore 6.8.0.332) AppleWebKit/537.36 (KHTML, like Gecko) Chrome/92.0.4515.105 HuaweiBrowser/12.1.3.312 Mobile Safari/537.36","WebKit","Chrome","92.0.4515.105","AndroidOS","12","9526","<p ><strong>实验任务一：</strong></p><p>请想象你的国家与另一个国家发生了军事冲突。</p><p>你是国家军队的指挥官，你将如何在冲突中进行决策。</p><p>具体来说，作为军队指挥官，请你决定是否发射导弹进行打击。</p><p>接下来，你会面对一系列场景，请仔细阅读每个场景，然后进行决策。</p><p>这部分实验任务大约需要10分钟。</p><p><strong>实验过程中，请集中注意力。</strong></p>","0",""
"","","","","","html-keyboard-response","4","22837","0.0-4.0-0.0","138","1","2022-11-28 04:39:00","7b1eb8be57ff77859c7d9ac988e43411","120.208.225.228","Mozilla/5.0 (Linux; Android 12; NTH-AN00; HMSCore 6.8.0.332) AppleWebKit/537.36 (KHTML, like Gecko) Chrome/92.0.4515.105 HuaweiBrowser/12.1.3.312 Mobile Safari/537.36","WebKit","Chrome","92.0.4515.105","AndroidOS","12","null","<div style=""font-size:60px;"">+</div>","null",""
"","","","","","html-button-response","5","36569","0.0-4.0-1.0","138","1","2022-11-28 04:39:00","7b1eb8be57ff77859c7d9ac988e43411","120.208.225.228","Mozilla/5.0 (Linux; Android 12; NTH-AN00; HMSCore 6.8.0.332) AppleWebKit/537.36 (KHTML, like Gecko) Chrome/92.0.4515.105 HuaweiBrowser/12.1.3.312 Mobile Safari/537.36","WebKit","Chrome","92.0.4515.105","AndroidOS","12","13725","<p>作为军队的指挥官，你可以选择发射导弹杀死 <strong>2名</strong> 敌国士兵，但会炸毁附近的 <strong>1棵</strong> 敌国树木。</p> <p>树木的照片如下图所示。</p> <p></p> <img src='stimuli/trees/13.png', style='max-width: 30%;'> </img> <p><strong>你是否选择发射武器？</strong></p>","0",""
"","","","","","html-keyboard-response","6","37573","0.0-4.0-0.1","138","1","2022-11-28 04:39:00","7b1eb8be57ff77859c7d9ac988e43411","120.208.225.228","Mozilla/5.0 (Linux; Android 12; NTH-AN00; HMSCore 6.8.0.332) AppleWebKit/537.36 (KHTML, like Gecko) Chrome/92.0.4515.105 HuaweiBrowser/12.1.3.312 Mobile Safari/537.36","WebKit","Chrome","92.0.4515.105","AndroidOS","12","null","<div style=""font-size:60px;"">+</div>","null",""
"","","","","","html-button-response","7","44347","0.0-4.0-1.1","138","1","2022-11-28 04:39:00","7b1eb8be57ff77859c7d9ac988e43411","120.208.225.228","Mozilla/5.0 (Linux; Android 12; NTH-AN00; HMSCore 6.8.0.332) AppleWebKit/537.36 (KHTML, like Gecko) Chrome/92.0.4515.105 HuaweiBrowser/12.1.3.312 Mobile Safari/537.36","WebKit","Chrome","92.0.4515.105","AndroidOS","12","6769","<p>作为军队的指挥官，你可以选择发射导弹杀死 <strong>4名</strong> 敌国士兵，但会误杀附近的 <strong>1名</strong> 敌国平民。</p> <p>平民照片如下图所示。</p> <p></p> <img src='stimuli/faces/PCM5.jpg', style='max-width: 30%;'> </img> <p><strong>你是否选择发射武器？</strong></p>","1",""
"","","","","","html-keyboard-response","8","45350","0.0-4.0-0.2","138","1","2022-11-28 04:39:00","7b1eb8be57ff77859c7d9ac988e43411","120.208.225.228","Mozilla/5.0 (Linux; Android 12; NTH-AN00; HMSCore 6.8.0.332) AppleWebKit/537.36 (KHTML, like Gecko) Chrome/92.0.4515.105 HuaweiBrowser/12.1.3.312 Mobile Safari/537.36","WebKit","Chrome","92.0.4515.105","AndroidOS","12","null","<div style=""font-size:60px;"">+</div>","null",""
"","","","","","html-button-response","9","47973","0.0-4.0-1.2","138","1","2022-11-28 04:39:00","7b1eb8be57ff77859c7d9ac988e43411","120.208.225.228","Mozilla/5.0 (Linux; Android 12; NTH-AN00; HMSCore 6.8.0.332) AppleWebKit/537.36 (KHTML, like Gecko) Chrome/92.0.4515.105 HuaweiBrowser/12.1.3.312 Mobile Safari/537.36","WebKit","Chrome","92.0.4515.105","AndroidOS","12","2616","<p>作为军队的指挥官，你可以选择发射导弹杀死 <strong>2名</strong> 敌国士兵，但会误杀附近的 <strong>1名</strong> 敌国平民。</p> <p>平民照片如下图所示。</p> <p></p> <img src='stimuli/faces/PCF6.jpg', style='max-width: 30%;'> </img> <p><strong>你是否选择发射武器？</strong></p>","1",""
"","","","","","html-keyboard-response","10","48980","0.0-4.0-0.3","138","1","2022-11-28 04:39:00","7b1eb8be57ff77859c7d9ac988e43411","120.208.225.228","Mozilla/5.0 (Linux; Android 12; NTH-AN00; HMSCore 6.8.0.332) AppleWebKit/537.36 (KHTML, like Gecko) Chrome/92.0.4515.105 HuaweiBrowser/12.1.3.312 Mobile Safari/537.36","WebKit","Chrome","92.0.4515.105","AndroidOS","12","null","<div style=""font-size:60px;"">+</div>","null",""
"","","","","","html-button-response","11","51376","0.0-4.0-1.3","138","1","2022-11-28 04:39:00","7b1eb8be57ff77859c7d9ac988e43411","120.208.225.228","Mozilla/5.0 (Linux; Android 12; NTH-AN00; HMSCore 6.8.0.332) AppleWebKit/537.36 (KHTML, like Gecko) Chrome/92.0.4515.105 HuaweiBrowser/12.1.3.312 Mobile Safari/537.36","WebKit","Chrome","92.0.4515.105","AndroidOS","12","2391","<p>作为军队的指挥官，你可以选择发射导弹杀死 <strong>6名</strong> 敌国士兵，但会误杀附近的 <strong>1名</strong> 敌国平民。</p> <p>平民照片如下图所示。</p> <p></p> <img src='stimuli/faces/PCM5.jpg', style='max-width: 30%;'> </img> <p><strong>你是否选择发射武器？</strong></p>","1",""
"","","","","","html-keyboard-response","12","52380","0.0-4.0-0.4","138","1","2022-11-28 04:39:00","7b1eb8be57ff77859c7d9ac988e43411","120.208.225.228","Mozilla/5.0 (Linux; Android 12; NTH-AN00; HMSCore 6.8.0.332) AppleWebKit/537.36 (KHTML, like Gecko) Chrome/92.0.4515.105 HuaweiBrowser/12.1.3.312 Mobile Safari/537.36","WebKit","Chrome","92.0.4515.105","AndroidOS","12","null","<div style=""font-size:60px;"">+</div>","null",""
"","","","","","html-button-response","13","54533","0.0-4.0-1.4","138","1","2022-11-28 04:39:00","7b1eb8be57ff77859c7d9ac988e43411","120.208.225.228","Mozilla/5.0 (Linux; Android 12; NTH-AN00; HMSCore 6.8.0.332) AppleWebKit/537.36 (KHTML, like Gecko) Chrome/92.0.4515.105 HuaweiBrowser/12.1.3.312 Mobile Safari/537.36","WebKit","Chrome","92.0.4515.105","AndroidOS","12","2130","<p>作为军队的指挥官，你可以选择发射导弹杀死 <strong>2名</strong> 敌国士兵，但会炸毁附近的 <strong>1棵</strong> 敌国树木。</p> <p>树木的照片如下图所示。</p> <p></p> <img src='stimuli/trees/2.png', style='max-width: 30%;'> </img> <p><strong>你是否选择发射武器？</strong></p>","0",""
"","","","","","html-keyboard-response","14","55537","0.0-4.0-0.5","138","1","2022-11-28 04:39:00","7b1eb8be57ff77859c7d9ac988e43411","120.208.225.228","Mozilla/5.0 (Linux; Android 12; NTH-AN00; HMSCore 6.8.0.332) AppleWebKit/537.36 (KHTML, like Gecko) Chrome/92.0.4515.105 HuaweiBrowser/12.1.3.312 Mobile Safari/537.36","WebKit","Chrome","92.0.4515.105","AndroidOS","12","null","<div style=""font-size:60px;"">+</div>","null",""
"","","","","","html-button-response","15","57307","0.0-4.0-1.5","138","1","2022-11-28 04:39:00","7b1eb8be57ff77859c7d9ac988e43411","120.208.225.228","Mozilla/5.0 (Linux; Android 12; NTH-AN00; HMSCore 6.8.0.332) AppleWebKit/537.36 (KHTML, like Gecko) Chrome/92.0.4515.105 HuaweiBrowser/12.1.3.312 Mobile Safari/537.36","WebKit","Chrome","92.0.4515.105","AndroidOS","12","1765","<p>作为军队的指挥官，你可以选择发射导弹杀死 <strong>3名</strong> 敌国士兵，但会误杀附近的 <strong>1名</strong> 敌国平民。</p> <p>平民照片如下图所示。</p> <p></p> <img src='stimuli/faces/PCM7.jpg', style='max-width: 30%;'> </img> <p><strong>你是否选择发射武器？</strong></p>","1",""
"","","","","","html-keyboard-response","16","58310","0.0-4.0-0.6","138","1","2022-11-28 04:39:00","7b1eb8be57ff77859c7d9ac988e43411","120.208.225.228","Mozilla/5.0 (Linux; Android 12; NTH-AN00; HMSCore 6.8.0.332) AppleWebKit/537.36 (KHTML, like Gecko) Chrome/92.0.4515.105 HuaweiBrowser/12.1.3.312 Mobile Safari/537.36","WebKit","Chrome","92.0.4515.105","AndroidOS","12","null","<div style=""font-size:60px;"">+</div>","null",""
"","","","","","html-button-response","17","60199","0.0-4.0-1.6","138","1","2022-11-28 04:39:00","7b1eb8be57ff77859c7d9ac988e43411","120.208.225.228","Mozilla/5.0 (Linux; Android 12; NTH-AN00; HMSCore 6.8.0.332) AppleWebKit/537.36 (KHTML, like Gecko) Chrome/92.0.4515.105 HuaweiBrowser/12.1.3.312 Mobile Safari/537.36","WebKit","Chrome","92.0.4515.105","AndroidOS","12","1884","<p>作为军队的指挥官，你可以选择发射导弹杀死 <strong>4名</strong> 敌国士兵，但会误杀附近的 <strong>1名</strong> 敌国平民。</p> <p>平民照片如下图所示。</p> <p></p> <img src='stimuli/faces/PCM3.jpg', style='max-width: 30%;'> </img> <p><strong>你是否选择发射武器？</strong></p>","1",""
"","","","","","html-keyboard-response","18","61203","0.0-4.0-0.7","138","1","2022-11-28 04:39:00","7b1eb8be57ff77859c7d9ac988e43411","120.208.225.228","Mozilla/5.0 (Linux; Android 12; NTH-AN00; HMSCore 6.8.0.332) AppleWebKit/537.36 (KHTML, like Gecko) Chrome/92.0.4515.105 HuaweiBrowser/12.1.3.312 Mobile Safari/537.36","WebKit","Chrome","92.0.4515.105","AndroidOS","12","null","<div style=""font-size:60px;"">+</div>","null",""
"","","","","","html-button-response","19","62507","0.0-4.0-1.7","138","1","2022-11-28 04:39:00","7b1eb8be57ff77859c7d9ac988e43411","120.208.225.228","Mozilla/5.0 (Linux; Android 12; NTH-AN00; HMSCore 6.8.0.332) AppleWebKit/537.36 (KHTML, like Gecko) Chrome/92.0.4515.105 HuaweiBrowser/12.1.3.312 Mobile Safari/537.36","WebKit","Chrome","92.0.4515.105","AndroidOS","12","1299","<p>作为军队的指挥官，你可以选择发射导弹杀死 <strong>5名</strong> 敌国士兵，但会炸毁附近的 <strong>1棵</strong> 敌国树木。</p> <p>树木的照片如下图所示。</p> <p></p> <img src='stimuli/trees/8.png', style='max-width: 30%;'> </img> <p><strong>你是否选择发射武器？</strong></p>","0",""
"","","","","","html-keyboard-response","20","63511","0.0-4.0-0.8","138","1","2022-11-28 04:39:00","7b1eb8be57ff77859c7d9ac988e43411","120.208.225.228","Mozilla/5.0 (Linux; Android 12; NTH-AN00; HMSCore 6.8.0.332) AppleWebKit/537.36 (KHTML, like Gecko) Chrome/92.0.4515.105 HuaweiBrowser/12.1.3.312 Mobile Safari/537.36","WebKit","Chrome","92.0.4515.105","AndroidOS","12","null","<div style=""font-size:60px;"">+</div>","null",""
"","","","","","html-button-response","21","65230","0.0-4.0-1.8","138","1","2022-11-28 04:39:00","7b1eb8be57ff77859c7d9ac988e43411","120.208.225.228","Mozilla/5.0 (Linux; Android 12; NTH-AN00; HMSCore 6.8.0.332) AppleWebKit/537.36 (KHTML, like Gecko) Chrome/92.0.4515.105 HuaweiBrowser/12.1.3.312 Mobile Safari/537.36","WebKit","Chrome","92.0.4515.105","AndroidOS","12","1715","<p>作为军队的指挥官，你可以选择发射导弹杀死 <strong>6名</strong> 敌国士兵，但会误杀附近的 <strong>1名</strong> 敌国平民。</p> <p>平民照片如下图所示。</p> <p></p> <img src='stimuli/faces/PCF8.jpg', style='max-width: 30%;'> </img> <p><strong>你是否选择发射武器？</strong></p>","1",""
"","","","","","html-keyboard-response","22","66235","0.0-4.0-0.9","138","1","2022-11-28 04:39:00","7b1eb8be57ff77859c7d9ac988e43411","120.208.225.228","Mozilla/5.0 (Linux; Android 12; NTH-AN00; HMSCore 6.8.0.332) AppleWebKit/537.36 (KHTML, like Gecko) Chrome/92.0.4515.105 HuaweiBrowser/12.1.3.312 Mobile Safari/537.36","WebKit","Chrome","92.0.4515.105","AndroidOS","12","null","<div style=""font-size:60px;"">+</div>","null",""
"","","","","","html-button-response","23","70373","0.0-4.0-1.9","138","1","2022-11-28 04:39:00","7b1eb8be57ff77859c7d9ac988e43411","120.208.225.228","Mozilla/5.0 (Linux; Android 12; NTH-AN00; HMSCore 6.8.0.332) AppleWebKit/537.36 (KHTML, like Gecko) Chrome/92.0.4515.105 HuaweiBrowser/12.1.3.312 Mobile Safari/537.36","WebKit","Chrome","92.0.4515.105","AndroidOS","12","4132","<p>作为军队的指挥官，你可以选择发射导弹杀死 <strong>9名</strong> 敌国士兵，但会误杀附近的 <strong>1名</strong> 敌国平民。</p> <p>平民照片如下图所示。</p> <p></p> <img src='stimuli/faces/PCF5.jpg', style='max-width: 30%;'> </img> <p><strong>你是否选择发射武器？</strong></p>","0",""
"","","","","","html-keyboard-response","24","71378","0.0-4.0-0.10","138","1","2022-11-28 04:39:00","7b1eb8be57ff77859c7d9ac988e43411","120.208.225.228","Mozilla/5.0 (Linux; Android 12; NTH-AN00; HMSCore 6.8.0.332) AppleWebKit/537.36 (KHTML, like Gecko) Chrome/92.0.4515.105 HuaweiBrowser/12.1.3.312 Mobile Safari/537.36","WebKit","Chrome","92.0.4515.105","AndroidOS","12","null","<div style=""font-size:60px;"">+</div>","null",""
"","","","","","html-button-response","25","73432","0.0-4.0-1.10","138","1","2022-11-28 04:39:00","7b1eb8be57ff77859c7d9ac988e43411","120.208.225.228","Mozilla/5.0 (Linux; Android 12; NTH-AN00; HMSCore 6.8.0.332) AppleWebKit/537.36 (KHTML, like Gecko) Chrome/92.0.4515.105 HuaweiBrowser/12.1.3.312 Mobile Safari/537.36","WebKit","Chrome","92.0.4515.105","AndroidOS","12","2048","<p>作为军队的指挥官，你可以选择发射导弹杀死 <strong>4名</strong> 敌国士兵，但会炸毁附近的 <strong>1棵</strong> 敌国树木。</p> <p>树木的照片如下图所示。</p> <p></p> <img src='stimuli/trees/15.png', style='max-width: 30%;'> </img> <p><strong>你是否选择发射武器？</strong></p>","0",""
"","","","","","html-keyboard-response","26","74436","0.0-4.0-0.11","138","1","2022-11-28 04:39:00","7b1eb8be57ff77859c7d9ac988e43411","120.208.225.228","Mozilla/5.0 (Linux; Android 12; NTH-AN00; HMSCore 6.8.0.332) AppleWebKit/537.36 (KHTML, like Gecko) Chrome/92.0.4515.105 HuaweiBrowser/12.1.3.312 Mobile Safari/537.36","WebKit","Chrome","92.0.4515.105","AndroidOS","12","null","<div style=""font-size:60px;"">+</div>","null",""
"","","","","","html-button-response","27","75848","0.0-4.0-1.11","138","1","2022-11-28 04:39:00","7b1eb8be57ff77859c7d9ac988e43411","120.208.225.228","Mozilla/5.0 (Linux; Android 12; NTH-AN00; HMSCore 6.8.0.332) AppleWebKit/537.36 (KHTML, like Gecko) Chrome/92.0.4515.105 HuaweiBrowser/12.1.3.312 Mobile Safari/537.36","WebKit","Chrome","92.0.4515.105","AndroidOS","12","1403","<p>作为军队的指挥官，你可以选择发射导弹杀死 <strong>6名</strong> 敌国士兵，但会误杀附近的 <strong>1名</strong> 敌国平民。</p> <p>平民照片如下图所示。</p> <p></p> <img src='stimuli/faces/PCF7.jpg', style='max-width: 30%;'> </img> <p><strong>你是否选择发射武器？</strong></p>","0",""
"","","","","","html-keyboard-response","28","76854","0.0-4.0-0.12","138","1","2022-11-28 04:39:00","7b1eb8be57ff77859c7d9ac988e43411","120.208.225.228","Mozilla/5.0 (Linux; Android 12; NTH-AN00; HMSCore 6.8.0.332) AppleWebKit/537.36 (KHTML, like Gecko) Chrome/92.0.4515.105 HuaweiBrowser/12.1.3.312 Mobile Safari/537.36","WebKit","Chrome","92.0.4515.105","AndroidOS","12","null","<div style=""font-size:60px;"">+</div>","null",""
"","","","","","html-button-response","29","78277","0.0-4.0-1.12","138","1","2022-11-28 04:39:00","7b1eb8be57ff77859c7d9ac988e43411","120.208.225.228","Mozilla/5.0 (Linux; Android 12; NTH-AN00; HMSCore 6.8.0.332) AppleWebKit/537.36 (KHTML, like Gecko) Chrome/92.0.4515.105 HuaweiBrowser/12.1.3.312 Mobile Safari/537.36","WebKit","Chrome","92.0.4515.105","AndroidOS","12","1416","<p>作为军队的指挥官，你可以选择发射导弹杀死 <strong>1名</strong> 敌国士兵，但会误杀附近的 <strong>1名</strong> 敌国平民。</p> <p>平民照片如下图所示。</p> <p></p> <img src='stimuli/faces/PCM1.jpg', style='max-width: 30%;'> </img> <p><strong>你是否选择发射武器？</strong></p>","0",""
"","","","","","html-keyboard-response","30","79283","0.0-4.0-0.13","138","1","2022-11-28 04:39:00","7b1eb8be57ff77859c7d9ac988e43411","120.208.225.228","Mozilla/5.0 (Linux; Android 12; NTH-AN00; HMSCore 6.8.0.332) AppleWebKit/537.36 (KHTML, like Gecko) Chrome/92.0.4515.105 HuaweiBrowser/12.1.3.312 Mobile Safari/537.36","WebKit","Chrome","92.0.4515.105","AndroidOS","12","null","<div style=""font-size:60px;"">+</div>","null",""
"","","","","","html-button-response","31","80670","0.0-4.0-1.13","138","1","2022-11-28 04:39:00","7b1eb8be57ff77859c7d9ac988e43411","120.208.225.228","Mozilla/5.0 (Linux; Android 12; NTH-AN00; HMSCore 6.8.0.332) AppleWebKit/537.36 (KHTML, like Gecko) Chrome/92.0.4515.105 HuaweiBrowser/12.1.3.312 Mobile Safari/537.36","WebKit","Chrome","92.0.4515.105","AndroidOS","12","1381","<p>作为军队的指挥官，你可以选择发射导弹杀死 <strong>6名</strong> 敌国士兵，但会炸毁附近的 <strong>1棵</strong> 敌国树木。</p> <p>树木的照片如下图所示。</p> <p></p> <img src='stimuli/trees/11.png', style='max-width: 30%;'> </img> <p><strong>你是否选择发射武器？</strong></p>","0",""
"","","","","","html-keyboard-response","32","81674","0.0-4.0-0.14","138","1","2022-11-28 04:39:00","7b1eb8be57ff77859c7d9ac988e43411","120.208.225.228","Mozilla/5.0 (Linux; Android 12; NTH-AN00; HMSCore 6.8.0.332) AppleWebKit/537.36 (KHTML, like Gecko) Chrome/92.0.4515.105 HuaweiBrowser/12.1.3.312 Mobile Safari/537.36","WebKit","Chrome","92.0.4515.105","AndroidOS","12","null","<div style=""font-size:60px;"">+</div>","null",""
"","","","","","html-button-response","33","84981","0.0-4.0-1.14","138","1","2022-11-28 04:39:00","7b1eb8be57ff77859c7d9ac988e43411","120.208.225.228","Mozilla/5.0 (Linux; Android 12; NTH-AN00; HMSCore 6.8.0.332) AppleWebKit/537.36 (KHTML, like Gecko) Chrome/92.0.4515.105 HuaweiBrowser/12.1.3.312 Mobile Safari/537.36","WebKit","Chrome","92.0.4515.105","AndroidOS","12","3303","<p>作为军队的指挥官，你可以选择发射导弹杀死 <strong>6名</strong> 敌国士兵，但会误杀附近的 <strong>1名</strong> 敌国平民。</p> <p>平民照片如下图所示。</p> <p></p> <img src='stimuli/faces/PCM3.jpg', style='max-width: 30%;'> </img> <p><strong>你是否选择发射武器？</strong></p>","0",""
"","","","","","html-keyboard-response","34","85985","0.0-4.0-0.15","138","1","2022-11-28 04:39:00","7b1eb8be57ff77859c7d9ac988e43411","120.208.225.228","Mozilla/5.0 (Linux; Android 12; NTH-AN00; HMSCore 6.8.0.332) AppleWebKit/537.36 (KHTML, like Gecko) Chrome/92.0.4515.105 HuaweiBrowser/12.1.3.312 Mobile Safari/537.36","WebKit","Chrome","92.0.4515.105","AndroidOS","12","null","<div style=""font-size:60px;"">+</div>","null",""
"","","","","","html-button-response","35","87048","0.0-4.0-1.15","138","1","2022-11-28 04:39:00","7b1eb8be57ff77859c7d9ac988e43411","120.208.225.228","Mozilla/5.0 (Linux; Android 12; NTH-AN00; HMSCore 6.8.0.332) AppleWebKit/537.36 (KHTML, like Gecko) Chrome/92.0.4515.105 HuaweiBrowser/12.1.3.312 Mobile Safari/537.36","WebKit","Chrome","92.0.4515.105","AndroidOS","12","1058","<p>作为军队的指挥官，你可以选择发射导弹杀死 <strong>8名</strong> 敌国士兵，但会炸毁附近的 <strong>1棵</strong> 敌国树木。</p> <p>树木的照片如下图所示。</p> <p></p> <img src='stimuli/trees/15.png', style='max-width: 30%;'> </img> <p><strong>你是否选择发射武器？</strong></p>","0",""
"","","","","","html-keyboard-response","36","88051","0.0-4.0-0.16","138","1","2022-11-28 04:39:00","7b1eb8be57ff77859c7d9ac988e43411","120.208.225.228","Mozilla/5.0 (Linux; Android 12; NTH-AN00; HMSCore 6.8.0.332) AppleWebKit/537.36 (KHTML, like Gecko) Chrome/92.0.4515.105 HuaweiBrowser/12.1.3.312 Mobile Safari/537.36","WebKit","Chrome","92.0.4515.105","AndroidOS","12","null","<div style=""font-size:60px;"">+</div>","null",""
"","","","","","html-button-response","37","88756","0.0-4.0-1.16","138","1","2022-11-28 04:39:00","7b1eb8be57ff77859c7d9ac988e43411","120.208.225.228","Mozilla/5.0 (Linux; Android 12; NTH-AN00; HMSCore 6.8.0.332) AppleWebKit/537.36 (KHTML, like Gecko) Chrome/92.0.4515.105 HuaweiBrowser/12.1.3.312 Mobile Safari/537.36","WebKit","Chrome","92.0.4515.105","AndroidOS","12","699","<p>作为军队的指挥官，你可以选择发射导弹杀死 <strong>8名</strong> 敌国士兵，但会误杀附近的 <strong>1名</strong> 敌国平民。</p> <p>平民照片如下图所示。</p> <p></p> <img src='stimuli/faces/PCM7.jpg', style='max-width: 30%;'> </img> <p><strong>你是否选择发射武器？</strong></p>","0",""
"","","","","","html-keyboard-response","38","89759","0.0-4.0-0.17","138","1","2022-11-28 04:39:00","7b1eb8be57ff77859c7d9ac988e43411","120.208.225.228","Mozilla/5.0 (Linux; Android 12; NTH-AN00; HMSCore 6.8.0.332) AppleWebKit/537.36 (KHTML, like Gecko) Chrome/92.0.4515.105 HuaweiBrowser/12.1.3.312 Mobile Safari/537.36","WebKit","Chrome","92.0.4515.105","AndroidOS","12","null","<div style=""font-size:60px;"">+</div>","null",""
"","","","","","html-button-response","39","90404","0.0-4.0-1.17","138","1","2022-11-28 04:39:00","7b1eb8be57ff77859c7d9ac988e43411","120.208.225.228","Mozilla/5.0 (Linux; Android 12; NTH-AN00; HMSCore 6.8.0.332) AppleWebKit/537.36 (KHTML, like Gecko) Chrome/92.0.4515.105 HuaweiBrowser/12.1.3.312 Mobile Safari/537.36","WebKit","Chrome","92.0.4515.105","AndroidOS","12","640","<p>作为军队的指挥官，你可以选择发射导弹杀死 <strong>1名</strong> 敌国士兵，但会误杀附近的 <strong>1名</strong> 敌国平民。</p> <p>平民照片如下图所示。</p> <p></p> <img src='stimuli/faces/PCF3.jpg', style='max-width: 30%;'> </img> <p><strong>你是否选择发射武器？</strong></p>","0",""
"","","","","","html-keyboard-response","40","91407","0.0-4.0-0.18","138","1","2022-11-28 04:39:00","7b1eb8be57ff77859c7d9ac988e43411","120.208.225.228","Mozilla/5.0 (Linux; Android 12; NTH-AN00; HMSCore 6.8.0.332) AppleWebKit/537.36 (KHTML, like Gecko) Chrome/92.0.4515.105 HuaweiBrowser/12.1.3.312 Mobile Safari/537.36","WebKit","Chrome","92.0.4515.105","AndroidOS","12","null","<div style=""font-size:60px;"">+</div>","null",""
"","","","","","html-button-response","41","94404","0.0-4.0-1.18","138","1","2022-11-28 04:39:00","7b1eb8be57ff77859c7d9ac988e43411","120.208.225.228","Mozilla/5.0 (Linux; Android 12; NTH-AN00; HMSCore 6.8.0.332) AppleWebKit/537.36 (KHTML, like Gecko) Chrome/92.0.4515.105 HuaweiBrowser/12.1.3.312 Mobile Safari/537.36","WebKit","Chrome","92.0.4515.105","AndroidOS","12","2992","<p>作为军队的指挥官，你可以选择发射导弹杀死 <strong>4名</strong> 敌国士兵，但会误杀附近的 <strong>1名</strong> 敌国平民。</p> <p>平民照片如下图所示。</p> <p></p> <img src='stimuli/faces/PCF4.jpg', style='max-width: 30%;'> </img> <p><strong>你是否选择发射武器？</strong></p>","0",""
"","","","","","html-keyboard-response","42","95410","0.0-4.0-0.19","138","1","2022-11-28 04:39:00","7b1eb8be57ff77859c7d9ac988e43411","120.208.225.228","Mozilla/5.0 (Linux; Android 12; NTH-AN00; HMSCore 6.8.0.332) AppleWebKit/537.36 (KHTML, like Gecko) Chrome/92.0.4515.105 HuaweiBrowser/12.1.3.312 Mobile Safari/537.36","WebKit","Chrome","92.0.4515.105","AndroidOS","12","null","<div style=""font-size:60px;"">+</div>","null",""
"","","","","","html-button-response","43","97535","0.0-4.0-1.19","138","1","2022-11-28 04:39:00","7b1eb8be57ff77859c7d9ac988e43411","120.208.225.228","Mozilla/5.0 (Linux; Android 12; NTH-AN00; HMSCore 6.8.0.332) AppleWebKit/537.36 (KHTML, like Gecko) Chrome/92.0.4515.105 HuaweiBrowser/12.1.3.312 Mobile Safari/537.36","WebKit","Chrome","92.0.4515.105","AndroidOS","12","2116","<p>作为军队的指挥官，你可以选择发射导弹杀死 <strong>10名</strong> 敌国士兵，但会炸毁附近的 <strong>1棵</strong> 敌国树木。</p> <p>树木的照片如下图所示。</p> <p></p> <img src='stimuli/trees/9.png', style='max-width: 30%;'> </img> <p><strong>你是否选择发射武器？</strong></p>","0",""
"","","","","","html-keyboard-response","44","98542","0.0-4.0-0.20","138","1","2022-11-28 04:39:00","7b1eb8be57ff77859c7d9ac988e43411","120.208.225.228","Mozilla/5.0 (Linux; Android 12; NTH-AN00; HMSCore 6.8.0.332) AppleWebKit/537.36 (KHTML, like Gecko) Chrome/92.0.4515.105 HuaweiBrowser/12.1.3.312 Mobile Safari/537.36","WebKit","Chrome","92.0.4515.105","AndroidOS","12","null","<div style=""font-size:60px;"">+</div>","null",""
"","","","","","html-button-response","45","99537","0.0-4.0-1.20","138","1","2022-11-28 04:39:00","7b1eb8be57ff77859c7d9ac988e43411","120.208.225.228","Mozilla/5.0 (Linux; Android 12; NTH-AN00; HMSCore 6.8.0.332) AppleWebKit/537.36 (KHTML, like Gecko) Chrome/92.0.4515.105 HuaweiBrowser/12.1.3.312 Mobile Safari/537.36","WebKit","Chrome","92.0.4515.105","AndroidOS","12","984","<p>作为军队的指挥官，你可以选择发射导弹杀死 <strong>7名</strong> 敌国士兵，但会炸毁附近的 <strong>1棵</strong> 敌国树木。</p> <p>树木的照片如下图所示。</p> <p></p> <img src='stimuli/trees/6.png', style='max-width: 30%;'> </img> <p><strong>你是否选择发射武器？</strong></p>","0",""
"","","","","","html-keyboard-response","46","100544","0.0-4.0-0.21","138","1","2022-11-28 04:39:00","7b1eb8be57ff77859c7d9ac988e43411","120.208.225.228","Mozilla/5.0 (Linux; Android 12; NTH-AN00; HMSCore 6.8.0.332) AppleWebKit/537.36 (KHTML, like Gecko) Chrome/92.0.4515.105 HuaweiBrowser/12.1.3.312 Mobile Safari/537.36","WebKit","Chrome","92.0.4515.105","AndroidOS","12","null","<div style=""font-size:60px;"">+</div>","null",""
"","","","","","html-button-response","47","101729","0.0-4.0-1.21","138","1","2022-11-28 04:39:00","7b1eb8be57ff77859c7d9ac988e43411","120.208.225.228","Mozilla/5.0 (Linux; Android 12; NTH-AN00; HMSCore 6.8.0.332) AppleWebKit/537.36 (KHTML, like Gecko) Chrome/92.0.4515.105 HuaweiBrowser/12.1.3.312 Mobile Safari/537.36","WebKit","Chrome","92.0.4515.105","AndroidOS","12","1176","<p>作为军队的指挥官，你可以选择发射导弹杀死 <strong>6名</strong> 敌国士兵，但会炸毁附近的 <strong>1棵</strong> 敌国树木。</p> <p>树木的照片如下图所示。</p> <p></p> <img src='stimuli/trees/10.png', style='max-width: 30%;'> </img> <p><strong>你是否选择发射武器？</strong></p>","0",""
"","","","","","html-keyboard-response","48","102733","0.0-4.0-0.22","138","1","2022-11-28 04:39:00","7b1eb8be57ff77859c7d9ac988e43411","120.208.225.228","Mozilla/5.0 (Linux; Android 12; NTH-AN00; HMSCore 6.8.0.332) AppleWebKit/537.36 (KHTML, like Gecko) Chrome/92.0.4515.105 HuaweiBrowser/12.1.3.312 Mobile Safari/537.36","WebKit","Chrome","92.0.4515.105","AndroidOS","12","null","<div style=""font-size:60px;"">+</div>","null",""
"","","","","","html-button-response","49","103780","0.0-4.0-1.22","138","1","2022-11-28 04:39:00","7b1eb8be57ff77859c7d9ac988e43411","120.208.225.228","Mozilla/5.0 (Linux; Android 12; NTH-AN00; HMSCore 6.8.0.332) AppleWebKit/537.36 (KHTML, like Gecko) Chrome/92.0.4515.105 HuaweiBrowser/12.1.3.312 Mobile Safari/537.36","WebKit","Chrome","92.0.4515.105","AndroidOS","12","1034","<p>作为军队的指挥官，你可以选择发射导弹杀死 <strong>10名</strong> 敌国士兵，但会误杀附近的 <strong>1名</strong> 敌国平民。</p> <p>平民照片如下图所示。</p> <p></p> <img src='stimuli/faces/PCM8.jpg', style='max-width: 30%;'> </img> <p><strong>你是否选择发射武器？</strong></p>","0",""
"","","","","","html-keyboard-response","50","104784","0.0-4.0-0.23","138","1","2022-11-28 04:39:00","7b1eb8be57ff77859c7d9ac988e43411","120.208.225.228","Mozilla/5.0 (Linux; Android 12; NTH-AN00; HMSCore 6.8.0.332) AppleWebKit/537.36 (KHTML, like Gecko) Chrome/92.0.4515.105 HuaweiBrowser/12.1.3.312 Mobile Safari/537.36","WebKit","Chrome","92.0.4515.105","AndroidOS","12","null","<div style=""font-size:60px;"">+</div>","null",""
"","","","","","html-button-response","51","105298","0.0-4.0-1.23","138","1","2022-11-28 04:39:00","7b1eb8be57ff77859c7d9ac988e43411","120.208.225.228","Mozilla/5.0 (Linux; Android 12; NTH-AN00; HMSCore 6.8.0.332) AppleWebKit/537.36 (KHTML, like Gecko) Chrome/92.0.4515.105 HuaweiBrowser/12.1.3.312 Mobile Safari/537.36","WebKit","Chrome","92.0.4515.105","AndroidOS","12","509","<p>作为军队的指挥官，你可以选择发射导弹杀死 <strong>8名</strong> 敌国士兵，但会误杀附近的 <strong>1名</strong> 敌国平民。</p> <p>平民照片如下图所示。</p> <p></p> <img src='stimuli/faces/PCM4.jpg', style='max-width: 30%;'> </img> <p><strong>你是否选择发射武器？</strong></p>","0",""
"","","","","","html-keyboard-response","52","106303","0.0-4.0-0.24","138","1","2022-11-28 04:39:00","7b1eb8be57ff77859c7d9ac988e43411","120.208.225.228","Mozilla/5.0 (Linux; Android 12; NTH-AN00; HMSCore 6.8.0.332) AppleWebKit/537.36 (KHTML, like Gecko) Chrome/92.0.4515.105 HuaweiBrowser/12.1.3.312 Mobile Safari/537.36","WebKit","Chrome","92.0.4515.105","AndroidOS","12","null","<div style=""font-size:60px;"">+</div>","null",""
"","","","","","html-button-response","53","107013","0.0-4.0-1.24","138","1","2022-11-28 04:39:00","7b1eb8be57ff77859c7d9ac988e43411","120.208.225.228","Mozilla/5.0 (Linux; Android 12; NTH-AN00; HMSCore 6.8.0.332) AppleWebKit/537.36 (KHTML, like Gecko) Chrome/92.0.4515.105 HuaweiBrowser/12.1.3.312 Mobile Safari/537.36","WebKit","Chrome","92.0.4515.105","AndroidOS","12","700","<p>作为军队的指挥官，你可以选择发射导弹杀死 <strong>9名</strong> 敌国士兵，但会炸毁附近的 <strong>1棵</strong> 敌国树木。</p> <p>树木的照片如下图所示。</p> <p></p> <img src='stimuli/trees/16.png', style='max-width: 30%;'> </img> <p><strong>你是否选择发射武器？</strong></p>","0",""
"","","","","","html-keyboard-response","54","108025","0.0-4.0-0.25","138","1","2022-11-28 04:39:00","7b1eb8be57ff77859c7d9ac988e43411","120.208.225.228","Mozilla/5.0 (Linux; Android 12; NTH-AN00; HMSCore 6.8.0.332) AppleWebKit/537.36 (KHTML, like Gecko) Chrome/92.0.4515.105 HuaweiBrowser/12.1.3.312 Mobile Safari/537.36","WebKit","Chrome","92.0.4515.105","AndroidOS","12","null","<div style=""font-size:60px;"">+</div>","null",""
"","","","","","html-button-response","55","109250","0.0-4.0-1.25","138","1","2022-11-28 04:39:00","7b1eb8be57ff77859c7d9ac988e43411","120.208.225.228","Mozilla/5.0 (Linux; Android 12; NTH-AN00; HMSCore 6.8.0.332) AppleWebKit/537.36 (KHTML, like Gecko) Chrome/92.0.4515.105 HuaweiBrowser/12.1.3.312 Mobile Safari/537.36","WebKit","Chrome","92.0.4515.105","AndroidOS","12","1218","<p>作为军队的指挥官，你可以选择发射导弹杀死 <strong>5名</strong> 敌国士兵，但会炸毁附近的 <strong>1棵</strong> 敌国树木。</p> <p>树木的照片如下图所示。</p> <p></p> <img src='stimuli/trees/6.png', style='max-width: 30%;'> </img> <p><strong>你是否选择发射武器？</strong></p>","0",""
"","","","","","html-keyboard-response","56","110257","0.0-4.0-0.26","138","1","2022-11-28 04:39:00","7b1eb8be57ff77859c7d9ac988e43411","120.208.225.228","Mozilla/5.0 (Linux; Android 12; NTH-AN00; HMSCore 6.8.0.332) AppleWebKit/537.36 (KHTML, like Gecko) Chrome/92.0.4515.105 HuaweiBrowser/12.1.3.312 Mobile Safari/537.36","WebKit","Chrome","92.0.4515.105","AndroidOS","12","null","<div style=""font-size:60px;"">+</div>","null",""
"","","","","","html-button-response","57","111512","0.0-4.0-1.26","138","1","2022-11-28 04:39:00","7b1eb8be57ff77859c7d9ac988e43411","120.208.225.228","Mozilla/5.0 (Linux; Android 12; NTH-AN00; HMSCore 6.8.0.332) AppleWebKit/537.36 (KHTML, like Gecko) Chrome/92.0.4515.105 HuaweiBrowser/12.1.3.312 Mobile Safari/537.36","WebKit","Chrome","92.0.4515.105","AndroidOS","12","1249","<p>作为军队的指挥官，你可以选择发射导弹杀死 <strong>9名</strong> 敌国士兵，但会误杀附近的 <strong>1名</strong> 敌国平民。</p> <p>平民照片如下图所示。</p> <p></p> <img src='stimuli/faces/PCF6.jpg', style='max-width: 30%;'> </img> <p><strong>你是否选择发射武器？</strong></p>","0",""
"","","","","","html-keyboard-response","58","112517","0.0-4.0-0.27","138","1","2022-11-28 04:39:00","7b1eb8be57ff77859c7d9ac988e43411","120.208.225.228","Mozilla/5.0 (Linux; Android 12; NTH-AN00; HMSCore 6.8.0.332) AppleWebKit/537.36 (KHTML, like Gecko) Chrome/92.0.4515.105 HuaweiBrowser/12.1.3.312 Mobile Safari/537.36","WebKit","Chrome","92.0.4515.105","AndroidOS","12","null","<div style=""font-size:60px;"">+</div>","null",""
"","","","","","html-button-response","59","117463","0.0-4.0-1.27","138","1","2022-11-28 04:39:00","7b1eb8be57ff77859c7d9ac988e43411","120.208.225.228","Mozilla/5.0 (Linux; Android 12; NTH-AN00; HMSCore 6.8.0.332) AppleWebKit/537.36 (KHTML, like Gecko) Chrome/92.0.4515.105 HuaweiBrowser/12.1.3.312 Mobile Safari/537.36","WebKit","Chrome","92.0.4515.105","AndroidOS","12","4940","<p>作为军队的指挥官，你可以选择发射导弹杀死 <strong>2名</strong> 敌国士兵，但会误杀附近的 <strong>1名</strong> 敌国平民。</p> <p>平民照片如下图所示。</p> <p></p> <img src='stimuli/faces/PCF8.jpg', style='max-width: 30%;'> </img> <p><strong>你是否选择发射武器？</strong></p>","0",""
"","","","","","html-keyboard-response","60","118468","0.0-4.0-0.28","138","1","2022-11-28 04:39:00","7b1eb8be57ff77859c7d9ac988e43411","120.208.225.228","Mozilla/5.0 (Linux; Android 12; NTH-AN00; HMSCore 6.8.0.332) AppleWebKit/537.36 (KHTML, like Gecko) Chrome/92.0.4515.105 HuaweiBrowser/12.1.3.312 Mobile Safari/537.36","WebKit","Chrome","92.0.4515.105","AndroidOS","12","null","<div style=""font-size:60px;"">+</div>","null",""
"","","","","","html-button-response","61","119972","0.0-4.0-1.28","138","1","2022-11-28 04:39:00","7b1eb8be57ff77859c7d9ac988e43411","120.208.225.228","Mozilla/5.0 (Linux; Android 12; NTH-AN00; HMSCore 6.8.0.332) AppleWebKit/537.36 (KHTML, like Gecko) Chrome/92.0.4515.105 HuaweiBrowser/12.1.3.312 Mobile Safari/537.36","WebKit","Chrome","92.0.4515.105","AndroidOS","12","1499","<p>作为军队的指挥官，你可以选择发射导弹杀死 <strong>1名</strong> 敌国士兵，但会误杀附近的 <strong>1名</strong> 敌国平民。</p> <p>平民照片如下图所示。</p> <p></p> <img src='stimuli/faces/PCF2.jpg', style='max-width: 30%;'> </img> <p><strong>你是否选择发射武器？</strong></p>","1",""
"","","","","","html-keyboard-response","62","120976","0.0-4.0-0.29","138","1","2022-11-28 04:39:00","7b1eb8be57ff77859c7d9ac988e43411","120.208.225.228","Mozilla/5.0 (Linux; Android 12; NTH-AN00; HMSCore 6.8.0.332) AppleWebKit/537.36 (KHTML, like Gecko) Chrome/92.0.4515.105 HuaweiBrowser/12.1.3.312 Mobile Safari/537.36","WebKit","Chrome","92.0.4515.105","AndroidOS","12","null","<div style=""font-size:60px;"">+</div>","null",""
"","","","","","html-button-response","63","121944","0.0-4.0-1.29","138","1","2022-11-28 04:39:00","7b1eb8be57ff77859c7d9ac988e43411","120.208.225.228","Mozilla/5.0 (Linux; Android 12; NTH-AN00; HMSCore 6.8.0.332) AppleWebKit/537.36 (KHTML, like Gecko) Chrome/92.0.4515.105 HuaweiBrowser/12.1.3.312 Mobile Safari/537.36","WebKit","Chrome","92.0.4515.105","AndroidOS","12","962","<p>作为军队的指挥官，你可以选择发射导弹杀死 <strong>7名</strong> 敌国士兵，但会炸毁附近的 <strong>1棵</strong> 敌国树木。</p> <p>树木的照片如下图所示。</p> <p></p> <img src='stimuli/trees/2.png', style='max-width: 30%;'> </img> <p><strong>你是否选择发射武器？</strong></p>","0",""
"","","","","","html-keyboard-response","64","122954","0.0-4.0-0.30","138","1","2022-11-28 04:39:00","7b1eb8be57ff77859c7d9ac988e43411","120.208.225.228","Mozilla/5.0 (Linux; Android 12; NTH-AN00; HMSCore 6.8.0.332) AppleWebKit/537.36 (KHTML, like Gecko) Chrome/92.0.4515.105 HuaweiBrowser/12.1.3.312 Mobile Safari/537.36","WebKit","Chrome","92.0.4515.105","AndroidOS","12","null","<div style=""font-size:60px;"">+</div>","null",""
"","","","","","html-button-response","65","123624","0.0-4.0-1.30","138","1","2022-11-28 04:39:00","7b1eb8be57ff77859c7d9ac988e43411","120.208.225.228","Mozilla/5.0 (Linux; Android 12; NTH-AN00; HMSCore 6.8.0.332) AppleWebKit/537.36 (KHTML, like Gecko) Chrome/92.0.4515.105 HuaweiBrowser/12.1.3.312 Mobile Safari/537.36","WebKit","Chrome","92.0.4515.105","AndroidOS","12","663","<p>作为军队的指挥官，你可以选择发射导弹杀死 <strong>6名</strong> 敌国士兵，但会误杀附近的 <strong>1名</strong> 敌国平民。</p> <p>平民照片如下图所示。</p> <p></p> <img src='stimuli/faces/PCF3.jpg', style='max-width: 30%;'> </img> <p><strong>你是否选择发射武器？</strong></p>","0",""
"","","","","","html-keyboard-response","66","124631","0.0-4.0-0.31","138","1","2022-11-28 04:39:00","7b1eb8be57ff77859c7d9ac988e43411","120.208.225.228","Mozilla/5.0 (Linux; Android 12; NTH-AN00; HMSCore 6.8.0.332) AppleWebKit/537.36 (KHTML, like Gecko) Chrome/92.0.4515.105 HuaweiBrowser/12.1.3.312 Mobile Safari/537.36","WebKit","Chrome","92.0.4515.105","AndroidOS","12","null","<div style=""font-size:60px;"">+</div>","null",""
"","","","","","html-button-response","67","125428","0.0-4.0-1.31","138","1","2022-11-28 04:39:00","7b1eb8be57ff77859c7d9ac988e43411","120.208.225.228","Mozilla/5.0 (Linux; Android 12; NTH-AN00; HMSCore 6.8.0.332) AppleWebKit/537.36 (KHTML, like Gecko) Chrome/92.0.4515.105 HuaweiBrowser/12.1.3.312 Mobile Safari/537.36","WebKit","Chrome","92.0.4515.105","AndroidOS","12","790","<p>作为军队的指挥官，你可以选择发射导弹杀死 <strong>3名</strong> 敌国士兵，但会炸毁附近的 <strong>1棵</strong> 敌国树木。</p> <p>树木的照片如下图所示。</p> <p></p> <img src='stimuli/trees/14.png', style='max-width: 30%;'> </img> <p><strong>你是否选择发射武器？</strong></p>","0",""
"","","","","","html-keyboard-response","68","126433","0.0-4.0-0.32","138","1","2022-11-28 04:39:00","7b1eb8be57ff77859c7d9ac988e43411","120.208.225.228","Mozilla/5.0 (Linux; Android 12; NTH-AN00; HMSCore 6.8.0.332) AppleWebKit/537.36 (KHTML, like Gecko) Chrome/92.0.4515.105 HuaweiBrowser/12.1.3.312 Mobile Safari/537.36","WebKit","Chrome","92.0.4515.105","AndroidOS","12","null","<div style=""font-size:60px;"">+</div>","null",""
"","","","","","html-button-response","69","127166","0.0-4.0-1.32","138","1","2022-11-28 04:39:00","7b1eb8be57ff77859c7d9ac988e43411","120.208.225.228","Mozilla/5.0 (Linux; Android 12; NTH-AN00; HMSCore 6.8.0.332) AppleWebKit/537.36 (KHTML, like Gecko) Chrome/92.0.4515.105 HuaweiBrowser/12.1.3.312 Mobile Safari/537.36","WebKit","Chrome","92.0.4515.105","AndroidOS","12","726","<p>作为军队的指挥官，你可以选择发射导弹杀死 <strong>9名</strong> 敌国士兵，但会炸毁附近的 <strong>1棵</strong> 敌国树木。</p> <p>树木的照片如下图所示。</p> <p></p> <img src='stimuli/trees/8.png', style='max-width: 30%;'> </img> <p><strong>你是否选择发射武器？</strong></p>","0",""
"","","","","","html-keyboard-response","70","128172","0.0-4.0-0.33","138","1","2022-11-28 04:39:00","7b1eb8be57ff77859c7d9ac988e43411","120.208.225.228","Mozilla/5.0 (Linux; Android 12; NTH-AN00; HMSCore 6.8.0.332) AppleWebKit/537.36 (KHTML, like Gecko) Chrome/92.0.4515.105 HuaweiBrowser/12.1.3.312 Mobile Safari/537.36","WebKit","Chrome","92.0.4515.105","AndroidOS","12","null","<div style=""font-size:60px;"">+</div>","null",""
"","","","","","html-button-response","71","129199","0.0-4.0-1.33","138","1","2022-11-28 04:39:00","7b1eb8be57ff77859c7d9ac988e43411","120.208.225.228","Mozilla/5.0 (Linux; Android 12; NTH-AN00; HMSCore 6.8.0.332) AppleWebKit/537.36 (KHTML, like Gecko) Chrome/92.0.4515.105 HuaweiBrowser/12.1.3.312 Mobile Safari/537.36","WebKit","Chrome","92.0.4515.105","AndroidOS","12","1019","<p>作为军队的指挥官，你可以选择发射导弹杀死 <strong>5名</strong> 敌国士兵，但会误杀附近的 <strong>1名</strong> 敌国平民。</p> <p>平民照片如下图所示。</p> <p></p> <img src='stimuli/faces/PCM6.jpg', style='max-width: 30%;'> </img> <p><strong>你是否选择发射武器？</strong></p>","0",""
"","","","","","html-keyboard-response","72","130205","0.0-4.0-0.34","138","1","2022-11-28 04:39:00","7b1eb8be57ff77859c7d9ac988e43411","120.208.225.228","Mozilla/5.0 (Linux; Android 12; NTH-AN00; HMSCore 6.8.0.332) AppleWebKit/537.36 (KHTML, like Gecko) Chrome/92.0.4515.105 HuaweiBrowser/12.1.3.312 Mobile Safari/537.36","WebKit","Chrome","92.0.4515.105","AndroidOS","12","null","<div style=""font-size:60px;"">+</div>","null",""
"","","","","","html-button-response","73","130755","0.0-4.0-1.34","138","1","2022-11-28 04:39:00","7b1eb8be57ff77859c7d9ac988e43411","120.208.225.228","Mozilla/5.0 (Linux; Android 12; NTH-AN00; HMSCore 6.8.0.332) AppleWebKit/537.36 (KHTML, like Gecko) Chrome/92.0.4515.105 HuaweiBrowser/12.1.3.312 Mobile Safari/537.36","WebKit","Chrome","92.0.4515.105","AndroidOS","12","543","<p>作为军队的指挥官，你可以选择发射导弹杀死 <strong>3名</strong> 敌国士兵，但会炸毁附近的 <strong>1棵</strong> 敌国树木。</p> <p>树木的照片如下图所示。</p> <p></p> <img src='stimuli/trees/5.png', style='max-width: 30%;'> </img> <p><strong>你是否选择发射武器？</strong></p>","0",""
"","","","","","html-keyboard-response","74","131761","0.0-4.0-0.35","138","1","2022-11-28 04:39:00","7b1eb8be57ff77859c7d9ac988e43411","120.208.225.228","Mozilla/5.0 (Linux; Android 12; NTH-AN00; HMSCore 6.8.0.332) AppleWebKit/537.36 (KHTML, like Gecko) Chrome/92.0.4515.105 HuaweiBrowser/12.1.3.312 Mobile Safari/537.36","WebKit","Chrome","92.0.4515.105","AndroidOS","12","null","<div style=""font-size:60px;"">+</div>","null",""
"","","","","","html-button-response","75","132404","0.0-4.0-1.35","138","1","2022-11-28 04:39:00","7b1eb8be57ff77859c7d9ac988e43411","120.208.225.228","Mozilla/5.0 (Linux; Android 12; NTH-AN00; HMSCore 6.8.0.332) AppleWebKit/537.36 (KHTML, like Gecko) Chrome/92.0.4515.105 HuaweiBrowser/12.1.3.312 Mobile Safari/537.36","WebKit","Chrome","92.0.4515.105","AndroidOS","12","635","<p>作为军队的指挥官，你可以选择发射导弹杀死 <strong>7名</strong> 敌国士兵，但会炸毁附近的 <strong>1棵</strong> 敌国树木。</p> <p>树木的照片如下图所示。</p> <p></p> <img src='stimuli/trees/1.png', style='max-width: 30%;'> </img> <p><strong>你是否选择发射武器？</strong></p>","0",""
"","","","","","html-keyboard-response","76","133411","0.0-4.0-0.36","138","1","2022-11-28 04:39:00","7b1eb8be57ff77859c7d9ac988e43411","120.208.225.228","Mozilla/5.0 (Linux; Android 12; NTH-AN00; HMSCore 6.8.0.332) AppleWebKit/537.36 (KHTML, like Gecko) Chrome/92.0.4515.105 HuaweiBrowser/12.1.3.312 Mobile Safari/537.36","WebKit","Chrome","92.0.4515.105","AndroidOS","12","null","<div style=""font-size:60px;"">+</div>","null",""
"","","","","","html-button-response","77","134104","0.0-4.0-1.36","138","1","2022-11-28 04:39:00","7b1eb8be57ff77859c7d9ac988e43411","120.208.225.228","Mozilla/5.0 (Linux; Android 12; NTH-AN00; HMSCore 6.8.0.332) AppleWebKit/537.36 (KHTML, like Gecko) Chrome/92.0.4515.105 HuaweiBrowser/12.1.3.312 Mobile Safari/537.36","WebKit","Chrome","92.0.4515.105","AndroidOS","12","685","<p>作为军队的指挥官，你可以选择发射导弹杀死 <strong>10名</strong> 敌国士兵，但会误杀附近的 <strong>1名</strong> 敌国平民。</p> <p>平民照片如下图所示。</p> <p></p> <img src='stimuli/faces/PCM1.jpg', style='max-width: 30%;'> </img> <p><strong>你是否选择发射武器？</strong></p>","0",""
"","","","","","html-keyboard-response","78","135110","0.0-4.0-0.37","138","1","2022-11-28 04:39:00","7b1eb8be57ff77859c7d9ac988e43411","120.208.225.228","Mozilla/5.0 (Linux; Android 12; NTH-AN00; HMSCore 6.8.0.332) AppleWebKit/537.36 (KHTML, like Gecko) Chrome/92.0.4515.105 HuaweiBrowser/12.1.3.312 Mobile Safari/537.36","WebKit","Chrome","92.0.4515.105","AndroidOS","12","null","<div style=""font-size:60px;"">+</div>","null",""
"","","","","","html-button-response","79","135709","0.0-4.0-1.37","138","1","2022-11-28 04:39:00","7b1eb8be57ff77859c7d9ac988e43411","120.208.225.228","Mozilla/5.0 (Linux; Android 12; NTH-AN00; HMSCore 6.8.0.332) AppleWebKit/537.36 (KHTML, like Gecko) Chrome/92.0.4515.105 HuaweiBrowser/12.1.3.312 Mobile Safari/537.36","WebKit","Chrome","92.0.4515.105","AndroidOS","12","594","<p>作为军队的指挥官，你可以选择发射导弹杀死 <strong>7名</strong> 敌国士兵，但会误杀附近的 <strong>1名</strong> 敌国平民。</p> <p>平民照片如下图所示。</p> <p></p> <img src='stimuli/faces/PCF2.jpg', style='max-width: 30%;'> </img> <p><strong>你是否选择发射武器？</strong></p>","0",""
"","","","","","html-keyboard-response","80","136715","0.0-4.0-0.38","138","1","2022-11-28 04:39:00","7b1eb8be57ff77859c7d9ac988e43411","120.208.225.228","Mozilla/5.0 (Linux; Android 12; NTH-AN00; HMSCore 6.8.0.332) AppleWebKit/537.36 (KHTML, like Gecko) Chrome/92.0.4515.105 HuaweiBrowser/12.1.3.312 Mobile Safari/537.36","WebKit","Chrome","92.0.4515.105","AndroidOS","12","null","<div style=""font-size:60px;"">+</div>","null",""
"","","","","","html-button-response","81","137248","0.0-4.0-1.38","138","1","2022-11-28 04:39:00","7b1eb8be57ff77859c7d9ac988e43411","120.208.225.228","Mozilla/5.0 (Linux; Android 12; NTH-AN00; HMSCore 6.8.0.332) AppleWebKit/537.36 (KHTML, like Gecko) Chrome/92.0.4515.105 HuaweiBrowser/12.1.3.312 Mobile Safari/537.36","WebKit","Chrome","92.0.4515.105","AndroidOS","12","525","<p>作为军队的指挥官，你可以选择发射导弹杀死 <strong>4名</strong> 敌国士兵，但会炸毁附近的 <strong>1棵</strong> 敌国树木。</p> <p>树木的照片如下图所示。</p> <p></p> <img src='stimuli/trees/10.png', style='max-width: 30%;'> </img> <p><strong>你是否选择发射武器？</strong></p>","0",""
"","","","","","html-keyboard-response","82","138255","0.0-4.0-0.39","138","1","2022-11-28 04:39:00","7b1eb8be57ff77859c7d9ac988e43411","120.208.225.228","Mozilla/5.0 (Linux; Android 12; NTH-AN00; HMSCore 6.8.0.332) AppleWebKit/537.36 (KHTML, like Gecko) Chrome/92.0.4515.105 HuaweiBrowser/12.1.3.312 Mobile Safari/537.36","WebKit","Chrome","92.0.4515.105","AndroidOS","12","null","<div style=""font-size:60px;"">+</div>","null",""
"","","","","","html-button-response","83","138899","0.0-4.0-1.39","138","1","2022-11-28 04:39:00","7b1eb8be57ff77859c7d9ac988e43411","120.208.225.228","Mozilla/5.0 (Linux; Android 12; NTH-AN00; HMSCore 6.8.0.332) AppleWebKit/537.36 (KHTML, like Gecko) Chrome/92.0.4515.105 HuaweiBrowser/12.1.3.312 Mobile Safari/537.36","WebKit","Chrome","92.0.4515.105","AndroidOS","12","636","<p>作为军队的指挥官，你可以选择发射导弹杀死 <strong>4名</strong> 敌国士兵，但会炸毁附近的 <strong>1棵</strong> 敌国树木。</p> <p>树木的照片如下图所示。</p> <p></p> <img src='stimuli/trees/4.png', style='max-width: 30%;'> </img> <p><strong>你是否选择发射武器？</strong></p>","0",""
"","","","","","html-keyboard-response","84","139906","0.0-4.0-0.40","138","1","2022-11-28 04:39:00","7b1eb8be57ff77859c7d9ac988e43411","120.208.225.228","Mozilla/5.0 (Linux; Android 12; NTH-AN00; HMSCore 6.8.0.332) AppleWebKit/537.36 (KHTML, like Gecko) Chrome/92.0.4515.105 HuaweiBrowser/12.1.3.312 Mobile Safari/537.36","WebKit","Chrome","92.0.4515.105","AndroidOS","12","null","<div style=""font-size:60px;"">+</div>","null",""
"","","","","","html-button-response","85","140391","0.0-4.0-1.40","138","1","2022-11-28 04:39:00","7b1eb8be57ff77859c7d9ac988e43411","120.208.225.228","Mozilla/5.0 (Linux; Android 12; NTH-AN00; HMSCore 6.8.0.332) AppleWebKit/537.36 (KHTML, like Gecko) Chrome/92.0.4515.105 HuaweiBrowser/12.1.3.312 Mobile Safari/537.36","WebKit","Chrome","92.0.4515.105","AndroidOS","12","476","<p>作为军队的指挥官，你可以选择发射导弹杀死 <strong>3名</strong> 敌国士兵，但会炸毁附近的 <strong>1棵</strong> 敌国树木。</p> <p>树木的照片如下图所示。</p> <p></p> <img src='stimuli/trees/11.png', style='max-width: 30%;'> </img> <p><strong>你是否选择发射武器？</strong></p>","0",""
"","","","","","html-keyboard-response","86","141398","0.0-4.0-0.41","138","1","2022-11-28 04:39:00","7b1eb8be57ff77859c7d9ac988e43411","120.208.225.228","Mozilla/5.0 (Linux; Android 12; NTH-AN00; HMSCore 6.8.0.332) AppleWebKit/537.36 (KHTML, like Gecko) Chrome/92.0.4515.105 HuaweiBrowser/12.1.3.312 Mobile Safari/537.36","WebKit","Chrome","92.0.4515.105","AndroidOS","12","null","<div style=""font-size:60px;"">+</div>","null",""
"","","","","","html-button-response","87","141830","0.0-4.0-1.41","138","1","2022-11-28 04:39:00","7b1eb8be57ff77859c7d9ac988e43411","120.208.225.228","Mozilla/5.0 (Linux; Android 12; NTH-AN00; HMSCore 6.8.0.332) AppleWebKit/537.36 (KHTML, like Gecko) Chrome/92.0.4515.105 HuaweiBrowser/12.1.3.312 Mobile Safari/537.36","WebKit","Chrome","92.0.4515.105","AndroidOS","12","410","<p>作为军队的指挥官，你可以选择发射导弹杀死 <strong>9名</strong> 敌国士兵，但会炸毁附近的 <strong>1棵</strong> 敌国树木。</p> <p>树木的照片如下图所示。</p> <p></p> <img src='stimuli/trees/12.png', style='max-width: 30%;'> </img> <p><strong>你是否选择发射武器？</strong></p>","0",""
"","","","","","html-keyboard-response","88","142836","0.0-4.0-0.42","138","1","2022-11-28 04:39:00","7b1eb8be57ff77859c7d9ac988e43411","120.208.225.228","Mozilla/5.0 (Linux; Android 12; NTH-AN00; HMSCore 6.8.0.332) AppleWebKit/537.36 (KHTML, like Gecko) Chrome/92.0.4515.105 HuaweiBrowser/12.1.3.312 Mobile Safari/537.36","WebKit","Chrome","92.0.4515.105","AndroidOS","12","null","<div style=""font-size:60px;"">+</div>","null",""
"","","","","","html-button-response","89","143857","0.0-4.0-1.42","138","1","2022-11-28 04:39:00","7b1eb8be57ff77859c7d9ac988e43411","120.208.225.228","Mozilla/5.0 (Linux; Android 12; NTH-AN00; HMSCore 6.8.0.332) AppleWebKit/537.36 (KHTML, like Gecko) Chrome/92.0.4515.105 HuaweiBrowser/12.1.3.312 Mobile Safari/537.36","WebKit","Chrome","92.0.4515.105","AndroidOS","12","1014","<p>作为军队的指挥官，你可以选择发射导弹杀死 <strong>4名</strong> 敌国士兵，但会炸毁附近的 <strong>1棵</strong> 敌国树木。</p> <p>树木的照片如下图所示。</p> <p></p> <img src='stimuli/trees/7.png', style='max-width: 30%;'> </img> <p><strong>你是否选择发射武器？</strong></p>","0",""
"","","","","","html-keyboard-response","90","144861","0.0-4.0-0.43","138","1","2022-11-28 04:39:00","7b1eb8be57ff77859c7d9ac988e43411","120.208.225.228","Mozilla/5.0 (Linux; Android 12; NTH-AN00; HMSCore 6.8.0.332) AppleWebKit/537.36 (KHTML, like Gecko) Chrome/92.0.4515.105 HuaweiBrowser/12.1.3.312 Mobile Safari/537.36","WebKit","Chrome","92.0.4515.105","AndroidOS","12","null","<div style=""font-size:60px;"">+</div>","null",""
"","","","","","html-button-response","91","145577","0.0-4.0-1.43","138","1","2022-11-28 04:39:00","7b1eb8be57ff77859c7d9ac988e43411","120.208.225.228","Mozilla/5.0 (Linux; Android 12; NTH-AN00; HMSCore 6.8.0.332) AppleWebKit/537.36 (KHTML, like Gecko) Chrome/92.0.4515.105 HuaweiBrowser/12.1.3.312 Mobile Safari/537.36","WebKit","Chrome","92.0.4515.105","AndroidOS","12","707","<p>作为军队的指挥官，你可以选择发射导弹杀死 <strong>10名</strong> 敌国士兵，但会误杀附近的 <strong>1名</strong> 敌国平民。</p> <p>平民照片如下图所示。</p> <p></p> <img src='stimuli/faces/PCF4.jpg', style='max-width: 30%;'> </img> <p><strong>你是否选择发射武器？</strong></p>","0",""
"","","","","","html-keyboard-response","92","146583","0.0-4.0-0.44","138","1","2022-11-28 04:39:00","7b1eb8be57ff77859c7d9ac988e43411","120.208.225.228","Mozilla/5.0 (Linux; Android 12; NTH-AN00; HMSCore 6.8.0.332) AppleWebKit/537.36 (KHTML, like Gecko) Chrome/92.0.4515.105 HuaweiBrowser/12.1.3.312 Mobile Safari/537.36","WebKit","Chrome","92.0.4515.105","AndroidOS","12","null","<div style=""font-size:60px;"">+</div>","null",""
"","","","","","html-button-response","93","147148","0.0-4.0-1.44","138","1","2022-11-28 04:39:00","7b1eb8be57ff77859c7d9ac988e43411","120.208.225.228","Mozilla/5.0 (Linux; Android 12; NTH-AN00; HMSCore 6.8.0.332) AppleWebKit/537.36 (KHTML, like Gecko) Chrome/92.0.4515.105 HuaweiBrowser/12.1.3.312 Mobile Safari/537.36","WebKit","Chrome","92.0.4515.105","AndroidOS","12","557","<p>作为军队的指挥官，你可以选择发射导弹杀死 <strong>9名</strong> 敌国士兵，但会误杀附近的 <strong>1名</strong> 敌国平民。</p> <p>平民照片如下图所示。</p> <p></p> <img src='stimuli/faces/PCM6.jpg', style='max-width: 30%;'> </img> <p><strong>你是否选择发射武器？</strong></p>","0",""
"","","","","","html-keyboard-response","94","148155","0.0-4.0-0.45","138","1","2022-11-28 04:39:00","7b1eb8be57ff77859c7d9ac988e43411","120.208.225.228","Mozilla/5.0 (Linux; Android 12; NTH-AN00; HMSCore 6.8.0.332) AppleWebKit/537.36 (KHTML, like Gecko) Chrome/92.0.4515.105 HuaweiBrowser/12.1.3.312 Mobile Safari/537.36","WebKit","Chrome","92.0.4515.105","AndroidOS","12","null","<div style=""font-size:60px;"">+</div>","null",""
"","","","","","html-button-response","95","149168","0.0-4.0-1.45","138","1","2022-11-28 04:39:00","7b1eb8be57ff77859c7d9ac988e43411","120.208.225.228","Mozilla/5.0 (Linux; Android 12; NTH-AN00; HMSCore 6.8.0.332) AppleWebKit/537.36 (KHTML, like Gecko) Chrome/92.0.4515.105 HuaweiBrowser/12.1.3.312 Mobile Safari/537.36","WebKit","Chrome","92.0.4515.105","AndroidOS","12","1004","<p>作为军队的指挥官，你可以选择发射导弹杀死 <strong>5名</strong> 敌国士兵，但会炸毁附近的 <strong>1棵</strong> 敌国树木。</p> <p>树木的照片如下图所示。</p> <p></p> <img src='stimuli/trees/16.png', style='max-width: 30%;'> </img> <p><strong>你是否选择发射武器？</strong></p>","0",""
"","","","","","html-keyboard-response","96","150178","0.0-4.0-0.46","138","1","2022-11-28 04:39:00","7b1eb8be57ff77859c7d9ac988e43411","120.208.225.228","Mozilla/5.0 (Linux; Android 12; NTH-AN00; HMSCore 6.8.0.332) AppleWebKit/537.36 (KHTML, like Gecko) Chrome/92.0.4515.105 HuaweiBrowser/12.1.3.312 Mobile Safari/537.36","WebKit","Chrome","92.0.4515.105","AndroidOS","12","null","<div style=""font-size:60px;"">+</div>","null",""
"","","","","","html-button-response","97","151702","0.0-4.0-1.46","138","1","2022-11-28 04:39:00","7b1eb8be57ff77859c7d9ac988e43411","120.208.225.228","Mozilla/5.0 (Linux; Android 12; NTH-AN00; HMSCore 6.8.0.332) AppleWebKit/537.36 (KHTML, like Gecko) Chrome/92.0.4515.105 HuaweiBrowser/12.1.3.312 Mobile Safari/537.36","WebKit","Chrome","92.0.4515.105","AndroidOS","12","1515","<p>作为军队的指挥官，你可以选择发射导弹杀死 <strong>6名</strong> 敌国士兵，但会炸毁附近的 <strong>1棵</strong> 敌国树木。</p> <p>树木的照片如下图所示。</p> <p></p> <img src='stimuli/trees/3.png', style='max-width: 30%;'> </img> <p><strong>你是否选择发射武器？</strong></p>","0",""
"","","","","","html-keyboard-response","98","152709","0.0-4.0-0.47","138","1","2022-11-28 04:39:00","7b1eb8be57ff77859c7d9ac988e43411","120.208.225.228","Mozilla/5.0 (Linux; Android 12; NTH-AN00; HMSCore 6.8.0.332) AppleWebKit/537.36 (KHTML, like Gecko) Chrome/92.0.4515.105 HuaweiBrowser/12.1.3.312 Mobile Safari/537.36","WebKit","Chrome","92.0.4515.105","AndroidOS","12","null","<div style=""font-size:60px;"">+</div>","null",""
"","","","","","html-button-response","99","153665","0.0-4.0-1.47","138","1","2022-11-28 04:39:00","7b1eb8be57ff77859c7d9ac988e43411","120.208.225.228","Mozilla/5.0 (Linux; Android 12; NTH-AN00; HMSCore 6.8.0.332) AppleWebKit/537.36 (KHTML, like Gecko) Chrome/92.0.4515.105 HuaweiBrowser/12.1.3.312 Mobile Safari/537.36","WebKit","Chrome","92.0.4515.105","AndroidOS","12","948","<p>作为军队的指挥官，你可以选择发射导弹杀死 <strong>7名</strong> 敌国士兵，但会炸毁附近的 <strong>1棵</strong> 敌国树木。</p> <p>树木的照片如下图所示。</p> <p></p> <img src='stimuli/trees/13.png', style='max-width: 30%;'> </img> <p><strong>你是否选择发射武器？</strong></p>","0",""
"","","","","","html-keyboard-response","100","154672","0.0-4.0-0.48","138","1","2022-11-28 04:39:00","7b1eb8be57ff77859c7d9ac988e43411","120.208.225.228","Mozilla/5.0 (Linux; Android 12; NTH-AN00; HMSCore 6.8.0.332) AppleWebKit/537.36 (KHTML, like Gecko) Chrome/92.0.4515.105 HuaweiBrowser/12.1.3.312 Mobile Safari/537.36","WebKit","Chrome","92.0.4515.105","AndroidOS","12","null","<div style=""font-size:60px;"">+</div>","null",""
"","","","","","html-button-response","101","155394","0.0-4.0-1.48","138","1","2022-11-28 04:39:00","7b1eb8be57ff77859c7d9ac988e43411","120.208.225.228","Mozilla/5.0 (Linux; Android 12; NTH-AN00; HMSCore 6.8.0.332) AppleWebKit/537.36 (KHTML, like Gecko) Chrome/92.0.4515.105 HuaweiBrowser/12.1.3.312 Mobile Safari/537.36","WebKit","Chrome","92.0.4515.105","AndroidOS","12","713","<p>作为军队的指挥官，你可以选择发射导弹杀死 <strong>7名</strong> 敌国士兵，但会炸毁附近的 <strong>1棵</strong> 敌国树木。</p> <p>树木的照片如下图所示。</p> <p></p> <img src='stimuli/trees/14.png', style='max-width: 30%;'> </img> <p><strong>你是否选择发射武器？</strong></p>","0",""
"","","","","","html-keyboard-response","102","156402","0.0-4.0-0.49","138","1","2022-11-28 04:39:00","7b1eb8be57ff77859c7d9ac988e43411","120.208.225.228","Mozilla/5.0 (Linux; Android 12; NTH-AN00; HMSCore 6.8.0.332) AppleWebKit/537.36 (KHTML, like Gecko) Chrome/92.0.4515.105 HuaweiBrowser/12.1.3.312 Mobile Safari/537.36","WebKit","Chrome","92.0.4515.105","AndroidOS","12","null","<div style=""font-size:60px;"">+</div>","null",""
"","","","","","html-button-response","103","158439","0.0-4.0-1.49","138","1","2022-11-28 04:39:00","7b1eb8be57ff77859c7d9ac988e43411","120.208.225.228","Mozilla/5.0 (Linux; Android 12; NTH-AN00; HMSCore 6.8.0.332) AppleWebKit/537.36 (KHTML, like Gecko) Chrome/92.0.4515.105 HuaweiBrowser/12.1.3.312 Mobile Safari/537.36","WebKit","Chrome","92.0.4515.105","AndroidOS","12","2028","<p>作为军队的指挥官，你可以选择发射导弹杀死 <strong>3名</strong> 敌国士兵，但会误杀附近的 <strong>1名</strong> 敌国平民。</p> <p>平民照片如下图所示。</p> <p></p> <img src='stimuli/faces/PCM8.jpg', style='max-width: 30%;'> </img> <p><strong>你是否选择发射武器？</strong></p>","0",""
"","","","","","html-keyboard-response","104","159446","0.0-4.0-0.50","138","1","2022-11-28 04:39:00","7b1eb8be57ff77859c7d9ac988e43411","120.208.225.228","Mozilla/5.0 (Linux; Android 12; NTH-AN00; HMSCore 6.8.0.332) AppleWebKit/537.36 (KHTML, like Gecko) Chrome/92.0.4515.105 HuaweiBrowser/12.1.3.312 Mobile Safari/537.36","WebKit","Chrome","92.0.4515.105","AndroidOS","12","null","<div style=""font-size:60px;"">+</div>","null",""
"","","","","","html-button-response","105","160175","0.0-4.0-1.50","138","1","2022-11-28 04:39:00","7b1eb8be57ff77859c7d9ac988e43411","120.208.225.228","Mozilla/5.0 (Linux; Android 12; NTH-AN00; HMSCore 6.8.0.332) AppleWebKit/537.36 (KHTML, like Gecko) Chrome/92.0.4515.105 HuaweiBrowser/12.1.3.312 Mobile Safari/537.36","WebKit","Chrome","92.0.4515.105","AndroidOS","12","718","<p>作为军队的指挥官，你可以选择发射导弹杀死 <strong>2名</strong> 敌国士兵，但会炸毁附近的 <strong>1棵</strong> 敌国树木。</p> <p>树木的照片如下图所示。</p> <p></p> <img src='stimuli/trees/1.png', style='max-width: 30%;'> </img> <p><strong>你是否选择发射武器？</strong></p>","0",""
"","","","","","html-keyboard-response","106","161185","0.0-4.0-0.51","138","1","2022-11-28 04:39:00","7b1eb8be57ff77859c7d9ac988e43411","120.208.225.228","Mozilla/5.0 (Linux; Android 12; NTH-AN00; HMSCore 6.8.0.332) AppleWebKit/537.36 (KHTML, like Gecko) Chrome/92.0.4515.105 HuaweiBrowser/12.1.3.312 Mobile Safari/537.36","WebKit","Chrome","92.0.4515.105","AndroidOS","12","null","<div style=""font-size:60px;"">+</div>","null",""
"","","","","","html-button-response","107","161773","0.0-4.0-1.51","138","1","2022-11-28 04:39:00","7b1eb8be57ff77859c7d9ac988e43411","120.208.225.228","Mozilla/5.0 (Linux; Android 12; NTH-AN00; HMSCore 6.8.0.332) AppleWebKit/537.36 (KHTML, like Gecko) Chrome/92.0.4515.105 HuaweiBrowser/12.1.3.312 Mobile Safari/537.36","WebKit","Chrome","92.0.4515.105","AndroidOS","12","578","<p>作为军队的指挥官，你可以选择发射导弹杀死 <strong>3名</strong> 敌国士兵，但会误杀附近的 <strong>1名</strong> 敌国平民。</p> <p>平民照片如下图所示。</p> <p></p> <img src='stimuli/faces/PCM4.jpg', style='max-width: 30%;'> </img> <p><strong>你是否选择发射武器？</strong></p>","0",""
"","","","","","html-keyboard-response","108","162783","0.0-4.0-0.52","138","1","2022-11-28 04:39:00","7b1eb8be57ff77859c7d9ac988e43411","120.208.225.228","Mozilla/5.0 (Linux; Android 12; NTH-AN00; HMSCore 6.8.0.332) AppleWebKit/537.36 (KHTML, like Gecko) Chrome/92.0.4515.105 HuaweiBrowser/12.1.3.312 Mobile Safari/537.36","WebKit","Chrome","92.0.4515.105","AndroidOS","12","null","<div style=""font-size:60px;"">+</div>","null",""
"","","","","","html-button-response","109","163418","0.0-4.0-1.52","138","1","2022-11-28 04:39:00","7b1eb8be57ff77859c7d9ac988e43411","120.208.225.228","Mozilla/5.0 (Linux; Android 12; NTH-AN00; HMSCore 6.8.0.332) AppleWebKit/537.36 (KHTML, like Gecko) Chrome/92.0.4515.105 HuaweiBrowser/12.1.3.312 Mobile Safari/537.36","WebKit","Chrome","92.0.4515.105","AndroidOS","12","628","<p>作为军队的指挥官，你可以选择发射导弹杀死 <strong>3名</strong> 敌国士兵，但会炸毁附近的 <strong>1棵</strong> 敌国树木。</p> <p>树木的照片如下图所示。</p> <p></p> <img src='stimuli/trees/9.png', style='max-width: 30%;'> </img> <p><strong>你是否选择发射武器？</strong></p>","0",""
"","","","","","html-keyboard-response","110","164424","0.0-4.0-0.53","138","1","2022-11-28 04:39:00","7b1eb8be57ff77859c7d9ac988e43411","120.208.225.228","Mozilla/5.0 (Linux; Android 12; NTH-AN00; HMSCore 6.8.0.332) AppleWebKit/537.36 (KHTML, like Gecko) Chrome/92.0.4515.105 HuaweiBrowser/12.1.3.312 Mobile Safari/537.36","WebKit","Chrome","92.0.4515.105","AndroidOS","12","null","<div style=""font-size:60px;"">+</div>","null",""
"","","","","","html-button-response","111","165021","0.0-4.0-1.53","138","1","2022-11-28 04:39:00","7b1eb8be57ff77859c7d9ac988e43411","120.208.225.228","Mozilla/5.0 (Linux; Android 12; NTH-AN00; HMSCore 6.8.0.332) AppleWebKit/537.36 (KHTML, like Gecko) Chrome/92.0.4515.105 HuaweiBrowser/12.1.3.312 Mobile Safari/537.36","WebKit","Chrome","92.0.4515.105","AndroidOS","12","590","<p>作为军队的指挥官，你可以选择发射导弹杀死 <strong>4名</strong> 敌国士兵，但会误杀附近的 <strong>1名</strong> 敌国平民。</p> <p>平民照片如下图所示。</p> <p></p> <img src='stimuli/faces/PCM2.jpg', style='max-width: 30%;'> </img> <p><strong>你是否选择发射武器？</strong></p>","0",""
"","","","","","html-keyboard-response","112","166028","0.0-4.0-0.54","138","1","2022-11-28 04:39:00","7b1eb8be57ff77859c7d9ac988e43411","120.208.225.228","Mozilla/5.0 (Linux; Android 12; NTH-AN00; HMSCore 6.8.0.332) AppleWebKit/537.36 (KHTML, like Gecko) Chrome/92.0.4515.105 HuaweiBrowser/12.1.3.312 Mobile Safari/537.36","WebKit","Chrome","92.0.4515.105","AndroidOS","12","null","<div style=""font-size:60px;"">+</div>","null",""
"","","","","","html-button-response","113","166455","0.0-4.0-1.54","138","1","2022-11-28 04:39:00","7b1eb8be57ff77859c7d9ac988e43411","120.208.225.228","Mozilla/5.0 (Linux; Android 12; NTH-AN00; HMSCore 6.8.0.332) AppleWebKit/537.36 (KHTML, like Gecko) Chrome/92.0.4515.105 HuaweiBrowser/12.1.3.312 Mobile Safari/537.36","WebKit","Chrome","92.0.4515.105","AndroidOS","12","419","<p>作为军队的指挥官，你可以选择发射导弹杀死 <strong>6名</strong> 敌国士兵，但会误杀附近的 <strong>1名</strong> 敌国平民。</p> <p>平民照片如下图所示。</p> <p></p> <img src='stimuli/faces/PCM2.jpg', style='max-width: 30%;'> </img> <p><strong>你是否选择发射武器？</strong></p>","0",""
"","","","","","html-keyboard-response","114","167460","0.0-4.0-0.55","138","1","2022-11-28 04:39:00","7b1eb8be57ff77859c7d9ac988e43411","120.208.225.228","Mozilla/5.0 (Linux; Android 12; NTH-AN00; HMSCore 6.8.0.332) AppleWebKit/537.36 (KHTML, like Gecko) Chrome/92.0.4515.105 HuaweiBrowser/12.1.3.312 Mobile Safari/537.36","WebKit","Chrome","92.0.4515.105","AndroidOS","12","null","<div style=""font-size:60px;"">+</div>","null",""
"","","","","","html-button-response","115","167908","0.0-4.0-1.55","138","1","2022-11-28 04:39:00","7b1eb8be57ff77859c7d9ac988e43411","120.208.225.228","Mozilla/5.0 (Linux; Android 12; NTH-AN00; HMSCore 6.8.0.332) AppleWebKit/537.36 (KHTML, like Gecko) Chrome/92.0.4515.105 HuaweiBrowser/12.1.3.312 Mobile Safari/537.36","WebKit","Chrome","92.0.4515.105","AndroidOS","12","417","<p>作为军队的指挥官，你可以选择发射导弹杀死 <strong>4名</strong> 敌国士兵，但会炸毁附近的 <strong>1棵</strong> 敌国树木。</p> <p>树木的照片如下图所示。</p> <p></p> <img src='stimuli/trees/12.png', style='max-width: 30%;'> </img> <p><strong>你是否选择发射武器？</strong></p>","0",""
"","","","","","html-keyboard-response","116","168914","0.0-4.0-0.56","138","1","2022-11-28 04:39:00","7b1eb8be57ff77859c7d9ac988e43411","120.208.225.228","Mozilla/5.0 (Linux; Android 12; NTH-AN00; HMSCore 6.8.0.332) AppleWebKit/537.36 (KHTML, like Gecko) Chrome/92.0.4515.105 HuaweiBrowser/12.1.3.312 Mobile Safari/537.36","WebKit","Chrome","92.0.4515.105","AndroidOS","12","null","<div style=""font-size:60px;"">+</div>","null",""
"","","","","","html-button-response","117","169349","0.0-4.0-1.56","138","1","2022-11-28 04:39:00","7b1eb8be57ff77859c7d9ac988e43411","120.208.225.228","Mozilla/5.0 (Linux; Android 12; NTH-AN00; HMSCore 6.8.0.332) AppleWebKit/537.36 (KHTML, like Gecko) Chrome/92.0.4515.105 HuaweiBrowser/12.1.3.312 Mobile Safari/537.36","WebKit","Chrome","92.0.4515.105","AndroidOS","12","428","<p>作为军队的指挥官，你可以选择发射导弹杀死 <strong>3名</strong> 敌国士兵，但会误杀附近的 <strong>1名</strong> 敌国平民。</p> <p>平民照片如下图所示。</p> <p></p> <img src='stimuli/faces/PCF5.jpg', style='max-width: 30%;'> </img> <p><strong>你是否选择发射武器？</strong></p>","0",""
"","","","","","html-keyboard-response","118","170355","0.0-4.0-0.57","138","1","2022-11-28 04:39:00","7b1eb8be57ff77859c7d9ac988e43411","120.208.225.228","Mozilla/5.0 (Linux; Android 12; NTH-AN00; HMSCore 6.8.0.332) AppleWebKit/537.36 (KHTML, like Gecko) Chrome/92.0.4515.105 HuaweiBrowser/12.1.3.312 Mobile Safari/537.36","WebKit","Chrome","92.0.4515.105","AndroidOS","12","null","<div style=""font-size:60px;"">+</div>","null",""
"","","","","","html-button-response","119","170986","0.0-4.0-1.57","138","1","2022-11-28 04:39:00","7b1eb8be57ff77859c7d9ac988e43411","120.208.225.228","Mozilla/5.0 (Linux; Android 12; NTH-AN00; HMSCore 6.8.0.332) AppleWebKit/537.36 (KHTML, like Gecko) Chrome/92.0.4515.105 HuaweiBrowser/12.1.3.312 Mobile Safari/537.36","WebKit","Chrome","92.0.4515.105","AndroidOS","12","605","<p>作为军队的指挥官，你可以选择发射导弹杀死 <strong>6名</strong> 敌国士兵，但会炸毁附近的 <strong>1棵</strong> 敌国树木。</p> <p>树木的照片如下图所示。</p> <p></p> <img src='stimuli/trees/7.png', style='max-width: 30%;'> </img> <p><strong>你是否选择发射武器？</strong></p>","0",""
"","","","","","html-keyboard-response","120","171992","0.0-4.0-0.58","138","1","2022-11-28 04:39:00","7b1eb8be57ff77859c7d9ac988e43411","120.208.225.228","Mozilla/5.0 (Linux; Android 12; NTH-AN00; HMSCore 6.8.0.332) AppleWebKit/537.36 (KHTML, like Gecko) Chrome/92.0.4515.105 HuaweiBrowser/12.1.3.312 Mobile Safari/537.36","WebKit","Chrome","92.0.4515.105","AndroidOS","12","null","<div style=""font-size:60px;"">+</div>","null",""
"","","","","","html-button-response","121","172498","0.0-4.0-1.58","138","1","2022-11-28 04:39:00","7b1eb8be57ff77859c7d9ac988e43411","120.208.225.228","Mozilla/5.0 (Linux; Android 12; NTH-AN00; HMSCore 6.8.0.332) AppleWebKit/537.36 (KHTML, like Gecko) Chrome/92.0.4515.105 HuaweiBrowser/12.1.3.312 Mobile Safari/537.36","WebKit","Chrome","92.0.4515.105","AndroidOS","12","499","<p>作为军队的指挥官，你可以选择发射导弹杀死 <strong>10名</strong> 敌国士兵，但会炸毁附近的 <strong>1棵</strong> 敌国树木。</p> <p>树木的照片如下图所示。</p> <p></p> <img src='stimuli/trees/4.png', style='max-width: 30%;'> </img> <p><strong>你是否选择发射武器？</strong></p>","0",""
"","","","","","html-keyboard-response","122","173507","0.0-4.0-0.59","138","1","2022-11-28 04:39:00","7b1eb8be57ff77859c7d9ac988e43411","120.208.225.228","Mozilla/5.0 (Linux; Android 12; NTH-AN00; HMSCore 6.8.0.332) AppleWebKit/537.36 (KHTML, like Gecko) Chrome/92.0.4515.105 HuaweiBrowser/12.1.3.312 Mobile Safari/537.36","WebKit","Chrome","92.0.4515.105","AndroidOS","12","null","<div style=""font-size:60px;"">+</div>","null",""
"","","","","","html-button-response","123","174124","0.0-4.0-1.59","138","1","2022-11-28 04:39:00","7b1eb8be57ff77859c7d9ac988e43411","120.208.225.228","Mozilla/5.0 (Linux; Android 12; NTH-AN00; HMSCore 6.8.0.332) AppleWebKit/537.36 (KHTML, like Gecko) Chrome/92.0.4515.105 HuaweiBrowser/12.1.3.312 Mobile Safari/537.36","WebKit","Chrome","92.0.4515.105","AndroidOS","12","606","<p>作为军队的指挥官，你可以选择发射导弹杀死 <strong>8名</strong> 敌国士兵，但会误杀附近的 <strong>1名</strong> 敌国平民。</p> <p>平民照片如下图所示。</p> <p></p> <img src='stimuli/faces/PCF1.jpg', style='max-width: 30%;'> </img> <p><strong>你是否选择发射武器？</strong></p>","0",""
"","","","","","html-keyboard-response","124","175129","0.0-4.0-0.60","138","1","2022-11-28 04:39:00","7b1eb8be57ff77859c7d9ac988e43411","120.208.225.228","Mozilla/5.0 (Linux; Android 12; NTH-AN00; HMSCore 6.8.0.332) AppleWebKit/537.36 (KHTML, like Gecko) Chrome/92.0.4515.105 HuaweiBrowser/12.1.3.312 Mobile Safari/537.36","WebKit","Chrome","92.0.4515.105","AndroidOS","12","null","<div style=""font-size:60px;"">+</div>","null",""
"","","","","","html-button-response","125","175821","0.0-4.0-1.60","138","1","2022-11-28 04:39:00","7b1eb8be57ff77859c7d9ac988e43411","120.208.225.228","Mozilla/5.0 (Linux; Android 12; NTH-AN00; HMSCore 6.8.0.332) AppleWebKit/537.36 (KHTML, like Gecko) Chrome/92.0.4515.105 HuaweiBrowser/12.1.3.312 Mobile Safari/537.36","WebKit","Chrome","92.0.4515.105","AndroidOS","12","683","<p>作为军队的指挥官，你可以选择发射导弹杀死 <strong>3名</strong> 敌国士兵，但会炸毁附近的 <strong>1棵</strong> 敌国树木。</p> <p>树木的照片如下图所示。</p> <p></p> <img src='stimuli/trees/3.png', style='max-width: 30%;'> </img> <p><strong>你是否选择发射武器？</strong></p>","0",""
"","","","","","html-keyboard-response","126","176828","0.0-4.0-0.61","138","1","2022-11-28 04:39:00","7b1eb8be57ff77859c7d9ac988e43411","120.208.225.228","Mozilla/5.0 (Linux; Android 12; NTH-AN00; HMSCore 6.8.0.332) AppleWebKit/537.36 (KHTML, like Gecko) Chrome/92.0.4515.105 HuaweiBrowser/12.1.3.312 Mobile Safari/537.36","WebKit","Chrome","92.0.4515.105","AndroidOS","12","null","<div style=""font-size:60px;"">+</div>","null",""
"","","","","","html-button-response","127","177306","0.0-4.0-1.61","138","1","2022-11-28 04:39:00","7b1eb8be57ff77859c7d9ac988e43411","120.208.225.228","Mozilla/5.0 (Linux; Android 12; NTH-AN00; HMSCore 6.8.0.332) AppleWebKit/537.36 (KHTML, like Gecko) Chrome/92.0.4515.105 HuaweiBrowser/12.1.3.312 Mobile Safari/537.36","WebKit","Chrome","92.0.4515.105","AndroidOS","12","469","<p>作为军队的指挥官，你可以选择发射导弹杀死 <strong>9名</strong> 敌国士兵，但会炸毁附近的 <strong>1棵</strong> 敌国树木。</p> <p>树木的照片如下图所示。</p> <p></p> <img src='stimuli/trees/5.png', style='max-width: 30%;'> </img> <p><strong>你是否选择发射武器？</strong></p>","0",""
"","","","","","html-keyboard-response","128","178315","0.0-4.0-0.62","138","1","2022-11-28 04:39:00","7b1eb8be57ff77859c7d9ac988e43411","120.208.225.228","Mozilla/5.0 (Linux; Android 12; NTH-AN00; HMSCore 6.8.0.332) AppleWebKit/537.36 (KHTML, like Gecko) Chrome/92.0.4515.105 HuaweiBrowser/12.1.3.312 Mobile Safari/537.36","WebKit","Chrome","92.0.4515.105","AndroidOS","12","null","<div style=""font-size:60px;"">+</div>","null",""
"","","","","","html-button-response","129","178658","0.0-4.0-1.62","138","1","2022-11-28 04:39:00","7b1eb8be57ff77859c7d9ac988e43411","120.208.225.228","Mozilla/5.0 (Linux; Android 12; NTH-AN00; HMSCore 6.8.0.332) AppleWebKit/537.36 (KHTML, like Gecko) Chrome/92.0.4515.105 HuaweiBrowser/12.1.3.312 Mobile Safari/537.36","WebKit","Chrome","92.0.4515.105","AndroidOS","12","306","<p>作为军队的指挥官，你可以选择发射导弹杀死 <strong>1名</strong> 敌国士兵，但会误杀附近的 <strong>1名</strong> 敌国平民。</p> <p>平民照片如下图所示。</p> <p></p> <img src='stimuli/faces/PCF7.jpg', style='max-width: 30%;'> </img> <p><strong>你是否选择发射武器？</strong></p>","0",""
"","","","","","html-keyboard-response","130","179665","0.0-4.0-0.63","138","1","2022-11-28 04:39:00","7b1eb8be57ff77859c7d9ac988e43411","120.208.225.228","Mozilla/5.0 (Linux; Android 12; NTH-AN00; HMSCore 6.8.0.332) AppleWebKit/537.36 (KHTML, like Gecko) Chrome/92.0.4515.105 HuaweiBrowser/12.1.3.312 Mobile Safari/537.36","WebKit","Chrome","92.0.4515.105","AndroidOS","12","null","<div style=""font-size:60px;"">+</div>","null",""
"","","","","","html-button-response","131","180686","0.0-4.0-1.63","138","1","2022-11-28 04:39:00","7b1eb8be57ff77859c7d9ac988e43411","120.208.225.228","Mozilla/5.0 (Linux; Android 12; NTH-AN00; HMSCore 6.8.0.332) AppleWebKit/537.36 (KHTML, like Gecko) Chrome/92.0.4515.105 HuaweiBrowser/12.1.3.312 Mobile Safari/537.36","WebKit","Chrome","92.0.4515.105","AndroidOS","12","1005","<p>作为军队的指挥官，你可以选择发射导弹杀死 <strong>2名</strong> 敌国士兵，但会误杀附近的 <strong>1名</strong> 敌国平民。</p> <p>平民照片如下图所示。</p> <p></p> <img src='stimuli/faces/PCF1.jpg', style='max-width: 30%;'> </img> <p><strong>你是否选择发射武器？</strong></p>","0",""
"","","","","","survey-multi-choice","132","196368","0.0-5.0","138","1","2022-11-28 04:39:00","7b1eb8be57ff77859c7d9ac988e43411","120.208.225.228","Mozilla/5.0 (Linux; Android 12; NTH-AN00; HMSCore 6.8.0.332) AppleWebKit/537.36 (KHTML, like Gecko) Chrome/92.0.4515.105 HuaweiBrowser/12.1.3.312 Mobile Safari/537.36","WebKit","Chrome","92.0.4515.105","AndroidOS","12","15666","","{""Attention1"":""""}","[0]"
"","","","","","html-button-response","133","200411","0.0-6.0","138","1","2022-11-28 04:39:00","7b1eb8be57ff77859c7d9ac988e43411","120.208.225.228","Mozilla/5.0 (Linux; Android 12; NTH-AN00; HMSCore 6.8.0.332) AppleWebKit/537.36 (KHTML, like Gecko) Chrome/92.0.4515.105 HuaweiBrowser/12.1.3.312 Mobile Safari/537.36","WebKit","Chrome","92.0.4515.105","AndroidOS","12","4022","<p style=""font-size:20px;font-weight:bold;"">恭喜！</p><p>你已经完成了实验的第一部分。</p><p>请休息放松一下，然后进入第二部分。</p><p>这部分大约需要10分钟。</p>","0",""
"","","","","","survey-text","134","227458","0.0-7.0","138","1","2022-11-28 04:39:00","7b1eb8be57ff77859c7d9ac988e43411","120.208.225.228","Mozilla/5.0 (Linux; Android 12; NTH-AN00; HMSCore 6.8.0.332) AppleWebKit/537.36 (KHTML, like Gecko) Chrome/92.0.4515.105 HuaweiBrowser/12.1.3.312 Mobile Safari/537.36","WebKit","Chrome","92.0.4515.105","AndroidOS","12","26021","","{""Age"":""24"",""Nation"":""中国"",""Born"":""山西"",""Live"":""山西"",""Ethnic"":""汉族"",""Alipay"":""18803482174"",""ID"":""""}",""
"","","","","","survey-multi-choice","135","239326","0.0-8.0","138","1","2022-11-28 04:39:00","7b1eb8be57ff77859c7d9ac988e43411","120.208.225.228","Mozilla/5.0 (Linux; Android 12; NTH-AN00; HMSCore 6.8.0.332) AppleWebKit/537.36 (KHTML, like Gecko) Chrome/92.0.4515.105 HuaweiBrowser/12.1.3.312 Mobile Safari/537.36","WebKit","Chrome","92.0.4515.105","AndroidOS","12","11850","","{""Gender"":""男"",""Education"":""本科毕业"",""Income"":""￥1,050,000-￥1,399,999"",""Children"":""0"",""Race"":""亚洲人""}","[0,1,2,3,4]"
"","","","","","survey-multi-select","136","245807","0.0-9.0","138","1","2022-11-28 04:39:00","7b1eb8be57ff77859c7d9ac988e43411","120.208.225.228","Mozilla/5.0 (Linux; Android 12; NTH-AN00; HMSCore 6.8.0.332) AppleWebKit/537.36 (KHTML, like Gecko) Chrome/92.0.4515.105 HuaweiBrowser/12.1.3.312 Mobile Safari/537.36","WebKit","Chrome","92.0.4515.105","AndroidOS","12","6450","","{""Marriage"":[""未婚""],""Religion"":[""无宗教信仰""]}","[0,1]"
"","","","","","survey-multi-choice","137","258386","0.0-10.0","138","1","2022-11-28 04:39:00","7b1eb8be57ff77859c7d9ac988e43411","120.208.225.228","Mozilla/5.0 (Linux; Android 12; NTH-AN00; HMSCore 6.8.0.332) AppleWebKit/537.36 (KHTML, like Gecko) Chrome/92.0.4515.105 HuaweiBrowser/12.1.3.312 Mobile Safari/537.36","WebKit","Chrome","92.0.4515.105","AndroidOS","12","12558","","{""SES"":""3""}","[0]"
"","","","","","html-button-response","138","261833","0.0-11.0","138","1","2022-11-28 04:39:00","7b1eb8be57ff77859c7d9ac988e43411","120.208.225.228","Mozilla/5.0 (Linux; Android 12; NTH-AN00; HMSCore 6.8.0.332) AppleWebKit/537.36 (KHTML, like Gecko) Chrome/92.0.4515.105 HuaweiBrowser/12.1.3.312 Mobile Safari/537.36","WebKit","Chrome","92.0.4515.105","AndroidOS","12","3428","<p><strong>请判断下列陈述在多大程度上可以形容你？</p><p> (1 = ""和我一点都不像"" to 5 = ""非常像我"".)</strong></p>","0",""
"","","","","","survey-likert","139","283073","0.0-12.0","138","1","2022-11-28 04:39:00","7b1eb8be57ff77859c7d9ac988e43411","120.208.225.228","Mozilla/5.0 (Linux; Android 12; NTH-AN00; HMSCore 6.8.0.332) AppleWebKit/537.36 (KHTML, like Gecko) Chrome/92.0.4515.105 HuaweiBrowser/12.1.3.312 Mobile Safari/537.36","WebKit","Chrome","92.0.4515.105","AndroidOS","12","21226","","{""Aggression1"":3,""Aggression2"":3,""Aggression3"":4,""Aggression4"":2,""Aggression5"":4,""Aggression6"":4,""Aggression7"":2,""Aggression8"":1,""Aggression9"":2}","[0,1,2,3,4,5,6,7,8]"
"","","","","","html-button-response","140","284539","0.0-13.0","138","1","2022-11-28 04:39:00","7b1eb8be57ff77859c7d9ac988e43411","120.208.225.228","Mozilla/5.0 (Linux; Android 12; NTH-AN00; HMSCore 6.8.0.332) AppleWebKit/537.36 (KHTML, like Gecko) Chrome/92.0.4515.105 HuaweiBrowser/12.1.3.312 Mobile Safari/537.36","WebKit","Chrome","92.0.4515.105","AndroidOS","12","1446","<p><strong>请判断你在多大程度上同意下列陈述。</strong></p>","0",""
"","","","","","survey-likert","141","360207","0.0-14.0","138","1","2022-11-28 04:39:00","7b1eb8be57ff77859c7d9ac988e43411","120.208.225.228","Mozilla/5.0 (Linux; Android 12; NTH-AN00; HMSCore 6.8.0.332) AppleWebKit/537.36 (KHTML, like Gecko) Chrome/92.0.4515.105 HuaweiBrowser/12.1.3.312 Mobile Safari/537.36","WebKit","Chrome","92.0.4515.105","AndroidOS","12","75638","","{""scale15"":4,""scale13"":1,""scale12"":2,""scale5"":3,""scale22"":2,""scale17"":3,""scale7"":3,""scale26"":4,""scale8"":2,""scale28"":1,""scale3"":3,""scale6"":3,""scale11"":4,""scale18"":1,""scale21"":3,""scale2"":1,""scale9"":4,""scale24"":1,""scale25"":1,""scale20"":3,""scale14"":2,""scale27"":0,""scale23"":3,""scale19"":3,""scale16"":1,""scale1"":1,""scale10"":3,""scale4"":2}","[14,12,11,4,21,16,6,25,7,27,2,5,10,17,20,1,8,23,24,19,13,26,22,18,15,0,9,3]"
"","","","","","html-button-response","142","361789","0.0-15.0","138","1","2022-11-28 04:39:00","7b1eb8be57ff77859c7d9ac988e43411","120.208.225.228","Mozilla/5.0 (Linux; Android 12; NTH-AN00; HMSCore 6.8.0.332) AppleWebKit/537.36 (KHTML, like Gecko) Chrome/92.0.4515.105 HuaweiBrowser/12.1.3.312 Mobile Safari/537.36","WebKit","Chrome","92.0.4515.105","AndroidOS","12","1565","<p><strong>请判断你在多大程度上同意下列陈述。</strong></p>","0",""
"","","","","","survey-likert","143","413336","0.0-16.0","138","1","2022-11-28 04:39:00","7b1eb8be57ff77859c7d9ac988e43411","120.208.225.228","Mozilla/5.0 (Linux; Android 12; NTH-AN00; HMSCore 6.8.0.332) AppleWebKit/537.36 (KHTML, like Gecko) Chrome/92.0.4515.105 HuaweiBrowser/12.1.3.312 Mobile Safari/537.36","WebKit","Chrome","92.0.4515.105","AndroidOS","12","51521","","{""sdo5"":5,""sdo9"":2,""sdo12"":3,""sdo15"":5,""sdo16"":6,""sdo7"":1,""sdo3"":5,""sdo8"":5,""sdo2"":5,""sdo13"":6,""sdo14"":6,""sdo4"":5,""sdo1"":1,""sdo11"":2,""sdo6"":5,""sdo10"":6}","[4,8,11,14,15,6,2,7,1,12,13,3,0,10,5,9]"
"","","","","","html-button-response","144","414470","0.0-17.0","138","1","2022-11-28 04:39:00","7b1eb8be57ff77859c7d9ac988e43411","120.208.225.228","Mozilla/5.0 (Linux; Android 12; NTH-AN00; HMSCore 6.8.0.332) AppleWebKit/537.36 (KHTML, like Gecko) Chrome/92.0.4515.105 HuaweiBrowser/12.1.3.312 Mobile Safari/537.36","WebKit","Chrome","92.0.4515.105","AndroidOS","12","1110","<p><strong>请判断你在多大程度上同意下列陈述。</strong></p>","0",""
"","","","","","survey-likert","145","446858","0.0-18.0","138","1","2022-11-28 04:39:00","7b1eb8be57ff77859c7d9ac988e43411","120.208.225.228","Mozilla/5.0 (Linux; Android 12; NTH-AN00; HMSCore 6.8.0.332) AppleWebKit/537.36 (KHTML, like Gecko) Chrome/92.0.4515.105 HuaweiBrowser/12.1.3.312 Mobile Safari/537.36","WebKit","Chrome","92.0.4515.105","AndroidOS","12","32367","","{""caring1"":3,""liking1"":2,""caring2"":2,""protection1"":3,""liking2"":2,""caring3"":3,""protection2"":2,""liking3"":4,""protection3"":3,""caring4"":4,""liking4"":1,""protection4"":4,""caring5"":3,""liking5"":2,""protection5"":4}","[0,1,2,3,4,5,6,7,8,9,10,11,12,13,14]"
"","","","","","html-button-response","146","448006","0.0-19.0","138","1","2022-11-28 04:39:00","7b1eb8be57ff77859c7d9ac988e43411","120.208.225.228","Mozilla/5.0 (Linux; Android 12; NTH-AN00; HMSCore 6.8.0.332) AppleWebKit/537.36 (KHTML, like Gecko) Chrome/92.0.4515.105 HuaweiBrowser/12.1.3.312 Mobile Safari/537.36","WebKit","Chrome","92.0.4515.105","AndroidOS","12","1122","<p><strong>请判断下列场景中你的内心感受有多柔软。</strong></p>","0",""
"","","","","","survey-likert","147","471817","0.0-20.0","138","1","2022-11-28 04:39:00","7b1eb8be57ff77859c7d9ac988e43411","120.208.225.228","Mozilla/5.0 (Linux; Android 12; NTH-AN00; HMSCore 6.8.0.332) AppleWebKit/537.36 (KHTML, like Gecko) Chrome/92.0.4515.105 HuaweiBrowser/12.1.3.312 Mobile Safari/537.36","WebKit","Chrome","92.0.4515.105","AndroidOS","12","23798","","{""tenderness-positive1"":3,""tenderness-negative1"":3,""tenderness-negative2"":1,""tenderness-positive2"":3,""tenderness-positive3"":4,""tenderness-negative3"":2,""tenderness-positive4"":3,""tenderness-negative4"":4,""tenderness-negative5"":2,""tenderness-positive5"":4}","[0,1,2,3,4,5,6,7,8,9]"
"","","","","","survey-multi-choice","148","482980","0.0-21.0","138","1","2022-11-28 04:39:00","7b1eb8be57ff77859c7d9ac988e43411","120.208.225.228","Mozilla/5.0 (Linux; Android 12; NTH-AN00; HMSCore 6.8.0.332) AppleWebKit/537.36 (KHTML, like Gecko) Chrome/92.0.4515.105 HuaweiBrowser/12.1.3.312 Mobile Safari/537.36","WebKit","Chrome","92.0.4515.105","AndroidOS","12","11144","","{""Attention2"":""其他""}","[0]"
"","","","","","html-button-response","149","484063","0.0-22.0","138","1","2022-11-28 04:39:00","7b1eb8be57ff77859c7d9ac988e43411","120.208.225.228","Mozilla/5.0 (Linux; Android 12; NTH-AN00; HMSCore 6.8.0.332) AppleWebKit/537.36 (KHTML, like Gecko) Chrome/92.0.4515.105 HuaweiBrowser/12.1.3.312 Mobile Safari/537.36","WebKit","Chrome","92.0.4515.105","AndroidOS","12","1065","<p><strong>请判断你在多大程度上同意下列陈述。</strong></p>","0",""
"","","","","","survey-likert","150","540494","0.0-23.0","138","1","2022-11-28 04:39:00","7b1eb8be57ff77859c7d9ac988e43411","120.208.225.228","Mozilla/5.0 (Linux; Android 12; NTH-AN00; HMSCore 6.8.0.332) AppleWebKit/537.36 (KHTML, like Gecko) Chrome/92.0.4515.105 HuaweiBrowser/12.1.3.312 Mobile Safari/537.36","WebKit","Chrome","92.0.4515.105","AndroidOS","12","56395","","{""Patri7"":4,""Patri9"":0,""Patri6"":0,""Nation1"":2,""Patri10"":0,""Nation8"":0,""Patri12"":0,""Patri8"":4,""Patri11"":0,""Nation2"":4,""Patri3"":4,""Nation6"":2,""Nation3"":2,""Nation7"":4,""Patri1"":4,""Patri5"":4,""Patri2"":4,""Patri4"":4,""Nation4"":2,""Nation5"":3}","[6,8,5,12,9,19,11,7,10,13,2,17,14,18,0,4,1,3,15,16]"
"","","","","","html-button-response","151","541673","0.0-24.0","138","1","2022-11-28 04:39:00","7b1eb8be57ff77859c7d9ac988e43411","120.208.225.228","Mozilla/5.0 (Linux; Android 12; NTH-AN00; HMSCore 6.8.0.332) AppleWebKit/537.36 (KHTML, like Gecko) Chrome/92.0.4515.105 HuaweiBrowser/12.1.3.312 Mobile Safari/537.36","WebKit","Chrome","92.0.4515.105","AndroidOS","12","1158","<p><strong>请判断你在多大程度上同意下列陈述。</strong></p>","0",""
"","","","","","survey-likert","152","574886","0.0-25.0","138","1","2022-11-28 04:39:00","7b1eb8be57ff77859c7d9ac988e43411","120.208.225.228","Mozilla/5.0 (Linux; Android 12; NTH-AN00; HMSCore 6.8.0.332) AppleWebKit/537.36 (KHTML, like Gecko) Chrome/92.0.4515.105 HuaweiBrowser/12.1.3.312 Mobile Safari/537.36","WebKit","Chrome","92.0.4515.105","AndroidOS","12","33185","","{""hc4"":7,""hi4"":8,""hc2"":7,""hc3"":8,""vi1"":8,""vc2"":8,""hi1"":8,""vi2"":7,""Robot"":6,""hc1"":8,""vc4"":7,""hi2"":8,""vc3"":7,""vi3"":8,""vc1"":8,""hi3"":1,""vi4"":8}","[12,3,10,11,4,14,0,5,7,9,16,1,15,6,13,2,8]"
"","","","","","survey-text","153","622904","0.0-26.0","138","1","2022-11-28 04:39:00","7b1eb8be57ff77859c7d9ac988e43411","120.208.225.228","Mozilla/5.0 (Linux; Android 12; NTH-AN00; HMSCore 6.8.0.332) AppleWebKit/537.36 (KHTML, like Gecko) Chrome/92.0.4515.105 HuaweiBrowser/12.1.3.312 Mobile Safari/537.36","WebKit","Chrome","92.0.4515.105","AndroidOS","12","47989","","{""Comments"":""挺好的，那几个图片挺有创意，后面的问题也可以，加油""}",""
"","","","","","html-button-response","154","624290","0.0-27.0","138","1","2022-11-28 04:39:00","7b1eb8be57ff77859c7d9ac988e43411","120.208.225.228","Mozilla/5.0 (Linux; Android 12; NTH-AN00; HMSCore 6.8.0.332) AppleWebKit/537.36 (KHTML, like Gecko) Chrome/92.0.4515.105 HuaweiBrowser/12.1.3.312 Mobile Safari/537.36","WebKit","Chrome","92.0.4515.105","AndroidOS","12","1378","<strong><p>恭喜你完成了实验！</p><p>感谢您的参与。</p></strong>","0",""
