"success","timeout","failed_images","failed_audio","failed_video","trial_type","trial_index","time_elapsed","internal_node_id","run_id","condition","recorded_at","source_code_version","ip","user_agent","device","browser","browser_version","platform","platform_version","rt","stimulus","response","question_order"
"true","false","[]","[]","[]","preload","0","2192","0.0-0.0","159","1","2022-11-28 06:14:08","7b1eb8be57ff77859c7d9ac988e43411","183.252.232.151","Mozilla/5.0 (Linux; Android 12; RMX2117 Build/SP1A.210812.016; wv) AppleWebKit/537.36 (KHTML, like Gecko) Version/4.0 Chrome/86.0.4240.99 XWEB/4343 MMWEBSDK/20220805 Mobile Safari/537.36 MMWEBID/6408 MicroMessenger/8.0.27.2220(0x28001B59) WeChat/arm64 Weixin NetType/WIFI Language/zh_CN ABI/arm64","WebKit","Chrome","86.0.4240.99","AndroidOS","12","","","",""
"true","","","","","fullscreen","1","6434","0.0-1.0","159","1","2022-11-28 06:14:08","7b1eb8be57ff77859c7d9ac988e43411","183.252.232.151","Mozilla/5.0 (Linux; Android 12; RMX2117 Build/SP1A.210812.016; wv) AppleWebKit/537.36 (KHTML, like Gecko) Version/4.0 Chrome/86.0.4240.99 XWEB/4343 MMWEBSDK/20220805 Mobile Safari/537.36 MMWEBID/6408 MicroMessenger/8.0.27.2220(0x28001B59) WeChat/arm64 Weixin NetType/WIFI Language/zh_CN ABI/arm64","WebKit","Chrome","86.0.4240.99","AndroidOS","12","","","",""
"","","","","","html-button-response","2","8832","0.0-2.0","159","1","2022-11-28 06:14:08","7b1eb8be57ff77859c7d9ac988e43411","183.252.232.151","Mozilla/5.0 (Linux; Android 12; RMX2117 Build/SP1A.210812.016; wv) AppleWebKit/537.36 (KHTML, like Gecko) Version/4.0 Chrome/86.0.4240.99 XWEB/4343 MMWEBSDK/20220805 Mobile Safari/537.36 MMWEBID/6408 MicroMessenger/8.0.27.2220(0x28001B59) WeChat/arm64 Weixin NetType/WIFI Language/zh_CN ABI/arm64","WebKit","Chrome","86.0.4240.99","AndroidOS","12","2389","<p style=""font-size:20px;font-weight:bold;"">实验知情同意书</p><p style=""text-align:left;""><strong>实验名称：</strong>社会冲突研究</p><p style=""text-align:left;""><strong>主要研究者：</strong>韩晓春副教授（北京师范大学心理学部）</p><p style=""text-align:left;""><strong>联系方式：</strong>发送邮件至xiaochun.han@bnu.edu.cn</p><p style=""text-align:left;""><strong>研究目的：</strong>研究旨在了解人类面对群体冲突时的决策方式，以及相关的心理学特质。实验调查大约需要20分钟。</p><p style=""text-align:left;""><strong>实验流程：</strong>实验包含两部分。第一部分呈现一系列群体冲突场景，请你决定如何对这些冲突进行反应，大约需要10分钟完成。第二部分包含一系列人口统计学信息收集和心理学问卷，大约需要10分钟完成。</p><p style=""text-align:left;""><strong>参加及退出规则：</strong>参加本实验完全取决于您的个人意愿。在参与过程中，您可以随时退出，并且不用承担任何后果。</p><p style=""text-align:left;""><strong>隐私：</strong>本实验完全匿名进行，不会收集您的姓名或其他能够识别您身份的信息。实验中收集的作答仅用作科学研究使用，可能会在学术期刊/书籍上发表，或者用于教学，您的数据未来可能会和其他研究者或实验室分享，但您的个人身份不会被识别。</p><p style=""text-align:left;""><strong>实验报酬：</strong>实验完成后，您将获得15元人民币报酬，以感谢您的时间和努力。调查问卷中包含几道题目用以测验您作答时的认真度。只有完成全部实验，并且正确回答认真度测验的被试才能获得实验报酬。实验报酬将通过支付宝转账发放。</p><p style=""text-align:left;font-size:20px;""><strong>如果您同意以上实验知情同意书的内容，请点击'同意并且开始实验'按钮；否则请关闭浏览器界面，退出实验。</strong></p>","0",""
"","","","","","html-button-response","3","10470","0.0-3.0","159","1","2022-11-28 06:14:08","7b1eb8be57ff77859c7d9ac988e43411","183.252.232.151","Mozilla/5.0 (Linux; Android 12; RMX2117 Build/SP1A.210812.016; wv) AppleWebKit/537.36 (KHTML, like Gecko) Version/4.0 Chrome/86.0.4240.99 XWEB/4343 MMWEBSDK/20220805 Mobile Safari/537.36 MMWEBID/6408 MicroMessenger/8.0.27.2220(0x28001B59) WeChat/arm64 Weixin NetType/WIFI Language/zh_CN ABI/arm64","WebKit","Chrome","86.0.4240.99","AndroidOS","12","1630","<p ><strong>实验任务一：</strong></p><p>请想象你的国家与另一个国家发生了军事冲突。</p><p>你是国家军队的指挥官，你将如何在冲突中进行决策。</p><p>具体来说，作为军队指挥官，请你决定是否发射导弹进行打击。</p><p>接下来，你会面对一系列场景，请仔细阅读每个场景，然后进行决策。</p><p>这部分实验任务大约需要10分钟。</p><p><strong>实验过程中，请集中注意力。</strong></p>","0",""
"","","","","","html-keyboard-response","4","11478","0.0-4.0-0.0","159","1","2022-11-28 06:14:08","7b1eb8be57ff77859c7d9ac988e43411","183.252.232.151","Mozilla/5.0 (Linux; Android 12; RMX2117 Build/SP1A.210812.016; wv) AppleWebKit/537.36 (KHTML, like Gecko) Version/4.0 Chrome/86.0.4240.99 XWEB/4343 MMWEBSDK/20220805 Mobile Safari/537.36 MMWEBID/6408 MicroMessenger/8.0.27.2220(0x28001B59) WeChat/arm64 Weixin NetType/WIFI Language/zh_CN ABI/arm64","WebKit","Chrome","86.0.4240.99","AndroidOS","12","null","<div style=""font-size:60px;"">+</div>","null",""
"","","","","","html-button-response","5","15782","0.0-4.0-1.0","159","1","2022-11-28 06:14:08","7b1eb8be57ff77859c7d9ac988e43411","183.252.232.151","Mozilla/5.0 (Linux; Android 12; RMX2117 Build/SP1A.210812.016; wv) AppleWebKit/537.36 (KHTML, like Gecko) Version/4.0 Chrome/86.0.4240.99 XWEB/4343 MMWEBSDK/20220805 Mobile Safari/537.36 MMWEBID/6408 MicroMessenger/8.0.27.2220(0x28001B59) WeChat/arm64 Weixin NetType/WIFI Language/zh_CN ABI/arm64","WebKit","Chrome","86.0.4240.99","AndroidOS","12","4286","<p>作为军队的指挥官，你可以选择发射导弹杀死 <strong>8名</strong> 敌国士兵，但会误杀附近的 <strong>1名</strong> 敌国平民。</p> <p>平民照片如下图所示。</p> <p></p> <img src='stimuli/faces/PCM4.jpg', style='max-width: 30%;'> </img> <p><strong>你是否选择发射武器？</strong></p>","1",""
"","","","","","html-keyboard-response","6","16791","0.0-4.0-0.1","159","1","2022-11-28 06:14:08","7b1eb8be57ff77859c7d9ac988e43411","183.252.232.151","Mozilla/5.0 (Linux; Android 12; RMX2117 Build/SP1A.210812.016; wv) AppleWebKit/537.36 (KHTML, like Gecko) Version/4.0 Chrome/86.0.4240.99 XWEB/4343 MMWEBSDK/20220805 Mobile Safari/537.36 MMWEBID/6408 MicroMessenger/8.0.27.2220(0x28001B59) WeChat/arm64 Weixin NetType/WIFI Language/zh_CN ABI/arm64","WebKit","Chrome","86.0.4240.99","AndroidOS","12","null","<div style=""font-size:60px;"">+</div>","null",""
"","","","","","html-button-response","7","17919","0.0-4.0-1.1","159","1","2022-11-28 06:14:08","7b1eb8be57ff77859c7d9ac988e43411","183.252.232.151","Mozilla/5.0 (Linux; Android 12; RMX2117 Build/SP1A.210812.016; wv) AppleWebKit/537.36 (KHTML, like Gecko) Version/4.0 Chrome/86.0.4240.99 XWEB/4343 MMWEBSDK/20220805 Mobile Safari/537.36 MMWEBID/6408 MicroMessenger/8.0.27.2220(0x28001B59) WeChat/arm64 Weixin NetType/WIFI Language/zh_CN ABI/arm64","WebKit","Chrome","86.0.4240.99","AndroidOS","12","1111","<p>作为军队的指挥官，你可以选择发射导弹杀死 <strong>6名</strong> 敌国士兵，但会误杀附近的 <strong>1名</strong> 敌国平民。</p> <p>平民照片如下图所示。</p> <p></p> <img src='stimuli/faces/PCF1.jpg', style='max-width: 30%;'> </img> <p><strong>你是否选择发射武器？</strong></p>","1",""
"","","","","","html-keyboard-response","8","18925","0.0-4.0-0.2","159","1","2022-11-28 06:14:08","7b1eb8be57ff77859c7d9ac988e43411","183.252.232.151","Mozilla/5.0 (Linux; Android 12; RMX2117 Build/SP1A.210812.016; wv) AppleWebKit/537.36 (KHTML, like Gecko) Version/4.0 Chrome/86.0.4240.99 XWEB/4343 MMWEBSDK/20220805 Mobile Safari/537.36 MMWEBID/6408 MicroMessenger/8.0.27.2220(0x28001B59) WeChat/arm64 Weixin NetType/WIFI Language/zh_CN ABI/arm64","WebKit","Chrome","86.0.4240.99","AndroidOS","12","null","<div style=""font-size:60px;"">+</div>","null",""
"","","","","","html-button-response","9","23285","0.0-4.0-1.2","159","1","2022-11-28 06:14:08","7b1eb8be57ff77859c7d9ac988e43411","183.252.232.151","Mozilla/5.0 (Linux; Android 12; RMX2117 Build/SP1A.210812.016; wv) AppleWebKit/537.36 (KHTML, like Gecko) Version/4.0 Chrome/86.0.4240.99 XWEB/4343 MMWEBSDK/20220805 Mobile Safari/537.36 MMWEBID/6408 MicroMessenger/8.0.27.2220(0x28001B59) WeChat/arm64 Weixin NetType/WIFI Language/zh_CN ABI/arm64","WebKit","Chrome","86.0.4240.99","AndroidOS","12","4347","<p>作为军队的指挥官，你可以选择发射导弹杀死 <strong>8名</strong> 敌国士兵，但会炸毁附近的 <strong>1棵</strong> 敌国树木。</p> <p>树木的照片如下图所示。</p> <p></p> <img src='stimuli/trees/11.png', style='max-width: 30%;'> </img> <p><strong>你是否选择发射武器？</strong></p>","0",""
"","","","","","html-keyboard-response","10","24292","0.0-4.0-0.3","159","1","2022-11-28 06:14:08","7b1eb8be57ff77859c7d9ac988e43411","183.252.232.151","Mozilla/5.0 (Linux; Android 12; RMX2117 Build/SP1A.210812.016; wv) AppleWebKit/537.36 (KHTML, like Gecko) Version/4.0 Chrome/86.0.4240.99 XWEB/4343 MMWEBSDK/20220805 Mobile Safari/537.36 MMWEBID/6408 MicroMessenger/8.0.27.2220(0x28001B59) WeChat/arm64 Weixin NetType/WIFI Language/zh_CN ABI/arm64","WebKit","Chrome","86.0.4240.99","AndroidOS","12","null","<div style=""font-size:60px;"">+</div>","null",""
"","","","","","html-button-response","11","25612","0.0-4.0-1.3","159","1","2022-11-28 06:14:08","7b1eb8be57ff77859c7d9ac988e43411","183.252.232.151","Mozilla/5.0 (Linux; Android 12; RMX2117 Build/SP1A.210812.016; wv) AppleWebKit/537.36 (KHTML, like Gecko) Version/4.0 Chrome/86.0.4240.99 XWEB/4343 MMWEBSDK/20220805 Mobile Safari/537.36 MMWEBID/6408 MicroMessenger/8.0.27.2220(0x28001B59) WeChat/arm64 Weixin NetType/WIFI Language/zh_CN ABI/arm64","WebKit","Chrome","86.0.4240.99","AndroidOS","12","1304","<p>作为军队的指挥官，你可以选择发射导弹杀死 <strong>8名</strong> 敌国士兵，但会炸毁附近的 <strong>1棵</strong> 敌国树木。</p> <p>树木的照片如下图所示。</p> <p></p> <img src='stimuli/trees/7.png', style='max-width: 30%;'> </img> <p><strong>你是否选择发射武器？</strong></p>","0",""
"","","","","","html-keyboard-response","12","26620","0.0-4.0-0.4","159","1","2022-11-28 06:14:08","7b1eb8be57ff77859c7d9ac988e43411","183.252.232.151","Mozilla/5.0 (Linux; Android 12; RMX2117 Build/SP1A.210812.016; wv) AppleWebKit/537.36 (KHTML, like Gecko) Version/4.0 Chrome/86.0.4240.99 XWEB/4343 MMWEBSDK/20220805 Mobile Safari/537.36 MMWEBID/6408 MicroMessenger/8.0.27.2220(0x28001B59) WeChat/arm64 Weixin NetType/WIFI Language/zh_CN ABI/arm64","WebKit","Chrome","86.0.4240.99","AndroidOS","12","null","<div style=""font-size:60px;"">+</div>","null",""
"","","","","","html-button-response","13","28726","0.0-4.0-1.4","159","1","2022-11-28 06:14:08","7b1eb8be57ff77859c7d9ac988e43411","183.252.232.151","Mozilla/5.0 (Linux; Android 12; RMX2117 Build/SP1A.210812.016; wv) AppleWebKit/537.36 (KHTML, like Gecko) Version/4.0 Chrome/86.0.4240.99 XWEB/4343 MMWEBSDK/20220805 Mobile Safari/537.36 MMWEBID/6408 MicroMessenger/8.0.27.2220(0x28001B59) WeChat/arm64 Weixin NetType/WIFI Language/zh_CN ABI/arm64","WebKit","Chrome","86.0.4240.99","AndroidOS","12","2091","<p>作为军队的指挥官，你可以选择发射导弹杀死 <strong>10名</strong> 敌国士兵，但会炸毁附近的 <strong>1棵</strong> 敌国树木。</p> <p>树木的照片如下图所示。</p> <p></p> <img src='stimuli/trees/1.png', style='max-width: 30%;'> </img> <p><strong>你是否选择发射武器？</strong></p>","0",""
"","","","","","html-keyboard-response","14","29734","0.0-4.0-0.5","159","1","2022-11-28 06:14:08","7b1eb8be57ff77859c7d9ac988e43411","183.252.232.151","Mozilla/5.0 (Linux; Android 12; RMX2117 Build/SP1A.210812.016; wv) AppleWebKit/537.36 (KHTML, like Gecko) Version/4.0 Chrome/86.0.4240.99 XWEB/4343 MMWEBSDK/20220805 Mobile Safari/537.36 MMWEBID/6408 MicroMessenger/8.0.27.2220(0x28001B59) WeChat/arm64 Weixin NetType/WIFI Language/zh_CN ABI/arm64","WebKit","Chrome","86.0.4240.99","AndroidOS","12","null","<div style=""font-size:60px;"">+</div>","null",""
"","","","","","html-button-response","15","42217","0.0-4.0-1.5","159","1","2022-11-28 06:14:08","7b1eb8be57ff77859c7d9ac988e43411","183.252.232.151","Mozilla/5.0 (Linux; Android 12; RMX2117 Build/SP1A.210812.016; wv) AppleWebKit/537.36 (KHTML, like Gecko) Version/4.0 Chrome/86.0.4240.99 XWEB/4343 MMWEBSDK/20220805 Mobile Safari/537.36 MMWEBID/6408 MicroMessenger/8.0.27.2220(0x28001B59) WeChat/arm64 Weixin NetType/WIFI Language/zh_CN ABI/arm64","WebKit","Chrome","86.0.4240.99","AndroidOS","12","12466","<p>作为军队的指挥官，你可以选择发射导弹杀死 <strong>5名</strong> 敌国士兵，但会炸毁附近的 <strong>1棵</strong> 敌国树木。</p> <p>树木的照片如下图所示。</p> <p></p> <img src='stimuli/trees/12.png', style='max-width: 30%;'> </img> <p><strong>你是否选择发射武器？</strong></p>","0",""
"","","","","","html-keyboard-response","16","43223","0.0-4.0-0.6","159","1","2022-11-28 06:14:08","7b1eb8be57ff77859c7d9ac988e43411","183.252.232.151","Mozilla/5.0 (Linux; Android 12; RMX2117 Build/SP1A.210812.016; wv) AppleWebKit/537.36 (KHTML, like Gecko) Version/4.0 Chrome/86.0.4240.99 XWEB/4343 MMWEBSDK/20220805 Mobile Safari/537.36 MMWEBID/6408 MicroMessenger/8.0.27.2220(0x28001B59) WeChat/arm64 Weixin NetType/WIFI Language/zh_CN ABI/arm64","WebKit","Chrome","86.0.4240.99","AndroidOS","12","null","<div style=""font-size:60px;"">+</div>","null",""
"","","","","","html-button-response","17","44063","0.0-4.0-1.6","159","1","2022-11-28 06:14:08","7b1eb8be57ff77859c7d9ac988e43411","183.252.232.151","Mozilla/5.0 (Linux; Android 12; RMX2117 Build/SP1A.210812.016; wv) AppleWebKit/537.36 (KHTML, like Gecko) Version/4.0 Chrome/86.0.4240.99 XWEB/4343 MMWEBSDK/20220805 Mobile Safari/537.36 MMWEBID/6408 MicroMessenger/8.0.27.2220(0x28001B59) WeChat/arm64 Weixin NetType/WIFI Language/zh_CN ABI/arm64","WebKit","Chrome","86.0.4240.99","AndroidOS","12","809","<p>作为军队的指挥官，你可以选择发射导弹杀死 <strong>7名</strong> 敌国士兵，但会炸毁附近的 <strong>1棵</strong> 敌国树木。</p> <p>树木的照片如下图所示。</p> <p></p> <img src='stimuli/trees/3.png', style='max-width: 30%;'> </img> <p><strong>你是否选择发射武器？</strong></p>","0",""
"","","","","","html-keyboard-response","18","45067","0.0-4.0-0.7","159","1","2022-11-28 06:14:08","7b1eb8be57ff77859c7d9ac988e43411","183.252.232.151","Mozilla/5.0 (Linux; Android 12; RMX2117 Build/SP1A.210812.016; wv) AppleWebKit/537.36 (KHTML, like Gecko) Version/4.0 Chrome/86.0.4240.99 XWEB/4343 MMWEBSDK/20220805 Mobile Safari/537.36 MMWEBID/6408 MicroMessenger/8.0.27.2220(0x28001B59) WeChat/arm64 Weixin NetType/WIFI Language/zh_CN ABI/arm64","WebKit","Chrome","86.0.4240.99","AndroidOS","12","null","<div style=""font-size:60px;"">+</div>","null",""
"","","","","","html-button-response","19","46142","0.0-4.0-1.7","159","1","2022-11-28 06:14:08","7b1eb8be57ff77859c7d9ac988e43411","183.252.232.151","Mozilla/5.0 (Linux; Android 12; RMX2117 Build/SP1A.210812.016; wv) AppleWebKit/537.36 (KHTML, like Gecko) Version/4.0 Chrome/86.0.4240.99 XWEB/4343 MMWEBSDK/20220805 Mobile Safari/537.36 MMWEBID/6408 MicroMessenger/8.0.27.2220(0x28001B59) WeChat/arm64 Weixin NetType/WIFI Language/zh_CN ABI/arm64","WebKit","Chrome","86.0.4240.99","AndroidOS","12","1061","<p>作为军队的指挥官，你可以选择发射导弹杀死 <strong>5名</strong> 敌国士兵，但会误杀附近的 <strong>1名</strong> 敌国平民。</p> <p>平民照片如下图所示。</p> <p></p> <img src='stimuli/faces/PCF6.jpg', style='max-width: 30%;'> </img> <p><strong>你是否选择发射武器？</strong></p>","1",""
"","","","","","html-keyboard-response","20","47148","0.0-4.0-0.8","159","1","2022-11-28 06:14:08","7b1eb8be57ff77859c7d9ac988e43411","183.252.232.151","Mozilla/5.0 (Linux; Android 12; RMX2117 Build/SP1A.210812.016; wv) AppleWebKit/537.36 (KHTML, like Gecko) Version/4.0 Chrome/86.0.4240.99 XWEB/4343 MMWEBSDK/20220805 Mobile Safari/537.36 MMWEBID/6408 MicroMessenger/8.0.27.2220(0x28001B59) WeChat/arm64 Weixin NetType/WIFI Language/zh_CN ABI/arm64","WebKit","Chrome","86.0.4240.99","AndroidOS","12","null","<div style=""font-size:60px;"">+</div>","null",""
"","","","","","html-button-response","21","49557","0.0-4.0-1.8","159","1","2022-11-28 06:14:08","7b1eb8be57ff77859c7d9ac988e43411","183.252.232.151","Mozilla/5.0 (Linux; Android 12; RMX2117 Build/SP1A.210812.016; wv) AppleWebKit/537.36 (KHTML, like Gecko) Version/4.0 Chrome/86.0.4240.99 XWEB/4343 MMWEBSDK/20220805 Mobile Safari/537.36 MMWEBID/6408 MicroMessenger/8.0.27.2220(0x28001B59) WeChat/arm64 Weixin NetType/WIFI Language/zh_CN ABI/arm64","WebKit","Chrome","86.0.4240.99","AndroidOS","12","2397","<p>作为军队的指挥官，你可以选择发射导弹杀死 <strong>6名</strong> 敌国士兵，但会误杀附近的 <strong>1名</strong> 敌国平民。</p> <p>平民照片如下图所示。</p> <p></p> <img src='stimuli/faces/PCF5.jpg', style='max-width: 30%;'> </img> <p><strong>你是否选择发射武器？</strong></p>","1",""
"","","","","","html-keyboard-response","22","50564","0.0-4.0-0.9","159","1","2022-11-28 06:14:08","7b1eb8be57ff77859c7d9ac988e43411","183.252.232.151","Mozilla/5.0 (Linux; Android 12; RMX2117 Build/SP1A.210812.016; wv) AppleWebKit/537.36 (KHTML, like Gecko) Version/4.0 Chrome/86.0.4240.99 XWEB/4343 MMWEBSDK/20220805 Mobile Safari/537.36 MMWEBID/6408 MicroMessenger/8.0.27.2220(0x28001B59) WeChat/arm64 Weixin NetType/WIFI Language/zh_CN ABI/arm64","WebKit","Chrome","86.0.4240.99","AndroidOS","12","null","<div style=""font-size:60px;"">+</div>","null",""
"","","","","","html-button-response","23","51477","0.0-4.0-1.9","159","1","2022-11-28 06:14:08","7b1eb8be57ff77859c7d9ac988e43411","183.252.232.151","Mozilla/5.0 (Linux; Android 12; RMX2117 Build/SP1A.210812.016; wv) AppleWebKit/537.36 (KHTML, like Gecko) Version/4.0 Chrome/86.0.4240.99 XWEB/4343 MMWEBSDK/20220805 Mobile Safari/537.36 MMWEBID/6408 MicroMessenger/8.0.27.2220(0x28001B59) WeChat/arm64 Weixin NetType/WIFI Language/zh_CN ABI/arm64","WebKit","Chrome","86.0.4240.99","AndroidOS","12","897","<p>作为军队的指挥官，你可以选择发射导弹杀死 <strong>9名</strong> 敌国士兵，但会炸毁附近的 <strong>1棵</strong> 敌国树木。</p> <p>树木的照片如下图所示。</p> <p></p> <img src='stimuli/trees/13.png', style='max-width: 30%;'> </img> <p><strong>你是否选择发射武器？</strong></p>","0",""
"","","","","","html-keyboard-response","24","52485","0.0-4.0-0.10","159","1","2022-11-28 06:14:08","7b1eb8be57ff77859c7d9ac988e43411","183.252.232.151","Mozilla/5.0 (Linux; Android 12; RMX2117 Build/SP1A.210812.016; wv) AppleWebKit/537.36 (KHTML, like Gecko) Version/4.0 Chrome/86.0.4240.99 XWEB/4343 MMWEBSDK/20220805 Mobile Safari/537.36 MMWEBID/6408 MicroMessenger/8.0.27.2220(0x28001B59) WeChat/arm64 Weixin NetType/WIFI Language/zh_CN ABI/arm64","WebKit","Chrome","86.0.4240.99","AndroidOS","12","null","<div style=""font-size:60px;"">+</div>","null",""
"","","","","","html-button-response","25","53638","0.0-4.0-1.10","159","1","2022-11-28 06:14:08","7b1eb8be57ff77859c7d9ac988e43411","183.252.232.151","Mozilla/5.0 (Linux; Android 12; RMX2117 Build/SP1A.210812.016; wv) AppleWebKit/537.36 (KHTML, like Gecko) Version/4.0 Chrome/86.0.4240.99 XWEB/4343 MMWEBSDK/20220805 Mobile Safari/537.36 MMWEBID/6408 MicroMessenger/8.0.27.2220(0x28001B59) WeChat/arm64 Weixin NetType/WIFI Language/zh_CN ABI/arm64","WebKit","Chrome","86.0.4240.99","AndroidOS","12","1135","<p>作为军队的指挥官，你可以选择发射导弹杀死 <strong>2名</strong> 敌国士兵，但会炸毁附近的 <strong>1棵</strong> 敌国树木。</p> <p>树木的照片如下图所示。</p> <p></p> <img src='stimuli/trees/15.png', style='max-width: 30%;'> </img> <p><strong>你是否选择发射武器？</strong></p>","0",""
"","","","","","html-keyboard-response","26","54646","0.0-4.0-0.11","159","1","2022-11-28 06:14:08","7b1eb8be57ff77859c7d9ac988e43411","183.252.232.151","Mozilla/5.0 (Linux; Android 12; RMX2117 Build/SP1A.210812.016; wv) AppleWebKit/537.36 (KHTML, like Gecko) Version/4.0 Chrome/86.0.4240.99 XWEB/4343 MMWEBSDK/20220805 Mobile Safari/537.36 MMWEBID/6408 MicroMessenger/8.0.27.2220(0x28001B59) WeChat/arm64 Weixin NetType/WIFI Language/zh_CN ABI/arm64","WebKit","Chrome","86.0.4240.99","AndroidOS","12","null","<div style=""font-size:60px;"">+</div>","null",""
"","","","","","html-button-response","27","55465","0.0-4.0-1.11","159","1","2022-11-28 06:14:08","7b1eb8be57ff77859c7d9ac988e43411","183.252.232.151","Mozilla/5.0 (Linux; Android 12; RMX2117 Build/SP1A.210812.016; wv) AppleWebKit/537.36 (KHTML, like Gecko) Version/4.0 Chrome/86.0.4240.99 XWEB/4343 MMWEBSDK/20220805 Mobile Safari/537.36 MMWEBID/6408 MicroMessenger/8.0.27.2220(0x28001B59) WeChat/arm64 Weixin NetType/WIFI Language/zh_CN ABI/arm64","WebKit","Chrome","86.0.4240.99","AndroidOS","12","801","<p>作为军队的指挥官，你可以选择发射导弹杀死 <strong>9名</strong> 敌国士兵，但会误杀附近的 <strong>1名</strong> 敌国平民。</p> <p>平民照片如下图所示。</p> <p></p> <img src='stimuli/faces/PCM8.jpg', style='max-width: 30%;'> </img> <p><strong>你是否选择发射武器？</strong></p>","1",""
"","","","","","html-keyboard-response","28","56475","0.0-4.0-0.12","159","1","2022-11-28 06:14:08","7b1eb8be57ff77859c7d9ac988e43411","183.252.232.151","Mozilla/5.0 (Linux; Android 12; RMX2117 Build/SP1A.210812.016; wv) AppleWebKit/537.36 (KHTML, like Gecko) Version/4.0 Chrome/86.0.4240.99 XWEB/4343 MMWEBSDK/20220805 Mobile Safari/537.36 MMWEBID/6408 MicroMessenger/8.0.27.2220(0x28001B59) WeChat/arm64 Weixin NetType/WIFI Language/zh_CN ABI/arm64","WebKit","Chrome","86.0.4240.99","AndroidOS","12","null","<div style=""font-size:60px;"">+</div>","null",""
"","","","","","html-button-response","29","57205","0.0-4.0-1.12","159","1","2022-11-28 06:14:08","7b1eb8be57ff77859c7d9ac988e43411","183.252.232.151","Mozilla/5.0 (Linux; Android 12; RMX2117 Build/SP1A.210812.016; wv) AppleWebKit/537.36 (KHTML, like Gecko) Version/4.0 Chrome/86.0.4240.99 XWEB/4343 MMWEBSDK/20220805 Mobile Safari/537.36 MMWEBID/6408 MicroMessenger/8.0.27.2220(0x28001B59) WeChat/arm64 Weixin NetType/WIFI Language/zh_CN ABI/arm64","WebKit","Chrome","86.0.4240.99","AndroidOS","12","712","<p>作为军队的指挥官，你可以选择发射导弹杀死 <strong>6名</strong> 敌国士兵，但会炸毁附近的 <strong>1棵</strong> 敌国树木。</p> <p>树木的照片如下图所示。</p> <p></p> <img src='stimuli/trees/4.png', style='max-width: 30%;'> </img> <p><strong>你是否选择发射武器？</strong></p>","0",""
"","","","","","html-keyboard-response","30","58214","0.0-4.0-0.13","159","1","2022-11-28 06:14:08","7b1eb8be57ff77859c7d9ac988e43411","183.252.232.151","Mozilla/5.0 (Linux; Android 12; RMX2117 Build/SP1A.210812.016; wv) AppleWebKit/537.36 (KHTML, like Gecko) Version/4.0 Chrome/86.0.4240.99 XWEB/4343 MMWEBSDK/20220805 Mobile Safari/537.36 MMWEBID/6408 MicroMessenger/8.0.27.2220(0x28001B59) WeChat/arm64 Weixin NetType/WIFI Language/zh_CN ABI/arm64","WebKit","Chrome","86.0.4240.99","AndroidOS","12","null","<div style=""font-size:60px;"">+</div>","null",""
"","","","","","html-button-response","31","59952","0.0-4.0-1.13","159","1","2022-11-28 06:14:08","7b1eb8be57ff77859c7d9ac988e43411","183.252.232.151","Mozilla/5.0 (Linux; Android 12; RMX2117 Build/SP1A.210812.016; wv) AppleWebKit/537.36 (KHTML, like Gecko) Version/4.0 Chrome/86.0.4240.99 XWEB/4343 MMWEBSDK/20220805 Mobile Safari/537.36 MMWEBID/6408 MicroMessenger/8.0.27.2220(0x28001B59) WeChat/arm64 Weixin NetType/WIFI Language/zh_CN ABI/arm64","WebKit","Chrome","86.0.4240.99","AndroidOS","12","1720","<p>作为军队的指挥官，你可以选择发射导弹杀死 <strong>5名</strong> 敌国士兵，但会误杀附近的 <strong>1名</strong> 敌国平民。</p> <p>平民照片如下图所示。</p> <p></p> <img src='stimuli/faces/PCF3.jpg', style='max-width: 30%;'> </img> <p><strong>你是否选择发射武器？</strong></p>","1",""
"","","","","","html-keyboard-response","32","60961","0.0-4.0-0.14","159","1","2022-11-28 06:14:08","7b1eb8be57ff77859c7d9ac988e43411","183.252.232.151","Mozilla/5.0 (Linux; Android 12; RMX2117 Build/SP1A.210812.016; wv) AppleWebKit/537.36 (KHTML, like Gecko) Version/4.0 Chrome/86.0.4240.99 XWEB/4343 MMWEBSDK/20220805 Mobile Safari/537.36 MMWEBID/6408 MicroMessenger/8.0.27.2220(0x28001B59) WeChat/arm64 Weixin NetType/WIFI Language/zh_CN ABI/arm64","WebKit","Chrome","86.0.4240.99","AndroidOS","12","null","<div style=""font-size:60px;"">+</div>","null",""
"","","","","","html-button-response","33","61850","0.0-4.0-1.14","159","1","2022-11-28 06:14:08","7b1eb8be57ff77859c7d9ac988e43411","183.252.232.151","Mozilla/5.0 (Linux; Android 12; RMX2117 Build/SP1A.210812.016; wv) AppleWebKit/537.36 (KHTML, like Gecko) Version/4.0 Chrome/86.0.4240.99 XWEB/4343 MMWEBSDK/20220805 Mobile Safari/537.36 MMWEBID/6408 MicroMessenger/8.0.27.2220(0x28001B59) WeChat/arm64 Weixin NetType/WIFI Language/zh_CN ABI/arm64","WebKit","Chrome","86.0.4240.99","AndroidOS","12","869","<p>作为军队的指挥官，你可以选择发射导弹杀死 <strong>9名</strong> 敌国士兵，但会炸毁附近的 <strong>1棵</strong> 敌国树木。</p> <p>树木的照片如下图所示。</p> <p></p> <img src='stimuli/trees/6.png', style='max-width: 30%;'> </img> <p><strong>你是否选择发射武器？</strong></p>","0",""
"","","","","","html-keyboard-response","34","62859","0.0-4.0-0.15","159","1","2022-11-28 06:14:08","7b1eb8be57ff77859c7d9ac988e43411","183.252.232.151","Mozilla/5.0 (Linux; Android 12; RMX2117 Build/SP1A.210812.016; wv) AppleWebKit/537.36 (KHTML, like Gecko) Version/4.0 Chrome/86.0.4240.99 XWEB/4343 MMWEBSDK/20220805 Mobile Safari/537.36 MMWEBID/6408 MicroMessenger/8.0.27.2220(0x28001B59) WeChat/arm64 Weixin NetType/WIFI Language/zh_CN ABI/arm64","WebKit","Chrome","86.0.4240.99","AndroidOS","12","null","<div style=""font-size:60px;"">+</div>","null",""
"","","","","","html-button-response","35","63640","0.0-4.0-1.15","159","1","2022-11-28 06:14:08","7b1eb8be57ff77859c7d9ac988e43411","183.252.232.151","Mozilla/5.0 (Linux; Android 12; RMX2117 Build/SP1A.210812.016; wv) AppleWebKit/537.36 (KHTML, like Gecko) Version/4.0 Chrome/86.0.4240.99 XWEB/4343 MMWEBSDK/20220805 Mobile Safari/537.36 MMWEBID/6408 MicroMessenger/8.0.27.2220(0x28001B59) WeChat/arm64 Weixin NetType/WIFI Language/zh_CN ABI/arm64","WebKit","Chrome","86.0.4240.99","AndroidOS","12","766","<p>作为军队的指挥官，你可以选择发射导弹杀死 <strong>1名</strong> 敌国士兵，但会炸毁附近的 <strong>1棵</strong> 敌国树木。</p> <p>树木的照片如下图所示。</p> <p></p> <img src='stimuli/trees/10.png', style='max-width: 30%;'> </img> <p><strong>你是否选择发射武器？</strong></p>","0",""
"","","","","","html-keyboard-response","36","64648","0.0-4.0-0.16","159","1","2022-11-28 06:14:08","7b1eb8be57ff77859c7d9ac988e43411","183.252.232.151","Mozilla/5.0 (Linux; Android 12; RMX2117 Build/SP1A.210812.016; wv) AppleWebKit/537.36 (KHTML, like Gecko) Version/4.0 Chrome/86.0.4240.99 XWEB/4343 MMWEBSDK/20220805 Mobile Safari/537.36 MMWEBID/6408 MicroMessenger/8.0.27.2220(0x28001B59) WeChat/arm64 Weixin NetType/WIFI Language/zh_CN ABI/arm64","WebKit","Chrome","86.0.4240.99","AndroidOS","12","null","<div style=""font-size:60px;"">+</div>","null",""
"","","","","","html-button-response","37","65450","0.0-4.0-1.16","159","1","2022-11-28 06:14:08","7b1eb8be57ff77859c7d9ac988e43411","183.252.232.151","Mozilla/5.0 (Linux; Android 12; RMX2117 Build/SP1A.210812.016; wv) AppleWebKit/537.36 (KHTML, like Gecko) Version/4.0 Chrome/86.0.4240.99 XWEB/4343 MMWEBSDK/20220805 Mobile Safari/537.36 MMWEBID/6408 MicroMessenger/8.0.27.2220(0x28001B59) WeChat/arm64 Weixin NetType/WIFI Language/zh_CN ABI/arm64","WebKit","Chrome","86.0.4240.99","AndroidOS","12","781","<p>作为军队的指挥官，你可以选择发射导弹杀死 <strong>2名</strong> 敌国士兵，但会误杀附近的 <strong>1名</strong> 敌国平民。</p> <p>平民照片如下图所示。</p> <p></p> <img src='stimuli/faces/PCF2.jpg', style='max-width: 30%;'> </img> <p><strong>你是否选择发射武器？</strong></p>","1",""
"","","","","","html-keyboard-response","38","66459","0.0-4.0-0.17","159","1","2022-11-28 06:14:08","7b1eb8be57ff77859c7d9ac988e43411","183.252.232.151","Mozilla/5.0 (Linux; Android 12; RMX2117 Build/SP1A.210812.016; wv) AppleWebKit/537.36 (KHTML, like Gecko) Version/4.0 Chrome/86.0.4240.99 XWEB/4343 MMWEBSDK/20220805 Mobile Safari/537.36 MMWEBID/6408 MicroMessenger/8.0.27.2220(0x28001B59) WeChat/arm64 Weixin NetType/WIFI Language/zh_CN ABI/arm64","WebKit","Chrome","86.0.4240.99","AndroidOS","12","null","<div style=""font-size:60px;"">+</div>","null",""
"","","","","","html-button-response","39","67258","0.0-4.0-1.17","159","1","2022-11-28 06:14:08","7b1eb8be57ff77859c7d9ac988e43411","183.252.232.151","Mozilla/5.0 (Linux; Android 12; RMX2117 Build/SP1A.210812.016; wv) AppleWebKit/537.36 (KHTML, like Gecko) Version/4.0 Chrome/86.0.4240.99 XWEB/4343 MMWEBSDK/20220805 Mobile Safari/537.36 MMWEBID/6408 MicroMessenger/8.0.27.2220(0x28001B59) WeChat/arm64 Weixin NetType/WIFI Language/zh_CN ABI/arm64","WebKit","Chrome","86.0.4240.99","AndroidOS","12","778","<p>作为军队的指挥官，你可以选择发射导弹杀死 <strong>1名</strong> 敌国士兵，但会炸毁附近的 <strong>1棵</strong> 敌国树木。</p> <p>树木的照片如下图所示。</p> <p></p> <img src='stimuli/trees/1.png', style='max-width: 30%;'> </img> <p><strong>你是否选择发射武器？</strong></p>","0",""
"","","","","","html-keyboard-response","40","68267","0.0-4.0-0.18","159","1","2022-11-28 06:14:08","7b1eb8be57ff77859c7d9ac988e43411","183.252.232.151","Mozilla/5.0 (Linux; Android 12; RMX2117 Build/SP1A.210812.016; wv) AppleWebKit/537.36 (KHTML, like Gecko) Version/4.0 Chrome/86.0.4240.99 XWEB/4343 MMWEBSDK/20220805 Mobile Safari/537.36 MMWEBID/6408 MicroMessenger/8.0.27.2220(0x28001B59) WeChat/arm64 Weixin NetType/WIFI Language/zh_CN ABI/arm64","WebKit","Chrome","86.0.4240.99","AndroidOS","12","null","<div style=""font-size:60px;"">+</div>","null",""
"","","","","","html-button-response","41","69509","0.0-4.0-1.18","159","1","2022-11-28 06:14:08","7b1eb8be57ff77859c7d9ac988e43411","183.252.232.151","Mozilla/5.0 (Linux; Android 12; RMX2117 Build/SP1A.210812.016; wv) AppleWebKit/537.36 (KHTML, like Gecko) Version/4.0 Chrome/86.0.4240.99 XWEB/4343 MMWEBSDK/20220805 Mobile Safari/537.36 MMWEBID/6408 MicroMessenger/8.0.27.2220(0x28001B59) WeChat/arm64 Weixin NetType/WIFI Language/zh_CN ABI/arm64","WebKit","Chrome","86.0.4240.99","AndroidOS","12","1218","<p>作为军队的指挥官，你可以选择发射导弹杀死 <strong>2名</strong> 敌国士兵，但会炸毁附近的 <strong>1棵</strong> 敌国树木。</p> <p>树木的照片如下图所示。</p> <p></p> <img src='stimuli/trees/14.png', style='max-width: 30%;'> </img> <p><strong>你是否选择发射武器？</strong></p>","0",""
"","","","","","html-keyboard-response","42","70518","0.0-4.0-0.19","159","1","2022-11-28 06:14:08","7b1eb8be57ff77859c7d9ac988e43411","183.252.232.151","Mozilla/5.0 (Linux; Android 12; RMX2117 Build/SP1A.210812.016; wv) AppleWebKit/537.36 (KHTML, like Gecko) Version/4.0 Chrome/86.0.4240.99 XWEB/4343 MMWEBSDK/20220805 Mobile Safari/537.36 MMWEBID/6408 MicroMessenger/8.0.27.2220(0x28001B59) WeChat/arm64 Weixin NetType/WIFI Language/zh_CN ABI/arm64","WebKit","Chrome","86.0.4240.99","AndroidOS","12","null","<div style=""font-size:60px;"">+</div>","null",""
"","","","","","html-button-response","43","71222","0.0-4.0-1.19","159","1","2022-11-28 06:14:08","7b1eb8be57ff77859c7d9ac988e43411","183.252.232.151","Mozilla/5.0 (Linux; Android 12; RMX2117 Build/SP1A.210812.016; wv) AppleWebKit/537.36 (KHTML, like Gecko) Version/4.0 Chrome/86.0.4240.99 XWEB/4343 MMWEBSDK/20220805 Mobile Safari/537.36 MMWEBID/6408 MicroMessenger/8.0.27.2220(0x28001B59) WeChat/arm64 Weixin NetType/WIFI Language/zh_CN ABI/arm64","WebKit","Chrome","86.0.4240.99","AndroidOS","12","684","<p>作为军队的指挥官，你可以选择发射导弹杀死 <strong>8名</strong> 敌国士兵，但会炸毁附近的 <strong>1棵</strong> 敌国树木。</p> <p>树木的照片如下图所示。</p> <p></p> <img src='stimuli/trees/10.png', style='max-width: 30%;'> </img> <p><strong>你是否选择发射武器？</strong></p>","0",""
"","","","","","html-keyboard-response","44","72231","0.0-4.0-0.20","159","1","2022-11-28 06:14:08","7b1eb8be57ff77859c7d9ac988e43411","183.252.232.151","Mozilla/5.0 (Linux; Android 12; RMX2117 Build/SP1A.210812.016; wv) AppleWebKit/537.36 (KHTML, like Gecko) Version/4.0 Chrome/86.0.4240.99 XWEB/4343 MMWEBSDK/20220805 Mobile Safari/537.36 MMWEBID/6408 MicroMessenger/8.0.27.2220(0x28001B59) WeChat/arm64 Weixin NetType/WIFI Language/zh_CN ABI/arm64","WebKit","Chrome","86.0.4240.99","AndroidOS","12","null","<div style=""font-size:60px;"">+</div>","null",""
"","","","","","html-button-response","45","72960","0.0-4.0-1.20","159","1","2022-11-28 06:14:08","7b1eb8be57ff77859c7d9ac988e43411","183.252.232.151","Mozilla/5.0 (Linux; Android 12; RMX2117 Build/SP1A.210812.016; wv) AppleWebKit/537.36 (KHTML, like Gecko) Version/4.0 Chrome/86.0.4240.99 XWEB/4343 MMWEBSDK/20220805 Mobile Safari/537.36 MMWEBID/6408 MicroMessenger/8.0.27.2220(0x28001B59) WeChat/arm64 Weixin NetType/WIFI Language/zh_CN ABI/arm64","WebKit","Chrome","86.0.4240.99","AndroidOS","12","710","<p>作为军队的指挥官，你可以选择发射导弹杀死 <strong>10名</strong> 敌国士兵，但会误杀附近的 <strong>1名</strong> 敌国平民。</p> <p>平民照片如下图所示。</p> <p></p> <img src='stimuli/faces/PCF4.jpg', style='max-width: 30%;'> </img> <p><strong>你是否选择发射武器？</strong></p>","1",""
"","","","","","html-keyboard-response","46","73969","0.0-4.0-0.21","159","1","2022-11-28 06:14:08","7b1eb8be57ff77859c7d9ac988e43411","183.252.232.151","Mozilla/5.0 (Linux; Android 12; RMX2117 Build/SP1A.210812.016; wv) AppleWebKit/537.36 (KHTML, like Gecko) Version/4.0 Chrome/86.0.4240.99 XWEB/4343 MMWEBSDK/20220805 Mobile Safari/537.36 MMWEBID/6408 MicroMessenger/8.0.27.2220(0x28001B59) WeChat/arm64 Weixin NetType/WIFI Language/zh_CN ABI/arm64","WebKit","Chrome","86.0.4240.99","AndroidOS","12","null","<div style=""font-size:60px;"">+</div>","null",""
"","","","","","html-button-response","47","74740","0.0-4.0-1.21","159","1","2022-11-28 06:14:08","7b1eb8be57ff77859c7d9ac988e43411","183.252.232.151","Mozilla/5.0 (Linux; Android 12; RMX2117 Build/SP1A.210812.016; wv) AppleWebKit/537.36 (KHTML, like Gecko) Version/4.0 Chrome/86.0.4240.99 XWEB/4343 MMWEBSDK/20220805 Mobile Safari/537.36 MMWEBID/6408 MicroMessenger/8.0.27.2220(0x28001B59) WeChat/arm64 Weixin NetType/WIFI Language/zh_CN ABI/arm64","WebKit","Chrome","86.0.4240.99","AndroidOS","12","746","<p>作为军队的指挥官，你可以选择发射导弹杀死 <strong>6名</strong> 敌国士兵，但会误杀附近的 <strong>1名</strong> 敌国平民。</p> <p>平民照片如下图所示。</p> <p></p> <img src='stimuli/faces/PCF6.jpg', style='max-width: 30%;'> </img> <p><strong>你是否选择发射武器？</strong></p>","1",""
"","","","","","html-keyboard-response","48","75750","0.0-4.0-0.22","159","1","2022-11-28 06:14:08","7b1eb8be57ff77859c7d9ac988e43411","183.252.232.151","Mozilla/5.0 (Linux; Android 12; RMX2117 Build/SP1A.210812.016; wv) AppleWebKit/537.36 (KHTML, like Gecko) Version/4.0 Chrome/86.0.4240.99 XWEB/4343 MMWEBSDK/20220805 Mobile Safari/537.36 MMWEBID/6408 MicroMessenger/8.0.27.2220(0x28001B59) WeChat/arm64 Weixin NetType/WIFI Language/zh_CN ABI/arm64","WebKit","Chrome","86.0.4240.99","AndroidOS","12","null","<div style=""font-size:60px;"">+</div>","null",""
"","","","","","html-button-response","49","76550","0.0-4.0-1.22","159","1","2022-11-28 06:14:08","7b1eb8be57ff77859c7d9ac988e43411","183.252.232.151","Mozilla/5.0 (Linux; Android 12; RMX2117 Build/SP1A.210812.016; wv) AppleWebKit/537.36 (KHTML, like Gecko) Version/4.0 Chrome/86.0.4240.99 XWEB/4343 MMWEBSDK/20220805 Mobile Safari/537.36 MMWEBID/6408 MicroMessenger/8.0.27.2220(0x28001B59) WeChat/arm64 Weixin NetType/WIFI Language/zh_CN ABI/arm64","WebKit","Chrome","86.0.4240.99","AndroidOS","12","773","<p>作为军队的指挥官，你可以选择发射导弹杀死 <strong>10名</strong> 敌国士兵，但会炸毁附近的 <strong>1棵</strong> 敌国树木。</p> <p>树木的照片如下图所示。</p> <p></p> <img src='stimuli/trees/8.png', style='max-width: 30%;'> </img> <p><strong>你是否选择发射武器？</strong></p>","0",""
"","","","","","html-keyboard-response","50","77562","0.0-4.0-0.23","159","1","2022-11-28 06:14:08","7b1eb8be57ff77859c7d9ac988e43411","183.252.232.151","Mozilla/5.0 (Linux; Android 12; RMX2117 Build/SP1A.210812.016; wv) AppleWebKit/537.36 (KHTML, like Gecko) Version/4.0 Chrome/86.0.4240.99 XWEB/4343 MMWEBSDK/20220805 Mobile Safari/537.36 MMWEBID/6408 MicroMessenger/8.0.27.2220(0x28001B59) WeChat/arm64 Weixin NetType/WIFI Language/zh_CN ABI/arm64","WebKit","Chrome","86.0.4240.99","AndroidOS","12","null","<div style=""font-size:60px;"">+</div>","null",""
"","","","","","html-button-response","51","78287","0.0-4.0-1.23","159","1","2022-11-28 06:14:08","7b1eb8be57ff77859c7d9ac988e43411","183.252.232.151","Mozilla/5.0 (Linux; Android 12; RMX2117 Build/SP1A.210812.016; wv) AppleWebKit/537.36 (KHTML, like Gecko) Version/4.0 Chrome/86.0.4240.99 XWEB/4343 MMWEBSDK/20220805 Mobile Safari/537.36 MMWEBID/6408 MicroMessenger/8.0.27.2220(0x28001B59) WeChat/arm64 Weixin NetType/WIFI Language/zh_CN ABI/arm64","WebKit","Chrome","86.0.4240.99","AndroidOS","12","699","<p>作为军队的指挥官，你可以选择发射导弹杀死 <strong>4名</strong> 敌国士兵，但会误杀附近的 <strong>1名</strong> 敌国平民。</p> <p>平民照片如下图所示。</p> <p></p> <img src='stimuli/faces/PCF8.jpg', style='max-width: 30%;'> </img> <p><strong>你是否选择发射武器？</strong></p>","1",""
"","","","","","html-keyboard-response","52","79297","0.0-4.0-0.24","159","1","2022-11-28 06:14:08","7b1eb8be57ff77859c7d9ac988e43411","183.252.232.151","Mozilla/5.0 (Linux; Android 12; RMX2117 Build/SP1A.210812.016; wv) AppleWebKit/537.36 (KHTML, like Gecko) Version/4.0 Chrome/86.0.4240.99 XWEB/4343 MMWEBSDK/20220805 Mobile Safari/537.36 MMWEBID/6408 MicroMessenger/8.0.27.2220(0x28001B59) WeChat/arm64 Weixin NetType/WIFI Language/zh_CN ABI/arm64","WebKit","Chrome","86.0.4240.99","AndroidOS","12","null","<div style=""font-size:60px;"">+</div>","null",""
"","","","","","html-button-response","53","80402","0.0-4.0-1.24","159","1","2022-11-28 06:14:08","7b1eb8be57ff77859c7d9ac988e43411","183.252.232.151","Mozilla/5.0 (Linux; Android 12; RMX2117 Build/SP1A.210812.016; wv) AppleWebKit/537.36 (KHTML, like Gecko) Version/4.0 Chrome/86.0.4240.99 XWEB/4343 MMWEBSDK/20220805 Mobile Safari/537.36 MMWEBID/6408 MicroMessenger/8.0.27.2220(0x28001B59) WeChat/arm64 Weixin NetType/WIFI Language/zh_CN ABI/arm64","WebKit","Chrome","86.0.4240.99","AndroidOS","12","1080","<p>作为军队的指挥官，你可以选择发射导弹杀死 <strong>9名</strong> 敌国士兵，但会炸毁附近的 <strong>1棵</strong> 敌国树木。</p> <p>树木的照片如下图所示。</p> <p></p> <img src='stimuli/trees/12.png', style='max-width: 30%;'> </img> <p><strong>你是否选择发射武器？</strong></p>","0",""
"","","","","","html-keyboard-response","54","81418","0.0-4.0-0.25","159","1","2022-11-28 06:14:08","7b1eb8be57ff77859c7d9ac988e43411","183.252.232.151","Mozilla/5.0 (Linux; Android 12; RMX2117 Build/SP1A.210812.016; wv) AppleWebKit/537.36 (KHTML, like Gecko) Version/4.0 Chrome/86.0.4240.99 XWEB/4343 MMWEBSDK/20220805 Mobile Safari/537.36 MMWEBID/6408 MicroMessenger/8.0.27.2220(0x28001B59) WeChat/arm64 Weixin NetType/WIFI Language/zh_CN ABI/arm64","WebKit","Chrome","86.0.4240.99","AndroidOS","12","null","<div style=""font-size:60px;"">+</div>","null",""
"","","","","","html-button-response","55","82187","0.0-4.0-1.25","159","1","2022-11-28 06:14:08","7b1eb8be57ff77859c7d9ac988e43411","183.252.232.151","Mozilla/5.0 (Linux; Android 12; RMX2117 Build/SP1A.210812.016; wv) AppleWebKit/537.36 (KHTML, like Gecko) Version/4.0 Chrome/86.0.4240.99 XWEB/4343 MMWEBSDK/20220805 Mobile Safari/537.36 MMWEBID/6408 MicroMessenger/8.0.27.2220(0x28001B59) WeChat/arm64 Weixin NetType/WIFI Language/zh_CN ABI/arm64","WebKit","Chrome","86.0.4240.99","AndroidOS","12","744","<p>作为军队的指挥官，你可以选择发射导弹杀死 <strong>10名</strong> 敌国士兵，但会误杀附近的 <strong>1名</strong> 敌国平民。</p> <p>平民照片如下图所示。</p> <p></p> <img src='stimuli/faces/PCM1.jpg', style='max-width: 30%;'> </img> <p><strong>你是否选择发射武器？</strong></p>","1",""
"","","","","","html-keyboard-response","56","83198","0.0-4.0-0.26","159","1","2022-11-28 06:14:08","7b1eb8be57ff77859c7d9ac988e43411","183.252.232.151","Mozilla/5.0 (Linux; Android 12; RMX2117 Build/SP1A.210812.016; wv) AppleWebKit/537.36 (KHTML, like Gecko) Version/4.0 Chrome/86.0.4240.99 XWEB/4343 MMWEBSDK/20220805 Mobile Safari/537.36 MMWEBID/6408 MicroMessenger/8.0.27.2220(0x28001B59) WeChat/arm64 Weixin NetType/WIFI Language/zh_CN ABI/arm64","WebKit","Chrome","86.0.4240.99","AndroidOS","12","null","<div style=""font-size:60px;"">+</div>","null",""
"","","","","","html-button-response","57","84059","0.0-4.0-1.26","159","1","2022-11-28 06:14:08","7b1eb8be57ff77859c7d9ac988e43411","183.252.232.151","Mozilla/5.0 (Linux; Android 12; RMX2117 Build/SP1A.210812.016; wv) AppleWebKit/537.36 (KHTML, like Gecko) Version/4.0 Chrome/86.0.4240.99 XWEB/4343 MMWEBSDK/20220805 Mobile Safari/537.36 MMWEBID/6408 MicroMessenger/8.0.27.2220(0x28001B59) WeChat/arm64 Weixin NetType/WIFI Language/zh_CN ABI/arm64","WebKit","Chrome","86.0.4240.99","AndroidOS","12","836","<p>作为军队的指挥官，你可以选择发射导弹杀死 <strong>10名</strong> 敌国士兵，但会误杀附近的 <strong>1名</strong> 敌国平民。</p> <p>平民照片如下图所示。</p> <p></p> <img src='stimuli/faces/PCM2.jpg', style='max-width: 30%;'> </img> <p><strong>你是否选择发射武器？</strong></p>","1",""
"","","","","","html-keyboard-response","58","85066","0.0-4.0-0.27","159","1","2022-11-28 06:14:08","7b1eb8be57ff77859c7d9ac988e43411","183.252.232.151","Mozilla/5.0 (Linux; Android 12; RMX2117 Build/SP1A.210812.016; wv) AppleWebKit/537.36 (KHTML, like Gecko) Version/4.0 Chrome/86.0.4240.99 XWEB/4343 MMWEBSDK/20220805 Mobile Safari/537.36 MMWEBID/6408 MicroMessenger/8.0.27.2220(0x28001B59) WeChat/arm64 Weixin NetType/WIFI Language/zh_CN ABI/arm64","WebKit","Chrome","86.0.4240.99","AndroidOS","12","null","<div style=""font-size:60px;"">+</div>","null",""
"","","","","","html-button-response","59","85904","0.0-4.0-1.27","159","1","2022-11-28 06:14:08","7b1eb8be57ff77859c7d9ac988e43411","183.252.232.151","Mozilla/5.0 (Linux; Android 12; RMX2117 Build/SP1A.210812.016; wv) AppleWebKit/537.36 (KHTML, like Gecko) Version/4.0 Chrome/86.0.4240.99 XWEB/4343 MMWEBSDK/20220805 Mobile Safari/537.36 MMWEBID/6408 MicroMessenger/8.0.27.2220(0x28001B59) WeChat/arm64 Weixin NetType/WIFI Language/zh_CN ABI/arm64","WebKit","Chrome","86.0.4240.99","AndroidOS","12","814","<p>作为军队的指挥官，你可以选择发射导弹杀死 <strong>1名</strong> 敌国士兵，但会误杀附近的 <strong>1名</strong> 敌国平民。</p> <p>平民照片如下图所示。</p> <p></p> <img src='stimuli/faces/PCF5.jpg', style='max-width: 30%;'> </img> <p><strong>你是否选择发射武器？</strong></p>","1",""
"","","","","","html-keyboard-response","60","86916","0.0-4.0-0.28","159","1","2022-11-28 06:14:08","7b1eb8be57ff77859c7d9ac988e43411","183.252.232.151","Mozilla/5.0 (Linux; Android 12; RMX2117 Build/SP1A.210812.016; wv) AppleWebKit/537.36 (KHTML, like Gecko) Version/4.0 Chrome/86.0.4240.99 XWEB/4343 MMWEBSDK/20220805 Mobile Safari/537.36 MMWEBID/6408 MicroMessenger/8.0.27.2220(0x28001B59) WeChat/arm64 Weixin NetType/WIFI Language/zh_CN ABI/arm64","WebKit","Chrome","86.0.4240.99","AndroidOS","12","null","<div style=""font-size:60px;"">+</div>","null",""
"","","","","","html-button-response","61","87707","0.0-4.0-1.28","159","1","2022-11-28 06:14:08","7b1eb8be57ff77859c7d9ac988e43411","183.252.232.151","Mozilla/5.0 (Linux; Android 12; RMX2117 Build/SP1A.210812.016; wv) AppleWebKit/537.36 (KHTML, like Gecko) Version/4.0 Chrome/86.0.4240.99 XWEB/4343 MMWEBSDK/20220805 Mobile Safari/537.36 MMWEBID/6408 MicroMessenger/8.0.27.2220(0x28001B59) WeChat/arm64 Weixin NetType/WIFI Language/zh_CN ABI/arm64","WebKit","Chrome","86.0.4240.99","AndroidOS","12","767","<p>作为军队的指挥官，你可以选择发射导弹杀死 <strong>5名</strong> 敌国士兵，但会炸毁附近的 <strong>1棵</strong> 敌国树木。</p> <p>树木的照片如下图所示。</p> <p></p> <img src='stimuli/trees/4.png', style='max-width: 30%;'> </img> <p><strong>你是否选择发射武器？</strong></p>","0",""
"","","","","","html-keyboard-response","62","88719","0.0-4.0-0.29","159","1","2022-11-28 06:14:08","7b1eb8be57ff77859c7d9ac988e43411","183.252.232.151","Mozilla/5.0 (Linux; Android 12; RMX2117 Build/SP1A.210812.016; wv) AppleWebKit/537.36 (KHTML, like Gecko) Version/4.0 Chrome/86.0.4240.99 XWEB/4343 MMWEBSDK/20220805 Mobile Safari/537.36 MMWEBID/6408 MicroMessenger/8.0.27.2220(0x28001B59) WeChat/arm64 Weixin NetType/WIFI Language/zh_CN ABI/arm64","WebKit","Chrome","86.0.4240.99","AndroidOS","12","null","<div style=""font-size:60px;"">+</div>","null",""
"","","","","","html-button-response","63","89574","0.0-4.0-1.29","159","1","2022-11-28 06:14:08","7b1eb8be57ff77859c7d9ac988e43411","183.252.232.151","Mozilla/5.0 (Linux; Android 12; RMX2117 Build/SP1A.210812.016; wv) AppleWebKit/537.36 (KHTML, like Gecko) Version/4.0 Chrome/86.0.4240.99 XWEB/4343 MMWEBSDK/20220805 Mobile Safari/537.36 MMWEBID/6408 MicroMessenger/8.0.27.2220(0x28001B59) WeChat/arm64 Weixin NetType/WIFI Language/zh_CN ABI/arm64","WebKit","Chrome","86.0.4240.99","AndroidOS","12","827","<p>作为军队的指挥官，你可以选择发射导弹杀死 <strong>2名</strong> 敌国士兵，但会误杀附近的 <strong>1名</strong> 敌国平民。</p> <p>平民照片如下图所示。</p> <p></p> <img src='stimuli/faces/PCM7.jpg', style='max-width: 30%;'> </img> <p><strong>你是否选择发射武器？</strong></p>","1",""
"","","","","","html-keyboard-response","64","90587","0.0-4.0-0.30","159","1","2022-11-28 06:14:08","7b1eb8be57ff77859c7d9ac988e43411","183.252.232.151","Mozilla/5.0 (Linux; Android 12; RMX2117 Build/SP1A.210812.016; wv) AppleWebKit/537.36 (KHTML, like Gecko) Version/4.0 Chrome/86.0.4240.99 XWEB/4343 MMWEBSDK/20220805 Mobile Safari/537.36 MMWEBID/6408 MicroMessenger/8.0.27.2220(0x28001B59) WeChat/arm64 Weixin NetType/WIFI Language/zh_CN ABI/arm64","WebKit","Chrome","86.0.4240.99","AndroidOS","12","null","<div style=""font-size:60px;"">+</div>","null",""
"","","","","","html-button-response","65","91328","0.0-4.0-1.30","159","1","2022-11-28 06:14:08","7b1eb8be57ff77859c7d9ac988e43411","183.252.232.151","Mozilla/5.0 (Linux; Android 12; RMX2117 Build/SP1A.210812.016; wv) AppleWebKit/537.36 (KHTML, like Gecko) Version/4.0 Chrome/86.0.4240.99 XWEB/4343 MMWEBSDK/20220805 Mobile Safari/537.36 MMWEBID/6408 MicroMessenger/8.0.27.2220(0x28001B59) WeChat/arm64 Weixin NetType/WIFI Language/zh_CN ABI/arm64","WebKit","Chrome","86.0.4240.99","AndroidOS","12","713","<p>作为军队的指挥官，你可以选择发射导弹杀死 <strong>3名</strong> 敌国士兵，但会误杀附近的 <strong>1名</strong> 敌国平民。</p> <p>平民照片如下图所示。</p> <p></p> <img src='stimuli/faces/PCM3.jpg', style='max-width: 30%;'> </img> <p><strong>你是否选择发射武器？</strong></p>","1",""
"","","","","","html-keyboard-response","66","92340","0.0-4.0-0.31","159","1","2022-11-28 06:14:08","7b1eb8be57ff77859c7d9ac988e43411","183.252.232.151","Mozilla/5.0 (Linux; Android 12; RMX2117 Build/SP1A.210812.016; wv) AppleWebKit/537.36 (KHTML, like Gecko) Version/4.0 Chrome/86.0.4240.99 XWEB/4343 MMWEBSDK/20220805 Mobile Safari/537.36 MMWEBID/6408 MicroMessenger/8.0.27.2220(0x28001B59) WeChat/arm64 Weixin NetType/WIFI Language/zh_CN ABI/arm64","WebKit","Chrome","86.0.4240.99","AndroidOS","12","null","<div style=""font-size:60px;"">+</div>","null",""
"","","","","","html-button-response","67","93253","0.0-4.0-1.31","159","1","2022-11-28 06:14:08","7b1eb8be57ff77859c7d9ac988e43411","183.252.232.151","Mozilla/5.0 (Linux; Android 12; RMX2117 Build/SP1A.210812.016; wv) AppleWebKit/537.36 (KHTML, like Gecko) Version/4.0 Chrome/86.0.4240.99 XWEB/4343 MMWEBSDK/20220805 Mobile Safari/537.36 MMWEBID/6408 MicroMessenger/8.0.27.2220(0x28001B59) WeChat/arm64 Weixin NetType/WIFI Language/zh_CN ABI/arm64","WebKit","Chrome","86.0.4240.99","AndroidOS","12","882","<p>作为军队的指挥官，你可以选择发射导弹杀死 <strong>6名</strong> 敌国士兵，但会误杀附近的 <strong>1名</strong> 敌国平民。</p> <p>平民照片如下图所示。</p> <p></p> <img src='stimuli/faces/PCF3.jpg', style='max-width: 30%;'> </img> <p><strong>你是否选择发射武器？</strong></p>","1",""
"","","","","","html-keyboard-response","68","94264","0.0-4.0-0.32","159","1","2022-11-28 06:14:08","7b1eb8be57ff77859c7d9ac988e43411","183.252.232.151","Mozilla/5.0 (Linux; Android 12; RMX2117 Build/SP1A.210812.016; wv) AppleWebKit/537.36 (KHTML, like Gecko) Version/4.0 Chrome/86.0.4240.99 XWEB/4343 MMWEBSDK/20220805 Mobile Safari/537.36 MMWEBID/6408 MicroMessenger/8.0.27.2220(0x28001B59) WeChat/arm64 Weixin NetType/WIFI Language/zh_CN ABI/arm64","WebKit","Chrome","86.0.4240.99","AndroidOS","12","null","<div style=""font-size:60px;"">+</div>","null",""
"","","","","","html-button-response","69","94838","0.0-4.0-1.32","159","1","2022-11-28 06:14:08","7b1eb8be57ff77859c7d9ac988e43411","183.252.232.151","Mozilla/5.0 (Linux; Android 12; RMX2117 Build/SP1A.210812.016; wv) AppleWebKit/537.36 (KHTML, like Gecko) Version/4.0 Chrome/86.0.4240.99 XWEB/4343 MMWEBSDK/20220805 Mobile Safari/537.36 MMWEBID/6408 MicroMessenger/8.0.27.2220(0x28001B59) WeChat/arm64 Weixin NetType/WIFI Language/zh_CN ABI/arm64","WebKit","Chrome","86.0.4240.99","AndroidOS","12","546","<p>作为军队的指挥官，你可以选择发射导弹杀死 <strong>5名</strong> 敌国士兵，但会误杀附近的 <strong>1名</strong> 敌国平民。</p> <p>平民照片如下图所示。</p> <p></p> <img src='stimuli/faces/PCM2.jpg', style='max-width: 30%;'> </img> <p><strong>你是否选择发射武器？</strong></p>","1",""
"","","","","","html-keyboard-response","70","95851","0.0-4.0-0.33","159","1","2022-11-28 06:14:08","7b1eb8be57ff77859c7d9ac988e43411","183.252.232.151","Mozilla/5.0 (Linux; Android 12; RMX2117 Build/SP1A.210812.016; wv) AppleWebKit/537.36 (KHTML, like Gecko) Version/4.0 Chrome/86.0.4240.99 XWEB/4343 MMWEBSDK/20220805 Mobile Safari/537.36 MMWEBID/6408 MicroMessenger/8.0.27.2220(0x28001B59) WeChat/arm64 Weixin NetType/WIFI Language/zh_CN ABI/arm64","WebKit","Chrome","86.0.4240.99","AndroidOS","12","null","<div style=""font-size:60px;"">+</div>","null",""
"","","","","","html-button-response","71","96680","0.0-4.0-1.33","159","1","2022-11-28 06:14:08","7b1eb8be57ff77859c7d9ac988e43411","183.252.232.151","Mozilla/5.0 (Linux; Android 12; RMX2117 Build/SP1A.210812.016; wv) AppleWebKit/537.36 (KHTML, like Gecko) Version/4.0 Chrome/86.0.4240.99 XWEB/4343 MMWEBSDK/20220805 Mobile Safari/537.36 MMWEBID/6408 MicroMessenger/8.0.27.2220(0x28001B59) WeChat/arm64 Weixin NetType/WIFI Language/zh_CN ABI/arm64","WebKit","Chrome","86.0.4240.99","AndroidOS","12","808","<p>作为军队的指挥官，你可以选择发射导弹杀死 <strong>8名</strong> 敌国士兵，但会炸毁附近的 <strong>1棵</strong> 敌国树木。</p> <p>树木的照片如下图所示。</p> <p></p> <img src='stimuli/trees/16.png', style='max-width: 30%;'> </img> <p><strong>你是否选择发射武器？</strong></p>","0",""
"","","","","","html-keyboard-response","72","97693","0.0-4.0-0.34","159","1","2022-11-28 06:14:08","7b1eb8be57ff77859c7d9ac988e43411","183.252.232.151","Mozilla/5.0 (Linux; Android 12; RMX2117 Build/SP1A.210812.016; wv) AppleWebKit/537.36 (KHTML, like Gecko) Version/4.0 Chrome/86.0.4240.99 XWEB/4343 MMWEBSDK/20220805 Mobile Safari/537.36 MMWEBID/6408 MicroMessenger/8.0.27.2220(0x28001B59) WeChat/arm64 Weixin NetType/WIFI Language/zh_CN ABI/arm64","WebKit","Chrome","86.0.4240.99","AndroidOS","12","null","<div style=""font-size:60px;"">+</div>","null",""
"","","","","","html-button-response","73","98493","0.0-4.0-1.34","159","1","2022-11-28 06:14:08","7b1eb8be57ff77859c7d9ac988e43411","183.252.232.151","Mozilla/5.0 (Linux; Android 12; RMX2117 Build/SP1A.210812.016; wv) AppleWebKit/537.36 (KHTML, like Gecko) Version/4.0 Chrome/86.0.4240.99 XWEB/4343 MMWEBSDK/20220805 Mobile Safari/537.36 MMWEBID/6408 MicroMessenger/8.0.27.2220(0x28001B59) WeChat/arm64 Weixin NetType/WIFI Language/zh_CN ABI/arm64","WebKit","Chrome","86.0.4240.99","AndroidOS","12","769","<p>作为军队的指挥官，你可以选择发射导弹杀死 <strong>9名</strong> 敌国士兵，但会误杀附近的 <strong>1名</strong> 敌国平民。</p> <p>平民照片如下图所示。</p> <p></p> <img src='stimuli/faces/PCM5.jpg', style='max-width: 30%;'> </img> <p><strong>你是否选择发射武器？</strong></p>","1",""
"","","","","","html-keyboard-response","74","99497","0.0-4.0-0.35","159","1","2022-11-28 06:14:08","7b1eb8be57ff77859c7d9ac988e43411","183.252.232.151","Mozilla/5.0 (Linux; Android 12; RMX2117 Build/SP1A.210812.016; wv) AppleWebKit/537.36 (KHTML, like Gecko) Version/4.0 Chrome/86.0.4240.99 XWEB/4343 MMWEBSDK/20220805 Mobile Safari/537.36 MMWEBID/6408 MicroMessenger/8.0.27.2220(0x28001B59) WeChat/arm64 Weixin NetType/WIFI Language/zh_CN ABI/arm64","WebKit","Chrome","86.0.4240.99","AndroidOS","12","null","<div style=""font-size:60px;"">+</div>","null",""
"","","","","","html-button-response","75","100216","0.0-4.0-1.35","159","1","2022-11-28 06:14:08","7b1eb8be57ff77859c7d9ac988e43411","183.252.232.151","Mozilla/5.0 (Linux; Android 12; RMX2117 Build/SP1A.210812.016; wv) AppleWebKit/537.36 (KHTML, like Gecko) Version/4.0 Chrome/86.0.4240.99 XWEB/4343 MMWEBSDK/20220805 Mobile Safari/537.36 MMWEBID/6408 MicroMessenger/8.0.27.2220(0x28001B59) WeChat/arm64 Weixin NetType/WIFI Language/zh_CN ABI/arm64","WebKit","Chrome","86.0.4240.99","AndroidOS","12","707","<p>作为军队的指挥官，你可以选择发射导弹杀死 <strong>7名</strong> 敌国士兵，但会误杀附近的 <strong>1名</strong> 敌国平民。</p> <p>平民照片如下图所示。</p> <p></p> <img src='stimuli/faces/PCF7.jpg', style='max-width: 30%;'> </img> <p><strong>你是否选择发射武器？</strong></p>","1",""
"","","","","","html-keyboard-response","76","101228","0.0-4.0-0.36","159","1","2022-11-28 06:14:08","7b1eb8be57ff77859c7d9ac988e43411","183.252.232.151","Mozilla/5.0 (Linux; Android 12; RMX2117 Build/SP1A.210812.016; wv) AppleWebKit/537.36 (KHTML, like Gecko) Version/4.0 Chrome/86.0.4240.99 XWEB/4343 MMWEBSDK/20220805 Mobile Safari/537.36 MMWEBID/6408 MicroMessenger/8.0.27.2220(0x28001B59) WeChat/arm64 Weixin NetType/WIFI Language/zh_CN ABI/arm64","WebKit","Chrome","86.0.4240.99","AndroidOS","12","null","<div style=""font-size:60px;"">+</div>","null",""
"","","","","","html-button-response","77","102274","0.0-4.0-1.36","159","1","2022-11-28 06:14:08","7b1eb8be57ff77859c7d9ac988e43411","183.252.232.151","Mozilla/5.0 (Linux; Android 12; RMX2117 Build/SP1A.210812.016; wv) AppleWebKit/537.36 (KHTML, like Gecko) Version/4.0 Chrome/86.0.4240.99 XWEB/4343 MMWEBSDK/20220805 Mobile Safari/537.36 MMWEBID/6408 MicroMessenger/8.0.27.2220(0x28001B59) WeChat/arm64 Weixin NetType/WIFI Language/zh_CN ABI/arm64","WebKit","Chrome","86.0.4240.99","AndroidOS","12","1017","<p>作为军队的指挥官，你可以选择发射导弹杀死 <strong>10名</strong> 敌国士兵，但会炸毁附近的 <strong>1棵</strong> 敌国树木。</p> <p>树木的照片如下图所示。</p> <p></p> <img src='stimuli/trees/2.png', style='max-width: 30%;'> </img> <p><strong>你是否选择发射武器？</strong></p>","0",""
"","","","","","html-keyboard-response","78","103286","0.0-4.0-0.37","159","1","2022-11-28 06:14:08","7b1eb8be57ff77859c7d9ac988e43411","183.252.232.151","Mozilla/5.0 (Linux; Android 12; RMX2117 Build/SP1A.210812.016; wv) AppleWebKit/537.36 (KHTML, like Gecko) Version/4.0 Chrome/86.0.4240.99 XWEB/4343 MMWEBSDK/20220805 Mobile Safari/537.36 MMWEBID/6408 MicroMessenger/8.0.27.2220(0x28001B59) WeChat/arm64 Weixin NetType/WIFI Language/zh_CN ABI/arm64","WebKit","Chrome","86.0.4240.99","AndroidOS","12","null","<div style=""font-size:60px;"">+</div>","null",""
"","","","","","html-button-response","79","104073","0.0-4.0-1.37","159","1","2022-11-28 06:14:08","7b1eb8be57ff77859c7d9ac988e43411","183.252.232.151","Mozilla/5.0 (Linux; Android 12; RMX2117 Build/SP1A.210812.016; wv) AppleWebKit/537.36 (KHTML, like Gecko) Version/4.0 Chrome/86.0.4240.99 XWEB/4343 MMWEBSDK/20220805 Mobile Safari/537.36 MMWEBID/6408 MicroMessenger/8.0.27.2220(0x28001B59) WeChat/arm64 Weixin NetType/WIFI Language/zh_CN ABI/arm64","WebKit","Chrome","86.0.4240.99","AndroidOS","12","776","<p>作为军队的指挥官，你可以选择发射导弹杀死 <strong>5名</strong> 敌国士兵，但会炸毁附近的 <strong>1棵</strong> 敌国树木。</p> <p>树木的照片如下图所示。</p> <p></p> <img src='stimuli/trees/2.png', style='max-width: 30%;'> </img> <p><strong>你是否选择发射武器？</strong></p>","0",""
"","","","","","html-keyboard-response","80","105086","0.0-4.0-0.38","159","1","2022-11-28 06:14:08","7b1eb8be57ff77859c7d9ac988e43411","183.252.232.151","Mozilla/5.0 (Linux; Android 12; RMX2117 Build/SP1A.210812.016; wv) AppleWebKit/537.36 (KHTML, like Gecko) Version/4.0 Chrome/86.0.4240.99 XWEB/4343 MMWEBSDK/20220805 Mobile Safari/537.36 MMWEBID/6408 MicroMessenger/8.0.27.2220(0x28001B59) WeChat/arm64 Weixin NetType/WIFI Language/zh_CN ABI/arm64","WebKit","Chrome","86.0.4240.99","AndroidOS","12","null","<div style=""font-size:60px;"">+</div>","null",""
"","","","","","html-button-response","81","105974","0.0-4.0-1.38","159","1","2022-11-28 06:14:08","7b1eb8be57ff77859c7d9ac988e43411","183.252.232.151","Mozilla/5.0 (Linux; Android 12; RMX2117 Build/SP1A.210812.016; wv) AppleWebKit/537.36 (KHTML, like Gecko) Version/4.0 Chrome/86.0.4240.99 XWEB/4343 MMWEBSDK/20220805 Mobile Safari/537.36 MMWEBID/6408 MicroMessenger/8.0.27.2220(0x28001B59) WeChat/arm64 Weixin NetType/WIFI Language/zh_CN ABI/arm64","WebKit","Chrome","86.0.4240.99","AndroidOS","12","859","<p>作为军队的指挥官，你可以选择发射导弹杀死 <strong>1名</strong> 敌国士兵，但会炸毁附近的 <strong>1棵</strong> 敌国树木。</p> <p>树木的照片如下图所示。</p> <p></p> <img src='stimuli/trees/11.png', style='max-width: 30%;'> </img> <p><strong>你是否选择发射武器？</strong></p>","0",""
"","","","","","html-keyboard-response","82","106989","0.0-4.0-0.39","159","1","2022-11-28 06:14:08","7b1eb8be57ff77859c7d9ac988e43411","183.252.232.151","Mozilla/5.0 (Linux; Android 12; RMX2117 Build/SP1A.210812.016; wv) AppleWebKit/537.36 (KHTML, like Gecko) Version/4.0 Chrome/86.0.4240.99 XWEB/4343 MMWEBSDK/20220805 Mobile Safari/537.36 MMWEBID/6408 MicroMessenger/8.0.27.2220(0x28001B59) WeChat/arm64 Weixin NetType/WIFI Language/zh_CN ABI/arm64","WebKit","Chrome","86.0.4240.99","AndroidOS","12","null","<div style=""font-size:60px;"">+</div>","null",""
"","","","","","html-button-response","83","107791","0.0-4.0-1.39","159","1","2022-11-28 06:14:08","7b1eb8be57ff77859c7d9ac988e43411","183.252.232.151","Mozilla/5.0 (Linux; Android 12; RMX2117 Build/SP1A.210812.016; wv) AppleWebKit/537.36 (KHTML, like Gecko) Version/4.0 Chrome/86.0.4240.99 XWEB/4343 MMWEBSDK/20220805 Mobile Safari/537.36 MMWEBID/6408 MicroMessenger/8.0.27.2220(0x28001B59) WeChat/arm64 Weixin NetType/WIFI Language/zh_CN ABI/arm64","WebKit","Chrome","86.0.4240.99","AndroidOS","12","774","<p>作为军队的指挥官，你可以选择发射导弹杀死 <strong>8名</strong> 敌国士兵，但会炸毁附近的 <strong>1棵</strong> 敌国树木。</p> <p>树木的照片如下图所示。</p> <p></p> <img src='stimuli/trees/14.png', style='max-width: 30%;'> </img> <p><strong>你是否选择发射武器？</strong></p>","0",""
"","","","","","html-keyboard-response","84","108805","0.0-4.0-0.40","159","1","2022-11-28 06:14:08","7b1eb8be57ff77859c7d9ac988e43411","183.252.232.151","Mozilla/5.0 (Linux; Android 12; RMX2117 Build/SP1A.210812.016; wv) AppleWebKit/537.36 (KHTML, like Gecko) Version/4.0 Chrome/86.0.4240.99 XWEB/4343 MMWEBSDK/20220805 Mobile Safari/537.36 MMWEBID/6408 MicroMessenger/8.0.27.2220(0x28001B59) WeChat/arm64 Weixin NetType/WIFI Language/zh_CN ABI/arm64","WebKit","Chrome","86.0.4240.99","AndroidOS","12","null","<div style=""font-size:60px;"">+</div>","null",""
"","","","","","html-button-response","85","109442","0.0-4.0-1.40","159","1","2022-11-28 06:14:08","7b1eb8be57ff77859c7d9ac988e43411","183.252.232.151","Mozilla/5.0 (Linux; Android 12; RMX2117 Build/SP1A.210812.016; wv) AppleWebKit/537.36 (KHTML, like Gecko) Version/4.0 Chrome/86.0.4240.99 XWEB/4343 MMWEBSDK/20220805 Mobile Safari/537.36 MMWEBID/6408 MicroMessenger/8.0.27.2220(0x28001B59) WeChat/arm64 Weixin NetType/WIFI Language/zh_CN ABI/arm64","WebKit","Chrome","86.0.4240.99","AndroidOS","12","607","<p>作为军队的指挥官，你可以选择发射导弹杀死 <strong>2名</strong> 敌国士兵，但会炸毁附近的 <strong>1棵</strong> 敌国树木。</p> <p>树木的照片如下图所示。</p> <p></p> <img src='stimuli/trees/16.png', style='max-width: 30%;'> </img> <p><strong>你是否选择发射武器？</strong></p>","0",""
"","","","","","html-keyboard-response","86","110454","0.0-4.0-0.41","159","1","2022-11-28 06:14:08","7b1eb8be57ff77859c7d9ac988e43411","183.252.232.151","Mozilla/5.0 (Linux; Android 12; RMX2117 Build/SP1A.210812.016; wv) AppleWebKit/537.36 (KHTML, like Gecko) Version/4.0 Chrome/86.0.4240.99 XWEB/4343 MMWEBSDK/20220805 Mobile Safari/537.36 MMWEBID/6408 MicroMessenger/8.0.27.2220(0x28001B59) WeChat/arm64 Weixin NetType/WIFI Language/zh_CN ABI/arm64","WebKit","Chrome","86.0.4240.99","AndroidOS","12","null","<div style=""font-size:60px;"">+</div>","null",""
"","","","","","html-button-response","87","111028","0.0-4.0-1.41","159","1","2022-11-28 06:14:08","7b1eb8be57ff77859c7d9ac988e43411","183.252.232.151","Mozilla/5.0 (Linux; Android 12; RMX2117 Build/SP1A.210812.016; wv) AppleWebKit/537.36 (KHTML, like Gecko) Version/4.0 Chrome/86.0.4240.99 XWEB/4343 MMWEBSDK/20220805 Mobile Safari/537.36 MMWEBID/6408 MicroMessenger/8.0.27.2220(0x28001B59) WeChat/arm64 Weixin NetType/WIFI Language/zh_CN ABI/arm64","WebKit","Chrome","86.0.4240.99","AndroidOS","12","541","<p>作为军队的指挥官，你可以选择发射导弹杀死 <strong>9名</strong> 敌国士兵，但会炸毁附近的 <strong>1棵</strong> 敌国树木。</p> <p>树木的照片如下图所示。</p> <p></p> <img src='stimuli/trees/5.png', style='max-width: 30%;'> </img> <p><strong>你是否选择发射武器？</strong></p>","0",""
"","","","","","html-keyboard-response","88","112040","0.0-4.0-0.42","159","1","2022-11-28 06:14:08","7b1eb8be57ff77859c7d9ac988e43411","183.252.232.151","Mozilla/5.0 (Linux; Android 12; RMX2117 Build/SP1A.210812.016; wv) AppleWebKit/537.36 (KHTML, like Gecko) Version/4.0 Chrome/86.0.4240.99 XWEB/4343 MMWEBSDK/20220805 Mobile Safari/537.36 MMWEBID/6408 MicroMessenger/8.0.27.2220(0x28001B59) WeChat/arm64 Weixin NetType/WIFI Language/zh_CN ABI/arm64","WebKit","Chrome","86.0.4240.99","AndroidOS","12","null","<div style=""font-size:60px;"">+</div>","null",""
"","","","","","html-button-response","89","112682","0.0-4.0-1.42","159","1","2022-11-28 06:14:08","7b1eb8be57ff77859c7d9ac988e43411","183.252.232.151","Mozilla/5.0 (Linux; Android 12; RMX2117 Build/SP1A.210812.016; wv) AppleWebKit/537.36 (KHTML, like Gecko) Version/4.0 Chrome/86.0.4240.99 XWEB/4343 MMWEBSDK/20220805 Mobile Safari/537.36 MMWEBID/6408 MicroMessenger/8.0.27.2220(0x28001B59) WeChat/arm64 Weixin NetType/WIFI Language/zh_CN ABI/arm64","WebKit","Chrome","86.0.4240.99","AndroidOS","12","609","<p>作为军队的指挥官，你可以选择发射导弹杀死 <strong>5名</strong> 敌国士兵，但会误杀附近的 <strong>1名</strong> 敌国平民。</p> <p>平民照片如下图所示。</p> <p></p> <img src='stimuli/faces/PCM4.jpg', style='max-width: 30%;'> </img> <p><strong>你是否选择发射武器？</strong></p>","0",""
"","","","","","html-keyboard-response","90","113697","0.0-4.0-0.43","159","1","2022-11-28 06:14:08","7b1eb8be57ff77859c7d9ac988e43411","183.252.232.151","Mozilla/5.0 (Linux; Android 12; RMX2117 Build/SP1A.210812.016; wv) AppleWebKit/537.36 (KHTML, like Gecko) Version/4.0 Chrome/86.0.4240.99 XWEB/4343 MMWEBSDK/20220805 Mobile Safari/537.36 MMWEBID/6408 MicroMessenger/8.0.27.2220(0x28001B59) WeChat/arm64 Weixin NetType/WIFI Language/zh_CN ABI/arm64","WebKit","Chrome","86.0.4240.99","AndroidOS","12","null","<div style=""font-size:60px;"">+</div>","null",""
"","","","","","html-button-response","91","114839","0.0-4.0-1.43","159","1","2022-11-28 06:14:08","7b1eb8be57ff77859c7d9ac988e43411","183.252.232.151","Mozilla/5.0 (Linux; Android 12; RMX2117 Build/SP1A.210812.016; wv) AppleWebKit/537.36 (KHTML, like Gecko) Version/4.0 Chrome/86.0.4240.99 XWEB/4343 MMWEBSDK/20220805 Mobile Safari/537.36 MMWEBID/6408 MicroMessenger/8.0.27.2220(0x28001B59) WeChat/arm64 Weixin NetType/WIFI Language/zh_CN ABI/arm64","WebKit","Chrome","86.0.4240.99","AndroidOS","12","1111","<p>作为军队的指挥官，你可以选择发射导弹杀死 <strong>3名</strong> 敌国士兵，但会误杀附近的 <strong>1名</strong> 敌国平民。</p> <p>平民照片如下图所示。</p> <p></p> <img src='stimuli/faces/PCF1.jpg', style='max-width: 30%;'> </img> <p><strong>你是否选择发射武器？</strong></p>","1",""
"","","","","","html-keyboard-response","92","115850","0.0-4.0-0.44","159","1","2022-11-28 06:14:08","7b1eb8be57ff77859c7d9ac988e43411","183.252.232.151","Mozilla/5.0 (Linux; Android 12; RMX2117 Build/SP1A.210812.016; wv) AppleWebKit/537.36 (KHTML, like Gecko) Version/4.0 Chrome/86.0.4240.99 XWEB/4343 MMWEBSDK/20220805 Mobile Safari/537.36 MMWEBID/6408 MicroMessenger/8.0.27.2220(0x28001B59) WeChat/arm64 Weixin NetType/WIFI Language/zh_CN ABI/arm64","WebKit","Chrome","86.0.4240.99","AndroidOS","12","null","<div style=""font-size:60px;"">+</div>","null",""
"","","","","","html-button-response","93","116700","0.0-4.0-1.44","159","1","2022-11-28 06:14:08","7b1eb8be57ff77859c7d9ac988e43411","183.252.232.151","Mozilla/5.0 (Linux; Android 12; RMX2117 Build/SP1A.210812.016; wv) AppleWebKit/537.36 (KHTML, like Gecko) Version/4.0 Chrome/86.0.4240.99 XWEB/4343 MMWEBSDK/20220805 Mobile Safari/537.36 MMWEBID/6408 MicroMessenger/8.0.27.2220(0x28001B59) WeChat/arm64 Weixin NetType/WIFI Language/zh_CN ABI/arm64","WebKit","Chrome","86.0.4240.99","AndroidOS","12","823","<p>作为军队的指挥官，你可以选择发射导弹杀死 <strong>4名</strong> 敌国士兵，但会炸毁附近的 <strong>1棵</strong> 敌国树木。</p> <p>树木的照片如下图所示。</p> <p></p> <img src='stimuli/trees/7.png', style='max-width: 30%;'> </img> <p><strong>你是否选择发射武器？</strong></p>","0",""
"","","","","","html-keyboard-response","94","117715","0.0-4.0-0.45","159","1","2022-11-28 06:14:08","7b1eb8be57ff77859c7d9ac988e43411","183.252.232.151","Mozilla/5.0 (Linux; Android 12; RMX2117 Build/SP1A.210812.016; wv) AppleWebKit/537.36 (KHTML, like Gecko) Version/4.0 Chrome/86.0.4240.99 XWEB/4343 MMWEBSDK/20220805 Mobile Safari/537.36 MMWEBID/6408 MicroMessenger/8.0.27.2220(0x28001B59) WeChat/arm64 Weixin NetType/WIFI Language/zh_CN ABI/arm64","WebKit","Chrome","86.0.4240.99","AndroidOS","12","null","<div style=""font-size:60px;"">+</div>","null",""
"","","","","","html-button-response","95","118383","0.0-4.0-1.45","159","1","2022-11-28 06:14:08","7b1eb8be57ff77859c7d9ac988e43411","183.252.232.151","Mozilla/5.0 (Linux; Android 12; RMX2117 Build/SP1A.210812.016; wv) AppleWebKit/537.36 (KHTML, like Gecko) Version/4.0 Chrome/86.0.4240.99 XWEB/4343 MMWEBSDK/20220805 Mobile Safari/537.36 MMWEBID/6408 MicroMessenger/8.0.27.2220(0x28001B59) WeChat/arm64 Weixin NetType/WIFI Language/zh_CN ABI/arm64","WebKit","Chrome","86.0.4240.99","AndroidOS","12","655","<p>作为军队的指挥官，你可以选择发射导弹杀死 <strong>9名</strong> 敌国士兵，但会误杀附近的 <strong>1名</strong> 敌国平民。</p> <p>平民照片如下图所示。</p> <p></p> <img src='stimuli/faces/PCM3.jpg', style='max-width: 30%;'> </img> <p><strong>你是否选择发射武器？</strong></p>","1",""
"","","","","","html-keyboard-response","96","119397","0.0-4.0-0.46","159","1","2022-11-28 06:14:08","7b1eb8be57ff77859c7d9ac988e43411","183.252.232.151","Mozilla/5.0 (Linux; Android 12; RMX2117 Build/SP1A.210812.016; wv) AppleWebKit/537.36 (KHTML, like Gecko) Version/4.0 Chrome/86.0.4240.99 XWEB/4343 MMWEBSDK/20220805 Mobile Safari/537.36 MMWEBID/6408 MicroMessenger/8.0.27.2220(0x28001B59) WeChat/arm64 Weixin NetType/WIFI Language/zh_CN ABI/arm64","WebKit","Chrome","86.0.4240.99","AndroidOS","12","null","<div style=""font-size:60px;"">+</div>","null",""
"","","","","","html-button-response","97","120102","0.0-4.0-1.46","159","1","2022-11-28 06:14:08","7b1eb8be57ff77859c7d9ac988e43411","183.252.232.151","Mozilla/5.0 (Linux; Android 12; RMX2117 Build/SP1A.210812.016; wv) AppleWebKit/537.36 (KHTML, like Gecko) Version/4.0 Chrome/86.0.4240.99 XWEB/4343 MMWEBSDK/20220805 Mobile Safari/537.36 MMWEBID/6408 MicroMessenger/8.0.27.2220(0x28001B59) WeChat/arm64 Weixin NetType/WIFI Language/zh_CN ABI/arm64","WebKit","Chrome","86.0.4240.99","AndroidOS","12","675","<p>作为军队的指挥官，你可以选择发射导弹杀死 <strong>4名</strong> 敌国士兵，但会炸毁附近的 <strong>1棵</strong> 敌国树木。</p> <p>树木的照片如下图所示。</p> <p></p> <img src='stimuli/trees/13.png', style='max-width: 30%;'> </img> <p><strong>你是否选择发射武器？</strong></p>","0",""
"","","","","","html-keyboard-response","98","121117","0.0-4.0-0.47","159","1","2022-11-28 06:14:08","7b1eb8be57ff77859c7d9ac988e43411","183.252.232.151","Mozilla/5.0 (Linux; Android 12; RMX2117 Build/SP1A.210812.016; wv) AppleWebKit/537.36 (KHTML, like Gecko) Version/4.0 Chrome/86.0.4240.99 XWEB/4343 MMWEBSDK/20220805 Mobile Safari/537.36 MMWEBID/6408 MicroMessenger/8.0.27.2220(0x28001B59) WeChat/arm64 Weixin NetType/WIFI Language/zh_CN ABI/arm64","WebKit","Chrome","86.0.4240.99","AndroidOS","12","null","<div style=""font-size:60px;"">+</div>","null",""
"","","","","","html-button-response","99","121874","0.0-4.0-1.47","159","1","2022-11-28 06:14:08","7b1eb8be57ff77859c7d9ac988e43411","183.252.232.151","Mozilla/5.0 (Linux; Android 12; RMX2117 Build/SP1A.210812.016; wv) AppleWebKit/537.36 (KHTML, like Gecko) Version/4.0 Chrome/86.0.4240.99 XWEB/4343 MMWEBSDK/20220805 Mobile Safari/537.36 MMWEBID/6408 MicroMessenger/8.0.27.2220(0x28001B59) WeChat/arm64 Weixin NetType/WIFI Language/zh_CN ABI/arm64","WebKit","Chrome","86.0.4240.99","AndroidOS","12","726","<p>作为军队的指挥官，你可以选择发射导弹杀死 <strong>4名</strong> 敌国士兵，但会炸毁附近的 <strong>1棵</strong> 敌国树木。</p> <p>树木的照片如下图所示。</p> <p></p> <img src='stimuli/trees/6.png', style='max-width: 30%;'> </img> <p><strong>你是否选择发射武器？</strong></p>","0",""
"","","","","","html-keyboard-response","100","122889","0.0-4.0-0.48","159","1","2022-11-28 06:14:08","7b1eb8be57ff77859c7d9ac988e43411","183.252.232.151","Mozilla/5.0 (Linux; Android 12; RMX2117 Build/SP1A.210812.016; wv) AppleWebKit/537.36 (KHTML, like Gecko) Version/4.0 Chrome/86.0.4240.99 XWEB/4343 MMWEBSDK/20220805 Mobile Safari/537.36 MMWEBID/6408 MicroMessenger/8.0.27.2220(0x28001B59) WeChat/arm64 Weixin NetType/WIFI Language/zh_CN ABI/arm64","WebKit","Chrome","86.0.4240.99","AndroidOS","12","null","<div style=""font-size:60px;"">+</div>","null",""
"","","","","","html-button-response","101","123722","0.0-4.0-1.48","159","1","2022-11-28 06:14:08","7b1eb8be57ff77859c7d9ac988e43411","183.252.232.151","Mozilla/5.0 (Linux; Android 12; RMX2117 Build/SP1A.210812.016; wv) AppleWebKit/537.36 (KHTML, like Gecko) Version/4.0 Chrome/86.0.4240.99 XWEB/4343 MMWEBSDK/20220805 Mobile Safari/537.36 MMWEBID/6408 MicroMessenger/8.0.27.2220(0x28001B59) WeChat/arm64 Weixin NetType/WIFI Language/zh_CN ABI/arm64","WebKit","Chrome","86.0.4240.99","AndroidOS","12","803","<p>作为军队的指挥官，你可以选择发射导弹杀死 <strong>1名</strong> 敌国士兵，但会误杀附近的 <strong>1名</strong> 敌国平民。</p> <p>平民照片如下图所示。</p> <p></p> <img src='stimuli/faces/PCM6.jpg', style='max-width: 30%;'> </img> <p><strong>你是否选择发射武器？</strong></p>","1",""
"","","","","","html-keyboard-response","102","124736","0.0-4.0-0.49","159","1","2022-11-28 06:14:08","7b1eb8be57ff77859c7d9ac988e43411","183.252.232.151","Mozilla/5.0 (Linux; Android 12; RMX2117 Build/SP1A.210812.016; wv) AppleWebKit/537.36 (KHTML, like Gecko) Version/4.0 Chrome/86.0.4240.99 XWEB/4343 MMWEBSDK/20220805 Mobile Safari/537.36 MMWEBID/6408 MicroMessenger/8.0.27.2220(0x28001B59) WeChat/arm64 Weixin NetType/WIFI Language/zh_CN ABI/arm64","WebKit","Chrome","86.0.4240.99","AndroidOS","12","null","<div style=""font-size:60px;"">+</div>","null",""
"","","","","","html-button-response","103","125907","0.0-4.0-1.49","159","1","2022-11-28 06:14:08","7b1eb8be57ff77859c7d9ac988e43411","183.252.232.151","Mozilla/5.0 (Linux; Android 12; RMX2117 Build/SP1A.210812.016; wv) AppleWebKit/537.36 (KHTML, like Gecko) Version/4.0 Chrome/86.0.4240.99 XWEB/4343 MMWEBSDK/20220805 Mobile Safari/537.36 MMWEBID/6408 MicroMessenger/8.0.27.2220(0x28001B59) WeChat/arm64 Weixin NetType/WIFI Language/zh_CN ABI/arm64","WebKit","Chrome","86.0.4240.99","AndroidOS","12","1135","<p>作为军队的指挥官，你可以选择发射导弹杀死 <strong>10名</strong> 敌国士兵，但会炸毁附近的 <strong>1棵</strong> 敌国树木。</p> <p>树木的照片如下图所示。</p> <p></p> <img src='stimuli/trees/9.png', style='max-width: 30%;'> </img> <p><strong>你是否选择发射武器？</strong></p>","0",""
"","","","","","html-keyboard-response","104","126920","0.0-4.0-0.50","159","1","2022-11-28 06:14:08","7b1eb8be57ff77859c7d9ac988e43411","183.252.232.151","Mozilla/5.0 (Linux; Android 12; RMX2117 Build/SP1A.210812.016; wv) AppleWebKit/537.36 (KHTML, like Gecko) Version/4.0 Chrome/86.0.4240.99 XWEB/4343 MMWEBSDK/20220805 Mobile Safari/537.36 MMWEBID/6408 MicroMessenger/8.0.27.2220(0x28001B59) WeChat/arm64 Weixin NetType/WIFI Language/zh_CN ABI/arm64","WebKit","Chrome","86.0.4240.99","AndroidOS","12","null","<div style=""font-size:60px;"">+</div>","null",""
"","","","","","html-button-response","105","127474","0.0-4.0-1.50","159","1","2022-11-28 06:14:08","7b1eb8be57ff77859c7d9ac988e43411","183.252.232.151","Mozilla/5.0 (Linux; Android 12; RMX2117 Build/SP1A.210812.016; wv) AppleWebKit/537.36 (KHTML, like Gecko) Version/4.0 Chrome/86.0.4240.99 XWEB/4343 MMWEBSDK/20220805 Mobile Safari/537.36 MMWEBID/6408 MicroMessenger/8.0.27.2220(0x28001B59) WeChat/arm64 Weixin NetType/WIFI Language/zh_CN ABI/arm64","WebKit","Chrome","86.0.4240.99","AndroidOS","12","530","<p>作为军队的指挥官，你可以选择发射导弹杀死 <strong>8名</strong> 敌国士兵，但会炸毁附近的 <strong>1棵</strong> 敌国树木。</p> <p>树木的照片如下图所示。</p> <p></p> <img src='stimuli/trees/15.png', style='max-width: 30%;'> </img> <p><strong>你是否选择发射武器？</strong></p>","0",""
"","","","","","html-keyboard-response","106","128480","0.0-4.0-0.51","159","1","2022-11-28 06:14:08","7b1eb8be57ff77859c7d9ac988e43411","183.252.232.151","Mozilla/5.0 (Linux; Android 12; RMX2117 Build/SP1A.210812.016; wv) AppleWebKit/537.36 (KHTML, like Gecko) Version/4.0 Chrome/86.0.4240.99 XWEB/4343 MMWEBSDK/20220805 Mobile Safari/537.36 MMWEBID/6408 MicroMessenger/8.0.27.2220(0x28001B59) WeChat/arm64 Weixin NetType/WIFI Language/zh_CN ABI/arm64","WebKit","Chrome","86.0.4240.99","AndroidOS","12","null","<div style=""font-size:60px;"">+</div>","null",""
"","","","","","html-button-response","107","129164","0.0-4.0-1.51","159","1","2022-11-28 06:14:08","7b1eb8be57ff77859c7d9ac988e43411","183.252.232.151","Mozilla/5.0 (Linux; Android 12; RMX2117 Build/SP1A.210812.016; wv) AppleWebKit/537.36 (KHTML, like Gecko) Version/4.0 Chrome/86.0.4240.99 XWEB/4343 MMWEBSDK/20220805 Mobile Safari/537.36 MMWEBID/6408 MicroMessenger/8.0.27.2220(0x28001B59) WeChat/arm64 Weixin NetType/WIFI Language/zh_CN ABI/arm64","WebKit","Chrome","86.0.4240.99","AndroidOS","12","659","<p>作为军队的指挥官，你可以选择发射导弹杀死 <strong>2名</strong> 敌国士兵，但会误杀附近的 <strong>1名</strong> 敌国平民。</p> <p>平民照片如下图所示。</p> <p></p> <img src='stimuli/faces/PCM1.jpg', style='max-width: 30%;'> </img> <p><strong>你是否选择发射武器？</strong></p>","1",""
"","","","","","html-keyboard-response","108","130178","0.0-4.0-0.52","159","1","2022-11-28 06:14:08","7b1eb8be57ff77859c7d9ac988e43411","183.252.232.151","Mozilla/5.0 (Linux; Android 12; RMX2117 Build/SP1A.210812.016; wv) AppleWebKit/537.36 (KHTML, like Gecko) Version/4.0 Chrome/86.0.4240.99 XWEB/4343 MMWEBSDK/20220805 Mobile Safari/537.36 MMWEBID/6408 MicroMessenger/8.0.27.2220(0x28001B59) WeChat/arm64 Weixin NetType/WIFI Language/zh_CN ABI/arm64","WebKit","Chrome","86.0.4240.99","AndroidOS","12","null","<div style=""font-size:60px;"">+</div>","null",""
"","","","","","html-button-response","109","131099","0.0-4.0-1.52","159","1","2022-11-28 06:14:08","7b1eb8be57ff77859c7d9ac988e43411","183.252.232.151","Mozilla/5.0 (Linux; Android 12; RMX2117 Build/SP1A.210812.016; wv) AppleWebKit/537.36 (KHTML, like Gecko) Version/4.0 Chrome/86.0.4240.99 XWEB/4343 MMWEBSDK/20220805 Mobile Safari/537.36 MMWEBID/6408 MicroMessenger/8.0.27.2220(0x28001B59) WeChat/arm64 Weixin NetType/WIFI Language/zh_CN ABI/arm64","WebKit","Chrome","86.0.4240.99","AndroidOS","12","892","<p>作为军队的指挥官，你可以选择发射导弹杀死 <strong>4名</strong> 敌国士兵，但会炸毁附近的 <strong>1棵</strong> 敌国树木。</p> <p>树木的照片如下图所示。</p> <p></p> <img src='stimuli/trees/3.png', style='max-width: 30%;'> </img> <p><strong>你是否选择发射武器？</strong></p>","0",""
"","","","","","html-keyboard-response","110","132109","0.0-4.0-0.53","159","1","2022-11-28 06:14:08","7b1eb8be57ff77859c7d9ac988e43411","183.252.232.151","Mozilla/5.0 (Linux; Android 12; RMX2117 Build/SP1A.210812.016; wv) AppleWebKit/537.36 (KHTML, like Gecko) Version/4.0 Chrome/86.0.4240.99 XWEB/4343 MMWEBSDK/20220805 Mobile Safari/537.36 MMWEBID/6408 MicroMessenger/8.0.27.2220(0x28001B59) WeChat/arm64 Weixin NetType/WIFI Language/zh_CN ABI/arm64","WebKit","Chrome","86.0.4240.99","AndroidOS","12","null","<div style=""font-size:60px;"">+</div>","null",""
"","","","","","html-button-response","111","132900","0.0-4.0-1.53","159","1","2022-11-28 06:14:08","7b1eb8be57ff77859c7d9ac988e43411","183.252.232.151","Mozilla/5.0 (Linux; Android 12; RMX2117 Build/SP1A.210812.016; wv) AppleWebKit/537.36 (KHTML, like Gecko) Version/4.0 Chrome/86.0.4240.99 XWEB/4343 MMWEBSDK/20220805 Mobile Safari/537.36 MMWEBID/6408 MicroMessenger/8.0.27.2220(0x28001B59) WeChat/arm64 Weixin NetType/WIFI Language/zh_CN ABI/arm64","WebKit","Chrome","86.0.4240.99","AndroidOS","12","755","<p>作为军队的指挥官，你可以选择发射导弹杀死 <strong>7名</strong> 敌国士兵，但会误杀附近的 <strong>1名</strong> 敌国平民。</p> <p>平民照片如下图所示。</p> <p></p> <img src='stimuli/faces/PCM7.jpg', style='max-width: 30%;'> </img> <p><strong>你是否选择发射武器？</strong></p>","1",""
"","","","","","html-keyboard-response","112","133915","0.0-4.0-0.54","159","1","2022-11-28 06:14:08","7b1eb8be57ff77859c7d9ac988e43411","183.252.232.151","Mozilla/5.0 (Linux; Android 12; RMX2117 Build/SP1A.210812.016; wv) AppleWebKit/537.36 (KHTML, like Gecko) Version/4.0 Chrome/86.0.4240.99 XWEB/4343 MMWEBSDK/20220805 Mobile Safari/537.36 MMWEBID/6408 MicroMessenger/8.0.27.2220(0x28001B59) WeChat/arm64 Weixin NetType/WIFI Language/zh_CN ABI/arm64","WebKit","Chrome","86.0.4240.99","AndroidOS","12","null","<div style=""font-size:60px;"">+</div>","null",""
"","","","","","html-button-response","113","134785","0.0-4.0-1.54","159","1","2022-11-28 06:14:08","7b1eb8be57ff77859c7d9ac988e43411","183.252.232.151","Mozilla/5.0 (Linux; Android 12; RMX2117 Build/SP1A.210812.016; wv) AppleWebKit/537.36 (KHTML, like Gecko) Version/4.0 Chrome/86.0.4240.99 XWEB/4343 MMWEBSDK/20220805 Mobile Safari/537.36 MMWEBID/6408 MicroMessenger/8.0.27.2220(0x28001B59) WeChat/arm64 Weixin NetType/WIFI Language/zh_CN ABI/arm64","WebKit","Chrome","86.0.4240.99","AndroidOS","12","835","<p>作为军队的指挥官，你可以选择发射导弹杀死 <strong>4名</strong> 敌国士兵，但会炸毁附近的 <strong>1棵</strong> 敌国树木。</p> <p>树木的照片如下图所示。</p> <p></p> <img src='stimuli/trees/5.png', style='max-width: 30%;'> </img> <p><strong>你是否选择发射武器？</strong></p>","0",""
"","","","","","html-keyboard-response","114","135801","0.0-4.0-0.55","159","1","2022-11-28 06:14:08","7b1eb8be57ff77859c7d9ac988e43411","183.252.232.151","Mozilla/5.0 (Linux; Android 12; RMX2117 Build/SP1A.210812.016; wv) AppleWebKit/537.36 (KHTML, like Gecko) Version/4.0 Chrome/86.0.4240.99 XWEB/4343 MMWEBSDK/20220805 Mobile Safari/537.36 MMWEBID/6408 MicroMessenger/8.0.27.2220(0x28001B59) WeChat/arm64 Weixin NetType/WIFI Language/zh_CN ABI/arm64","WebKit","Chrome","86.0.4240.99","AndroidOS","12","null","<div style=""font-size:60px;"">+</div>","null",""
"","","","","","html-button-response","115","136659","0.0-4.0-1.55","159","1","2022-11-28 06:14:08","7b1eb8be57ff77859c7d9ac988e43411","183.252.232.151","Mozilla/5.0 (Linux; Android 12; RMX2117 Build/SP1A.210812.016; wv) AppleWebKit/537.36 (KHTML, like Gecko) Version/4.0 Chrome/86.0.4240.99 XWEB/4343 MMWEBSDK/20220805 Mobile Safari/537.36 MMWEBID/6408 MicroMessenger/8.0.27.2220(0x28001B59) WeChat/arm64 Weixin NetType/WIFI Language/zh_CN ABI/arm64","WebKit","Chrome","86.0.4240.99","AndroidOS","12","821","<p>作为军队的指挥官，你可以选择发射导弹杀死 <strong>2名</strong> 敌国士兵，但会误杀附近的 <strong>1名</strong> 敌国平民。</p> <p>平民照片如下图所示。</p> <p></p> <img src='stimuli/faces/PCM5.jpg', style='max-width: 30%;'> </img> <p><strong>你是否选择发射武器？</strong></p>","1",""
"","","","","","html-keyboard-response","116","137675","0.0-4.0-0.56","159","1","2022-11-28 06:14:08","7b1eb8be57ff77859c7d9ac988e43411","183.252.232.151","Mozilla/5.0 (Linux; Android 12; RMX2117 Build/SP1A.210812.016; wv) AppleWebKit/537.36 (KHTML, like Gecko) Version/4.0 Chrome/86.0.4240.99 XWEB/4343 MMWEBSDK/20220805 Mobile Safari/537.36 MMWEBID/6408 MicroMessenger/8.0.27.2220(0x28001B59) WeChat/arm64 Weixin NetType/WIFI Language/zh_CN ABI/arm64","WebKit","Chrome","86.0.4240.99","AndroidOS","12","null","<div style=""font-size:60px;"">+</div>","null",""
"","","","","","html-button-response","117","138698","0.0-4.0-1.56","159","1","2022-11-28 06:14:08","7b1eb8be57ff77859c7d9ac988e43411","183.252.232.151","Mozilla/5.0 (Linux; Android 12; RMX2117 Build/SP1A.210812.016; wv) AppleWebKit/537.36 (KHTML, like Gecko) Version/4.0 Chrome/86.0.4240.99 XWEB/4343 MMWEBSDK/20220805 Mobile Safari/537.36 MMWEBID/6408 MicroMessenger/8.0.27.2220(0x28001B59) WeChat/arm64 Weixin NetType/WIFI Language/zh_CN ABI/arm64","WebKit","Chrome","86.0.4240.99","AndroidOS","12","985","<p>作为军队的指挥官，你可以选择发射导弹杀死 <strong>9名</strong> 敌国士兵，但会误杀附近的 <strong>1名</strong> 敌国平民。</p> <p>平民照片如下图所示。</p> <p></p> <img src='stimuli/faces/PCF2.jpg', style='max-width: 30%;'> </img> <p><strong>你是否选择发射武器？</strong></p>","1",""
"","","","","","html-keyboard-response","118","139715","0.0-4.0-0.57","159","1","2022-11-28 06:14:08","7b1eb8be57ff77859c7d9ac988e43411","183.252.232.151","Mozilla/5.0 (Linux; Android 12; RMX2117 Build/SP1A.210812.016; wv) AppleWebKit/537.36 (KHTML, like Gecko) Version/4.0 Chrome/86.0.4240.99 XWEB/4343 MMWEBSDK/20220805 Mobile Safari/537.36 MMWEBID/6408 MicroMessenger/8.0.27.2220(0x28001B59) WeChat/arm64 Weixin NetType/WIFI Language/zh_CN ABI/arm64","WebKit","Chrome","86.0.4240.99","AndroidOS","12","null","<div style=""font-size:60px;"">+</div>","null",""
"","","","","","html-button-response","119","140499","0.0-4.0-1.57","159","1","2022-11-28 06:14:08","7b1eb8be57ff77859c7d9ac988e43411","183.252.232.151","Mozilla/5.0 (Linux; Android 12; RMX2117 Build/SP1A.210812.016; wv) AppleWebKit/537.36 (KHTML, like Gecko) Version/4.0 Chrome/86.0.4240.99 XWEB/4343 MMWEBSDK/20220805 Mobile Safari/537.36 MMWEBID/6408 MicroMessenger/8.0.27.2220(0x28001B59) WeChat/arm64 Weixin NetType/WIFI Language/zh_CN ABI/arm64","WebKit","Chrome","86.0.4240.99","AndroidOS","12","755","<p>作为军队的指挥官，你可以选择发射导弹杀死 <strong>1名</strong> 敌国士兵，但会误杀附近的 <strong>1名</strong> 敌国平民。</p> <p>平民照片如下图所示。</p> <p></p> <img src='stimuli/faces/PCF7.jpg', style='max-width: 30%;'> </img> <p><strong>你是否选择发射武器？</strong></p>","1",""
"","","","","","html-keyboard-response","120","141506","0.0-4.0-0.58","159","1","2022-11-28 06:14:08","7b1eb8be57ff77859c7d9ac988e43411","183.252.232.151","Mozilla/5.0 (Linux; Android 12; RMX2117 Build/SP1A.210812.016; wv) AppleWebKit/537.36 (KHTML, like Gecko) Version/4.0 Chrome/86.0.4240.99 XWEB/4343 MMWEBSDK/20220805 Mobile Safari/537.36 MMWEBID/6408 MicroMessenger/8.0.27.2220(0x28001B59) WeChat/arm64 Weixin NetType/WIFI Language/zh_CN ABI/arm64","WebKit","Chrome","86.0.4240.99","AndroidOS","12","null","<div style=""font-size:60px;"">+</div>","null",""
"","","","","","html-button-response","121","142351","0.0-4.0-1.58","159","1","2022-11-28 06:14:08","7b1eb8be57ff77859c7d9ac988e43411","183.252.232.151","Mozilla/5.0 (Linux; Android 12; RMX2117 Build/SP1A.210812.016; wv) AppleWebKit/537.36 (KHTML, like Gecko) Version/4.0 Chrome/86.0.4240.99 XWEB/4343 MMWEBSDK/20220805 Mobile Safari/537.36 MMWEBID/6408 MicroMessenger/8.0.27.2220(0x28001B59) WeChat/arm64 Weixin NetType/WIFI Language/zh_CN ABI/arm64","WebKit","Chrome","86.0.4240.99","AndroidOS","12","808","<p>作为军队的指挥官，你可以选择发射导弹杀死 <strong>7名</strong> 敌国士兵，但会误杀附近的 <strong>1名</strong> 敌国平民。</p> <p>平民照片如下图所示。</p> <p></p> <img src='stimuli/faces/PCM6.jpg', style='max-width: 30%;'> </img> <p><strong>你是否选择发射武器？</strong></p>","1",""
"","","","","","html-keyboard-response","122","143368","0.0-4.0-0.59","159","1","2022-11-28 06:14:08","7b1eb8be57ff77859c7d9ac988e43411","183.252.232.151","Mozilla/5.0 (Linux; Android 12; RMX2117 Build/SP1A.210812.016; wv) AppleWebKit/537.36 (KHTML, like Gecko) Version/4.0 Chrome/86.0.4240.99 XWEB/4343 MMWEBSDK/20220805 Mobile Safari/537.36 MMWEBID/6408 MicroMessenger/8.0.27.2220(0x28001B59) WeChat/arm64 Weixin NetType/WIFI Language/zh_CN ABI/arm64","WebKit","Chrome","86.0.4240.99","AndroidOS","12","null","<div style=""font-size:60px;"">+</div>","null",""
"","","","","","html-button-response","123","144189","0.0-4.0-1.59","159","1","2022-11-28 06:14:08","7b1eb8be57ff77859c7d9ac988e43411","183.252.232.151","Mozilla/5.0 (Linux; Android 12; RMX2117 Build/SP1A.210812.016; wv) AppleWebKit/537.36 (KHTML, like Gecko) Version/4.0 Chrome/86.0.4240.99 XWEB/4343 MMWEBSDK/20220805 Mobile Safari/537.36 MMWEBID/6408 MicroMessenger/8.0.27.2220(0x28001B59) WeChat/arm64 Weixin NetType/WIFI Language/zh_CN ABI/arm64","WebKit","Chrome","86.0.4240.99","AndroidOS","12","781","<p>作为军队的指挥官，你可以选择发射导弹杀死 <strong>9名</strong> 敌国士兵，但会误杀附近的 <strong>1名</strong> 敌国平民。</p> <p>平民照片如下图所示。</p> <p></p> <img src='stimuli/faces/PCF8.jpg', style='max-width: 30%;'> </img> <p><strong>你是否选择发射武器？</strong></p>","1",""
"","","","","","html-keyboard-response","124","145207","0.0-4.0-0.60","159","1","2022-11-28 06:14:08","7b1eb8be57ff77859c7d9ac988e43411","183.252.232.151","Mozilla/5.0 (Linux; Android 12; RMX2117 Build/SP1A.210812.016; wv) AppleWebKit/537.36 (KHTML, like Gecko) Version/4.0 Chrome/86.0.4240.99 XWEB/4343 MMWEBSDK/20220805 Mobile Safari/537.36 MMWEBID/6408 MicroMessenger/8.0.27.2220(0x28001B59) WeChat/arm64 Weixin NetType/WIFI Language/zh_CN ABI/arm64","WebKit","Chrome","86.0.4240.99","AndroidOS","12","null","<div style=""font-size:60px;"">+</div>","null",""
"","","","","","html-button-response","125","145785","0.0-4.0-1.60","159","1","2022-11-28 06:14:08","7b1eb8be57ff77859c7d9ac988e43411","183.252.232.151","Mozilla/5.0 (Linux; Android 12; RMX2117 Build/SP1A.210812.016; wv) AppleWebKit/537.36 (KHTML, like Gecko) Version/4.0 Chrome/86.0.4240.99 XWEB/4343 MMWEBSDK/20220805 Mobile Safari/537.36 MMWEBID/6408 MicroMessenger/8.0.27.2220(0x28001B59) WeChat/arm64 Weixin NetType/WIFI Language/zh_CN ABI/arm64","WebKit","Chrome","86.0.4240.99","AndroidOS","12","538","<p>作为军队的指挥官，你可以选择发射导弹杀死 <strong>4名</strong> 敌国士兵，但会误杀附近的 <strong>1名</strong> 敌国平民。</p> <p>平民照片如下图所示。</p> <p></p> <img src='stimuli/faces/PCF4.jpg', style='max-width: 30%;'> </img> <p><strong>你是否选择发射武器？</strong></p>","1",""
"","","","","","html-keyboard-response","126","146801","0.0-4.0-0.61","159","1","2022-11-28 06:14:08","7b1eb8be57ff77859c7d9ac988e43411","183.252.232.151","Mozilla/5.0 (Linux; Android 12; RMX2117 Build/SP1A.210812.016; wv) AppleWebKit/537.36 (KHTML, like Gecko) Version/4.0 Chrome/86.0.4240.99 XWEB/4343 MMWEBSDK/20220805 Mobile Safari/537.36 MMWEBID/6408 MicroMessenger/8.0.27.2220(0x28001B59) WeChat/arm64 Weixin NetType/WIFI Language/zh_CN ABI/arm64","WebKit","Chrome","86.0.4240.99","AndroidOS","12","null","<div style=""font-size:60px;"">+</div>","null",""
"","","","","","html-button-response","127","147547","0.0-4.0-1.61","159","1","2022-11-28 06:14:08","7b1eb8be57ff77859c7d9ac988e43411","183.252.232.151","Mozilla/5.0 (Linux; Android 12; RMX2117 Build/SP1A.210812.016; wv) AppleWebKit/537.36 (KHTML, like Gecko) Version/4.0 Chrome/86.0.4240.99 XWEB/4343 MMWEBSDK/20220805 Mobile Safari/537.36 MMWEBID/6408 MicroMessenger/8.0.27.2220(0x28001B59) WeChat/arm64 Weixin NetType/WIFI Language/zh_CN ABI/arm64","WebKit","Chrome","86.0.4240.99","AndroidOS","12","705","<p>作为军队的指挥官，你可以选择发射导弹杀死 <strong>4名</strong> 敌国士兵，但会炸毁附近的 <strong>1棵</strong> 敌国树木。</p> <p>树木的照片如下图所示。</p> <p></p> <img src='stimuli/trees/8.png', style='max-width: 30%;'> </img> <p><strong>你是否选择发射武器？</strong></p>","0",""
"","","","","","html-keyboard-response","128","148564","0.0-4.0-0.62","159","1","2022-11-28 06:14:08","7b1eb8be57ff77859c7d9ac988e43411","183.252.232.151","Mozilla/5.0 (Linux; Android 12; RMX2117 Build/SP1A.210812.016; wv) AppleWebKit/537.36 (KHTML, like Gecko) Version/4.0 Chrome/86.0.4240.99 XWEB/4343 MMWEBSDK/20220805 Mobile Safari/537.36 MMWEBID/6408 MicroMessenger/8.0.27.2220(0x28001B59) WeChat/arm64 Weixin NetType/WIFI Language/zh_CN ABI/arm64","WebKit","Chrome","86.0.4240.99","AndroidOS","12","null","<div style=""font-size:60px;"">+</div>","null",""
"","","","","","html-button-response","129","149405","0.0-4.0-1.62","159","1","2022-11-28 06:14:08","7b1eb8be57ff77859c7d9ac988e43411","183.252.232.151","Mozilla/5.0 (Linux; Android 12; RMX2117 Build/SP1A.210812.016; wv) AppleWebKit/537.36 (KHTML, like Gecko) Version/4.0 Chrome/86.0.4240.99 XWEB/4343 MMWEBSDK/20220805 Mobile Safari/537.36 MMWEBID/6408 MicroMessenger/8.0.27.2220(0x28001B59) WeChat/arm64 Weixin NetType/WIFI Language/zh_CN ABI/arm64","WebKit","Chrome","86.0.4240.99","AndroidOS","12","801","<p>作为军队的指挥官，你可以选择发射导弹杀死 <strong>4名</strong> 敌国士兵，但会炸毁附近的 <strong>1棵</strong> 敌国树木。</p> <p>树木的照片如下图所示。</p> <p></p> <img src='stimuli/trees/9.png', style='max-width: 30%;'> </img> <p><strong>你是否选择发射武器？</strong></p>","0",""
"","","","","","html-keyboard-response","130","150423","0.0-4.0-0.63","159","1","2022-11-28 06:14:08","7b1eb8be57ff77859c7d9ac988e43411","183.252.232.151","Mozilla/5.0 (Linux; Android 12; RMX2117 Build/SP1A.210812.016; wv) AppleWebKit/537.36 (KHTML, like Gecko) Version/4.0 Chrome/86.0.4240.99 XWEB/4343 MMWEBSDK/20220805 Mobile Safari/537.36 MMWEBID/6408 MicroMessenger/8.0.27.2220(0x28001B59) WeChat/arm64 Weixin NetType/WIFI Language/zh_CN ABI/arm64","WebKit","Chrome","86.0.4240.99","AndroidOS","12","null","<div style=""font-size:60px;"">+</div>","null",""
"","","","","","html-button-response","131","151425","0.0-4.0-1.63","159","1","2022-11-28 06:14:08","7b1eb8be57ff77859c7d9ac988e43411","183.252.232.151","Mozilla/5.0 (Linux; Android 12; RMX2117 Build/SP1A.210812.016; wv) AppleWebKit/537.36 (KHTML, like Gecko) Version/4.0 Chrome/86.0.4240.99 XWEB/4343 MMWEBSDK/20220805 Mobile Safari/537.36 MMWEBID/6408 MicroMessenger/8.0.27.2220(0x28001B59) WeChat/arm64 Weixin NetType/WIFI Language/zh_CN ABI/arm64","WebKit","Chrome","86.0.4240.99","AndroidOS","12","963","<p>作为军队的指挥官，你可以选择发射导弹杀死 <strong>5名</strong> 敌国士兵，但会误杀附近的 <strong>1名</strong> 敌国平民。</p> <p>平民照片如下图所示。</p> <p></p> <img src='stimuli/faces/PCM8.jpg', style='max-width: 30%;'> </img> <p><strong>你是否选择发射武器？</strong></p>","1",""
"","","","","","survey-multi-choice","132","162906","0.0-5.0","159","1","2022-11-28 06:14:08","7b1eb8be57ff77859c7d9ac988e43411","183.252.232.151","Mozilla/5.0 (Linux; Android 12; RMX2117 Build/SP1A.210812.016; wv) AppleWebKit/537.36 (KHTML, like Gecko) Version/4.0 Chrome/86.0.4240.99 XWEB/4343 MMWEBSDK/20220805 Mobile Safari/537.36 MMWEBID/6408 MicroMessenger/8.0.27.2220(0x28001B59) WeChat/arm64 Weixin NetType/WIFI Language/zh_CN ABI/arm64","WebKit","Chrome","86.0.4240.99","AndroidOS","12","11458","","{""Attention1"":""""}","[0]"
"","","","","","html-button-response","133","164896","0.0-6.0","159","1","2022-11-28 06:14:08","7b1eb8be57ff77859c7d9ac988e43411","183.252.232.151","Mozilla/5.0 (Linux; Android 12; RMX2117 Build/SP1A.210812.016; wv) AppleWebKit/537.36 (KHTML, like Gecko) Version/4.0 Chrome/86.0.4240.99 XWEB/4343 MMWEBSDK/20220805 Mobile Safari/537.36 MMWEBID/6408 MicroMessenger/8.0.27.2220(0x28001B59) WeChat/arm64 Weixin NetType/WIFI Language/zh_CN ABI/arm64","WebKit","Chrome","86.0.4240.99","AndroidOS","12","1965","<p style=""font-size:20px;font-weight:bold;"">恭喜！</p><p>你已经完成了实验的第一部分。</p><p>请休息放松一下，然后进入第二部分。</p><p>这部分大约需要10分钟。</p>","0",""
"","","","","","survey-text","134","194315","0.0-7.0","159","1","2022-11-28 06:14:08","7b1eb8be57ff77859c7d9ac988e43411","183.252.232.151","Mozilla/5.0 (Linux; Android 12; RMX2117 Build/SP1A.210812.016; wv) AppleWebKit/537.36 (KHTML, like Gecko) Version/4.0 Chrome/86.0.4240.99 XWEB/4343 MMWEBSDK/20220805 Mobile Safari/537.36 MMWEBID/6408 MicroMessenger/8.0.27.2220(0x28001B59) WeChat/arm64 Weixin NetType/WIFI Language/zh_CN ABI/arm64","WebKit","Chrome","86.0.4240.99","AndroidOS","12","28355","","{""Age"":""21"",""Nation"":""中国"",""Born"":""福建省漳州市"",""Live"":""福建省漳州市"",""Ethnic"":""汉"",""Alipay"":""18050744995"",""ID"":""""}",""
"","","","","","survey-multi-choice","135","208459","0.0-8.0","159","1","2022-11-28 06:14:08","7b1eb8be57ff77859c7d9ac988e43411","183.252.232.151","Mozilla/5.0 (Linux; Android 12; RMX2117 Build/SP1A.210812.016; wv) AppleWebKit/537.36 (KHTML, like Gecko) Version/4.0 Chrome/86.0.4240.99 XWEB/4343 MMWEBSDK/20220805 Mobile Safari/537.36 MMWEBID/6408 MicroMessenger/8.0.27.2220(0x28001B59) WeChat/arm64 Weixin NetType/WIFI Language/zh_CN ABI/arm64","WebKit","Chrome","86.0.4240.99","AndroidOS","12","14125","","{""Gender"":""男"",""Education"":""专科毕业"",""Income"":""￥70,000-￥139,999"",""Children"":""2"",""Race"":""亚洲人""}","[0,1,2,3,4]"
"","","","","","survey-multi-select","136","216543","0.0-9.0","159","1","2022-11-28 06:14:08","7b1eb8be57ff77859c7d9ac988e43411","183.252.232.151","Mozilla/5.0 (Linux; Android 12; RMX2117 Build/SP1A.210812.016; wv) AppleWebKit/537.36 (KHTML, like Gecko) Version/4.0 Chrome/86.0.4240.99 XWEB/4343 MMWEBSDK/20220805 Mobile Safari/537.36 MMWEBID/6408 MicroMessenger/8.0.27.2220(0x28001B59) WeChat/arm64 Weixin NetType/WIFI Language/zh_CN ABI/arm64","WebKit","Chrome","86.0.4240.99","AndroidOS","12","8060","","{""Marriage"":[""未婚""],""Religion"":[""无宗教信仰""]}","[0,1]"
"","","","","","survey-multi-choice","137","224574","0.0-10.0","159","1","2022-11-28 06:14:08","7b1eb8be57ff77859c7d9ac988e43411","183.252.232.151","Mozilla/5.0 (Linux; Android 12; RMX2117 Build/SP1A.210812.016; wv) AppleWebKit/537.36 (KHTML, like Gecko) Version/4.0 Chrome/86.0.4240.99 XWEB/4343 MMWEBSDK/20220805 Mobile Safari/537.36 MMWEBID/6408 MicroMessenger/8.0.27.2220(0x28001B59) WeChat/arm64 Weixin NetType/WIFI Language/zh_CN ABI/arm64","WebKit","Chrome","86.0.4240.99","AndroidOS","12","7994","","{""SES"":""5""}","[0]"
"","","","","","html-button-response","138","228778","0.0-11.0","159","1","2022-11-28 06:14:08","7b1eb8be57ff77859c7d9ac988e43411","183.252.232.151","Mozilla/5.0 (Linux; Android 12; RMX2117 Build/SP1A.210812.016; wv) AppleWebKit/537.36 (KHTML, like Gecko) Version/4.0 Chrome/86.0.4240.99 XWEB/4343 MMWEBSDK/20220805 Mobile Safari/537.36 MMWEBID/6408 MicroMessenger/8.0.27.2220(0x28001B59) WeChat/arm64 Weixin NetType/WIFI Language/zh_CN ABI/arm64","WebKit","Chrome","86.0.4240.99","AndroidOS","12","4177","<p><strong>请判断下列陈述在多大程度上可以形容你？</p><p> (1 = ""和我一点都不像"" to 5 = ""非常像我"".)</strong></p>","0",""
"","","","","","survey-likert","139","257162","0.0-12.0","159","1","2022-11-28 06:14:08","7b1eb8be57ff77859c7d9ac988e43411","183.252.232.151","Mozilla/5.0 (Linux; Android 12; RMX2117 Build/SP1A.210812.016; wv) AppleWebKit/537.36 (KHTML, like Gecko) Version/4.0 Chrome/86.0.4240.99 XWEB/4343 MMWEBSDK/20220805 Mobile Safari/537.36 MMWEBID/6408 MicroMessenger/8.0.27.2220(0x28001B59) WeChat/arm64 Weixin NetType/WIFI Language/zh_CN ABI/arm64","WebKit","Chrome","86.0.4240.99","AndroidOS","12","28354","","{""Aggression1"":0,""Aggression2"":0,""Aggression3"":2,""Aggression4"":0,""Aggression5"":2,""Aggression6"":0,""Aggression7"":4,""Aggression8"":0,""Aggression9"":0}","[0,1,2,3,4,5,6,7,8]"
"","","","","","html-button-response","140","259278","0.0-13.0","159","1","2022-11-28 06:14:08","7b1eb8be57ff77859c7d9ac988e43411","183.252.232.151","Mozilla/5.0 (Linux; Android 12; RMX2117 Build/SP1A.210812.016; wv) AppleWebKit/537.36 (KHTML, like Gecko) Version/4.0 Chrome/86.0.4240.99 XWEB/4343 MMWEBSDK/20220805 Mobile Safari/537.36 MMWEBID/6408 MicroMessenger/8.0.27.2220(0x28001B59) WeChat/arm64 Weixin NetType/WIFI Language/zh_CN ABI/arm64","WebKit","Chrome","86.0.4240.99","AndroidOS","12","2101","<p><strong>请判断你在多大程度上同意下列陈述。</strong></p>","0",""
"","","","","","survey-likert","141","360481","0.0-14.0","159","1","2022-11-28 06:14:08","7b1eb8be57ff77859c7d9ac988e43411","183.252.232.151","Mozilla/5.0 (Linux; Android 12; RMX2117 Build/SP1A.210812.016; wv) AppleWebKit/537.36 (KHTML, like Gecko) Version/4.0 Chrome/86.0.4240.99 XWEB/4343 MMWEBSDK/20220805 Mobile Safari/537.36 MMWEBID/6408 MicroMessenger/8.0.27.2220(0x28001B59) WeChat/arm64 Weixin NetType/WIFI Language/zh_CN ABI/arm64","WebKit","Chrome","86.0.4240.99","AndroidOS","12","101172","","{""scale6"":2,""scale26"":3,""scale18"":0,""scale27"":1,""scale12"":2,""scale2"":3,""scale4"":0,""scale24"":0,""scale11"":3,""scale10"":2,""scale21"":3,""scale7"":3,""scale25"":3,""scale28"":3,""scale1"":0,""scale14"":1,""scale19"":2,""scale8"":3,""scale3"":3,""scale15"":0,""scale13"":1,""scale20"":3,""scale16"":2,""scale17"":1,""scale5"":3,""scale22"":3,""scale9"":3,""scale23"":3}","[5,25,17,26,11,1,3,23,10,9,20,6,24,27,0,13,18,7,2,14,12,19,15,16,4,21,8,22]"
"","","","","","html-button-response","142","361730","0.0-15.0","159","1","2022-11-28 06:14:08","7b1eb8be57ff77859c7d9ac988e43411","183.252.232.151","Mozilla/5.0 (Linux; Android 12; RMX2117 Build/SP1A.210812.016; wv) AppleWebKit/537.36 (KHTML, like Gecko) Version/4.0 Chrome/86.0.4240.99 XWEB/4343 MMWEBSDK/20220805 Mobile Safari/537.36 MMWEBID/6408 MicroMessenger/8.0.27.2220(0x28001B59) WeChat/arm64 Weixin NetType/WIFI Language/zh_CN ABI/arm64","WebKit","Chrome","86.0.4240.99","AndroidOS","12","1236","<p><strong>请判断你在多大程度上同意下列陈述。</strong></p>","0",""
"","","","","","survey-likert","143","435562","0.0-16.0","159","1","2022-11-28 06:14:08","7b1eb8be57ff77859c7d9ac988e43411","183.252.232.151","Mozilla/5.0 (Linux; Android 12; RMX2117 Build/SP1A.210812.016; wv) AppleWebKit/537.36 (KHTML, like Gecko) Version/4.0 Chrome/86.0.4240.99 XWEB/4343 MMWEBSDK/20220805 Mobile Safari/537.36 MMWEBID/6408 MicroMessenger/8.0.27.2220(0x28001B59) WeChat/arm64 Weixin NetType/WIFI Language/zh_CN ABI/arm64","WebKit","Chrome","86.0.4240.99","AndroidOS","12","73805","","{""sdo3"":5,""sdo16"":4,""sdo13"":5,""sdo6"":3,""sdo10"":5,""sdo9"":3,""sdo5"":4,""sdo12"":4,""sdo2"":0,""sdo11"":5,""sdo14"":3,""sdo7"":1,""sdo8"":0,""sdo4"":0,""sdo1"":3,""sdo15"":4}","[2,15,12,5,9,8,4,11,1,10,13,6,7,3,0,14]"
"","","","","","html-button-response","144","436627","0.0-17.0","159","1","2022-11-28 06:14:08","7b1eb8be57ff77859c7d9ac988e43411","183.252.232.151","Mozilla/5.0 (Linux; Android 12; RMX2117 Build/SP1A.210812.016; wv) AppleWebKit/537.36 (KHTML, like Gecko) Version/4.0 Chrome/86.0.4240.99 XWEB/4343 MMWEBSDK/20220805 Mobile Safari/537.36 MMWEBID/6408 MicroMessenger/8.0.27.2220(0x28001B59) WeChat/arm64 Weixin NetType/WIFI Language/zh_CN ABI/arm64","WebKit","Chrome","86.0.4240.99","AndroidOS","12","1050","<p><strong>请判断你在多大程度上同意下列陈述。</strong></p>","0",""
"","","","","","survey-likert","145","476616","0.0-18.0","159","1","2022-11-28 06:14:08","7b1eb8be57ff77859c7d9ac988e43411","183.252.232.151","Mozilla/5.0 (Linux; Android 12; RMX2117 Build/SP1A.210812.016; wv) AppleWebKit/537.36 (KHTML, like Gecko) Version/4.0 Chrome/86.0.4240.99 XWEB/4343 MMWEBSDK/20220805 Mobile Safari/537.36 MMWEBID/6408 MicroMessenger/8.0.27.2220(0x28001B59) WeChat/arm64 Weixin NetType/WIFI Language/zh_CN ABI/arm64","WebKit","Chrome","86.0.4240.99","AndroidOS","12","39958","","{""caring1"":3,""liking1"":1,""caring2"":3,""protection1"":2,""liking2"":0,""caring3"":3,""protection2"":2,""liking3"":1,""protection3"":3,""caring4"":3,""liking4"":1,""protection4"":2,""caring5"":3,""liking5"":1,""protection5"":2}","[0,1,2,3,4,5,6,7,8,9,10,11,12,13,14]"
"","","","","","html-button-response","146","477772","0.0-19.0","159","1","2022-11-28 06:14:08","7b1eb8be57ff77859c7d9ac988e43411","183.252.232.151","Mozilla/5.0 (Linux; Android 12; RMX2117 Build/SP1A.210812.016; wv) AppleWebKit/537.36 (KHTML, like Gecko) Version/4.0 Chrome/86.0.4240.99 XWEB/4343 MMWEBSDK/20220805 Mobile Safari/537.36 MMWEBID/6408 MicroMessenger/8.0.27.2220(0x28001B59) WeChat/arm64 Weixin NetType/WIFI Language/zh_CN ABI/arm64","WebKit","Chrome","86.0.4240.99","AndroidOS","12","1142","<p><strong>请判断下列场景中你的内心感受有多柔软。</strong></p>","0",""
"","","","","","survey-likert","147","513204","0.0-20.0","159","1","2022-11-28 06:14:08","7b1eb8be57ff77859c7d9ac988e43411","183.252.232.151","Mozilla/5.0 (Linux; Android 12; RMX2117 Build/SP1A.210812.016; wv) AppleWebKit/537.36 (KHTML, like Gecko) Version/4.0 Chrome/86.0.4240.99 XWEB/4343 MMWEBSDK/20220805 Mobile Safari/537.36 MMWEBID/6408 MicroMessenger/8.0.27.2220(0x28001B59) WeChat/arm64 Weixin NetType/WIFI Language/zh_CN ABI/arm64","WebKit","Chrome","86.0.4240.99","AndroidOS","12","35402","","{""tenderness-positive1"":3,""tenderness-negative1"":3,""tenderness-negative2"":2,""tenderness-positive2"":3,""tenderness-positive3"":3,""tenderness-negative3"":2,""tenderness-positive4"":4,""tenderness-negative4"":3,""tenderness-negative5"":2,""tenderness-positive5"":1}","[0,1,2,3,4,5,6,7,8,9]"
"","","","","","survey-multi-choice","148","519168","0.0-21.0","159","1","2022-11-28 06:14:08","7b1eb8be57ff77859c7d9ac988e43411","183.252.232.151","Mozilla/5.0 (Linux; Android 12; RMX2117 Build/SP1A.210812.016; wv) AppleWebKit/537.36 (KHTML, like Gecko) Version/4.0 Chrome/86.0.4240.99 XWEB/4343 MMWEBSDK/20220805 Mobile Safari/537.36 MMWEBID/6408 MicroMessenger/8.0.27.2220(0x28001B59) WeChat/arm64 Weixin NetType/WIFI Language/zh_CN ABI/arm64","WebKit","Chrome","86.0.4240.99","AndroidOS","12","5928","","{""Attention2"":""其他""}","[0]"
"","","","","","html-button-response","149","520269","0.0-22.0","159","1","2022-11-28 06:14:08","7b1eb8be57ff77859c7d9ac988e43411","183.252.232.151","Mozilla/5.0 (Linux; Android 12; RMX2117 Build/SP1A.210812.016; wv) AppleWebKit/537.36 (KHTML, like Gecko) Version/4.0 Chrome/86.0.4240.99 XWEB/4343 MMWEBSDK/20220805 Mobile Safari/537.36 MMWEBID/6408 MicroMessenger/8.0.27.2220(0x28001B59) WeChat/arm64 Weixin NetType/WIFI Language/zh_CN ABI/arm64","WebKit","Chrome","86.0.4240.99","AndroidOS","12","1069","<p><strong>请判断你在多大程度上同意下列陈述。</strong></p>","0",""
"","","","","","survey-likert","150","609749","0.0-23.0","159","1","2022-11-28 06:14:08","7b1eb8be57ff77859c7d9ac988e43411","183.252.232.151","Mozilla/5.0 (Linux; Android 12; RMX2117 Build/SP1A.210812.016; wv) AppleWebKit/537.36 (KHTML, like Gecko) Version/4.0 Chrome/86.0.4240.99 XWEB/4343 MMWEBSDK/20220805 Mobile Safari/537.36 MMWEBID/6408 MicroMessenger/8.0.27.2220(0x28001B59) WeChat/arm64 Weixin NetType/WIFI Language/zh_CN ABI/arm64","WebKit","Chrome","86.0.4240.99","AndroidOS","12","89443","","{""Nation1"":1,""Patri9"":0,""Nation3"":1,""Patri1"":4,""Nation7"":4,""Patri10"":0,""Patri11"":0,""Patri7"":4,""Patri5"":4,""Patri3"":2,""Nation5"":3,""Patri6"":1,""Nation8"":2,""Nation4"":3,""Nation6"":3,""Patri2"":4,""Patri12"":0,""Patri8"":4,""Patri4"":4,""Nation2"":4}","[12,8,14,0,18,9,10,6,4,2,16,5,19,15,17,1,11,7,3,13]"
"","","","","","html-button-response","151","610946","0.0-24.0","159","1","2022-11-28 06:14:08","7b1eb8be57ff77859c7d9ac988e43411","183.252.232.151","Mozilla/5.0 (Linux; Android 12; RMX2117 Build/SP1A.210812.016; wv) AppleWebKit/537.36 (KHTML, like Gecko) Version/4.0 Chrome/86.0.4240.99 XWEB/4343 MMWEBSDK/20220805 Mobile Safari/537.36 MMWEBID/6408 MicroMessenger/8.0.27.2220(0x28001B59) WeChat/arm64 Weixin NetType/WIFI Language/zh_CN ABI/arm64","WebKit","Chrome","86.0.4240.99","AndroidOS","12","1184","<p><strong>请判断你在多大程度上同意下列陈述。</strong></p>","0",""
"","","","","","survey-likert","152","663846","0.0-25.0","159","1","2022-11-28 06:14:08","7b1eb8be57ff77859c7d9ac988e43411","183.252.232.151","Mozilla/5.0 (Linux; Android 12; RMX2117 Build/SP1A.210812.016; wv) AppleWebKit/537.36 (KHTML, like Gecko) Version/4.0 Chrome/86.0.4240.99 XWEB/4343 MMWEBSDK/20220805 Mobile Safari/537.36 MMWEBID/6408 MicroMessenger/8.0.27.2220(0x28001B59) WeChat/arm64 Weixin NetType/WIFI Language/zh_CN ABI/arm64","WebKit","Chrome","86.0.4240.99","AndroidOS","12","52856","","{""hc1"":7,""vi1"":5,""hi3"":1,""hi2"":5,""hc4"":7,""vc4"":7,""hi4"":7,""vi4"":4,""hc2"":7,""vi3"":7,""vc1"":5,""vc2"":4,""hc3"":7,""vc3"":2,""vi2"":6,""hi1"":7,""Robot"":6}","[9,4,2,1,12,16,3,8,10,6,13,14,11,15,5,0,7]"
