"success","timeout","failed_images","failed_audio","failed_video","trial_type","trial_index","time_elapsed","internal_node_id","run_id","condition","recorded_at","source_code_version","ip","user_agent","device","browser","browser_version","platform","platform_version","rt","stimulus","response","question_order"
"true","false","[]","[]","[]","preload","0","1707","0.0-0.0","160","1","2022-11-28 06:15:59","7b1eb8be57ff77859c7d9ac988e43411","124.236.97.153","Mozilla/5.0 (Windows NT 10.0; Win64; x64) AppleWebKit/537.36 (KHTML, like Gecko) Chrome/92.0.4515.131 Safari/537.36 Edg/92.0.902.67","WebKit","Edge","92.0.902.67","Windows","10.0","","","",""
"true","","","","","fullscreen","1","14570","0.0-1.0","160","1","2022-11-28 06:15:59","7b1eb8be57ff77859c7d9ac988e43411","124.236.97.153","Mozilla/5.0 (Windows NT 10.0; Win64; x64) AppleWebKit/537.36 (KHTML, like Gecko) Chrome/92.0.4515.131 Safari/537.36 Edg/92.0.902.67","WebKit","Edge","92.0.902.67","Windows","10.0","","","",""
"","","","","","html-button-response","2","27090","0.0-2.0","160","1","2022-11-28 06:15:59","7b1eb8be57ff77859c7d9ac988e43411","124.236.97.153","Mozilla/5.0 (Windows NT 10.0; Win64; x64) AppleWebKit/537.36 (KHTML, like Gecko) Chrome/92.0.4515.131 Safari/537.36 Edg/92.0.902.67","WebKit","Edge","92.0.902.67","Windows","10.0","12518","<p style=""font-size:20px;font-weight:bold;"">实验知情同意书</p><p style=""text-align:left;""><strong>实验名称：</strong>社会冲突研究</p><p style=""text-align:left;""><strong>主要研究者：</strong>韩晓春副教授（北京师范大学心理学部）</p><p style=""text-align:left;""><strong>联系方式：</strong>发送邮件至xiaochun.han@bnu.edu.cn</p><p style=""text-align:left;""><strong>研究目的：</strong>研究旨在了解人类面对群体冲突时的决策方式，以及相关的心理学特质。实验调查大约需要20分钟。</p><p style=""text-align:left;""><strong>实验流程：</strong>实验包含两部分。第一部分呈现一系列群体冲突场景，请你决定如何对这些冲突进行反应，大约需要10分钟完成。第二部分包含一系列人口统计学信息收集和心理学问卷，大约需要10分钟完成。</p><p style=""text-align:left;""><strong>参加及退出规则：</strong>参加本实验完全取决于您的个人意愿。在参与过程中，您可以随时退出，并且不用承担任何后果。</p><p style=""text-align:left;""><strong>隐私：</strong>本实验完全匿名进行，不会收集您的姓名或其他能够识别您身份的信息。实验中收集的作答仅用作科学研究使用，可能会在学术期刊/书籍上发表，或者用于教学，您的数据未来可能会和其他研究者或实验室分享，但您的个人身份不会被识别。</p><p style=""text-align:left;""><strong>实验报酬：</strong>实验完成后，您将获得15元人民币报酬，以感谢您的时间和努力。调查问卷中包含几道题目用以测验您作答时的认真度。只有完成全部实验，并且正确回答认真度测验的被试才能获得实验报酬。实验报酬将通过支付宝转账发放。</p><p style=""text-align:left;font-size:20px;""><strong>如果您同意以上实验知情同意书的内容，请点击'同意并且开始实验'按钮；否则请关闭浏览器界面，退出实验。</strong></p>","0",""
"","","","","","html-button-response","3","30090","0.0-3.0","160","1","2022-11-28 06:15:59","7b1eb8be57ff77859c7d9ac988e43411","124.236.97.153","Mozilla/5.0 (Windows NT 10.0; Win64; x64) AppleWebKit/537.36 (KHTML, like Gecko) Chrome/92.0.4515.131 Safari/537.36 Edg/92.0.902.67","WebKit","Edge","92.0.902.67","Windows","10.0","2997","<p ><strong>实验任务一：</strong></p><p>请想象你的国家与另一个国家发生了军事冲突。</p><p>你是国家军队的指挥官，你将如何在冲突中进行决策。</p><p>具体来说，作为军队指挥官，请你决定是否发射导弹进行打击。</p><p>接下来，你会面对一系列场景，请仔细阅读每个场景，然后进行决策。</p><p>这部分实验任务大约需要10分钟。</p><p><strong>实验过程中，请集中注意力。</strong></p>","0",""
"","","","","","html-keyboard-response","4","31097","0.0-4.0-0.0","160","1","2022-11-28 06:15:59","7b1eb8be57ff77859c7d9ac988e43411","124.236.97.153","Mozilla/5.0 (Windows NT 10.0; Win64; x64) AppleWebKit/537.36 (KHTML, like Gecko) Chrome/92.0.4515.131 Safari/537.36 Edg/92.0.902.67","WebKit","Edge","92.0.902.67","Windows","10.0","null","<div style=""font-size:60px;"">+</div>","null",""
"","","","","","html-button-response","5","32850","0.0-4.0-1.0","160","1","2022-11-28 06:15:59","7b1eb8be57ff77859c7d9ac988e43411","124.236.97.153","Mozilla/5.0 (Windows NT 10.0; Win64; x64) AppleWebKit/537.36 (KHTML, like Gecko) Chrome/92.0.4515.131 Safari/537.36 Edg/92.0.902.67","WebKit","Edge","92.0.902.67","Windows","10.0","1751","<p>作为军队的指挥官，你可以选择发射导弹杀死 <strong>3名</strong> 敌国士兵，但会炸毁附近的 <strong>1棵</strong> 敌国树木。</p> <p>树木的照片如下图所示。</p> <p></p> <img src='stimuli/trees/15.png', style='max-width: 30%;'> </img> <p><strong>你是否选择发射武器？</strong></p>","0",""
"","","","","","html-keyboard-response","6","33856","0.0-4.0-0.1","160","1","2022-11-28 06:15:59","7b1eb8be57ff77859c7d9ac988e43411","124.236.97.153","Mozilla/5.0 (Windows NT 10.0; Win64; x64) AppleWebKit/537.36 (KHTML, like Gecko) Chrome/92.0.4515.131 Safari/537.36 Edg/92.0.902.67","WebKit","Edge","92.0.902.67","Windows","10.0","null","<div style=""font-size:60px;"">+</div>","null",""
"","","","","","html-button-response","7","35498","0.0-4.0-1.1","160","1","2022-11-28 06:15:59","7b1eb8be57ff77859c7d9ac988e43411","124.236.97.153","Mozilla/5.0 (Windows NT 10.0; Win64; x64) AppleWebKit/537.36 (KHTML, like Gecko) Chrome/92.0.4515.131 Safari/537.36 Edg/92.0.902.67","WebKit","Edge","92.0.902.67","Windows","10.0","1640","<p>作为军队的指挥官，你可以选择发射导弹杀死 <strong>2名</strong> 敌国士兵，但会误杀附近的 <strong>1名</strong> 敌国平民。</p> <p>平民照片如下图所示。</p> <p></p> <img src='stimuli/faces/PCF3.jpg', style='max-width: 30%;'> </img> <p><strong>你是否选择发射武器？</strong></p>","1",""
"","","","","","html-keyboard-response","8","36506","0.0-4.0-0.2","160","1","2022-11-28 06:15:59","7b1eb8be57ff77859c7d9ac988e43411","124.236.97.153","Mozilla/5.0 (Windows NT 10.0; Win64; x64) AppleWebKit/537.36 (KHTML, like Gecko) Chrome/92.0.4515.131 Safari/537.36 Edg/92.0.902.67","WebKit","Edge","92.0.902.67","Windows","10.0","null","<div style=""font-size:60px;"">+</div>","null",""
"","","","","","html-button-response","9","37514","0.0-4.0-1.2","160","1","2022-11-28 06:15:59","7b1eb8be57ff77859c7d9ac988e43411","124.236.97.153","Mozilla/5.0 (Windows NT 10.0; Win64; x64) AppleWebKit/537.36 (KHTML, like Gecko) Chrome/92.0.4515.131 Safari/537.36 Edg/92.0.902.67","WebKit","Edge","92.0.902.67","Windows","10.0","1006","<p>作为军队的指挥官，你可以选择发射导弹杀死 <strong>5名</strong> 敌国士兵，但会炸毁附近的 <strong>1棵</strong> 敌国树木。</p> <p>树木的照片如下图所示。</p> <p></p> <img src='stimuli/trees/11.png', style='max-width: 30%;'> </img> <p><strong>你是否选择发射武器？</strong></p>","1",""
"","","","","","html-keyboard-response","10","38524","0.0-4.0-0.3","160","1","2022-11-28 06:15:59","7b1eb8be57ff77859c7d9ac988e43411","124.236.97.153","Mozilla/5.0 (Windows NT 10.0; Win64; x64) AppleWebKit/537.36 (KHTML, like Gecko) Chrome/92.0.4515.131 Safari/537.36 Edg/92.0.902.67","WebKit","Edge","92.0.902.67","Windows","10.0","null","<div style=""font-size:60px;"">+</div>","null",""
"","","","","","html-button-response","11","39626","0.0-4.0-1.3","160","1","2022-11-28 06:15:59","7b1eb8be57ff77859c7d9ac988e43411","124.236.97.153","Mozilla/5.0 (Windows NT 10.0; Win64; x64) AppleWebKit/537.36 (KHTML, like Gecko) Chrome/92.0.4515.131 Safari/537.36 Edg/92.0.902.67","WebKit","Edge","92.0.902.67","Windows","10.0","1100","<p>作为军队的指挥官，你可以选择发射导弹杀死 <strong>10名</strong> 敌国士兵，但会炸毁附近的 <strong>1棵</strong> 敌国树木。</p> <p>树木的照片如下图所示。</p> <p></p> <img src='stimuli/trees/7.png', style='max-width: 30%;'> </img> <p><strong>你是否选择发射武器？</strong></p>","0",""
"","","","","","html-keyboard-response","12","40628","0.0-4.0-0.4","160","1","2022-11-28 06:15:59","7b1eb8be57ff77859c7d9ac988e43411","124.236.97.153","Mozilla/5.0 (Windows NT 10.0; Win64; x64) AppleWebKit/537.36 (KHTML, like Gecko) Chrome/92.0.4515.131 Safari/537.36 Edg/92.0.902.67","WebKit","Edge","92.0.902.67","Windows","10.0","null","<div style=""font-size:60px;"">+</div>","null",""
"","","","","","html-button-response","13","41634","0.0-4.0-1.4","160","1","2022-11-28 06:15:59","7b1eb8be57ff77859c7d9ac988e43411","124.236.97.153","Mozilla/5.0 (Windows NT 10.0; Win64; x64) AppleWebKit/537.36 (KHTML, like Gecko) Chrome/92.0.4515.131 Safari/537.36 Edg/92.0.902.67","WebKit","Edge","92.0.902.67","Windows","10.0","1004","<p>作为军队的指挥官，你可以选择发射导弹杀死 <strong>10名</strong> 敌国士兵，但会炸毁附近的 <strong>1棵</strong> 敌国树木。</p> <p>树木的照片如下图所示。</p> <p></p> <img src='stimuli/trees/14.png', style='max-width: 30%;'> </img> <p><strong>你是否选择发射武器？</strong></p>","0",""
"","","","","","html-keyboard-response","14","42642","0.0-4.0-0.5","160","1","2022-11-28 06:15:59","7b1eb8be57ff77859c7d9ac988e43411","124.236.97.153","Mozilla/5.0 (Windows NT 10.0; Win64; x64) AppleWebKit/537.36 (KHTML, like Gecko) Chrome/92.0.4515.131 Safari/537.36 Edg/92.0.902.67","WebKit","Edge","92.0.902.67","Windows","10.0","null","<div style=""font-size:60px;"">+</div>","null",""
"","","","","","html-button-response","15","43586","0.0-4.0-1.5","160","1","2022-11-28 06:15:59","7b1eb8be57ff77859c7d9ac988e43411","124.236.97.153","Mozilla/5.0 (Windows NT 10.0; Win64; x64) AppleWebKit/537.36 (KHTML, like Gecko) Chrome/92.0.4515.131 Safari/537.36 Edg/92.0.902.67","WebKit","Edge","92.0.902.67","Windows","10.0","941","<p>作为军队的指挥官，你可以选择发射导弹杀死 <strong>5名</strong> 敌国士兵，但会炸毁附近的 <strong>1棵</strong> 敌国树木。</p> <p>树木的照片如下图所示。</p> <p></p> <img src='stimuli/trees/2.png', style='max-width: 30%;'> </img> <p><strong>你是否选择发射武器？</strong></p>","0",""
"","","","","","html-keyboard-response","16","44589","0.0-4.0-0.6","160","1","2022-11-28 06:15:59","7b1eb8be57ff77859c7d9ac988e43411","124.236.97.153","Mozilla/5.0 (Windows NT 10.0; Win64; x64) AppleWebKit/537.36 (KHTML, like Gecko) Chrome/92.0.4515.131 Safari/537.36 Edg/92.0.902.67","WebKit","Edge","92.0.902.67","Windows","10.0","null","<div style=""font-size:60px;"">+</div>","null",""
"","","","","","html-button-response","17","49882","0.0-4.0-1.6","160","1","2022-11-28 06:15:59","7b1eb8be57ff77859c7d9ac988e43411","124.236.97.153","Mozilla/5.0 (Windows NT 10.0; Win64; x64) AppleWebKit/537.36 (KHTML, like Gecko) Chrome/92.0.4515.131 Safari/537.36 Edg/92.0.902.67","WebKit","Edge","92.0.902.67","Windows","10.0","5291","<p>作为军队的指挥官，你可以选择发射导弹杀死 <strong>10名</strong> 敌国士兵，但会误杀附近的 <strong>1名</strong> 敌国平民。</p> <p>平民照片如下图所示。</p> <p></p> <img src='stimuli/faces/PCM3.jpg', style='max-width: 30%;'> </img> <p><strong>你是否选择发射武器？</strong></p>","1",""
"","","","","","html-keyboard-response","18","50901","0.0-4.0-0.7","160","1","2022-11-28 06:15:59","7b1eb8be57ff77859c7d9ac988e43411","124.236.97.153","Mozilla/5.0 (Windows NT 10.0; Win64; x64) AppleWebKit/537.36 (KHTML, like Gecko) Chrome/92.0.4515.131 Safari/537.36 Edg/92.0.902.67","WebKit","Edge","92.0.902.67","Windows","10.0","null","<div style=""font-size:60px;"">+</div>","null",""
"","","","","","html-button-response","19","52202","0.0-4.0-1.7","160","1","2022-11-28 06:15:59","7b1eb8be57ff77859c7d9ac988e43411","124.236.97.153","Mozilla/5.0 (Windows NT 10.0; Win64; x64) AppleWebKit/537.36 (KHTML, like Gecko) Chrome/92.0.4515.131 Safari/537.36 Edg/92.0.902.67","WebKit","Edge","92.0.902.67","Windows","10.0","1298","<p>作为军队的指挥官，你可以选择发射导弹杀死 <strong>1名</strong> 敌国士兵，但会误杀附近的 <strong>1名</strong> 敌国平民。</p> <p>平民照片如下图所示。</p> <p></p> <img src='stimuli/faces/PCF8.jpg', style='max-width: 30%;'> </img> <p><strong>你是否选择发射武器？</strong></p>","1",""
"","","","","","html-keyboard-response","20","53211","0.0-4.0-0.8","160","1","2022-11-28 06:15:59","7b1eb8be57ff77859c7d9ac988e43411","124.236.97.153","Mozilla/5.0 (Windows NT 10.0; Win64; x64) AppleWebKit/537.36 (KHTML, like Gecko) Chrome/92.0.4515.131 Safari/537.36 Edg/92.0.902.67","WebKit","Edge","92.0.902.67","Windows","10.0","null","<div style=""font-size:60px;"">+</div>","null",""
"","","","","","html-button-response","21","54210","0.0-4.0-1.8","160","1","2022-11-28 06:15:59","7b1eb8be57ff77859c7d9ac988e43411","124.236.97.153","Mozilla/5.0 (Windows NT 10.0; Win64; x64) AppleWebKit/537.36 (KHTML, like Gecko) Chrome/92.0.4515.131 Safari/537.36 Edg/92.0.902.67","WebKit","Edge","92.0.902.67","Windows","10.0","996","<p>作为军队的指挥官，你可以选择发射导弹杀死 <strong>8名</strong> 敌国士兵，但会误杀附近的 <strong>1名</strong> 敌国平民。</p> <p>平民照片如下图所示。</p> <p></p> <img src='stimuli/faces/PCM7.jpg', style='max-width: 30%;'> </img> <p><strong>你是否选择发射武器？</strong></p>","1",""
"","","","","","html-keyboard-response","22","55217","0.0-4.0-0.9","160","1","2022-11-28 06:15:59","7b1eb8be57ff77859c7d9ac988e43411","124.236.97.153","Mozilla/5.0 (Windows NT 10.0; Win64; x64) AppleWebKit/537.36 (KHTML, like Gecko) Chrome/92.0.4515.131 Safari/537.36 Edg/92.0.902.67","WebKit","Edge","92.0.902.67","Windows","10.0","null","<div style=""font-size:60px;"">+</div>","null",""
"","","","","","html-button-response","23","56530","0.0-4.0-1.9","160","1","2022-11-28 06:15:59","7b1eb8be57ff77859c7d9ac988e43411","124.236.97.153","Mozilla/5.0 (Windows NT 10.0; Win64; x64) AppleWebKit/537.36 (KHTML, like Gecko) Chrome/92.0.4515.131 Safari/537.36 Edg/92.0.902.67","WebKit","Edge","92.0.902.67","Windows","10.0","1310","<p>作为军队的指挥官，你可以选择发射导弹杀死 <strong>9名</strong> 敌国士兵，但会炸毁附近的 <strong>1棵</strong> 敌国树木。</p> <p>树木的照片如下图所示。</p> <p></p> <img src='stimuli/trees/10.png', style='max-width: 30%;'> </img> <p><strong>你是否选择发射武器？</strong></p>","0",""
"","","","","","html-keyboard-response","24","57539","0.0-4.0-0.10","160","1","2022-11-28 06:15:59","7b1eb8be57ff77859c7d9ac988e43411","124.236.97.153","Mozilla/5.0 (Windows NT 10.0; Win64; x64) AppleWebKit/537.36 (KHTML, like Gecko) Chrome/92.0.4515.131 Safari/537.36 Edg/92.0.902.67","WebKit","Edge","92.0.902.67","Windows","10.0","null","<div style=""font-size:60px;"">+</div>","null",""
"","","","","","html-button-response","25","58602","0.0-4.0-1.10","160","1","2022-11-28 06:15:59","7b1eb8be57ff77859c7d9ac988e43411","124.236.97.153","Mozilla/5.0 (Windows NT 10.0; Win64; x64) AppleWebKit/537.36 (KHTML, like Gecko) Chrome/92.0.4515.131 Safari/537.36 Edg/92.0.902.67","WebKit","Edge","92.0.902.67","Windows","10.0","1061","<p>作为军队的指挥官，你可以选择发射导弹杀死 <strong>7名</strong> 敌国士兵，但会误杀附近的 <strong>1名</strong> 敌国平民。</p> <p>平民照片如下图所示。</p> <p></p> <img src='stimuli/faces/PCM6.jpg', style='max-width: 30%;'> </img> <p><strong>你是否选择发射武器？</strong></p>","1",""
"","","","","","html-keyboard-response","26","59617","0.0-4.0-0.11","160","1","2022-11-28 06:15:59","7b1eb8be57ff77859c7d9ac988e43411","124.236.97.153","Mozilla/5.0 (Windows NT 10.0; Win64; x64) AppleWebKit/537.36 (KHTML, like Gecko) Chrome/92.0.4515.131 Safari/537.36 Edg/92.0.902.67","WebKit","Edge","92.0.902.67","Windows","10.0","null","<div style=""font-size:60px;"">+</div>","null",""
"","","","","","html-button-response","27","60490","0.0-4.0-1.11","160","1","2022-11-28 06:15:59","7b1eb8be57ff77859c7d9ac988e43411","124.236.97.153","Mozilla/5.0 (Windows NT 10.0; Win64; x64) AppleWebKit/537.36 (KHTML, like Gecko) Chrome/92.0.4515.131 Safari/537.36 Edg/92.0.902.67","WebKit","Edge","92.0.902.67","Windows","10.0","871","<p>作为军队的指挥官，你可以选择发射导弹杀死 <strong>8名</strong> 敌国士兵，但会炸毁附近的 <strong>1棵</strong> 敌国树木。</p> <p>树木的照片如下图所示。</p> <p></p> <img src='stimuli/trees/13.png', style='max-width: 30%;'> </img> <p><strong>你是否选择发射武器？</strong></p>","0",""
"","","","","","html-keyboard-response","28","61496","0.0-4.0-0.12","160","1","2022-11-28 06:15:59","7b1eb8be57ff77859c7d9ac988e43411","124.236.97.153","Mozilla/5.0 (Windows NT 10.0; Win64; x64) AppleWebKit/537.36 (KHTML, like Gecko) Chrome/92.0.4515.131 Safari/537.36 Edg/92.0.902.67","WebKit","Edge","92.0.902.67","Windows","10.0","null","<div style=""font-size:60px;"">+</div>","null",""
"","","","","","html-button-response","29","63586","0.0-4.0-1.12","160","1","2022-11-28 06:15:59","7b1eb8be57ff77859c7d9ac988e43411","124.236.97.153","Mozilla/5.0 (Windows NT 10.0; Win64; x64) AppleWebKit/537.36 (KHTML, like Gecko) Chrome/92.0.4515.131 Safari/537.36 Edg/92.0.902.67","WebKit","Edge","92.0.902.67","Windows","10.0","2087","<p>作为军队的指挥官，你可以选择发射导弹杀死 <strong>4名</strong> 敌国士兵，但会误杀附近的 <strong>1名</strong> 敌国平民。</p> <p>平民照片如下图所示。</p> <p></p> <img src='stimuli/faces/PCF4.jpg', style='max-width: 30%;'> </img> <p><strong>你是否选择发射武器？</strong></p>","1",""
"","","","","","html-keyboard-response","30","64596","0.0-4.0-0.13","160","1","2022-11-28 06:15:59","7b1eb8be57ff77859c7d9ac988e43411","124.236.97.153","Mozilla/5.0 (Windows NT 10.0; Win64; x64) AppleWebKit/537.36 (KHTML, like Gecko) Chrome/92.0.4515.131 Safari/537.36 Edg/92.0.902.67","WebKit","Edge","92.0.902.67","Windows","10.0","null","<div style=""font-size:60px;"">+</div>","null",""
"","","","","","html-button-response","31","68578","0.0-4.0-1.13","160","1","2022-11-28 06:15:59","7b1eb8be57ff77859c7d9ac988e43411","124.236.97.153","Mozilla/5.0 (Windows NT 10.0; Win64; x64) AppleWebKit/537.36 (KHTML, like Gecko) Chrome/92.0.4515.131 Safari/537.36 Edg/92.0.902.67","WebKit","Edge","92.0.902.67","Windows","10.0","3979","<p>作为军队的指挥官，你可以选择发射导弹杀死 <strong>1名</strong> 敌国士兵，但会炸毁附近的 <strong>1棵</strong> 敌国树木。</p> <p>树木的照片如下图所示。</p> <p></p> <img src='stimuli/trees/6.png', style='max-width: 30%;'> </img> <p><strong>你是否选择发射武器？</strong></p>","0",""
"","","","","","html-keyboard-response","32","69584","0.0-4.0-0.14","160","1","2022-11-28 06:15:59","7b1eb8be57ff77859c7d9ac988e43411","124.236.97.153","Mozilla/5.0 (Windows NT 10.0; Win64; x64) AppleWebKit/537.36 (KHTML, like Gecko) Chrome/92.0.4515.131 Safari/537.36 Edg/92.0.902.67","WebKit","Edge","92.0.902.67","Windows","10.0","null","<div style=""font-size:60px;"">+</div>","null",""
"","","","","","html-button-response","33","71074","0.0-4.0-1.14","160","1","2022-11-28 06:15:59","7b1eb8be57ff77859c7d9ac988e43411","124.236.97.153","Mozilla/5.0 (Windows NT 10.0; Win64; x64) AppleWebKit/537.36 (KHTML, like Gecko) Chrome/92.0.4515.131 Safari/537.36 Edg/92.0.902.67","WebKit","Edge","92.0.902.67","Windows","10.0","1486","<p>作为军队的指挥官，你可以选择发射导弹杀死 <strong>10名</strong> 敌国士兵，但会炸毁附近的 <strong>1棵</strong> 敌国树木。</p> <p>树木的照片如下图所示。</p> <p></p> <img src='stimuli/trees/5.png', style='max-width: 30%;'> </img> <p><strong>你是否选择发射武器？</strong></p>","0",""
"","","","","","html-keyboard-response","34","72083","0.0-4.0-0.15","160","1","2022-11-28 06:15:59","7b1eb8be57ff77859c7d9ac988e43411","124.236.97.153","Mozilla/5.0 (Windows NT 10.0; Win64; x64) AppleWebKit/537.36 (KHTML, like Gecko) Chrome/92.0.4515.131 Safari/537.36 Edg/92.0.902.67","WebKit","Edge","92.0.902.67","Windows","10.0","null","<div style=""font-size:60px;"">+</div>","null",""
"","","","","","html-button-response","35","74586","0.0-4.0-1.15","160","1","2022-11-28 06:15:59","7b1eb8be57ff77859c7d9ac988e43411","124.236.97.153","Mozilla/5.0 (Windows NT 10.0; Win64; x64) AppleWebKit/537.36 (KHTML, like Gecko) Chrome/92.0.4515.131 Safari/537.36 Edg/92.0.902.67","WebKit","Edge","92.0.902.67","Windows","10.0","2501","<p>作为军队的指挥官，你可以选择发射导弹杀死 <strong>8名</strong> 敌国士兵，但会误杀附近的 <strong>1名</strong> 敌国平民。</p> <p>平民照片如下图所示。</p> <p></p> <img src='stimuli/faces/PCM1.jpg', style='max-width: 30%;'> </img> <p><strong>你是否选择发射武器？</strong></p>","1",""
"","","","","","html-keyboard-response","36","75598","0.0-4.0-0.16","160","1","2022-11-28 06:15:59","7b1eb8be57ff77859c7d9ac988e43411","124.236.97.153","Mozilla/5.0 (Windows NT 10.0; Win64; x64) AppleWebKit/537.36 (KHTML, like Gecko) Chrome/92.0.4515.131 Safari/537.36 Edg/92.0.902.67","WebKit","Edge","92.0.902.67","Windows","10.0","null","<div style=""font-size:60px;"">+</div>","null",""
"","","","","","html-button-response","37","77138","0.0-4.0-1.16","160","1","2022-11-28 06:15:59","7b1eb8be57ff77859c7d9ac988e43411","124.236.97.153","Mozilla/5.0 (Windows NT 10.0; Win64; x64) AppleWebKit/537.36 (KHTML, like Gecko) Chrome/92.0.4515.131 Safari/537.36 Edg/92.0.902.67","WebKit","Edge","92.0.902.67","Windows","10.0","1536","<p>作为军队的指挥官，你可以选择发射导弹杀死 <strong>1名</strong> 敌国士兵，但会误杀附近的 <strong>1名</strong> 敌国平民。</p> <p>平民照片如下图所示。</p> <p></p> <img src='stimuli/faces/PCM7.jpg', style='max-width: 30%;'> </img> <p><strong>你是否选择发射武器？</strong></p>","1",""
"","","","","","html-keyboard-response","38","78144","0.0-4.0-0.17","160","1","2022-11-28 06:15:59","7b1eb8be57ff77859c7d9ac988e43411","124.236.97.153","Mozilla/5.0 (Windows NT 10.0; Win64; x64) AppleWebKit/537.36 (KHTML, like Gecko) Chrome/92.0.4515.131 Safari/537.36 Edg/92.0.902.67","WebKit","Edge","92.0.902.67","Windows","10.0","null","<div style=""font-size:60px;"">+</div>","null",""
"","","","","","html-button-response","39","79426","0.0-4.0-1.17","160","1","2022-11-28 06:15:59","7b1eb8be57ff77859c7d9ac988e43411","124.236.97.153","Mozilla/5.0 (Windows NT 10.0; Win64; x64) AppleWebKit/537.36 (KHTML, like Gecko) Chrome/92.0.4515.131 Safari/537.36 Edg/92.0.902.67","WebKit","Edge","92.0.902.67","Windows","10.0","1279","<p>作为军队的指挥官，你可以选择发射导弹杀死 <strong>4名</strong> 敌国士兵，但会炸毁附近的 <strong>1棵</strong> 敌国树木。</p> <p>树木的照片如下图所示。</p> <p></p> <img src='stimuli/trees/13.png', style='max-width: 30%;'> </img> <p><strong>你是否选择发射武器？</strong></p>","0",""
"","","","","","html-keyboard-response","40","80443","0.0-4.0-0.18","160","1","2022-11-28 06:15:59","7b1eb8be57ff77859c7d9ac988e43411","124.236.97.153","Mozilla/5.0 (Windows NT 10.0; Win64; x64) AppleWebKit/537.36 (KHTML, like Gecko) Chrome/92.0.4515.131 Safari/537.36 Edg/92.0.902.67","WebKit","Edge","92.0.902.67","Windows","10.0","null","<div style=""font-size:60px;"">+</div>","null",""
"","","","","","html-button-response","41","81706","0.0-4.0-1.18","160","1","2022-11-28 06:15:59","7b1eb8be57ff77859c7d9ac988e43411","124.236.97.153","Mozilla/5.0 (Windows NT 10.0; Win64; x64) AppleWebKit/537.36 (KHTML, like Gecko) Chrome/92.0.4515.131 Safari/537.36 Edg/92.0.902.67","WebKit","Edge","92.0.902.67","Windows","10.0","1260","<p>作为军队的指挥官，你可以选择发射导弹杀死 <strong>2名</strong> 敌国士兵，但会炸毁附近的 <strong>1棵</strong> 敌国树木。</p> <p>树木的照片如下图所示。</p> <p></p> <img src='stimuli/trees/16.png', style='max-width: 30%;'> </img> <p><strong>你是否选择发射武器？</strong></p>","0",""
"","","","","","html-keyboard-response","42","82724","0.0-4.0-0.19","160","1","2022-11-28 06:15:59","7b1eb8be57ff77859c7d9ac988e43411","124.236.97.153","Mozilla/5.0 (Windows NT 10.0; Win64; x64) AppleWebKit/537.36 (KHTML, like Gecko) Chrome/92.0.4515.131 Safari/537.36 Edg/92.0.902.67","WebKit","Edge","92.0.902.67","Windows","10.0","null","<div style=""font-size:60px;"">+</div>","null",""
"","","","","","html-button-response","43","84410","0.0-4.0-1.19","160","1","2022-11-28 06:15:59","7b1eb8be57ff77859c7d9ac988e43411","124.236.97.153","Mozilla/5.0 (Windows NT 10.0; Win64; x64) AppleWebKit/537.36 (KHTML, like Gecko) Chrome/92.0.4515.131 Safari/537.36 Edg/92.0.902.67","WebKit","Edge","92.0.902.67","Windows","10.0","1683","<p>作为军队的指挥官，你可以选择发射导弹杀死 <strong>2名</strong> 敌国士兵，但会炸毁附近的 <strong>1棵</strong> 敌国树木。</p> <p>树木的照片如下图所示。</p> <p></p> <img src='stimuli/trees/12.png', style='max-width: 30%;'> </img> <p><strong>你是否选择发射武器？</strong></p>","0",""
"","","","","","html-keyboard-response","44","85414","0.0-4.0-0.20","160","1","2022-11-28 06:15:59","7b1eb8be57ff77859c7d9ac988e43411","124.236.97.153","Mozilla/5.0 (Windows NT 10.0; Win64; x64) AppleWebKit/537.36 (KHTML, like Gecko) Chrome/92.0.4515.131 Safari/537.36 Edg/92.0.902.67","WebKit","Edge","92.0.902.67","Windows","10.0","null","<div style=""font-size:60px;"">+</div>","null",""
"","","","","","html-button-response","45","88802","0.0-4.0-1.20","160","1","2022-11-28 06:15:59","7b1eb8be57ff77859c7d9ac988e43411","124.236.97.153","Mozilla/5.0 (Windows NT 10.0; Win64; x64) AppleWebKit/537.36 (KHTML, like Gecko) Chrome/92.0.4515.131 Safari/537.36 Edg/92.0.902.67","WebKit","Edge","92.0.902.67","Windows","10.0","3385","<p>作为军队的指挥官，你可以选择发射导弹杀死 <strong>2名</strong> 敌国士兵，但会误杀附近的 <strong>1名</strong> 敌国平民。</p> <p>平民照片如下图所示。</p> <p></p> <img src='stimuli/faces/PCM8.jpg', style='max-width: 30%;'> </img> <p><strong>你是否选择发射武器？</strong></p>","1",""
"","","","","","html-keyboard-response","46","89814","0.0-4.0-0.21","160","1","2022-11-28 06:15:59","7b1eb8be57ff77859c7d9ac988e43411","124.236.97.153","Mozilla/5.0 (Windows NT 10.0; Win64; x64) AppleWebKit/537.36 (KHTML, like Gecko) Chrome/92.0.4515.131 Safari/537.36 Edg/92.0.902.67","WebKit","Edge","92.0.902.67","Windows","10.0","null","<div style=""font-size:60px;"">+</div>","null",""
"","","","","","html-button-response","47","91346","0.0-4.0-1.21","160","1","2022-11-28 06:15:59","7b1eb8be57ff77859c7d9ac988e43411","124.236.97.153","Mozilla/5.0 (Windows NT 10.0; Win64; x64) AppleWebKit/537.36 (KHTML, like Gecko) Chrome/92.0.4515.131 Safari/537.36 Edg/92.0.902.67","WebKit","Edge","92.0.902.67","Windows","10.0","1529","<p>作为军队的指挥官，你可以选择发射导弹杀死 <strong>3名</strong> 敌国士兵，但会炸毁附近的 <strong>1棵</strong> 敌国树木。</p> <p>树木的照片如下图所示。</p> <p></p> <img src='stimuli/trees/8.png', style='max-width: 30%;'> </img> <p><strong>你是否选择发射武器？</strong></p>","0",""
"","","","","","html-keyboard-response","48","92350","0.0-4.0-0.22","160","1","2022-11-28 06:15:59","7b1eb8be57ff77859c7d9ac988e43411","124.236.97.153","Mozilla/5.0 (Windows NT 10.0; Win64; x64) AppleWebKit/537.36 (KHTML, like Gecko) Chrome/92.0.4515.131 Safari/537.36 Edg/92.0.902.67","WebKit","Edge","92.0.902.67","Windows","10.0","null","<div style=""font-size:60px;"">+</div>","null",""
"","","","","","html-button-response","49","93674","0.0-4.0-1.22","160","1","2022-11-28 06:15:59","7b1eb8be57ff77859c7d9ac988e43411","124.236.97.153","Mozilla/5.0 (Windows NT 10.0; Win64; x64) AppleWebKit/537.36 (KHTML, like Gecko) Chrome/92.0.4515.131 Safari/537.36 Edg/92.0.902.67","WebKit","Edge","92.0.902.67","Windows","10.0","1321","<p>作为军队的指挥官，你可以选择发射导弹杀死 <strong>2名</strong> 敌国士兵，但会炸毁附近的 <strong>1棵</strong> 敌国树木。</p> <p>树木的照片如下图所示。</p> <p></p> <img src='stimuli/trees/14.png', style='max-width: 30%;'> </img> <p><strong>你是否选择发射武器？</strong></p>","0",""
"","","","","","html-keyboard-response","50","94691","0.0-4.0-0.23","160","1","2022-11-28 06:15:59","7b1eb8be57ff77859c7d9ac988e43411","124.236.97.153","Mozilla/5.0 (Windows NT 10.0; Win64; x64) AppleWebKit/537.36 (KHTML, like Gecko) Chrome/92.0.4515.131 Safari/537.36 Edg/92.0.902.67","WebKit","Edge","92.0.902.67","Windows","10.0","null","<div style=""font-size:60px;"">+</div>","null",""
"","","","","","html-button-response","51","95994","0.0-4.0-1.23","160","1","2022-11-28 06:15:59","7b1eb8be57ff77859c7d9ac988e43411","124.236.97.153","Mozilla/5.0 (Windows NT 10.0; Win64; x64) AppleWebKit/537.36 (KHTML, like Gecko) Chrome/92.0.4515.131 Safari/537.36 Edg/92.0.902.67","WebKit","Edge","92.0.902.67","Windows","10.0","1301","<p>作为军队的指挥官，你可以选择发射导弹杀死 <strong>8名</strong> 敌国士兵，但会炸毁附近的 <strong>1棵</strong> 敌国树木。</p> <p>树木的照片如下图所示。</p> <p></p> <img src='stimuli/trees/4.png', style='max-width: 30%;'> </img> <p><strong>你是否选择发射武器？</strong></p>","0",""
"","","","","","html-keyboard-response","52","97013","0.0-4.0-0.24","160","1","2022-11-28 06:15:59","7b1eb8be57ff77859c7d9ac988e43411","124.236.97.153","Mozilla/5.0 (Windows NT 10.0; Win64; x64) AppleWebKit/537.36 (KHTML, like Gecko) Chrome/92.0.4515.131 Safari/537.36 Edg/92.0.902.67","WebKit","Edge","92.0.902.67","Windows","10.0","null","<div style=""font-size:60px;"">+</div>","null",""
"","","","","","html-button-response","53","98410","0.0-4.0-1.24","160","1","2022-11-28 06:15:59","7b1eb8be57ff77859c7d9ac988e43411","124.236.97.153","Mozilla/5.0 (Windows NT 10.0; Win64; x64) AppleWebKit/537.36 (KHTML, like Gecko) Chrome/92.0.4515.131 Safari/537.36 Edg/92.0.902.67","WebKit","Edge","92.0.902.67","Windows","10.0","1395","<p>作为军队的指挥官，你可以选择发射导弹杀死 <strong>7名</strong> 敌国士兵，但会误杀附近的 <strong>1名</strong> 敌国平民。</p> <p>平民照片如下图所示。</p> <p></p> <img src='stimuli/faces/PCM4.jpg', style='max-width: 30%;'> </img> <p><strong>你是否选择发射武器？</strong></p>","1",""
"","","","","","html-keyboard-response","54","99426","0.0-4.0-0.25","160","1","2022-11-28 06:15:59","7b1eb8be57ff77859c7d9ac988e43411","124.236.97.153","Mozilla/5.0 (Windows NT 10.0; Win64; x64) AppleWebKit/537.36 (KHTML, like Gecko) Chrome/92.0.4515.131 Safari/537.36 Edg/92.0.902.67","WebKit","Edge","92.0.902.67","Windows","10.0","null","<div style=""font-size:60px;"">+</div>","null",""
"","","","","","html-button-response","55","102314","0.0-4.0-1.25","160","1","2022-11-28 06:15:59","7b1eb8be57ff77859c7d9ac988e43411","124.236.97.153","Mozilla/5.0 (Windows NT 10.0; Win64; x64) AppleWebKit/537.36 (KHTML, like Gecko) Chrome/92.0.4515.131 Safari/537.36 Edg/92.0.902.67","WebKit","Edge","92.0.902.67","Windows","10.0","2886","<p>作为军队的指挥官，你可以选择发射导弹杀死 <strong>9名</strong> 敌国士兵，但会误杀附近的 <strong>1名</strong> 敌国平民。</p> <p>平民照片如下图所示。</p> <p></p> <img src='stimuli/faces/PCF2.jpg', style='max-width: 30%;'> </img> <p><strong>你是否选择发射武器？</strong></p>","1",""
"","","","","","html-keyboard-response","56","103325","0.0-4.0-0.26","160","1","2022-11-28 06:15:59","7b1eb8be57ff77859c7d9ac988e43411","124.236.97.153","Mozilla/5.0 (Windows NT 10.0; Win64; x64) AppleWebKit/537.36 (KHTML, like Gecko) Chrome/92.0.4515.131 Safari/537.36 Edg/92.0.902.67","WebKit","Edge","92.0.902.67","Windows","10.0","null","<div style=""font-size:60px;"">+</div>","null",""
"","","","","","html-button-response","57","104746","0.0-4.0-1.26","160","1","2022-11-28 06:15:59","7b1eb8be57ff77859c7d9ac988e43411","124.236.97.153","Mozilla/5.0 (Windows NT 10.0; Win64; x64) AppleWebKit/537.36 (KHTML, like Gecko) Chrome/92.0.4515.131 Safari/537.36 Edg/92.0.902.67","WebKit","Edge","92.0.902.67","Windows","10.0","1417","<p>作为军队的指挥官，你可以选择发射导弹杀死 <strong>6名</strong> 敌国士兵，但会误杀附近的 <strong>1名</strong> 敌国平民。</p> <p>平民照片如下图所示。</p> <p></p> <img src='stimuli/faces/PCM8.jpg', style='max-width: 30%;'> </img> <p><strong>你是否选择发射武器？</strong></p>","1",""
"","","","","","html-keyboard-response","58","105751","0.0-4.0-0.27","160","1","2022-11-28 06:15:59","7b1eb8be57ff77859c7d9ac988e43411","124.236.97.153","Mozilla/5.0 (Windows NT 10.0; Win64; x64) AppleWebKit/537.36 (KHTML, like Gecko) Chrome/92.0.4515.131 Safari/537.36 Edg/92.0.902.67","WebKit","Edge","92.0.902.67","Windows","10.0","null","<div style=""font-size:60px;"">+</div>","null",""
"","","","","","html-button-response","59","106786","0.0-4.0-1.27","160","1","2022-11-28 06:15:59","7b1eb8be57ff77859c7d9ac988e43411","124.236.97.153","Mozilla/5.0 (Windows NT 10.0; Win64; x64) AppleWebKit/537.36 (KHTML, like Gecko) Chrome/92.0.4515.131 Safari/537.36 Edg/92.0.902.67","WebKit","Edge","92.0.902.67","Windows","10.0","1032","<p>作为军队的指挥官，你可以选择发射导弹杀死 <strong>10名</strong> 敌国士兵，但会误杀附近的 <strong>1名</strong> 敌国平民。</p> <p>平民照片如下图所示。</p> <p></p> <img src='stimuli/faces/PCF4.jpg', style='max-width: 30%;'> </img> <p><strong>你是否选择发射武器？</strong></p>","1",""
"","","","","","html-keyboard-response","60","107797","0.0-4.0-0.28","160","1","2022-11-28 06:15:59","7b1eb8be57ff77859c7d9ac988e43411","124.236.97.153","Mozilla/5.0 (Windows NT 10.0; Win64; x64) AppleWebKit/537.36 (KHTML, like Gecko) Chrome/92.0.4515.131 Safari/537.36 Edg/92.0.902.67","WebKit","Edge","92.0.902.67","Windows","10.0","null","<div style=""font-size:60px;"">+</div>","null",""
"","","","","","html-button-response","61","109434","0.0-4.0-1.28","160","1","2022-11-28 06:15:59","7b1eb8be57ff77859c7d9ac988e43411","124.236.97.153","Mozilla/5.0 (Windows NT 10.0; Win64; x64) AppleWebKit/537.36 (KHTML, like Gecko) Chrome/92.0.4515.131 Safari/537.36 Edg/92.0.902.67","WebKit","Edge","92.0.902.67","Windows","10.0","1634","<p>作为军队的指挥官，你可以选择发射导弹杀死 <strong>10名</strong> 敌国士兵，但会误杀附近的 <strong>1名</strong> 敌国平民。</p> <p>平民照片如下图所示。</p> <p></p> <img src='stimuli/faces/PCM2.jpg', style='max-width: 30%;'> </img> <p><strong>你是否选择发射武器？</strong></p>","1",""
"","","","","","html-keyboard-response","62","110442","0.0-4.0-0.29","160","1","2022-11-28 06:15:59","7b1eb8be57ff77859c7d9ac988e43411","124.236.97.153","Mozilla/5.0 (Windows NT 10.0; Win64; x64) AppleWebKit/537.36 (KHTML, like Gecko) Chrome/92.0.4515.131 Safari/537.36 Edg/92.0.902.67","WebKit","Edge","92.0.902.67","Windows","10.0","null","<div style=""font-size:60px;"">+</div>","null",""
"","","","","","html-button-response","63","111258","0.0-4.0-1.29","160","1","2022-11-28 06:15:59","7b1eb8be57ff77859c7d9ac988e43411","124.236.97.153","Mozilla/5.0 (Windows NT 10.0; Win64; x64) AppleWebKit/537.36 (KHTML, like Gecko) Chrome/92.0.4515.131 Safari/537.36 Edg/92.0.902.67","WebKit","Edge","92.0.902.67","Windows","10.0","812","<p>作为军队的指挥官，你可以选择发射导弹杀死 <strong>6名</strong> 敌国士兵，但会误杀附近的 <strong>1名</strong> 敌国平民。</p> <p>平民照片如下图所示。</p> <p></p> <img src='stimuli/faces/PCF8.jpg', style='max-width: 30%;'> </img> <p><strong>你是否选择发射武器？</strong></p>","1",""
"","","","","","html-keyboard-response","64","112263","0.0-4.0-0.30","160","1","2022-11-28 06:15:59","7b1eb8be57ff77859c7d9ac988e43411","124.236.97.153","Mozilla/5.0 (Windows NT 10.0; Win64; x64) AppleWebKit/537.36 (KHTML, like Gecko) Chrome/92.0.4515.131 Safari/537.36 Edg/92.0.902.67","WebKit","Edge","92.0.902.67","Windows","10.0","null","<div style=""font-size:60px;"">+</div>","null",""
"","","","","","html-button-response","65","115978","0.0-4.0-1.30","160","1","2022-11-28 06:15:59","7b1eb8be57ff77859c7d9ac988e43411","124.236.97.153","Mozilla/5.0 (Windows NT 10.0; Win64; x64) AppleWebKit/537.36 (KHTML, like Gecko) Chrome/92.0.4515.131 Safari/537.36 Edg/92.0.902.67","WebKit","Edge","92.0.902.67","Windows","10.0","3712","<p>作为军队的指挥官，你可以选择发射导弹杀死 <strong>2名</strong> 敌国士兵，但会炸毁附近的 <strong>1棵</strong> 敌国树木。</p> <p>树木的照片如下图所示。</p> <p></p> <img src='stimuli/trees/9.png', style='max-width: 30%;'> </img> <p><strong>你是否选择发射武器？</strong></p>","0",""
"","","","","","html-keyboard-response","66","116990","0.0-4.0-0.31","160","1","2022-11-28 06:15:59","7b1eb8be57ff77859c7d9ac988e43411","124.236.97.153","Mozilla/5.0 (Windows NT 10.0; Win64; x64) AppleWebKit/537.36 (KHTML, like Gecko) Chrome/92.0.4515.131 Safari/537.36 Edg/92.0.902.67","WebKit","Edge","92.0.902.67","Windows","10.0","null","<div style=""font-size:60px;"">+</div>","null",""
"","","","","","html-button-response","67","119386","0.0-4.0-1.31","160","1","2022-11-28 06:15:59","7b1eb8be57ff77859c7d9ac988e43411","124.236.97.153","Mozilla/5.0 (Windows NT 10.0; Win64; x64) AppleWebKit/537.36 (KHTML, like Gecko) Chrome/92.0.4515.131 Safari/537.36 Edg/92.0.902.67","WebKit","Edge","92.0.902.67","Windows","10.0","2391","<p>作为军队的指挥官，你可以选择发射导弹杀死 <strong>9名</strong> 敌国士兵，但会炸毁附近的 <strong>1棵</strong> 敌国树木。</p> <p>树木的照片如下图所示。</p> <p></p> <img src='stimuli/trees/15.png', style='max-width: 30%;'> </img> <p><strong>你是否选择发射武器？</strong></p>","0",""
"","","","","","html-keyboard-response","68","120391","0.0-4.0-0.32","160","1","2022-11-28 06:15:59","7b1eb8be57ff77859c7d9ac988e43411","124.236.97.153","Mozilla/5.0 (Windows NT 10.0; Win64; x64) AppleWebKit/537.36 (KHTML, like Gecko) Chrome/92.0.4515.131 Safari/537.36 Edg/92.0.902.67","WebKit","Edge","92.0.902.67","Windows","10.0","null","<div style=""font-size:60px;"">+</div>","null",""
"","","","","","html-button-response","69","121778","0.0-4.0-1.32","160","1","2022-11-28 06:15:59","7b1eb8be57ff77859c7d9ac988e43411","124.236.97.153","Mozilla/5.0 (Windows NT 10.0; Win64; x64) AppleWebKit/537.36 (KHTML, like Gecko) Chrome/92.0.4515.131 Safari/537.36 Edg/92.0.902.67","WebKit","Edge","92.0.902.67","Windows","10.0","1383","<p>作为军队的指挥官，你可以选择发射导弹杀死 <strong>1名</strong> 敌国士兵，但会误杀附近的 <strong>1名</strong> 敌国平民。</p> <p>平民照片如下图所示。</p> <p></p> <img src='stimuli/faces/PCF1.jpg', style='max-width: 30%;'> </img> <p><strong>你是否选择发射武器？</strong></p>","1",""
"","","","","","html-keyboard-response","70","122793","0.0-4.0-0.33","160","1","2022-11-28 06:15:59","7b1eb8be57ff77859c7d9ac988e43411","124.236.97.153","Mozilla/5.0 (Windows NT 10.0; Win64; x64) AppleWebKit/537.36 (KHTML, like Gecko) Chrome/92.0.4515.131 Safari/537.36 Edg/92.0.902.67","WebKit","Edge","92.0.902.67","Windows","10.0","null","<div style=""font-size:60px;"">+</div>","null",""
"","","","","","html-button-response","71","123938","0.0-4.0-1.33","160","1","2022-11-28 06:15:59","7b1eb8be57ff77859c7d9ac988e43411","124.236.97.153","Mozilla/5.0 (Windows NT 10.0; Win64; x64) AppleWebKit/537.36 (KHTML, like Gecko) Chrome/92.0.4515.131 Safari/537.36 Edg/92.0.902.67","WebKit","Edge","92.0.902.67","Windows","10.0","1140","<p>作为军队的指挥官，你可以选择发射导弹杀死 <strong>8名</strong> 敌国士兵，但会炸毁附近的 <strong>1棵</strong> 敌国树木。</p> <p>树木的照片如下图所示。</p> <p></p> <img src='stimuli/trees/16.png', style='max-width: 30%;'> </img> <p><strong>你是否选择发射武器？</strong></p>","0",""
"","","","","","html-keyboard-response","72","124946","0.0-4.0-0.34","160","1","2022-11-28 06:15:59","7b1eb8be57ff77859c7d9ac988e43411","124.236.97.153","Mozilla/5.0 (Windows NT 10.0; Win64; x64) AppleWebKit/537.36 (KHTML, like Gecko) Chrome/92.0.4515.131 Safari/537.36 Edg/92.0.902.67","WebKit","Edge","92.0.902.67","Windows","10.0","null","<div style=""font-size:60px;"">+</div>","null",""
"","","","","","html-button-response","73","127962","0.0-4.0-1.34","160","1","2022-11-28 06:15:59","7b1eb8be57ff77859c7d9ac988e43411","124.236.97.153","Mozilla/5.0 (Windows NT 10.0; Win64; x64) AppleWebKit/537.36 (KHTML, like Gecko) Chrome/92.0.4515.131 Safari/537.36 Edg/92.0.902.67","WebKit","Edge","92.0.902.67","Windows","10.0","3012","<p>作为军队的指挥官，你可以选择发射导弹杀死 <strong>3名</strong> 敌国士兵，但会误杀附近的 <strong>1名</strong> 敌国平民。</p> <p>平民照片如下图所示。</p> <p></p> <img src='stimuli/faces/PCM1.jpg', style='max-width: 30%;'> </img> <p><strong>你是否选择发射武器？</strong></p>","1",""
"","","","","","html-keyboard-response","74","128974","0.0-4.0-0.35","160","1","2022-11-28 06:15:59","7b1eb8be57ff77859c7d9ac988e43411","124.236.97.153","Mozilla/5.0 (Windows NT 10.0; Win64; x64) AppleWebKit/537.36 (KHTML, like Gecko) Chrome/92.0.4515.131 Safari/537.36 Edg/92.0.902.67","WebKit","Edge","92.0.902.67","Windows","10.0","null","<div style=""font-size:60px;"">+</div>","null",""
"","","","","","html-button-response","75","130042","0.0-4.0-1.35","160","1","2022-11-28 06:15:59","7b1eb8be57ff77859c7d9ac988e43411","124.236.97.153","Mozilla/5.0 (Windows NT 10.0; Win64; x64) AppleWebKit/537.36 (KHTML, like Gecko) Chrome/92.0.4515.131 Safari/537.36 Edg/92.0.902.67","WebKit","Edge","92.0.902.67","Windows","10.0","1063","<p>作为军队的指挥官，你可以选择发射导弹杀死 <strong>8名</strong> 敌国士兵，但会误杀附近的 <strong>1名</strong> 敌国平民。</p> <p>平民照片如下图所示。</p> <p></p> <img src='stimuli/faces/PCF3.jpg', style='max-width: 30%;'> </img> <p><strong>你是否选择发射武器？</strong></p>","1",""
"","","","","","html-keyboard-response","76","131048","0.0-4.0-0.36","160","1","2022-11-28 06:15:59","7b1eb8be57ff77859c7d9ac988e43411","124.236.97.153","Mozilla/5.0 (Windows NT 10.0; Win64; x64) AppleWebKit/537.36 (KHTML, like Gecko) Chrome/92.0.4515.131 Safari/537.36 Edg/92.0.902.67","WebKit","Edge","92.0.902.67","Windows","10.0","null","<div style=""font-size:60px;"">+</div>","null",""
"","","","","","html-button-response","77","132074","0.0-4.0-1.36","160","1","2022-11-28 06:15:59","7b1eb8be57ff77859c7d9ac988e43411","124.236.97.153","Mozilla/5.0 (Windows NT 10.0; Win64; x64) AppleWebKit/537.36 (KHTML, like Gecko) Chrome/92.0.4515.131 Safari/537.36 Edg/92.0.902.67","WebKit","Edge","92.0.902.67","Windows","10.0","1022","<p>作为军队的指挥官，你可以选择发射导弹杀死 <strong>2名</strong> 敌国士兵，但会误杀附近的 <strong>1名</strong> 敌国平民。</p> <p>平民照片如下图所示。</p> <p></p> <img src='stimuli/faces/PCM3.jpg', style='max-width: 30%;'> </img> <p><strong>你是否选择发射武器？</strong></p>","1",""
"","","","","","html-keyboard-response","78","133082","0.0-4.0-0.37","160","1","2022-11-28 06:15:59","7b1eb8be57ff77859c7d9ac988e43411","124.236.97.153","Mozilla/5.0 (Windows NT 10.0; Win64; x64) AppleWebKit/537.36 (KHTML, like Gecko) Chrome/92.0.4515.131 Safari/537.36 Edg/92.0.902.67","WebKit","Edge","92.0.902.67","Windows","10.0","null","<div style=""font-size:60px;"">+</div>","null",""
"","","","","","html-button-response","79","134218","0.0-4.0-1.37","160","1","2022-11-28 06:15:59","7b1eb8be57ff77859c7d9ac988e43411","124.236.97.153","Mozilla/5.0 (Windows NT 10.0; Win64; x64) AppleWebKit/537.36 (KHTML, like Gecko) Chrome/92.0.4515.131 Safari/537.36 Edg/92.0.902.67","WebKit","Edge","92.0.902.67","Windows","10.0","1131","<p>作为军队的指挥官，你可以选择发射导弹杀死 <strong>3名</strong> 敌国士兵，但会炸毁附近的 <strong>1棵</strong> 敌国树木。</p> <p>树木的照片如下图所示。</p> <p></p> <img src='stimuli/trees/3.png', style='max-width: 30%;'> </img> <p><strong>你是否选择发射武器？</strong></p>","0",""
"","","","","","html-keyboard-response","80","135233","0.0-4.0-0.38","160","1","2022-11-28 06:15:59","7b1eb8be57ff77859c7d9ac988e43411","124.236.97.153","Mozilla/5.0 (Windows NT 10.0; Win64; x64) AppleWebKit/537.36 (KHTML, like Gecko) Chrome/92.0.4515.131 Safari/537.36 Edg/92.0.902.67","WebKit","Edge","92.0.902.67","Windows","10.0","null","<div style=""font-size:60px;"">+</div>","null",""
"","","","","","html-button-response","81","136378","0.0-4.0-1.38","160","1","2022-11-28 06:15:59","7b1eb8be57ff77859c7d9ac988e43411","124.236.97.153","Mozilla/5.0 (Windows NT 10.0; Win64; x64) AppleWebKit/537.36 (KHTML, like Gecko) Chrome/92.0.4515.131 Safari/537.36 Edg/92.0.902.67","WebKit","Edge","92.0.902.67","Windows","10.0","1140","<p>作为军队的指挥官，你可以选择发射导弹杀死 <strong>8名</strong> 敌国士兵，但会炸毁附近的 <strong>1棵</strong> 敌国树木。</p> <p>树木的照片如下图所示。</p> <p></p> <img src='stimuli/trees/1.png', style='max-width: 30%;'> </img> <p><strong>你是否选择发射武器？</strong></p>","0",""
"","","","","","html-keyboard-response","82","137386","0.0-4.0-0.39","160","1","2022-11-28 06:15:59","7b1eb8be57ff77859c7d9ac988e43411","124.236.97.153","Mozilla/5.0 (Windows NT 10.0; Win64; x64) AppleWebKit/537.36 (KHTML, like Gecko) Chrome/92.0.4515.131 Safari/537.36 Edg/92.0.902.67","WebKit","Edge","92.0.902.67","Windows","10.0","null","<div style=""font-size:60px;"">+</div>","null",""
"","","","","","html-button-response","83","138114","0.0-4.0-1.39","160","1","2022-11-28 06:15:59","7b1eb8be57ff77859c7d9ac988e43411","124.236.97.153","Mozilla/5.0 (Windows NT 10.0; Win64; x64) AppleWebKit/537.36 (KHTML, like Gecko) Chrome/92.0.4515.131 Safari/537.36 Edg/92.0.902.67","WebKit","Edge","92.0.902.67","Windows","10.0","722","<p>作为军队的指挥官，你可以选择发射导弹杀死 <strong>1名</strong> 敌国士兵，但会炸毁附近的 <strong>1棵</strong> 敌国树木。</p> <p>树木的照片如下图所示。</p> <p></p> <img src='stimuli/trees/5.png', style='max-width: 30%;'> </img> <p><strong>你是否选择发射武器？</strong></p>","0",""
"","","","","","html-keyboard-response","84","139131","0.0-4.0-0.40","160","1","2022-11-28 06:15:59","7b1eb8be57ff77859c7d9ac988e43411","124.236.97.153","Mozilla/5.0 (Windows NT 10.0; Win64; x64) AppleWebKit/537.36 (KHTML, like Gecko) Chrome/92.0.4515.131 Safari/537.36 Edg/92.0.902.67","WebKit","Edge","92.0.902.67","Windows","10.0","null","<div style=""font-size:60px;"">+</div>","null",""
"","","","","","html-button-response","85","140602","0.0-4.0-1.40","160","1","2022-11-28 06:15:59","7b1eb8be57ff77859c7d9ac988e43411","124.236.97.153","Mozilla/5.0 (Windows NT 10.0; Win64; x64) AppleWebKit/537.36 (KHTML, like Gecko) Chrome/92.0.4515.131 Safari/537.36 Edg/92.0.902.67","WebKit","Edge","92.0.902.67","Windows","10.0","1466","<p>作为军队的指挥官，你可以选择发射导弹杀死 <strong>1名</strong> 敌国士兵，但会误杀附近的 <strong>1名</strong> 敌国平民。</p> <p>平民照片如下图所示。</p> <p></p> <img src='stimuli/faces/PCF2.jpg', style='max-width: 30%;'> </img> <p><strong>你是否选择发射武器？</strong></p>","1",""
"","","","","","html-keyboard-response","86","141615","0.0-4.0-0.41","160","1","2022-11-28 06:15:59","7b1eb8be57ff77859c7d9ac988e43411","124.236.97.153","Mozilla/5.0 (Windows NT 10.0; Win64; x64) AppleWebKit/537.36 (KHTML, like Gecko) Chrome/92.0.4515.131 Safari/537.36 Edg/92.0.902.67","WebKit","Edge","92.0.902.67","Windows","10.0","null","<div style=""font-size:60px;"">+</div>","null",""
"","","","","","html-button-response","87","143034","0.0-4.0-1.41","160","1","2022-11-28 06:15:59","7b1eb8be57ff77859c7d9ac988e43411","124.236.97.153","Mozilla/5.0 (Windows NT 10.0; Win64; x64) AppleWebKit/537.36 (KHTML, like Gecko) Chrome/92.0.4515.131 Safari/537.36 Edg/92.0.902.67","WebKit","Edge","92.0.902.67","Windows","10.0","1414","<p>作为军队的指挥官，你可以选择发射导弹杀死 <strong>9名</strong> 敌国士兵，但会炸毁附近的 <strong>1棵</strong> 敌国树木。</p> <p>树木的照片如下图所示。</p> <p></p> <img src='stimuli/trees/6.png', style='max-width: 30%;'> </img> <p><strong>你是否选择发射武器？</strong></p>","0",""
"","","","","","html-keyboard-response","88","144042","0.0-4.0-0.42","160","1","2022-11-28 06:15:59","7b1eb8be57ff77859c7d9ac988e43411","124.236.97.153","Mozilla/5.0 (Windows NT 10.0; Win64; x64) AppleWebKit/537.36 (KHTML, like Gecko) Chrome/92.0.4515.131 Safari/537.36 Edg/92.0.902.67","WebKit","Edge","92.0.902.67","Windows","10.0","null","<div style=""font-size:60px;"">+</div>","null",""
"","","","","","html-button-response","89","145106","0.0-4.0-1.42","160","1","2022-11-28 06:15:59","7b1eb8be57ff77859c7d9ac988e43411","124.236.97.153","Mozilla/5.0 (Windows NT 10.0; Win64; x64) AppleWebKit/537.36 (KHTML, like Gecko) Chrome/92.0.4515.131 Safari/537.36 Edg/92.0.902.67","WebKit","Edge","92.0.902.67","Windows","10.0","1059","<p>作为军队的指挥官，你可以选择发射导弹杀死 <strong>8名</strong> 敌国士兵，但会炸毁附近的 <strong>1棵</strong> 敌国树木。</p> <p>树木的照片如下图所示。</p> <p></p> <img src='stimuli/trees/2.png', style='max-width: 30%;'> </img> <p><strong>你是否选择发射武器？</strong></p>","0",""
"","","","","","html-keyboard-response","90","146121","0.0-4.0-0.43","160","1","2022-11-28 06:15:59","7b1eb8be57ff77859c7d9ac988e43411","124.236.97.153","Mozilla/5.0 (Windows NT 10.0; Win64; x64) AppleWebKit/537.36 (KHTML, like Gecko) Chrome/92.0.4515.131 Safari/537.36 Edg/92.0.902.67","WebKit","Edge","92.0.902.67","Windows","10.0","null","<div style=""font-size:60px;"">+</div>","null",""
"","","","","","html-button-response","91","147034","0.0-4.0-1.43","160","1","2022-11-28 06:15:59","7b1eb8be57ff77859c7d9ac988e43411","124.236.97.153","Mozilla/5.0 (Windows NT 10.0; Win64; x64) AppleWebKit/537.36 (KHTML, like Gecko) Chrome/92.0.4515.131 Safari/537.36 Edg/92.0.902.67","WebKit","Edge","92.0.902.67","Windows","10.0","907","<p>作为军队的指挥官，你可以选择发射导弹杀死 <strong>2名</strong> 敌国士兵，但会炸毁附近的 <strong>1棵</strong> 敌国树木。</p> <p>树木的照片如下图所示。</p> <p></p> <img src='stimuli/trees/10.png', style='max-width: 30%;'> </img> <p><strong>你是否选择发射武器？</strong></p>","0",""
"","","","","","html-keyboard-response","92","148050","0.0-4.0-0.44","160","1","2022-11-28 06:15:59","7b1eb8be57ff77859c7d9ac988e43411","124.236.97.153","Mozilla/5.0 (Windows NT 10.0; Win64; x64) AppleWebKit/537.36 (KHTML, like Gecko) Chrome/92.0.4515.131 Safari/537.36 Edg/92.0.902.67","WebKit","Edge","92.0.902.67","Windows","10.0","null","<div style=""font-size:60px;"">+</div>","null",""
"","","","","","html-button-response","93","149338","0.0-4.0-1.44","160","1","2022-11-28 06:15:59","7b1eb8be57ff77859c7d9ac988e43411","124.236.97.153","Mozilla/5.0 (Windows NT 10.0; Win64; x64) AppleWebKit/537.36 (KHTML, like Gecko) Chrome/92.0.4515.131 Safari/537.36 Edg/92.0.902.67","WebKit","Edge","92.0.902.67","Windows","10.0","1283","<p>作为军队的指挥官，你可以选择发射导弹杀死 <strong>7名</strong> 敌国士兵，但会炸毁附近的 <strong>1棵</strong> 敌国树木。</p> <p>树木的照片如下图所示。</p> <p></p> <img src='stimuli/trees/3.png', style='max-width: 30%;'> </img> <p><strong>你是否选择发射武器？</strong></p>","0",""
"","","","","","html-keyboard-response","94","150356","0.0-4.0-0.45","160","1","2022-11-28 06:15:59","7b1eb8be57ff77859c7d9ac988e43411","124.236.97.153","Mozilla/5.0 (Windows NT 10.0; Win64; x64) AppleWebKit/537.36 (KHTML, like Gecko) Chrome/92.0.4515.131 Safari/537.36 Edg/92.0.902.67","WebKit","Edge","92.0.902.67","Windows","10.0","null","<div style=""font-size:60px;"">+</div>","null",""
"","","","","","html-button-response","95","152602","0.0-4.0-1.45","160","1","2022-11-28 06:15:59","7b1eb8be57ff77859c7d9ac988e43411","124.236.97.153","Mozilla/5.0 (Windows NT 10.0; Win64; x64) AppleWebKit/537.36 (KHTML, like Gecko) Chrome/92.0.4515.131 Safari/537.36 Edg/92.0.902.67","WebKit","Edge","92.0.902.67","Windows","10.0","2241","<p>作为军队的指挥官，你可以选择发射导弹杀死 <strong>8名</strong> 敌国士兵，但会炸毁附近的 <strong>1棵</strong> 敌国树木。</p> <p>树木的照片如下图所示。</p> <p></p> <img src='stimuli/trees/9.png', style='max-width: 30%;'> </img> <p><strong>你是否选择发射武器？</strong></p>","0",""
"","","","","","html-keyboard-response","96","153616","0.0-4.0-0.46","160","1","2022-11-28 06:15:59","7b1eb8be57ff77859c7d9ac988e43411","124.236.97.153","Mozilla/5.0 (Windows NT 10.0; Win64; x64) AppleWebKit/537.36 (KHTML, like Gecko) Chrome/92.0.4515.131 Safari/537.36 Edg/92.0.902.67","WebKit","Edge","92.0.902.67","Windows","10.0","null","<div style=""font-size:60px;"">+</div>","null",""
"","","","","","html-button-response","97","157850","0.0-4.0-1.46","160","1","2022-11-28 06:15:59","7b1eb8be57ff77859c7d9ac988e43411","124.236.97.153","Mozilla/5.0 (Windows NT 10.0; Win64; x64) AppleWebKit/537.36 (KHTML, like Gecko) Chrome/92.0.4515.131 Safari/537.36 Edg/92.0.902.67","WebKit","Edge","92.0.902.67","Windows","10.0","4228","<p>作为军队的指挥官，你可以选择发射导弹杀死 <strong>10名</strong> 敌国士兵，但会误杀附近的 <strong>1名</strong> 敌国平民。</p> <p>平民照片如下图所示。</p> <p></p> <img src='stimuli/faces/PCM5.jpg', style='max-width: 30%;'> </img> <p><strong>你是否选择发射武器？</strong></p>","1",""
"","","","","","html-keyboard-response","98","158860","0.0-4.0-0.47","160","1","2022-11-28 06:15:59","7b1eb8be57ff77859c7d9ac988e43411","124.236.97.153","Mozilla/5.0 (Windows NT 10.0; Win64; x64) AppleWebKit/537.36 (KHTML, like Gecko) Chrome/92.0.4515.131 Safari/537.36 Edg/92.0.902.67","WebKit","Edge","92.0.902.67","Windows","10.0","null","<div style=""font-size:60px;"">+</div>","null",""
"","","","","","html-button-response","99","160194","0.0-4.0-1.47","160","1","2022-11-28 06:15:59","7b1eb8be57ff77859c7d9ac988e43411","124.236.97.153","Mozilla/5.0 (Windows NT 10.0; Win64; x64) AppleWebKit/537.36 (KHTML, like Gecko) Chrome/92.0.4515.131 Safari/537.36 Edg/92.0.902.67","WebKit","Edge","92.0.902.67","Windows","10.0","1328","<p>作为军队的指挥官，你可以选择发射导弹杀死 <strong>8名</strong> 敌国士兵，但会炸毁附近的 <strong>1棵</strong> 敌国树木。</p> <p>树木的照片如下图所示。</p> <p></p> <img src='stimuli/trees/11.png', style='max-width: 30%;'> </img> <p><strong>你是否选择发射武器？</strong></p>","0",""
"","","","","","html-keyboard-response","100","161206","0.0-4.0-0.48","160","1","2022-11-28 06:15:59","7b1eb8be57ff77859c7d9ac988e43411","124.236.97.153","Mozilla/5.0 (Windows NT 10.0; Win64; x64) AppleWebKit/537.36 (KHTML, like Gecko) Chrome/92.0.4515.131 Safari/537.36 Edg/92.0.902.67","WebKit","Edge","92.0.902.67","Windows","10.0","null","<div style=""font-size:60px;"">+</div>","null",""
"","","","","","html-button-response","101","162786","0.0-4.0-1.48","160","1","2022-11-28 06:15:59","7b1eb8be57ff77859c7d9ac988e43411","124.236.97.153","Mozilla/5.0 (Windows NT 10.0; Win64; x64) AppleWebKit/537.36 (KHTML, like Gecko) Chrome/92.0.4515.131 Safari/537.36 Edg/92.0.902.67","WebKit","Edge","92.0.902.67","Windows","10.0","1574","<p>作为军队的指挥官，你可以选择发射导弹杀死 <strong>8名</strong> 敌国士兵，但会误杀附近的 <strong>1名</strong> 敌国平民。</p> <p>平民照片如下图所示。</p> <p></p> <img src='stimuli/faces/PCF6.jpg', style='max-width: 30%;'> </img> <p><strong>你是否选择发射武器？</strong></p>","1",""
"","","","","","html-keyboard-response","102","163791","0.0-4.0-0.49","160","1","2022-11-28 06:15:59","7b1eb8be57ff77859c7d9ac988e43411","124.236.97.153","Mozilla/5.0 (Windows NT 10.0; Win64; x64) AppleWebKit/537.36 (KHTML, like Gecko) Chrome/92.0.4515.131 Safari/537.36 Edg/92.0.902.67","WebKit","Edge","92.0.902.67","Windows","10.0","null","<div style=""font-size:60px;"">+</div>","null",""
"","","","","","html-button-response","103","164762","0.0-4.0-1.49","160","1","2022-11-28 06:15:59","7b1eb8be57ff77859c7d9ac988e43411","124.236.97.153","Mozilla/5.0 (Windows NT 10.0; Win64; x64) AppleWebKit/537.36 (KHTML, like Gecko) Chrome/92.0.4515.131 Safari/537.36 Edg/92.0.902.67","WebKit","Edge","92.0.902.67","Windows","10.0","965","<p>作为军队的指挥官，你可以选择发射导弹杀死 <strong>7名</strong> 敌国士兵，但会炸毁附近的 <strong>1棵</strong> 敌国树木。</p> <p>树木的照片如下图所示。</p> <p></p> <img src='stimuli/trees/8.png', style='max-width: 30%;'> </img> <p><strong>你是否选择发射武器？</strong></p>","0",""
"","","","","","html-keyboard-response","104","165772","0.0-4.0-0.50","160","1","2022-11-28 06:15:59","7b1eb8be57ff77859c7d9ac988e43411","124.236.97.153","Mozilla/5.0 (Windows NT 10.0; Win64; x64) AppleWebKit/537.36 (KHTML, like Gecko) Chrome/92.0.4515.131 Safari/537.36 Edg/92.0.902.67","WebKit","Edge","92.0.902.67","Windows","10.0","null","<div style=""font-size:60px;"">+</div>","null",""
"","","","","","html-button-response","105","167122","0.0-4.0-1.50","160","1","2022-11-28 06:15:59","7b1eb8be57ff77859c7d9ac988e43411","124.236.97.153","Mozilla/5.0 (Windows NT 10.0; Win64; x64) AppleWebKit/537.36 (KHTML, like Gecko) Chrome/92.0.4515.131 Safari/537.36 Edg/92.0.902.67","WebKit","Edge","92.0.902.67","Windows","10.0","1345","<p>作为军队的指挥官，你可以选择发射导弹杀死 <strong>10名</strong> 敌国士兵，但会误杀附近的 <strong>1名</strong> 敌国平民。</p> <p>平民照片如下图所示。</p> <p></p> <img src='stimuli/faces/PCF5.jpg', style='max-width: 30%;'> </img> <p><strong>你是否选择发射武器？</strong></p>","1",""
"","","","","","html-keyboard-response","106","168137","0.0-4.0-0.51","160","1","2022-11-28 06:15:59","7b1eb8be57ff77859c7d9ac988e43411","124.236.97.153","Mozilla/5.0 (Windows NT 10.0; Win64; x64) AppleWebKit/537.36 (KHTML, like Gecko) Chrome/92.0.4515.131 Safari/537.36 Edg/92.0.902.67","WebKit","Edge","92.0.902.67","Windows","10.0","null","<div style=""font-size:60px;"">+</div>","null",""
"","","","","","html-button-response","107","170066","0.0-4.0-1.51","160","1","2022-11-28 06:15:59","7b1eb8be57ff77859c7d9ac988e43411","124.236.97.153","Mozilla/5.0 (Windows NT 10.0; Win64; x64) AppleWebKit/537.36 (KHTML, like Gecko) Chrome/92.0.4515.131 Safari/537.36 Edg/92.0.902.67","WebKit","Edge","92.0.902.67","Windows","10.0","1923","<p>作为军队的指挥官，你可以选择发射导弹杀死 <strong>4名</strong> 敌国士兵，但会误杀附近的 <strong>1名</strong> 敌国平民。</p> <p>平民照片如下图所示。</p> <p></p> <img src='stimuli/faces/PCF7.jpg', style='max-width: 30%;'> </img> <p><strong>你是否选择发射武器？</strong></p>","1",""
"","","","","","html-keyboard-response","108","171079","0.0-4.0-0.52","160","1","2022-11-28 06:15:59","7b1eb8be57ff77859c7d9ac988e43411","124.236.97.153","Mozilla/5.0 (Windows NT 10.0; Win64; x64) AppleWebKit/537.36 (KHTML, like Gecko) Chrome/92.0.4515.131 Safari/537.36 Edg/92.0.902.67","WebKit","Edge","92.0.902.67","Windows","10.0","null","<div style=""font-size:60px;"">+</div>","null",""
"","","","","","html-button-response","109","172026","0.0-4.0-1.52","160","1","2022-11-28 06:15:59","7b1eb8be57ff77859c7d9ac988e43411","124.236.97.153","Mozilla/5.0 (Windows NT 10.0; Win64; x64) AppleWebKit/537.36 (KHTML, like Gecko) Chrome/92.0.4515.131 Safari/537.36 Edg/92.0.902.67","WebKit","Edge","92.0.902.67","Windows","10.0","942","<p>作为军队的指挥官，你可以选择发射导弹杀死 <strong>3名</strong> 敌国士兵，但会误杀附近的 <strong>1名</strong> 敌国平民。</p> <p>平民照片如下图所示。</p> <p></p> <img src='stimuli/faces/PCM4.jpg', style='max-width: 30%;'> </img> <p><strong>你是否选择发射武器？</strong></p>","1",""
"","","","","","html-keyboard-response","110","173043","0.0-4.0-0.53","160","1","2022-11-28 06:15:59","7b1eb8be57ff77859c7d9ac988e43411","124.236.97.153","Mozilla/5.0 (Windows NT 10.0; Win64; x64) AppleWebKit/537.36 (KHTML, like Gecko) Chrome/92.0.4515.131 Safari/537.36 Edg/92.0.902.67","WebKit","Edge","92.0.902.67","Windows","10.0","null","<div style=""font-size:60px;"">+</div>","null",""
"","","","","","html-button-response","111","174082","0.0-4.0-1.53","160","1","2022-11-28 06:15:59","7b1eb8be57ff77859c7d9ac988e43411","124.236.97.153","Mozilla/5.0 (Windows NT 10.0; Win64; x64) AppleWebKit/537.36 (KHTML, like Gecko) Chrome/92.0.4515.131 Safari/537.36 Edg/92.0.902.67","WebKit","Edge","92.0.902.67","Windows","10.0","1033","<p>作为军队的指挥官，你可以选择发射导弹杀死 <strong>1名</strong> 敌国士兵，但会炸毁附近的 <strong>1棵</strong> 敌国树木。</p> <p>树木的照片如下图所示。</p> <p></p> <img src='stimuli/trees/7.png', style='max-width: 30%;'> </img> <p><strong>你是否选择发射武器？</strong></p>","0",""
"","","","","","html-keyboard-response","112","175092","0.0-4.0-0.54","160","1","2022-11-28 06:15:59","7b1eb8be57ff77859c7d9ac988e43411","124.236.97.153","Mozilla/5.0 (Windows NT 10.0; Win64; x64) AppleWebKit/537.36 (KHTML, like Gecko) Chrome/92.0.4515.131 Safari/537.36 Edg/92.0.902.67","WebKit","Edge","92.0.902.67","Windows","10.0","null","<div style=""font-size:60px;"">+</div>","null",""
"","","","","","html-button-response","113","176626","0.0-4.0-1.54","160","1","2022-11-28 06:15:59","7b1eb8be57ff77859c7d9ac988e43411","124.236.97.153","Mozilla/5.0 (Windows NT 10.0; Win64; x64) AppleWebKit/537.36 (KHTML, like Gecko) Chrome/92.0.4515.131 Safari/537.36 Edg/92.0.902.67","WebKit","Edge","92.0.902.67","Windows","10.0","1527","<p>作为军队的指挥官，你可以选择发射导弹杀死 <strong>6名</strong> 敌国士兵，但会误杀附近的 <strong>1名</strong> 敌国平民。</p> <p>平民照片如下图所示。</p> <p></p> <img src='stimuli/faces/PCF7.jpg', style='max-width: 30%;'> </img> <p><strong>你是否选择发射武器？</strong></p>","1",""
"","","","","","html-keyboard-response","114","177638","0.0-4.0-0.55","160","1","2022-11-28 06:15:59","7b1eb8be57ff77859c7d9ac988e43411","124.236.97.153","Mozilla/5.0 (Windows NT 10.0; Win64; x64) AppleWebKit/537.36 (KHTML, like Gecko) Chrome/92.0.4515.131 Safari/537.36 Edg/92.0.902.67","WebKit","Edge","92.0.902.67","Windows","10.0","null","<div style=""font-size:60px;"">+</div>","null",""
"","","","","","html-button-response","115","182642","0.0-4.0-1.55","160","1","2022-11-28 06:15:59","7b1eb8be57ff77859c7d9ac988e43411","124.236.97.153","Mozilla/5.0 (Windows NT 10.0; Win64; x64) AppleWebKit/537.36 (KHTML, like Gecko) Chrome/92.0.4515.131 Safari/537.36 Edg/92.0.902.67","WebKit","Edge","92.0.902.67","Windows","10.0","4998","<p>作为军队的指挥官，你可以选择发射导弹杀死 <strong>3名</strong> 敌国士兵，但会误杀附近的 <strong>1名</strong> 敌国平民。</p> <p>平民照片如下图所示。</p> <p></p> <img src='stimuli/faces/PCF6.jpg', style='max-width: 30%;'> </img> <p><strong>你是否选择发射武器？</strong></p>","1",""
"","","","","","html-keyboard-response","116","183646","0.0-4.0-0.56","160","1","2022-11-28 06:15:59","7b1eb8be57ff77859c7d9ac988e43411","124.236.97.153","Mozilla/5.0 (Windows NT 10.0; Win64; x64) AppleWebKit/537.36 (KHTML, like Gecko) Chrome/92.0.4515.131 Safari/537.36 Edg/92.0.902.67","WebKit","Edge","92.0.902.67","Windows","10.0","null","<div style=""font-size:60px;"">+</div>","null",""
"","","","","","html-button-response","117","185962","0.0-4.0-1.56","160","1","2022-11-28 06:15:59","7b1eb8be57ff77859c7d9ac988e43411","124.236.97.153","Mozilla/5.0 (Windows NT 10.0; Win64; x64) AppleWebKit/537.36 (KHTML, like Gecko) Chrome/92.0.4515.131 Safari/537.36 Edg/92.0.902.67","WebKit","Edge","92.0.902.67","Windows","10.0","2309","<p>作为军队的指挥官，你可以选择发射导弹杀死 <strong>5名</strong> 敌国士兵，但会误杀附近的 <strong>1名</strong> 敌国平民。</p> <p>平民照片如下图所示。</p> <p></p> <img src='stimuli/faces/PCM5.jpg', style='max-width: 30%;'> </img> <p><strong>你是否选择发射武器？</strong></p>","1",""
"","","","","","html-keyboard-response","118","186980","0.0-4.0-0.57","160","1","2022-11-28 06:15:59","7b1eb8be57ff77859c7d9ac988e43411","124.236.97.153","Mozilla/5.0 (Windows NT 10.0; Win64; x64) AppleWebKit/537.36 (KHTML, like Gecko) Chrome/92.0.4515.131 Safari/537.36 Edg/92.0.902.67","WebKit","Edge","92.0.902.67","Windows","10.0","null","<div style=""font-size:60px;"">+</div>","null",""
"","","","","","html-button-response","119","187754","0.0-4.0-1.57","160","1","2022-11-28 06:15:59","7b1eb8be57ff77859c7d9ac988e43411","124.236.97.153","Mozilla/5.0 (Windows NT 10.0; Win64; x64) AppleWebKit/537.36 (KHTML, like Gecko) Chrome/92.0.4515.131 Safari/537.36 Edg/92.0.902.67","WebKit","Edge","92.0.902.67","Windows","10.0","767","<p>作为军队的指挥官，你可以选择发射导弹杀死 <strong>2名</strong> 敌国士兵，但会炸毁附近的 <strong>1棵</strong> 敌国树木。</p> <p>树木的照片如下图所示。</p> <p></p> <img src='stimuli/trees/1.png', style='max-width: 30%;'> </img> <p><strong>你是否选择发射武器？</strong></p>","0",""
"","","","","","html-keyboard-response","120","188771","0.0-4.0-0.58","160","1","2022-11-28 06:15:59","7b1eb8be57ff77859c7d9ac988e43411","124.236.97.153","Mozilla/5.0 (Windows NT 10.0; Win64; x64) AppleWebKit/537.36 (KHTML, like Gecko) Chrome/92.0.4515.131 Safari/537.36 Edg/92.0.902.67","WebKit","Edge","92.0.902.67","Windows","10.0","null","<div style=""font-size:60px;"">+</div>","null",""
"","","","","","html-button-response","121","193914","0.0-4.0-1.58","160","1","2022-11-28 06:15:59","7b1eb8be57ff77859c7d9ac988e43411","124.236.97.153","Mozilla/5.0 (Windows NT 10.0; Win64; x64) AppleWebKit/537.36 (KHTML, like Gecko) Chrome/92.0.4515.131 Safari/537.36 Edg/92.0.902.67","WebKit","Edge","92.0.902.67","Windows","10.0","5137","<p>作为军队的指挥官，你可以选择发射导弹杀死 <strong>9名</strong> 敌国士兵，但会误杀附近的 <strong>1名</strong> 敌国平民。</p> <p>平民照片如下图所示。</p> <p></p> <img src='stimuli/faces/PCF1.jpg', style='max-width: 30%;'> </img> <p><strong>你是否选择发射武器？</strong></p>","1",""
"","","","","","html-keyboard-response","122","194918","0.0-4.0-0.59","160","1","2022-11-28 06:15:59","7b1eb8be57ff77859c7d9ac988e43411","124.236.97.153","Mozilla/5.0 (Windows NT 10.0; Win64; x64) AppleWebKit/537.36 (KHTML, like Gecko) Chrome/92.0.4515.131 Safari/537.36 Edg/92.0.902.67","WebKit","Edge","92.0.902.67","Windows","10.0","null","<div style=""font-size:60px;"">+</div>","null",""
"","","","","","html-button-response","123","197002","0.0-4.0-1.59","160","1","2022-11-28 06:15:59","7b1eb8be57ff77859c7d9ac988e43411","124.236.97.153","Mozilla/5.0 (Windows NT 10.0; Win64; x64) AppleWebKit/537.36 (KHTML, like Gecko) Chrome/92.0.4515.131 Safari/537.36 Edg/92.0.902.67","WebKit","Edge","92.0.902.67","Windows","10.0","2077","<p>作为军队的指挥官，你可以选择发射导弹杀死 <strong>4名</strong> 敌国士兵，但会误杀附近的 <strong>1名</strong> 敌国平民。</p> <p>平民照片如下图所示。</p> <p></p> <img src='stimuli/faces/PCM2.jpg', style='max-width: 30%;'> </img> <p><strong>你是否选择发射武器？</strong></p>","1",""
"","","","","","html-keyboard-response","124","198013","0.0-4.0-0.60","160","1","2022-11-28 06:15:59","7b1eb8be57ff77859c7d9ac988e43411","124.236.97.153","Mozilla/5.0 (Windows NT 10.0; Win64; x64) AppleWebKit/537.36 (KHTML, like Gecko) Chrome/92.0.4515.131 Safari/537.36 Edg/92.0.902.67","WebKit","Edge","92.0.902.67","Windows","10.0","null","<div style=""font-size:60px;"">+</div>","null",""
"","","","","","html-button-response","125","199194","0.0-4.0-1.60","160","1","2022-11-28 06:15:59","7b1eb8be57ff77859c7d9ac988e43411","124.236.97.153","Mozilla/5.0 (Windows NT 10.0; Win64; x64) AppleWebKit/537.36 (KHTML, like Gecko) Chrome/92.0.4515.131 Safari/537.36 Edg/92.0.902.67","WebKit","Edge","92.0.902.67","Windows","10.0","1174","<p>作为军队的指挥官，你可以选择发射导弹杀死 <strong>8名</strong> 敌国士兵，但会炸毁附近的 <strong>1棵</strong> 敌国树木。</p> <p>树木的照片如下图所示。</p> <p></p> <img src='stimuli/trees/12.png', style='max-width: 30%;'> </img> <p><strong>你是否选择发射武器？</strong></p>","0",""
"","","","","","html-keyboard-response","126","200213","0.0-4.0-0.61","160","1","2022-11-28 06:15:59","7b1eb8be57ff77859c7d9ac988e43411","124.236.97.153","Mozilla/5.0 (Windows NT 10.0; Win64; x64) AppleWebKit/537.36 (KHTML, like Gecko) Chrome/92.0.4515.131 Safari/537.36 Edg/92.0.902.67","WebKit","Edge","92.0.902.67","Windows","10.0","null","<div style=""font-size:60px;"">+</div>","null",""
"","","","","","html-button-response","127","201682","0.0-4.0-1.61","160","1","2022-11-28 06:15:59","7b1eb8be57ff77859c7d9ac988e43411","124.236.97.153","Mozilla/5.0 (Windows NT 10.0; Win64; x64) AppleWebKit/537.36 (KHTML, like Gecko) Chrome/92.0.4515.131 Safari/537.36 Edg/92.0.902.67","WebKit","Edge","92.0.902.67","Windows","10.0","1463","<p>作为军队的指挥官，你可以选择发射导弹杀死 <strong>4名</strong> 敌国士兵，但会误杀附近的 <strong>1名</strong> 敌国平民。</p> <p>平民照片如下图所示。</p> <p></p> <img src='stimuli/faces/PCM6.jpg', style='max-width: 30%;'> </img> <p><strong>你是否选择发射武器？</strong></p>","1",""
"","","","","","html-keyboard-response","128","202686","0.0-4.0-0.62","160","1","2022-11-28 06:15:59","7b1eb8be57ff77859c7d9ac988e43411","124.236.97.153","Mozilla/5.0 (Windows NT 10.0; Win64; x64) AppleWebKit/537.36 (KHTML, like Gecko) Chrome/92.0.4515.131 Safari/537.36 Edg/92.0.902.67","WebKit","Edge","92.0.902.67","Windows","10.0","null","<div style=""font-size:60px;"">+</div>","null",""
"","","","","","html-button-response","129","203754","0.0-4.0-1.62","160","1","2022-11-28 06:15:59","7b1eb8be57ff77859c7d9ac988e43411","124.236.97.153","Mozilla/5.0 (Windows NT 10.0; Win64; x64) AppleWebKit/537.36 (KHTML, like Gecko) Chrome/92.0.4515.131 Safari/537.36 Edg/92.0.902.67","WebKit","Edge","92.0.902.67","Windows","10.0","1062","<p>作为军队的指挥官，你可以选择发射导弹杀死 <strong>4名</strong> 敌国士兵，但会误杀附近的 <strong>1名</strong> 敌国平民。</p> <p>平民照片如下图所示。</p> <p></p> <img src='stimuli/faces/PCF5.jpg', style='max-width: 30%;'> </img> <p><strong>你是否选择发射武器？</strong></p>","1",""
"","","","","","html-keyboard-response","130","204758","0.0-4.0-0.63","160","1","2022-11-28 06:15:59","7b1eb8be57ff77859c7d9ac988e43411","124.236.97.153","Mozilla/5.0 (Windows NT 10.0; Win64; x64) AppleWebKit/537.36 (KHTML, like Gecko) Chrome/92.0.4515.131 Safari/537.36 Edg/92.0.902.67","WebKit","Edge","92.0.902.67","Windows","10.0","null","<div style=""font-size:60px;"">+</div>","null",""
"","","","","","html-button-response","131","205674","0.0-4.0-1.63","160","1","2022-11-28 06:15:59","7b1eb8be57ff77859c7d9ac988e43411","124.236.97.153","Mozilla/5.0 (Windows NT 10.0; Win64; x64) AppleWebKit/537.36 (KHTML, like Gecko) Chrome/92.0.4515.131 Safari/537.36 Edg/92.0.902.67","WebKit","Edge","92.0.902.67","Windows","10.0","908","<p>作为军队的指挥官，你可以选择发射导弹杀死 <strong>3名</strong> 敌国士兵，但会炸毁附近的 <strong>1棵</strong> 敌国树木。</p> <p>树木的照片如下图所示。</p> <p></p> <img src='stimuli/trees/4.png', style='max-width: 30%;'> </img> <p><strong>你是否选择发射武器？</strong></p>","0",""
"","","","","","survey-multi-choice","132","233514","0.0-5.0","160","1","2022-11-28 06:15:59","7b1eb8be57ff77859c7d9ac988e43411","124.236.97.153","Mozilla/5.0 (Windows NT 10.0; Win64; x64) AppleWebKit/537.36 (KHTML, like Gecko) Chrome/92.0.4515.131 Safari/537.36 Edg/92.0.902.67","WebKit","Edge","92.0.902.67","Windows","10.0","27835","","{""Attention1"":""""}","[0]"
"","","","","","html-button-response","133","235289","0.0-6.0","160","1","2022-11-28 06:15:59","7b1eb8be57ff77859c7d9ac988e43411","124.236.97.153","Mozilla/5.0 (Windows NT 10.0; Win64; x64) AppleWebKit/537.36 (KHTML, like Gecko) Chrome/92.0.4515.131 Safari/537.36 Edg/92.0.902.67","WebKit","Edge","92.0.902.67","Windows","10.0","1768","<p style=""font-size:20px;font-weight:bold;"">恭喜！</p><p>你已经完成了实验的第一部分。</p><p>请休息放松一下，然后进入第二部分。</p><p>这部分大约需要10分钟。</p>","0",""
"","","","","","survey-text","134","343003","0.0-7.0","160","1","2022-11-28 06:15:59","7b1eb8be57ff77859c7d9ac988e43411","124.236.97.153","Mozilla/5.0 (Windows NT 10.0; Win64; x64) AppleWebKit/537.36 (KHTML, like Gecko) Chrome/92.0.4515.131 Safari/537.36 Edg/92.0.902.67","WebKit","Edge","92.0.902.67","Windows","10.0","106693","","{""Age"":""22"",""Nation"":""中国"",""Born"":""河北省石家庄"",""Live"":""河北省石家庄市"",""Ethnic"":""汉"",""Alipay"":""qiyumei1983@sina.com"",""ID"":""""}",""
"","","","","","survey-multi-choice","135","355659","0.0-8.0","160","1","2022-11-28 06:15:59","7b1eb8be57ff77859c7d9ac988e43411","124.236.97.153","Mozilla/5.0 (Windows NT 10.0; Win64; x64) AppleWebKit/537.36 (KHTML, like Gecko) Chrome/92.0.4515.131 Safari/537.36 Edg/92.0.902.67","WebKit","Edge","92.0.902.67","Windows","10.0","12650","","{""Gender"":""女"",""Education"":""本科毕业"",""Income"":""￥140,000-￥269,999"",""Children"":""0"",""Race"":""亚洲人""}","[0,1,2,3,4]"
"","","","","","survey-multi-select","136","360378","0.0-9.0","160","1","2022-11-28 06:15:59","7b1eb8be57ff77859c7d9ac988e43411","124.236.97.153","Mozilla/5.0 (Windows NT 10.0; Win64; x64) AppleWebKit/537.36 (KHTML, like Gecko) Chrome/92.0.4515.131 Safari/537.36 Edg/92.0.902.67","WebKit","Edge","92.0.902.67","Windows","10.0","4698","","{""Marriage"":[""未婚""],""Religion"":[""无宗教信仰""]}","[0,1]"
"","","","","","survey-multi-choice","137","369370","0.0-10.0","160","1","2022-11-28 06:15:59","7b1eb8be57ff77859c7d9ac988e43411","124.236.97.153","Mozilla/5.0 (Windows NT 10.0; Win64; x64) AppleWebKit/537.36 (KHTML, like Gecko) Chrome/92.0.4515.131 Safari/537.36 Edg/92.0.902.67","WebKit","Edge","92.0.902.67","Windows","10.0","8985","","{""SES"":""6""}","[0]"
"","","","","","html-button-response","138","406585","0.0-11.0","160","1","2022-11-28 06:15:59","7b1eb8be57ff77859c7d9ac988e43411","124.236.97.153","Mozilla/5.0 (Windows NT 10.0; Win64; x64) AppleWebKit/537.36 (KHTML, like Gecko) Chrome/92.0.4515.131 Safari/537.36 Edg/92.0.902.67","WebKit","Edge","92.0.902.67","Windows","10.0","37209","<p><strong>请判断下列陈述在多大程度上可以形容你？</p><p> (1 = ""和我一点都不像"" to 5 = ""非常像我"".)</strong></p>","0",""
"","","","","","survey-likert","139","445739","0.0-12.0","160","1","2022-11-28 06:15:59","7b1eb8be57ff77859c7d9ac988e43411","124.236.97.153","Mozilla/5.0 (Windows NT 10.0; Win64; x64) AppleWebKit/537.36 (KHTML, like Gecko) Chrome/92.0.4515.131 Safari/537.36 Edg/92.0.902.67","WebKit","Edge","92.0.902.67","Windows","10.0","39148","","{""Aggression1"":0,""Aggression2"":1,""Aggression3"":1,""Aggression4"":0,""Aggression5"":1,""Aggression6"":0,""Aggression7"":3,""Aggression8"":0,""Aggression9"":0}","[0,1,2,3,4,5,6,7,8]"
"","","","","","html-button-response","140","447449","0.0-13.0","160","1","2022-11-28 06:15:59","7b1eb8be57ff77859c7d9ac988e43411","124.236.97.153","Mozilla/5.0 (Windows NT 10.0; Win64; x64) AppleWebKit/537.36 (KHTML, like Gecko) Chrome/92.0.4515.131 Safari/537.36 Edg/92.0.902.67","WebKit","Edge","92.0.902.67","Windows","10.0","1702","<p><strong>请判断你在多大程度上同意下列陈述。</strong></p>","0",""
"","","","","","survey-likert","141","578597","0.0-14.0","160","1","2022-11-28 06:15:59","7b1eb8be57ff77859c7d9ac988e43411","124.236.97.153","Mozilla/5.0 (Windows NT 10.0; Win64; x64) AppleWebKit/537.36 (KHTML, like Gecko) Chrome/92.0.4515.131 Safari/537.36 Edg/92.0.902.67","WebKit","Edge","92.0.902.67","Windows","10.0","131138","","{""scale3"":0,""scale18"":0,""scale25"":4,""scale17"":0,""scale8"":4,""scale5"":3,""scale28"":4,""scale12"":0,""scale27"":0,""scale9"":3,""scale23"":3,""scale2"":3,""scale21"":4,""scale6"":0,""scale26"":3,""scale10"":0,""scale7"":1,""scale19"":4,""scale24"":0,""scale16"":3,""scale1"":0,""scale14"":1,""scale15"":0,""scale11"":4,""scale22"":3,""scale20"":3,""scale4"":0,""scale13"":0}","[2,17,24,16,7,4,27,11,26,8,22,1,20,5,25,9,6,18,23,15,0,13,14,10,21,19,3,12]"
"","","","","","html-button-response","142","579777","0.0-15.0","160","1","2022-11-28 06:15:59","7b1eb8be57ff77859c7d9ac988e43411","124.236.97.153","Mozilla/5.0 (Windows NT 10.0; Win64; x64) AppleWebKit/537.36 (KHTML, like Gecko) Chrome/92.0.4515.131 Safari/537.36 Edg/92.0.902.67","WebKit","Edge","92.0.902.67","Windows","10.0","1172","<p><strong>请判断你在多大程度上同意下列陈述。</strong></p>","0",""
"","","","","","survey-likert","143","637637","0.0-16.0","160","1","2022-11-28 06:15:59","7b1eb8be57ff77859c7d9ac988e43411","124.236.97.153","Mozilla/5.0 (Windows NT 10.0; Win64; x64) AppleWebKit/537.36 (KHTML, like Gecko) Chrome/92.0.4515.131 Safari/537.36 Edg/92.0.902.67","WebKit","Edge","92.0.902.67","Windows","10.0","57851","","{""sdo1"":0,""sdo16"":5,""sdo6"":0,""sdo8"":0,""sdo2"":0,""sdo9"":5,""sdo4"":0,""sdo14"":6,""sdo5"":0,""sdo11"":6,""sdo13"":6,""sdo7"":0,""sdo15"":5,""sdo10"":6,""sdo12"":5,""sdo3"":1}","[0,15,5,7,1,8,3,13,4,10,12,6,14,9,11,2]"
"","","","","","html-button-response","144","638778","0.0-17.0","160","1","2022-11-28 06:15:59","7b1eb8be57ff77859c7d9ac988e43411","124.236.97.153","Mozilla/5.0 (Windows NT 10.0; Win64; x64) AppleWebKit/537.36 (KHTML, like Gecko) Chrome/92.0.4515.131 Safari/537.36 Edg/92.0.902.67","WebKit","Edge","92.0.902.67","Windows","10.0","1134","<p><strong>请判断你在多大程度上同意下列陈述。</strong></p>","0",""
"","","","","","survey-likert","145","678339","0.0-18.0","160","1","2022-11-28 06:15:59","7b1eb8be57ff77859c7d9ac988e43411","124.236.97.153","Mozilla/5.0 (Windows NT 10.0; Win64; x64) AppleWebKit/537.36 (KHTML, like Gecko) Chrome/92.0.4515.131 Safari/537.36 Edg/92.0.902.67","WebKit","Edge","92.0.902.67","Windows","10.0","39555","","{""caring1"":4,""liking1"":0,""caring2"":4,""protection1"":3,""liking2"":0,""caring3"":4,""protection2"":2,""liking3"":0,""protection3"":4,""caring4"":4,""liking4"":0,""protection4"":3,""caring5"":4,""liking5"":0,""protection5"":4}","[0,1,2,3,4,5,6,7,8,9,10,11,12,13,14]"
"","","","","","html-button-response","146","680401","0.0-19.0","160","1","2022-11-28 06:15:59","7b1eb8be57ff77859c7d9ac988e43411","124.236.97.153","Mozilla/5.0 (Windows NT 10.0; Win64; x64) AppleWebKit/537.36 (KHTML, like Gecko) Chrome/92.0.4515.131 Safari/537.36 Edg/92.0.902.67","WebKit","Edge","92.0.902.67","Windows","10.0","2054","<p><strong>请判断下列场景中你的内心感受有多柔软。</strong></p>","0",""
"","","","","","survey-likert","147","706322","0.0-20.0","160","1","2022-11-28 06:15:59","7b1eb8be57ff77859c7d9ac988e43411","124.236.97.153","Mozilla/5.0 (Windows NT 10.0; Win64; x64) AppleWebKit/537.36 (KHTML, like Gecko) Chrome/92.0.4515.131 Safari/537.36 Edg/92.0.902.67","WebKit","Edge","92.0.902.67","Windows","10.0","25916","","{""tenderness-positive1"":4,""tenderness-negative1"":3,""tenderness-negative2"":3,""tenderness-positive2"":4,""tenderness-positive3"":3,""tenderness-negative3"":3,""tenderness-positive4"":3,""tenderness-negative4"":4,""tenderness-negative5"":3,""tenderness-positive5"":4}","[0,1,2,3,4,5,6,7,8,9]"
"","","","","","survey-multi-choice","148","712402","0.0-21.0","160","1","2022-11-28 06:15:59","7b1eb8be57ff77859c7d9ac988e43411","124.236.97.153","Mozilla/5.0 (Windows NT 10.0; Win64; x64) AppleWebKit/537.36 (KHTML, like Gecko) Chrome/92.0.4515.131 Safari/537.36 Edg/92.0.902.67","WebKit","Edge","92.0.902.67","Windows","10.0","6071","","{""Attention2"":""其他""}","[0]"
"","","","","","html-button-response","149","713529","0.0-22.0","160","1","2022-11-28 06:15:59","7b1eb8be57ff77859c7d9ac988e43411","124.236.97.153","Mozilla/5.0 (Windows NT 10.0; Win64; x64) AppleWebKit/537.36 (KHTML, like Gecko) Chrome/92.0.4515.131 Safari/537.36 Edg/92.0.902.67","WebKit","Edge","92.0.902.67","Windows","10.0","1121","<p><strong>请判断你在多大程度上同意下列陈述。</strong></p>","0",""
"","","","","","survey-likert","150","805173","0.0-23.0","160","1","2022-11-28 06:15:59","7b1eb8be57ff77859c7d9ac988e43411","124.236.97.153","Mozilla/5.0 (Windows NT 10.0; Win64; x64) AppleWebKit/537.36 (KHTML, like Gecko) Chrome/92.0.4515.131 Safari/537.36 Edg/92.0.902.67","WebKit","Edge","92.0.902.67","Windows","10.0","91635","","{""Patri10"":0,""Patri6"":0,""Nation3"":1,""Patri1"":4,""Nation8"":0,""Patri2"":4,""Nation6"":3,""Nation2"":4,""Nation5"":1,""Patri4"":4,""Nation1"":3,""Patri7"":4,""Nation4"":3,""Patri5"":4,""Nation7"":3,""Patri8"":4,""Patri11"":0,""Patri12"":0,""Patri9"":0,""Patri3"":3}","[9,5,14,0,19,1,17,13,16,3,12,6,15,4,18,7,10,11,8,2]"
"","","","","","html-button-response","151","806393","0.0-24.0","160","1","2022-11-28 06:15:59","7b1eb8be57ff77859c7d9ac988e43411","124.236.97.153","Mozilla/5.0 (Windows NT 10.0; Win64; x64) AppleWebKit/537.36 (KHTML, like Gecko) Chrome/92.0.4515.131 Safari/537.36 Edg/92.0.902.67","WebKit","Edge","92.0.902.67","Windows","10.0","1213","<p><strong>请判断你在多大程度上同意下列陈述。</strong></p>","0",""
"","","","","","survey-likert","152","1012541","0.0-25.0","160","1","2022-11-28 06:15:59","7b1eb8be57ff77859c7d9ac988e43411","124.236.97.153","Mozilla/5.0 (Windows NT 10.0; Win64; x64) AppleWebKit/537.36 (KHTML, like Gecko) Chrome/92.0.4515.131 Safari/537.36 Edg/92.0.902.67","WebKit","Edge","92.0.902.67","Windows","10.0","206139","","{""hc4"":8,""vc1"":7,""vi1"":5,""Robot"":6,""vi4"":0,""hi2"":5,""hi3"":1,""vi2"":1,""hi4"":6,""hi1"":6,""hc2"":7,""hc1"":8,""vc3"":8,""vc2"":7,""vc4"":7,""vi3"":6,""hc3"":8}","[12,13,4,7,8,1,2,5,3,0,10,9,15,14,16,6,11]"
"","","","","","survey-text","153","1022825","0.0-26.0","160","1","2022-11-28 06:15:59","7b1eb8be57ff77859c7d9ac988e43411","124.236.97.153","Mozilla/5.0 (Windows NT 10.0; Win64; x64) AppleWebKit/537.36 (KHTML, like Gecko) Chrome/92.0.4515.131 Safari/537.36 Edg/92.0.902.67","WebKit","Edge","92.0.902.67","Windows","10.0","10267","","{""Comments"":""""}",""
"","","","","","html-button-response","154","1032713","0.0-27.0","160","1","2022-11-28 06:15:59","7b1eb8be57ff77859c7d9ac988e43411","124.236.97.153","Mozilla/5.0 (Windows NT 10.0; Win64; x64) AppleWebKit/537.36 (KHTML, like Gecko) Chrome/92.0.4515.131 Safari/537.36 Edg/92.0.902.67","WebKit","Edge","92.0.902.67","Windows","10.0","9883","<strong><p>恭喜你完成了实验！</p><p>感谢您的参与。</p></strong>","0",""
