"success","timeout","failed_images","failed_audio","failed_video","trial_type","trial_index","time_elapsed","internal_node_id","run_id","condition","recorded_at","source_code_version","ip","user_agent","device","browser","browser_version","platform","platform_version","rt","stimulus","response","question_order"
"true","false","[]","[]","[]","preload","0","3994","0.0-0.0","162","1","2022-11-28 06:59:24","7b1eb8be57ff77859c7d9ac988e43411","114.252.41.243","Mozilla/5.0 (Windows NT 10.0; Win64; x64; rv:107.0) Gecko/20100101 Firefox/107.0","","Firefox","107.0","Windows","10.0","","","",""
"true","","","","","fullscreen","1","7177","0.0-1.0","162","1","2022-11-28 06:59:24","7b1eb8be57ff77859c7d9ac988e43411","114.252.41.243","Mozilla/5.0 (Windows NT 10.0; Win64; x64; rv:107.0) Gecko/20100101 Firefox/107.0","","Firefox","107.0","Windows","10.0","","","",""
"","","","","","html-button-response","2","34459","0.0-2.0","162","1","2022-11-28 06:59:24","7b1eb8be57ff77859c7d9ac988e43411","114.252.41.243","Mozilla/5.0 (Windows NT 10.0; Win64; x64; rv:107.0) Gecko/20100101 Firefox/107.0","","Firefox","107.0","Windows","10.0","27277","<p style=""font-size:20px;font-weight:bold;"">实验知情同意书</p><p style=""text-align:left;""><strong>实验名称：</strong>社会冲突研究</p><p style=""text-align:left;""><strong>主要研究者：</strong>韩晓春副教授（北京师范大学心理学部）</p><p style=""text-align:left;""><strong>联系方式：</strong>发送邮件至xiaochun.han@bnu.edu.cn</p><p style=""text-align:left;""><strong>研究目的：</strong>研究旨在了解人类面对群体冲突时的决策方式，以及相关的心理学特质。实验调查大约需要20分钟。</p><p style=""text-align:left;""><strong>实验流程：</strong>实验包含两部分。第一部分呈现一系列群体冲突场景，请你决定如何对这些冲突进行反应，大约需要10分钟完成。第二部分包含一系列人口统计学信息收集和心理学问卷，大约需要10分钟完成。</p><p style=""text-align:left;""><strong>参加及退出规则：</strong>参加本实验完全取决于您的个人意愿。在参与过程中，您可以随时退出，并且不用承担任何后果。</p><p style=""text-align:left;""><strong>隐私：</strong>本实验完全匿名进行，不会收集您的姓名或其他能够识别您身份的信息。实验中收集的作答仅用作科学研究使用，可能会在学术期刊/书籍上发表，或者用于教学，您的数据未来可能会和其他研究者或实验室分享，但您的个人身份不会被识别。</p><p style=""text-align:left;""><strong>实验报酬：</strong>实验完成后，您将获得15元人民币报酬，以感谢您的时间和努力。调查问卷中包含几道题目用以测验您作答时的认真度。只有完成全部实验，并且正确回答认真度测验的被试才能获得实验报酬。实验报酬将通过支付宝转账发放。</p><p style=""text-align:left;font-size:20px;""><strong>如果您同意以上实验知情同意书的内容，请点击'同意并且开始实验'按钮；否则请关闭浏览器界面，退出实验。</strong></p>","0",""
"","","","","","html-button-response","3","35899","0.0-3.0","162","1","2022-11-28 06:59:24","7b1eb8be57ff77859c7d9ac988e43411","114.252.41.243","Mozilla/5.0 (Windows NT 10.0; Win64; x64; rv:107.0) Gecko/20100101 Firefox/107.0","","Firefox","107.0","Windows","10.0","1436","<p ><strong>实验任务一：</strong></p><p>请想象你的国家与另一个国家发生了军事冲突。</p><p>你是国家军队的指挥官，你将如何在冲突中进行决策。</p><p>具体来说，作为军队指挥官，请你决定是否发射导弹进行打击。</p><p>接下来，你会面对一系列场景，请仔细阅读每个场景，然后进行决策。</p><p>这部分实验任务大约需要10分钟。</p><p><strong>实验过程中，请集中注意力。</strong></p>","0",""
"","","","","","html-keyboard-response","4","36903","0.0-4.0-0.0","162","1","2022-11-28 06:59:24","7b1eb8be57ff77859c7d9ac988e43411","114.252.41.243","Mozilla/5.0 (Windows NT 10.0; Win64; x64; rv:107.0) Gecko/20100101 Firefox/107.0","","Firefox","107.0","Windows","10.0","null","<div style=""font-size:60px;"">+</div>","null",""
"","","","","","html-button-response","5","39004","0.0-4.0-1.0","162","1","2022-11-28 06:59:24","7b1eb8be57ff77859c7d9ac988e43411","114.252.41.243","Mozilla/5.0 (Windows NT 10.0; Win64; x64; rv:107.0) Gecko/20100101 Firefox/107.0","","Firefox","107.0","Windows","10.0","2096","<p>作为军队的指挥官，你可以选择发射导弹杀死 <strong>2名</strong> 敌国士兵，但会误杀附近的 <strong>1名</strong> 敌国平民。</p> <p>平民照片如下图所示。</p> <p></p> <img src='stimuli/faces/PCM5.jpg', style='max-width: 30%;'> </img> <p><strong>你是否选择发射武器？</strong></p>","1",""
"","","","","","html-keyboard-response","6","40014","0.0-4.0-0.1","162","1","2022-11-28 06:59:24","7b1eb8be57ff77859c7d9ac988e43411","114.252.41.243","Mozilla/5.0 (Windows NT 10.0; Win64; x64; rv:107.0) Gecko/20100101 Firefox/107.0","","Firefox","107.0","Windows","10.0","null","<div style=""font-size:60px;"">+</div>","null",""
"","","","","","html-button-response","7","40939","0.0-4.0-1.1","162","1","2022-11-28 06:59:24","7b1eb8be57ff77859c7d9ac988e43411","114.252.41.243","Mozilla/5.0 (Windows NT 10.0; Win64; x64; rv:107.0) Gecko/20100101 Firefox/107.0","","Firefox","107.0","Windows","10.0","923","<p>作为军队的指挥官，你可以选择发射导弹杀死 <strong>5名</strong> 敌国士兵，但会炸毁附近的 <strong>1棵</strong> 敌国树木。</p> <p>树木的照片如下图所示。</p> <p></p> <img src='stimuli/trees/9.png', style='max-width: 30%;'> </img> <p><strong>你是否选择发射武器？</strong></p>","0",""
"","","","","","html-keyboard-response","8","41954","0.0-4.0-0.2","162","1","2022-11-28 06:59:24","7b1eb8be57ff77859c7d9ac988e43411","114.252.41.243","Mozilla/5.0 (Windows NT 10.0; Win64; x64; rv:107.0) Gecko/20100101 Firefox/107.0","","Firefox","107.0","Windows","10.0","null","<div style=""font-size:60px;"">+</div>","null",""
"","","","","","html-button-response","9","43819","0.0-4.0-1.2","162","1","2022-11-28 06:59:24","7b1eb8be57ff77859c7d9ac988e43411","114.252.41.243","Mozilla/5.0 (Windows NT 10.0; Win64; x64; rv:107.0) Gecko/20100101 Firefox/107.0","","Firefox","107.0","Windows","10.0","1861","<p>作为军队的指挥官，你可以选择发射导弹杀死 <strong>9名</strong> 敌国士兵，但会误杀附近的 <strong>1名</strong> 敌国平民。</p> <p>平民照片如下图所示。</p> <p></p> <img src='stimuli/faces/PCM7.jpg', style='max-width: 30%;'> </img> <p><strong>你是否选择发射武器？</strong></p>","0",""
"","","","","","html-keyboard-response","10","44823","0.0-4.0-0.3","162","1","2022-11-28 06:59:24","7b1eb8be57ff77859c7d9ac988e43411","114.252.41.243","Mozilla/5.0 (Windows NT 10.0; Win64; x64; rv:107.0) Gecko/20100101 Firefox/107.0","","Firefox","107.0","Windows","10.0","null","<div style=""font-size:60px;"">+</div>","null",""
"","","","","","html-button-response","11","45827","0.0-4.0-1.3","162","1","2022-11-28 06:59:24","7b1eb8be57ff77859c7d9ac988e43411","114.252.41.243","Mozilla/5.0 (Windows NT 10.0; Win64; x64; rv:107.0) Gecko/20100101 Firefox/107.0","","Firefox","107.0","Windows","10.0","1002","<p>作为军队的指挥官，你可以选择发射导弹杀死 <strong>1名</strong> 敌国士兵，但会误杀附近的 <strong>1名</strong> 敌国平民。</p> <p>平民照片如下图所示。</p> <p></p> <img src='stimuli/faces/PCF7.jpg', style='max-width: 30%;'> </img> <p><strong>你是否选择发射武器？</strong></p>","1",""
"","","","","","html-keyboard-response","12","46835","0.0-4.0-0.4","162","1","2022-11-28 06:59:24","7b1eb8be57ff77859c7d9ac988e43411","114.252.41.243","Mozilla/5.0 (Windows NT 10.0; Win64; x64; rv:107.0) Gecko/20100101 Firefox/107.0","","Firefox","107.0","Windows","10.0","null","<div style=""font-size:60px;"">+</div>","null",""
"","","","","","html-button-response","13","48250","0.0-4.0-1.4","162","1","2022-11-28 06:59:24","7b1eb8be57ff77859c7d9ac988e43411","114.252.41.243","Mozilla/5.0 (Windows NT 10.0; Win64; x64; rv:107.0) Gecko/20100101 Firefox/107.0","","Firefox","107.0","Windows","10.0","1414","<p>作为军队的指挥官，你可以选择发射导弹杀死 <strong>9名</strong> 敌国士兵，但会误杀附近的 <strong>1名</strong> 敌国平民。</p> <p>平民照片如下图所示。</p> <p></p> <img src='stimuli/faces/PCM3.jpg', style='max-width: 30%;'> </img> <p><strong>你是否选择发射武器？</strong></p>","0",""
"","","","","","html-keyboard-response","14","49267","0.0-4.0-0.5","162","1","2022-11-28 06:59:24","7b1eb8be57ff77859c7d9ac988e43411","114.252.41.243","Mozilla/5.0 (Windows NT 10.0; Win64; x64; rv:107.0) Gecko/20100101 Firefox/107.0","","Firefox","107.0","Windows","10.0","null","<div style=""font-size:60px;"">+</div>","null",""
"","","","","","html-button-response","15","50706","0.0-4.0-1.5","162","1","2022-11-28 06:59:24","7b1eb8be57ff77859c7d9ac988e43411","114.252.41.243","Mozilla/5.0 (Windows NT 10.0; Win64; x64; rv:107.0) Gecko/20100101 Firefox/107.0","","Firefox","107.0","Windows","10.0","1439","<p>作为军队的指挥官，你可以选择发射导弹杀死 <strong>9名</strong> 敌国士兵，但会误杀附近的 <strong>1名</strong> 敌国平民。</p> <p>平民照片如下图所示。</p> <p></p> <img src='stimuli/faces/PCF7.jpg', style='max-width: 30%;'> </img> <p><strong>你是否选择发射武器？</strong></p>","0",""
"","","","","","html-keyboard-response","16","51716","0.0-4.0-0.6","162","1","2022-11-28 06:59:24","7b1eb8be57ff77859c7d9ac988e43411","114.252.41.243","Mozilla/5.0 (Windows NT 10.0; Win64; x64; rv:107.0) Gecko/20100101 Firefox/107.0","","Firefox","107.0","Windows","10.0","null","<div style=""font-size:60px;"">+</div>","null",""
"","","","","","html-button-response","17","52675","0.0-4.0-1.6","162","1","2022-11-28 06:59:24","7b1eb8be57ff77859c7d9ac988e43411","114.252.41.243","Mozilla/5.0 (Windows NT 10.0; Win64; x64; rv:107.0) Gecko/20100101 Firefox/107.0","","Firefox","107.0","Windows","10.0","957","<p>作为军队的指挥官，你可以选择发射导弹杀死 <strong>8名</strong> 敌国士兵，但会炸毁附近的 <strong>1棵</strong> 敌国树木。</p> <p>树木的照片如下图所示。</p> <p></p> <img src='stimuli/trees/11.png', style='max-width: 30%;'> </img> <p><strong>你是否选择发射武器？</strong></p>","0",""
"","","","","","html-keyboard-response","18","53688","0.0-4.0-0.7","162","1","2022-11-28 06:59:24","7b1eb8be57ff77859c7d9ac988e43411","114.252.41.243","Mozilla/5.0 (Windows NT 10.0; Win64; x64; rv:107.0) Gecko/20100101 Firefox/107.0","","Firefox","107.0","Windows","10.0","null","<div style=""font-size:60px;"">+</div>","null",""
"","","","","","html-button-response","19","55690","0.0-4.0-1.7","162","1","2022-11-28 06:59:24","7b1eb8be57ff77859c7d9ac988e43411","114.252.41.243","Mozilla/5.0 (Windows NT 10.0; Win64; x64; rv:107.0) Gecko/20100101 Firefox/107.0","","Firefox","107.0","Windows","10.0","2001","<p>作为军队的指挥官，你可以选择发射导弹杀死 <strong>5名</strong> 敌国士兵，但会炸毁附近的 <strong>1棵</strong> 敌国树木。</p> <p>树木的照片如下图所示。</p> <p></p> <img src='stimuli/trees/8.png', style='max-width: 30%;'> </img> <p><strong>你是否选择发射武器？</strong></p>","0",""
"","","","","","html-keyboard-response","20","56701","0.0-4.0-0.8","162","1","2022-11-28 06:59:24","7b1eb8be57ff77859c7d9ac988e43411","114.252.41.243","Mozilla/5.0 (Windows NT 10.0; Win64; x64; rv:107.0) Gecko/20100101 Firefox/107.0","","Firefox","107.0","Windows","10.0","null","<div style=""font-size:60px;"">+</div>","null",""
"","","","","","html-button-response","21","57475","0.0-4.0-1.8","162","1","2022-11-28 06:59:24","7b1eb8be57ff77859c7d9ac988e43411","114.252.41.243","Mozilla/5.0 (Windows NT 10.0; Win64; x64; rv:107.0) Gecko/20100101 Firefox/107.0","","Firefox","107.0","Windows","10.0","772","<p>作为军队的指挥官，你可以选择发射导弹杀死 <strong>7名</strong> 敌国士兵，但会炸毁附近的 <strong>1棵</strong> 敌国树木。</p> <p>树木的照片如下图所示。</p> <p></p> <img src='stimuli/trees/2.png', style='max-width: 30%;'> </img> <p><strong>你是否选择发射武器？</strong></p>","0",""
"","","","","","html-keyboard-response","22","58484","0.0-4.0-0.9","162","1","2022-11-28 06:59:24","7b1eb8be57ff77859c7d9ac988e43411","114.252.41.243","Mozilla/5.0 (Windows NT 10.0; Win64; x64; rv:107.0) Gecko/20100101 Firefox/107.0","","Firefox","107.0","Windows","10.0","null","<div style=""font-size:60px;"">+</div>","null",""
"","","","","","html-button-response","23","59530","0.0-4.0-1.9","162","1","2022-11-28 06:59:24","7b1eb8be57ff77859c7d9ac988e43411","114.252.41.243","Mozilla/5.0 (Windows NT 10.0; Win64; x64; rv:107.0) Gecko/20100101 Firefox/107.0","","Firefox","107.0","Windows","10.0","1045","<p>作为军队的指挥官，你可以选择发射导弹杀死 <strong>5名</strong> 敌国士兵，但会炸毁附近的 <strong>1棵</strong> 敌国树木。</p> <p>树木的照片如下图所示。</p> <p></p> <img src='stimuli/trees/7.png', style='max-width: 30%;'> </img> <p><strong>你是否选择发射武器？</strong></p>","0",""
"","","","","","html-keyboard-response","24","60545","0.0-4.0-0.10","162","1","2022-11-28 06:59:24","7b1eb8be57ff77859c7d9ac988e43411","114.252.41.243","Mozilla/5.0 (Windows NT 10.0; Win64; x64; rv:107.0) Gecko/20100101 Firefox/107.0","","Firefox","107.0","Windows","10.0","null","<div style=""font-size:60px;"">+</div>","null",""
"","","","","","html-button-response","25","62099","0.0-4.0-1.10","162","1","2022-11-28 06:59:24","7b1eb8be57ff77859c7d9ac988e43411","114.252.41.243","Mozilla/5.0 (Windows NT 10.0; Win64; x64; rv:107.0) Gecko/20100101 Firefox/107.0","","Firefox","107.0","Windows","10.0","1551","<p>作为军队的指挥官，你可以选择发射导弹杀死 <strong>2名</strong> 敌国士兵，但会误杀附近的 <strong>1名</strong> 敌国平民。</p> <p>平民照片如下图所示。</p> <p></p> <img src='stimuli/faces/PCM3.jpg', style='max-width: 30%;'> </img> <p><strong>你是否选择发射武器？</strong></p>","1",""
"","","","","","html-keyboard-response","26","63103","0.0-4.0-0.11","162","1","2022-11-28 06:59:24","7b1eb8be57ff77859c7d9ac988e43411","114.252.41.243","Mozilla/5.0 (Windows NT 10.0; Win64; x64; rv:107.0) Gecko/20100101 Firefox/107.0","","Firefox","107.0","Windows","10.0","null","<div style=""font-size:60px;"">+</div>","null",""
"","","","","","html-button-response","27","64275","0.0-4.0-1.11","162","1","2022-11-28 06:59:24","7b1eb8be57ff77859c7d9ac988e43411","114.252.41.243","Mozilla/5.0 (Windows NT 10.0; Win64; x64; rv:107.0) Gecko/20100101 Firefox/107.0","","Firefox","107.0","Windows","10.0","1170","<p>作为军队的指挥官，你可以选择发射导弹杀死 <strong>4名</strong> 敌国士兵，但会炸毁附近的 <strong>1棵</strong> 敌国树木。</p> <p>树木的照片如下图所示。</p> <p></p> <img src='stimuli/trees/1.png', style='max-width: 30%;'> </img> <p><strong>你是否选择发射武器？</strong></p>","0",""
"","","","","","html-keyboard-response","28","65286","0.0-4.0-0.12","162","1","2022-11-28 06:59:24","7b1eb8be57ff77859c7d9ac988e43411","114.252.41.243","Mozilla/5.0 (Windows NT 10.0; Win64; x64; rv:107.0) Gecko/20100101 Firefox/107.0","","Firefox","107.0","Windows","10.0","null","<div style=""font-size:60px;"">+</div>","null",""
"","","","","","html-button-response","29","66347","0.0-4.0-1.12","162","1","2022-11-28 06:59:24","7b1eb8be57ff77859c7d9ac988e43411","114.252.41.243","Mozilla/5.0 (Windows NT 10.0; Win64; x64; rv:107.0) Gecko/20100101 Firefox/107.0","","Firefox","107.0","Windows","10.0","1059","<p>作为军队的指挥官，你可以选择发射导弹杀死 <strong>2名</strong> 敌国士兵，但会炸毁附近的 <strong>1棵</strong> 敌国树木。</p> <p>树木的照片如下图所示。</p> <p></p> <img src='stimuli/trees/11.png', style='max-width: 30%;'> </img> <p><strong>你是否选择发射武器？</strong></p>","0",""
"","","","","","html-keyboard-response","30","67360","0.0-4.0-0.13","162","1","2022-11-28 06:59:24","7b1eb8be57ff77859c7d9ac988e43411","114.252.41.243","Mozilla/5.0 (Windows NT 10.0; Win64; x64; rv:107.0) Gecko/20100101 Firefox/107.0","","Firefox","107.0","Windows","10.0","null","<div style=""font-size:60px;"">+</div>","null",""
"","","","","","html-button-response","31","68627","0.0-4.0-1.13","162","1","2022-11-28 06:59:24","7b1eb8be57ff77859c7d9ac988e43411","114.252.41.243","Mozilla/5.0 (Windows NT 10.0; Win64; x64; rv:107.0) Gecko/20100101 Firefox/107.0","","Firefox","107.0","Windows","10.0","1264","<p>作为军队的指挥官，你可以选择发射导弹杀死 <strong>2名</strong> 敌国士兵，但会炸毁附近的 <strong>1棵</strong> 敌国树木。</p> <p>树木的照片如下图所示。</p> <p></p> <img src='stimuli/trees/12.png', style='max-width: 30%;'> </img> <p><strong>你是否选择发射武器？</strong></p>","0",""
"","","","","","html-keyboard-response","32","69637","0.0-4.0-0.14","162","1","2022-11-28 06:59:24","7b1eb8be57ff77859c7d9ac988e43411","114.252.41.243","Mozilla/5.0 (Windows NT 10.0; Win64; x64; rv:107.0) Gecko/20100101 Firefox/107.0","","Firefox","107.0","Windows","10.0","null","<div style=""font-size:60px;"">+</div>","null",""
"","","","","","html-button-response","33","70779","0.0-4.0-1.14","162","1","2022-11-28 06:59:24","7b1eb8be57ff77859c7d9ac988e43411","114.252.41.243","Mozilla/5.0 (Windows NT 10.0; Win64; x64; rv:107.0) Gecko/20100101 Firefox/107.0","","Firefox","107.0","Windows","10.0","1139","<p>作为军队的指挥官，你可以选择发射导弹杀死 <strong>10名</strong> 敌国士兵，但会炸毁附近的 <strong>1棵</strong> 敌国树木。</p> <p>树木的照片如下图所示。</p> <p></p> <img src='stimuli/trees/8.png', style='max-width: 30%;'> </img> <p><strong>你是否选择发射武器？</strong></p>","0",""
"","","","","","html-keyboard-response","34","71785","0.0-4.0-0.15","162","1","2022-11-28 06:59:24","7b1eb8be57ff77859c7d9ac988e43411","114.252.41.243","Mozilla/5.0 (Windows NT 10.0; Win64; x64; rv:107.0) Gecko/20100101 Firefox/107.0","","Firefox","107.0","Windows","10.0","null","<div style=""font-size:60px;"">+</div>","null",""
"","","","","","html-button-response","35","72875","0.0-4.0-1.15","162","1","2022-11-28 06:59:24","7b1eb8be57ff77859c7d9ac988e43411","114.252.41.243","Mozilla/5.0 (Windows NT 10.0; Win64; x64; rv:107.0) Gecko/20100101 Firefox/107.0","","Firefox","107.0","Windows","10.0","1083","<p>作为军队的指挥官，你可以选择发射导弹杀死 <strong>1名</strong> 敌国士兵，但会炸毁附近的 <strong>1棵</strong> 敌国树木。</p> <p>树木的照片如下图所示。</p> <p></p> <img src='stimuli/trees/5.png', style='max-width: 30%;'> </img> <p><strong>你是否选择发射武器？</strong></p>","0",""
"","","","","","html-keyboard-response","36","73880","0.0-4.0-0.16","162","1","2022-11-28 06:59:24","7b1eb8be57ff77859c7d9ac988e43411","114.252.41.243","Mozilla/5.0 (Windows NT 10.0; Win64; x64; rv:107.0) Gecko/20100101 Firefox/107.0","","Firefox","107.0","Windows","10.0","null","<div style=""font-size:60px;"">+</div>","null",""
"","","","","","html-button-response","37","75171","0.0-4.0-1.16","162","1","2022-11-28 06:59:24","7b1eb8be57ff77859c7d9ac988e43411","114.252.41.243","Mozilla/5.0 (Windows NT 10.0; Win64; x64; rv:107.0) Gecko/20100101 Firefox/107.0","","Firefox","107.0","Windows","10.0","1286","<p>作为军队的指挥官，你可以选择发射导弹杀死 <strong>10名</strong> 敌国士兵，但会误杀附近的 <strong>1名</strong> 敌国平民。</p> <p>平民照片如下图所示。</p> <p></p> <img src='stimuli/faces/PCM8.jpg', style='max-width: 30%;'> </img> <p><strong>你是否选择发射武器？</strong></p>","0",""
"","","","","","html-keyboard-response","38","76190","0.0-4.0-0.17","162","1","2022-11-28 06:59:24","7b1eb8be57ff77859c7d9ac988e43411","114.252.41.243","Mozilla/5.0 (Windows NT 10.0; Win64; x64; rv:107.0) Gecko/20100101 Firefox/107.0","","Firefox","107.0","Windows","10.0","null","<div style=""font-size:60px;"">+</div>","null",""
"","","","","","html-button-response","39","77747","0.0-4.0-1.17","162","1","2022-11-28 06:59:24","7b1eb8be57ff77859c7d9ac988e43411","114.252.41.243","Mozilla/5.0 (Windows NT 10.0; Win64; x64; rv:107.0) Gecko/20100101 Firefox/107.0","","Firefox","107.0","Windows","10.0","1551","<p>作为军队的指挥官，你可以选择发射导弹杀死 <strong>5名</strong> 敌国士兵，但会炸毁附近的 <strong>1棵</strong> 敌国树木。</p> <p>树木的照片如下图所示。</p> <p></p> <img src='stimuli/trees/13.png', style='max-width: 30%;'> </img> <p><strong>你是否选择发射武器？</strong></p>","0",""
"","","","","","html-keyboard-response","40","78755","0.0-4.0-0.18","162","1","2022-11-28 06:59:24","7b1eb8be57ff77859c7d9ac988e43411","114.252.41.243","Mozilla/5.0 (Windows NT 10.0; Win64; x64; rv:107.0) Gecko/20100101 Firefox/107.0","","Firefox","107.0","Windows","10.0","null","<div style=""font-size:60px;"">+</div>","null",""
"","","","","","html-button-response","41","79466","0.0-4.0-1.18","162","1","2022-11-28 06:59:24","7b1eb8be57ff77859c7d9ac988e43411","114.252.41.243","Mozilla/5.0 (Windows NT 10.0; Win64; x64; rv:107.0) Gecko/20100101 Firefox/107.0","","Firefox","107.0","Windows","10.0","709","<p>作为军队的指挥官，你可以选择发射导弹杀死 <strong>1名</strong> 敌国士兵，但会炸毁附近的 <strong>1棵</strong> 敌国树木。</p> <p>树木的照片如下图所示。</p> <p></p> <img src='stimuli/trees/4.png', style='max-width: 30%;'> </img> <p><strong>你是否选择发射武器？</strong></p>","0",""
"","","","","","html-keyboard-response","42","80476","0.0-4.0-0.19","162","1","2022-11-28 06:59:24","7b1eb8be57ff77859c7d9ac988e43411","114.252.41.243","Mozilla/5.0 (Windows NT 10.0; Win64; x64; rv:107.0) Gecko/20100101 Firefox/107.0","","Firefox","107.0","Windows","10.0","null","<div style=""font-size:60px;"">+</div>","null",""
"","","","","","html-button-response","43","81531","0.0-4.0-1.19","162","1","2022-11-28 06:59:24","7b1eb8be57ff77859c7d9ac988e43411","114.252.41.243","Mozilla/5.0 (Windows NT 10.0; Win64; x64; rv:107.0) Gecko/20100101 Firefox/107.0","","Firefox","107.0","Windows","10.0","1054","<p>作为军队的指挥官，你可以选择发射导弹杀死 <strong>1名</strong> 敌国士兵，但会炸毁附近的 <strong>1棵</strong> 敌国树木。</p> <p>树木的照片如下图所示。</p> <p></p> <img src='stimuli/trees/2.png', style='max-width: 30%;'> </img> <p><strong>你是否选择发射武器？</strong></p>","0",""
"","","","","","html-keyboard-response","44","82548","0.0-4.0-0.20","162","1","2022-11-28 06:59:24","7b1eb8be57ff77859c7d9ac988e43411","114.252.41.243","Mozilla/5.0 (Windows NT 10.0; Win64; x64; rv:107.0) Gecko/20100101 Firefox/107.0","","Firefox","107.0","Windows","10.0","null","<div style=""font-size:60px;"">+</div>","null",""
"","","","","","html-button-response","45","84035","0.0-4.0-1.20","162","1","2022-11-28 06:59:24","7b1eb8be57ff77859c7d9ac988e43411","114.252.41.243","Mozilla/5.0 (Windows NT 10.0; Win64; x64; rv:107.0) Gecko/20100101 Firefox/107.0","","Firefox","107.0","Windows","10.0","1484","<p>作为军队的指挥官，你可以选择发射导弹杀死 <strong>7名</strong> 敌国士兵，但会误杀附近的 <strong>1名</strong> 敌国平民。</p> <p>平民照片如下图所示。</p> <p></p> <img src='stimuli/faces/PCF3.jpg', style='max-width: 30%;'> </img> <p><strong>你是否选择发射武器？</strong></p>","1",""
"","","","","","html-keyboard-response","46","85053","0.0-4.0-0.21","162","1","2022-11-28 06:59:24","7b1eb8be57ff77859c7d9ac988e43411","114.252.41.243","Mozilla/5.0 (Windows NT 10.0; Win64; x64; rv:107.0) Gecko/20100101 Firefox/107.0","","Firefox","107.0","Windows","10.0","null","<div style=""font-size:60px;"">+</div>","null",""
"","","","","","html-button-response","47","86379","0.0-4.0-1.21","162","1","2022-11-28 06:59:24","7b1eb8be57ff77859c7d9ac988e43411","114.252.41.243","Mozilla/5.0 (Windows NT 10.0; Win64; x64; rv:107.0) Gecko/20100101 Firefox/107.0","","Firefox","107.0","Windows","10.0","1324","<p>作为军队的指挥官，你可以选择发射导弹杀死 <strong>9名</strong> 敌国士兵，但会炸毁附近的 <strong>1棵</strong> 敌国树木。</p> <p>树木的照片如下图所示。</p> <p></p> <img src='stimuli/trees/9.png', style='max-width: 30%;'> </img> <p><strong>你是否选择发射武器？</strong></p>","0",""
"","","","","","html-keyboard-response","48","87395","0.0-4.0-0.22","162","1","2022-11-28 06:59:24","7b1eb8be57ff77859c7d9ac988e43411","114.252.41.243","Mozilla/5.0 (Windows NT 10.0; Win64; x64; rv:107.0) Gecko/20100101 Firefox/107.0","","Firefox","107.0","Windows","10.0","null","<div style=""font-size:60px;"">+</div>","null",""
"","","","","","html-button-response","49","88507","0.0-4.0-1.22","162","1","2022-11-28 06:59:24","7b1eb8be57ff77859c7d9ac988e43411","114.252.41.243","Mozilla/5.0 (Windows NT 10.0; Win64; x64; rv:107.0) Gecko/20100101 Firefox/107.0","","Firefox","107.0","Windows","10.0","1109","<p>作为军队的指挥官，你可以选择发射导弹杀死 <strong>1名</strong> 敌国士兵，但会误杀附近的 <strong>1名</strong> 敌国平民。</p> <p>平民照片如下图所示。</p> <p></p> <img src='stimuli/faces/PCF5.jpg', style='max-width: 30%;'> </img> <p><strong>你是否选择发射武器？</strong></p>","1",""
"","","","","","html-keyboard-response","50","89517","0.0-4.0-0.23","162","1","2022-11-28 06:59:24","7b1eb8be57ff77859c7d9ac988e43411","114.252.41.243","Mozilla/5.0 (Windows NT 10.0; Win64; x64; rv:107.0) Gecko/20100101 Firefox/107.0","","Firefox","107.0","Windows","10.0","null","<div style=""font-size:60px;"">+</div>","null",""
"","","","","","html-button-response","51","91379","0.0-4.0-1.23","162","1","2022-11-28 06:59:24","7b1eb8be57ff77859c7d9ac988e43411","114.252.41.243","Mozilla/5.0 (Windows NT 10.0; Win64; x64; rv:107.0) Gecko/20100101 Firefox/107.0","","Firefox","107.0","Windows","10.0","1859","<p>作为军队的指挥官，你可以选择发射导弹杀死 <strong>6名</strong> 敌国士兵，但会误杀附近的 <strong>1名</strong> 敌国平民。</p> <p>平民照片如下图所示。</p> <p></p> <img src='stimuli/faces/PCM2.jpg', style='max-width: 30%;'> </img> <p><strong>你是否选择发射武器？</strong></p>","1",""
"","","","","","html-keyboard-response","52","92392","0.0-4.0-0.24","162","1","2022-11-28 06:59:24","7b1eb8be57ff77859c7d9ac988e43411","114.252.41.243","Mozilla/5.0 (Windows NT 10.0; Win64; x64; rv:107.0) Gecko/20100101 Firefox/107.0","","Firefox","107.0","Windows","10.0","null","<div style=""font-size:60px;"">+</div>","null",""
"","","","","","html-button-response","53","93363","0.0-4.0-1.24","162","1","2022-11-28 06:59:24","7b1eb8be57ff77859c7d9ac988e43411","114.252.41.243","Mozilla/5.0 (Windows NT 10.0; Win64; x64; rv:107.0) Gecko/20100101 Firefox/107.0","","Firefox","107.0","Windows","10.0","968","<p>作为军队的指挥官，你可以选择发射导弹杀死 <strong>7名</strong> 敌国士兵，但会误杀附近的 <strong>1名</strong> 敌国平民。</p> <p>平民照片如下图所示。</p> <p></p> <img src='stimuli/faces/PCM6.jpg', style='max-width: 30%;'> </img> <p><strong>你是否选择发射武器？</strong></p>","1",""
"","","","","","html-keyboard-response","54","94379","0.0-4.0-0.25","162","1","2022-11-28 06:59:24","7b1eb8be57ff77859c7d9ac988e43411","114.252.41.243","Mozilla/5.0 (Windows NT 10.0; Win64; x64; rv:107.0) Gecko/20100101 Firefox/107.0","","Firefox","107.0","Windows","10.0","null","<div style=""font-size:60px;"">+</div>","null",""
"","","","","","html-button-response","55","97979","0.0-4.0-1.25","162","1","2022-11-28 06:59:24","7b1eb8be57ff77859c7d9ac988e43411","114.252.41.243","Mozilla/5.0 (Windows NT 10.0; Win64; x64; rv:107.0) Gecko/20100101 Firefox/107.0","","Firefox","107.0","Windows","10.0","3596","<p>作为军队的指挥官，你可以选择发射导弹杀死 <strong>3名</strong> 敌国士兵，但会误杀附近的 <strong>1名</strong> 敌国平民。</p> <p>平民照片如下图所示。</p> <p></p> <img src='stimuli/faces/PCF2.jpg', style='max-width: 30%;'> </img> <p><strong>你是否选择发射武器？</strong></p>","1",""
"","","","","","html-keyboard-response","56","98994","0.0-4.0-0.26","162","1","2022-11-28 06:59:24","7b1eb8be57ff77859c7d9ac988e43411","114.252.41.243","Mozilla/5.0 (Windows NT 10.0; Win64; x64; rv:107.0) Gecko/20100101 Firefox/107.0","","Firefox","107.0","Windows","10.0","null","<div style=""font-size:60px;"">+</div>","null",""
"","","","","","html-button-response","57","99987","0.0-4.0-1.26","162","1","2022-11-28 06:59:24","7b1eb8be57ff77859c7d9ac988e43411","114.252.41.243","Mozilla/5.0 (Windows NT 10.0; Win64; x64; rv:107.0) Gecko/20100101 Firefox/107.0","","Firefox","107.0","Windows","10.0","988","<p>作为军队的指挥官，你可以选择发射导弹杀死 <strong>2名</strong> 敌国士兵，但会误杀附近的 <strong>1名</strong> 敌国平民。</p> <p>平民照片如下图所示。</p> <p></p> <img src='stimuli/faces/PCM6.jpg', style='max-width: 30%;'> </img> <p><strong>你是否选择发射武器？</strong></p>","1",""
"","","","","","html-keyboard-response","58","100999","0.0-4.0-0.27","162","1","2022-11-28 06:59:24","7b1eb8be57ff77859c7d9ac988e43411","114.252.41.243","Mozilla/5.0 (Windows NT 10.0; Win64; x64; rv:107.0) Gecko/20100101 Firefox/107.0","","Firefox","107.0","Windows","10.0","null","<div style=""font-size:60px;"">+</div>","null",""
"","","","","","html-button-response","59","101962","0.0-4.0-1.27","162","1","2022-11-28 06:59:24","7b1eb8be57ff77859c7d9ac988e43411","114.252.41.243","Mozilla/5.0 (Windows NT 10.0; Win64; x64; rv:107.0) Gecko/20100101 Firefox/107.0","","Firefox","107.0","Windows","10.0","960","<p>作为军队的指挥官，你可以选择发射导弹杀死 <strong>2名</strong> 敌国士兵，但会误杀附近的 <strong>1名</strong> 敌国平民。</p> <p>平民照片如下图所示。</p> <p></p> <img src='stimuli/faces/PCM4.jpg', style='max-width: 30%;'> </img> <p><strong>你是否选择发射武器？</strong></p>","1",""
"","","","","","html-keyboard-response","60","102973","0.0-4.0-0.28","162","1","2022-11-28 06:59:24","7b1eb8be57ff77859c7d9ac988e43411","114.252.41.243","Mozilla/5.0 (Windows NT 10.0; Win64; x64; rv:107.0) Gecko/20100101 Firefox/107.0","","Firefox","107.0","Windows","10.0","null","<div style=""font-size:60px;"">+</div>","null",""
"","","","","","html-button-response","61","104547","0.0-4.0-1.28","162","1","2022-11-28 06:59:24","7b1eb8be57ff77859c7d9ac988e43411","114.252.41.243","Mozilla/5.0 (Windows NT 10.0; Win64; x64; rv:107.0) Gecko/20100101 Firefox/107.0","","Firefox","107.0","Windows","10.0","1570","<p>作为军队的指挥官，你可以选择发射导弹杀死 <strong>5名</strong> 敌国士兵，但会炸毁附近的 <strong>1棵</strong> 敌国树木。</p> <p>树木的照片如下图所示。</p> <p></p> <img src='stimuli/trees/6.png', style='max-width: 30%;'> </img> <p><strong>你是否选择发射武器？</strong></p>","0",""
"","","","","","html-keyboard-response","62","105553","0.0-4.0-0.29","162","1","2022-11-28 06:59:24","7b1eb8be57ff77859c7d9ac988e43411","114.252.41.243","Mozilla/5.0 (Windows NT 10.0; Win64; x64; rv:107.0) Gecko/20100101 Firefox/107.0","","Firefox","107.0","Windows","10.0","null","<div style=""font-size:60px;"">+</div>","null",""
"","","","","","html-button-response","63","106427","0.0-4.0-1.29","162","1","2022-11-28 06:59:24","7b1eb8be57ff77859c7d9ac988e43411","114.252.41.243","Mozilla/5.0 (Windows NT 10.0; Win64; x64; rv:107.0) Gecko/20100101 Firefox/107.0","","Firefox","107.0","Windows","10.0","869","<p>作为军队的指挥官，你可以选择发射导弹杀死 <strong>9名</strong> 敌国士兵，但会炸毁附近的 <strong>1棵</strong> 敌国树木。</p> <p>树木的照片如下图所示。</p> <p></p> <img src='stimuli/trees/12.png', style='max-width: 30%;'> </img> <p><strong>你是否选择发射武器？</strong></p>","0",""
"","","","","","html-keyboard-response","64","107441","0.0-4.0-0.30","162","1","2022-11-28 06:59:24","7b1eb8be57ff77859c7d9ac988e43411","114.252.41.243","Mozilla/5.0 (Windows NT 10.0; Win64; x64; rv:107.0) Gecko/20100101 Firefox/107.0","","Firefox","107.0","Windows","10.0","null","<div style=""font-size:60px;"">+</div>","null",""
"","","","","","html-button-response","65","108210","0.0-4.0-1.30","162","1","2022-11-28 06:59:24","7b1eb8be57ff77859c7d9ac988e43411","114.252.41.243","Mozilla/5.0 (Windows NT 10.0; Win64; x64; rv:107.0) Gecko/20100101 Firefox/107.0","","Firefox","107.0","Windows","10.0","765","<p>作为军队的指挥官，你可以选择发射导弹杀死 <strong>10名</strong> 敌国士兵，但会炸毁附近的 <strong>1棵</strong> 敌国树木。</p> <p>树木的照片如下图所示。</p> <p></p> <img src='stimuli/trees/15.png', style='max-width: 30%;'> </img> <p><strong>你是否选择发射武器？</strong></p>","0",""
"","","","","","html-keyboard-response","66","109224","0.0-4.0-0.31","162","1","2022-11-28 06:59:24","7b1eb8be57ff77859c7d9ac988e43411","114.252.41.243","Mozilla/5.0 (Windows NT 10.0; Win64; x64; rv:107.0) Gecko/20100101 Firefox/107.0","","Firefox","107.0","Windows","10.0","null","<div style=""font-size:60px;"">+</div>","null",""
"","","","","","html-button-response","67","110499","0.0-4.0-1.31","162","1","2022-11-28 06:59:24","7b1eb8be57ff77859c7d9ac988e43411","114.252.41.243","Mozilla/5.0 (Windows NT 10.0; Win64; x64; rv:107.0) Gecko/20100101 Firefox/107.0","","Firefox","107.0","Windows","10.0","1271","<p>作为军队的指挥官，你可以选择发射导弹杀死 <strong>2名</strong> 敌国士兵，但会误杀附近的 <strong>1名</strong> 敌国平民。</p> <p>平民照片如下图所示。</p> <p></p> <img src='stimuli/faces/PCM1.jpg', style='max-width: 30%;'> </img> <p><strong>你是否选择发射武器？</strong></p>","1",""
"","","","","","html-keyboard-response","68","111515","0.0-4.0-0.32","162","1","2022-11-28 06:59:24","7b1eb8be57ff77859c7d9ac988e43411","114.252.41.243","Mozilla/5.0 (Windows NT 10.0; Win64; x64; rv:107.0) Gecko/20100101 Firefox/107.0","","Firefox","107.0","Windows","10.0","null","<div style=""font-size:60px;"">+</div>","null",""
"","","","","","html-button-response","69","112347","0.0-4.0-1.32","162","1","2022-11-28 06:59:24","7b1eb8be57ff77859c7d9ac988e43411","114.252.41.243","Mozilla/5.0 (Windows NT 10.0; Win64; x64; rv:107.0) Gecko/20100101 Firefox/107.0","","Firefox","107.0","Windows","10.0","828","<p>作为军队的指挥官，你可以选择发射导弹杀死 <strong>1名</strong> 敌国士兵，但会误杀附近的 <strong>1名</strong> 敌国平民。</p> <p>平民照片如下图所示。</p> <p></p> <img src='stimuli/faces/PCF6.jpg', style='max-width: 30%;'> </img> <p><strong>你是否选择发射武器？</strong></p>","1",""
"","","","","","html-keyboard-response","70","113353","0.0-4.0-0.33","162","1","2022-11-28 06:59:24","7b1eb8be57ff77859c7d9ac988e43411","114.252.41.243","Mozilla/5.0 (Windows NT 10.0; Win64; x64; rv:107.0) Gecko/20100101 Firefox/107.0","","Firefox","107.0","Windows","10.0","null","<div style=""font-size:60px;"">+</div>","null",""
"","","","","","html-button-response","71","114355","0.0-4.0-1.33","162","1","2022-11-28 06:59:24","7b1eb8be57ff77859c7d9ac988e43411","114.252.41.243","Mozilla/5.0 (Windows NT 10.0; Win64; x64; rv:107.0) Gecko/20100101 Firefox/107.0","","Firefox","107.0","Windows","10.0","998","<p>作为军队的指挥官，你可以选择发射导弹杀死 <strong>7名</strong> 敌国士兵，但会误杀附近的 <strong>1名</strong> 敌国平民。</p> <p>平民照片如下图所示。</p> <p></p> <img src='stimuli/faces/PCF1.jpg', style='max-width: 30%;'> </img> <p><strong>你是否选择发射武器？</strong></p>","1",""
"","","","","","html-keyboard-response","72","115360","0.0-4.0-0.34","162","1","2022-11-28 06:59:24","7b1eb8be57ff77859c7d9ac988e43411","114.252.41.243","Mozilla/5.0 (Windows NT 10.0; Win64; x64; rv:107.0) Gecko/20100101 Firefox/107.0","","Firefox","107.0","Windows","10.0","null","<div style=""font-size:60px;"">+</div>","null",""
"","","","","","html-button-response","73","116587","0.0-4.0-1.34","162","1","2022-11-28 06:59:24","7b1eb8be57ff77859c7d9ac988e43411","114.252.41.243","Mozilla/5.0 (Windows NT 10.0; Win64; x64; rv:107.0) Gecko/20100101 Firefox/107.0","","Firefox","107.0","Windows","10.0","1222","<p>作为军队的指挥官，你可以选择发射导弹杀死 <strong>7名</strong> 敌国士兵，但会炸毁附近的 <strong>1棵</strong> 敌国树木。</p> <p>树木的照片如下图所示。</p> <p></p> <img src='stimuli/trees/1.png', style='max-width: 30%;'> </img> <p><strong>你是否选择发射武器？</strong></p>","0",""
"","","","","","html-keyboard-response","74","117592","0.0-4.0-0.35","162","1","2022-11-28 06:59:24","7b1eb8be57ff77859c7d9ac988e43411","114.252.41.243","Mozilla/5.0 (Windows NT 10.0; Win64; x64; rv:107.0) Gecko/20100101 Firefox/107.0","","Firefox","107.0","Windows","10.0","null","<div style=""font-size:60px;"">+</div>","null",""
"","","","","","html-button-response","75","119251","0.0-4.0-1.35","162","1","2022-11-28 06:59:24","7b1eb8be57ff77859c7d9ac988e43411","114.252.41.243","Mozilla/5.0 (Windows NT 10.0; Win64; x64; rv:107.0) Gecko/20100101 Firefox/107.0","","Firefox","107.0","Windows","10.0","1654","<p>作为军队的指挥官，你可以选择发射导弹杀死 <strong>6名</strong> 敌国士兵，但会误杀附近的 <strong>1名</strong> 敌国平民。</p> <p>平民照片如下图所示。</p> <p></p> <img src='stimuli/faces/PCM1.jpg', style='max-width: 30%;'> </img> <p><strong>你是否选择发射武器？</strong></p>","1",""
"","","","","","html-keyboard-response","76","120263","0.0-4.0-0.36","162","1","2022-11-28 06:59:24","7b1eb8be57ff77859c7d9ac988e43411","114.252.41.243","Mozilla/5.0 (Windows NT 10.0; Win64; x64; rv:107.0) Gecko/20100101 Firefox/107.0","","Firefox","107.0","Windows","10.0","null","<div style=""font-size:60px;"">+</div>","null",""
"","","","","","html-button-response","77","121747","0.0-4.0-1.36","162","1","2022-11-28 06:59:24","7b1eb8be57ff77859c7d9ac988e43411","114.252.41.243","Mozilla/5.0 (Windows NT 10.0; Win64; x64; rv:107.0) Gecko/20100101 Firefox/107.0","","Firefox","107.0","Windows","10.0","1480","<p>作为军队的指挥官，你可以选择发射导弹杀死 <strong>9名</strong> 敌国士兵，但会炸毁附近的 <strong>1棵</strong> 敌国树木。</p> <p>树木的照片如下图所示。</p> <p></p> <img src='stimuli/trees/4.png', style='max-width: 30%;'> </img> <p><strong>你是否选择发射武器？</strong></p>","0",""
"","","","","","html-keyboard-response","78","122754","0.0-4.0-0.37","162","1","2022-11-28 06:59:24","7b1eb8be57ff77859c7d9ac988e43411","114.252.41.243","Mozilla/5.0 (Windows NT 10.0; Win64; x64; rv:107.0) Gecko/20100101 Firefox/107.0","","Firefox","107.0","Windows","10.0","null","<div style=""font-size:60px;"">+</div>","null",""
"","","","","","html-button-response","79","141851","0.0-4.0-1.37","162","1","2022-11-28 06:59:24","7b1eb8be57ff77859c7d9ac988e43411","114.252.41.243","Mozilla/5.0 (Windows NT 10.0; Win64; x64; rv:107.0) Gecko/20100101 Firefox/107.0","","Firefox","107.0","Windows","10.0","19093","<p>作为军队的指挥官，你可以选择发射导弹杀死 <strong>4名</strong> 敌国士兵，但会误杀附近的 <strong>1名</strong> 敌国平民。</p> <p>平民照片如下图所示。</p> <p></p> <img src='stimuli/faces/PCM7.jpg', style='max-width: 30%;'> </img> <p><strong>你是否选择发射武器？</strong></p>","1",""
"","","","","","html-keyboard-response","80","142871","0.0-4.0-0.38","162","1","2022-11-28 06:59:24","7b1eb8be57ff77859c7d9ac988e43411","114.252.41.243","Mozilla/5.0 (Windows NT 10.0; Win64; x64; rv:107.0) Gecko/20100101 Firefox/107.0","","Firefox","107.0","Windows","10.0","null","<div style=""font-size:60px;"">+</div>","null",""
"","","","","","html-button-response","81","144547","0.0-4.0-1.38","162","1","2022-11-28 06:59:24","7b1eb8be57ff77859c7d9ac988e43411","114.252.41.243","Mozilla/5.0 (Windows NT 10.0; Win64; x64; rv:107.0) Gecko/20100101 Firefox/107.0","","Firefox","107.0","Windows","10.0","1668","<p>作为军队的指挥官，你可以选择发射导弹杀死 <strong>4名</strong> 敌国士兵，但会误杀附近的 <strong>1名</strong> 敌国平民。</p> <p>平民照片如下图所示。</p> <p></p> <img src='stimuli/faces/PCF1.jpg', style='max-width: 30%;'> </img> <p><strong>你是否选择发射武器？</strong></p>","1",""
"","","","","","html-keyboard-response","82","145554","0.0-4.0-0.39","162","1","2022-11-28 06:59:24","7b1eb8be57ff77859c7d9ac988e43411","114.252.41.243","Mozilla/5.0 (Windows NT 10.0; Win64; x64; rv:107.0) Gecko/20100101 Firefox/107.0","","Firefox","107.0","Windows","10.0","null","<div style=""font-size:60px;"">+</div>","null",""
"","","","","","html-button-response","83","146763","0.0-4.0-1.39","162","1","2022-11-28 06:59:24","7b1eb8be57ff77859c7d9ac988e43411","114.252.41.243","Mozilla/5.0 (Windows NT 10.0; Win64; x64; rv:107.0) Gecko/20100101 Firefox/107.0","","Firefox","107.0","Windows","10.0","1202","<p>作为军队的指挥官，你可以选择发射导弹杀死 <strong>7名</strong> 敌国士兵，但会炸毁附近的 <strong>1棵</strong> 敌国树木。</p> <p>树木的照片如下图所示。</p> <p></p> <img src='stimuli/trees/14.png', style='max-width: 30%;'> </img> <p><strong>你是否选择发射武器？</strong></p>","0",""
"","","","","","html-keyboard-response","84","147777","0.0-4.0-0.40","162","1","2022-11-28 06:59:24","7b1eb8be57ff77859c7d9ac988e43411","114.252.41.243","Mozilla/5.0 (Windows NT 10.0; Win64; x64; rv:107.0) Gecko/20100101 Firefox/107.0","","Firefox","107.0","Windows","10.0","null","<div style=""font-size:60px;"">+</div>","null",""
"","","","","","html-button-response","85","149275","0.0-4.0-1.40","162","1","2022-11-28 06:59:24","7b1eb8be57ff77859c7d9ac988e43411","114.252.41.243","Mozilla/5.0 (Windows NT 10.0; Win64; x64; rv:107.0) Gecko/20100101 Firefox/107.0","","Firefox","107.0","Windows","10.0","1490","<p>作为军队的指挥官，你可以选择发射导弹杀死 <strong>6名</strong> 敌国士兵，但会误杀附近的 <strong>1名</strong> 敌国平民。</p> <p>平民照片如下图所示。</p> <p></p> <img src='stimuli/faces/PCF4.jpg', style='max-width: 30%;'> </img> <p><strong>你是否选择发射武器？</strong></p>","1",""
"","","","","","html-keyboard-response","86","150289","0.0-4.0-0.41","162","1","2022-11-28 06:59:24","7b1eb8be57ff77859c7d9ac988e43411","114.252.41.243","Mozilla/5.0 (Windows NT 10.0; Win64; x64; rv:107.0) Gecko/20100101 Firefox/107.0","","Firefox","107.0","Windows","10.0","null","<div style=""font-size:60px;"">+</div>","null",""
"","","","","","html-button-response","87","151426","0.0-4.0-1.41","162","1","2022-11-28 06:59:24","7b1eb8be57ff77859c7d9ac988e43411","114.252.41.243","Mozilla/5.0 (Windows NT 10.0; Win64; x64; rv:107.0) Gecko/20100101 Firefox/107.0","","Firefox","107.0","Windows","10.0","1132","<p>作为军队的指挥官，你可以选择发射导弹杀死 <strong>9名</strong> 敌国士兵，但会炸毁附近的 <strong>1棵</strong> 敌国树木。</p> <p>树木的照片如下图所示。</p> <p></p> <img src='stimuli/trees/3.png', style='max-width: 30%;'> </img> <p><strong>你是否选择发射武器？</strong></p>","0",""
"","","","","","html-keyboard-response","88","152435","0.0-4.0-0.42","162","1","2022-11-28 06:59:24","7b1eb8be57ff77859c7d9ac988e43411","114.252.41.243","Mozilla/5.0 (Windows NT 10.0; Win64; x64; rv:107.0) Gecko/20100101 Firefox/107.0","","Firefox","107.0","Windows","10.0","null","<div style=""font-size:60px;"">+</div>","null",""
"","","","","","html-button-response","89","153411","0.0-4.0-1.42","162","1","2022-11-28 06:59:24","7b1eb8be57ff77859c7d9ac988e43411","114.252.41.243","Mozilla/5.0 (Windows NT 10.0; Win64; x64; rv:107.0) Gecko/20100101 Firefox/107.0","","Firefox","107.0","Windows","10.0","968","<p>作为军队的指挥官，你可以选择发射导弹杀死 <strong>6名</strong> 敌国士兵，但会炸毁附近的 <strong>1棵</strong> 敌国树木。</p> <p>树木的照片如下图所示。</p> <p></p> <img src='stimuli/trees/16.png', style='max-width: 30%;'> </img> <p><strong>你是否选择发射武器？</strong></p>","0",""
"","","","","","html-keyboard-response","90","154428","0.0-4.0-0.43","162","1","2022-11-28 06:59:24","7b1eb8be57ff77859c7d9ac988e43411","114.252.41.243","Mozilla/5.0 (Windows NT 10.0; Win64; x64; rv:107.0) Gecko/20100101 Firefox/107.0","","Firefox","107.0","Windows","10.0","null","<div style=""font-size:60px;"">+</div>","null",""
"","","","","","html-button-response","91","155931","0.0-4.0-1.43","162","1","2022-11-28 06:59:24","7b1eb8be57ff77859c7d9ac988e43411","114.252.41.243","Mozilla/5.0 (Windows NT 10.0; Win64; x64; rv:107.0) Gecko/20100101 Firefox/107.0","","Firefox","107.0","Windows","10.0","1495","<p>作为军队的指挥官，你可以选择发射导弹杀死 <strong>10名</strong> 敌国士兵，但会误杀附近的 <strong>1名</strong> 敌国平民。</p> <p>平民照片如下图所示。</p> <p></p> <img src='stimuli/faces/PCF5.jpg', style='max-width: 30%;'> </img> <p><strong>你是否选择发射武器？</strong></p>","0",""
"","","","","","html-keyboard-response","92","156947","0.0-4.0-0.44","162","1","2022-11-28 06:59:24","7b1eb8be57ff77859c7d9ac988e43411","114.252.41.243","Mozilla/5.0 (Windows NT 10.0; Win64; x64; rv:107.0) Gecko/20100101 Firefox/107.0","","Firefox","107.0","Windows","10.0","null","<div style=""font-size:60px;"">+</div>","null",""
"","","","","","html-button-response","93","157867","0.0-4.0-1.44","162","1","2022-11-28 06:59:24","7b1eb8be57ff77859c7d9ac988e43411","114.252.41.243","Mozilla/5.0 (Windows NT 10.0; Win64; x64; rv:107.0) Gecko/20100101 Firefox/107.0","","Firefox","107.0","Windows","10.0","914","<p>作为军队的指挥官，你可以选择发射导弹杀死 <strong>2名</strong> 敌国士兵，但会炸毁附近的 <strong>1棵</strong> 敌国树木。</p> <p>树木的照片如下图所示。</p> <p></p> <img src='stimuli/trees/16.png', style='max-width: 30%;'> </img> <p><strong>你是否选择发射武器？</strong></p>","0",""
"","","","","","html-keyboard-response","94","158871","0.0-4.0-0.45","162","1","2022-11-28 06:59:24","7b1eb8be57ff77859c7d9ac988e43411","114.252.41.243","Mozilla/5.0 (Windows NT 10.0; Win64; x64; rv:107.0) Gecko/20100101 Firefox/107.0","","Firefox","107.0","Windows","10.0","null","<div style=""font-size:60px;"">+</div>","null",""
"","","","","","html-button-response","95","160091","0.0-4.0-1.45","162","1","2022-11-28 06:59:24","7b1eb8be57ff77859c7d9ac988e43411","114.252.41.243","Mozilla/5.0 (Windows NT 10.0; Win64; x64; rv:107.0) Gecko/20100101 Firefox/107.0","","Firefox","107.0","Windows","10.0","1214","<p>作为军队的指挥官，你可以选择发射导弹杀死 <strong>1名</strong> 敌国士兵，但会误杀附近的 <strong>1名</strong> 敌国平民。</p> <p>平民照片如下图所示。</p> <p></p> <img src='stimuli/faces/PCF3.jpg', style='max-width: 30%;'> </img> <p><strong>你是否选择发射武器？</strong></p>","1",""
"","","","","","html-keyboard-response","96","161102","0.0-4.0-0.46","162","1","2022-11-28 06:59:24","7b1eb8be57ff77859c7d9ac988e43411","114.252.41.243","Mozilla/5.0 (Windows NT 10.0; Win64; x64; rv:107.0) Gecko/20100101 Firefox/107.0","","Firefox","107.0","Windows","10.0","null","<div style=""font-size:60px;"">+</div>","null",""
"","","","","","html-button-response","97","162251","0.0-4.0-1.46","162","1","2022-11-28 06:59:24","7b1eb8be57ff77859c7d9ac988e43411","114.252.41.243","Mozilla/5.0 (Windows NT 10.0; Win64; x64; rv:107.0) Gecko/20100101 Firefox/107.0","","Firefox","107.0","Windows","10.0","1144","<p>作为军队的指挥官，你可以选择发射导弹杀死 <strong>5名</strong> 敌国士兵，但会炸毁附近的 <strong>1棵</strong> 敌国树木。</p> <p>树木的照片如下图所示。</p> <p></p> <img src='stimuli/trees/10.png', style='max-width: 30%;'> </img> <p><strong>你是否选择发射武器？</strong></p>","0",""
"","","","","","html-keyboard-response","98","163254","0.0-4.0-0.47","162","1","2022-11-28 06:59:24","7b1eb8be57ff77859c7d9ac988e43411","114.252.41.243","Mozilla/5.0 (Windows NT 10.0; Win64; x64; rv:107.0) Gecko/20100101 Firefox/107.0","","Firefox","107.0","Windows","10.0","null","<div style=""font-size:60px;"">+</div>","null",""
"","","","","","html-button-response","99","164611","0.0-4.0-1.47","162","1","2022-11-28 06:59:24","7b1eb8be57ff77859c7d9ac988e43411","114.252.41.243","Mozilla/5.0 (Windows NT 10.0; Win64; x64; rv:107.0) Gecko/20100101 Firefox/107.0","","Firefox","107.0","Windows","10.0","1350","<p>作为军队的指挥官，你可以选择发射导弹杀死 <strong>4名</strong> 敌国士兵，但会误杀附近的 <strong>1名</strong> 敌国平民。</p> <p>平民照片如下图所示。</p> <p></p> <img src='stimuli/faces/PCM2.jpg', style='max-width: 30%;'> </img> <p><strong>你是否选择发射武器？</strong></p>","1",""
"","","","","","html-keyboard-response","100","165621","0.0-4.0-0.48","162","1","2022-11-28 06:59:24","7b1eb8be57ff77859c7d9ac988e43411","114.252.41.243","Mozilla/5.0 (Windows NT 10.0; Win64; x64; rv:107.0) Gecko/20100101 Firefox/107.0","","Firefox","107.0","Windows","10.0","null","<div style=""font-size:60px;"">+</div>","null",""
"","","","","","html-button-response","101","167074","0.0-4.0-1.48","162","1","2022-11-28 06:59:24","7b1eb8be57ff77859c7d9ac988e43411","114.252.41.243","Mozilla/5.0 (Windows NT 10.0; Win64; x64; rv:107.0) Gecko/20100101 Firefox/107.0","","Firefox","107.0","Windows","10.0","1445","<p>作为军队的指挥官，你可以选择发射导弹杀死 <strong>10名</strong> 敌国士兵，但会炸毁附近的 <strong>1棵</strong> 敌国树木。</p> <p>树木的照片如下图所示。</p> <p></p> <img src='stimuli/trees/5.png', style='max-width: 30%;'> </img> <p><strong>你是否选择发射武器？</strong></p>","0",""
"","","","","","html-keyboard-response","102","168086","0.0-4.0-0.49","162","1","2022-11-28 06:59:24","7b1eb8be57ff77859c7d9ac988e43411","114.252.41.243","Mozilla/5.0 (Windows NT 10.0; Win64; x64; rv:107.0) Gecko/20100101 Firefox/107.0","","Firefox","107.0","Windows","10.0","null","<div style=""font-size:60px;"">+</div>","null",""
"","","","","","html-button-response","103","169363","0.0-4.0-1.49","162","1","2022-11-28 06:59:24","7b1eb8be57ff77859c7d9ac988e43411","114.252.41.243","Mozilla/5.0 (Windows NT 10.0; Win64; x64; rv:107.0) Gecko/20100101 Firefox/107.0","","Firefox","107.0","Windows","10.0","1271","<p>作为军队的指挥官，你可以选择发射导弹杀死 <strong>5名</strong> 敌国士兵，但会误杀附近的 <strong>1名</strong> 敌国平民。</p> <p>平民照片如下图所示。</p> <p></p> <img src='stimuli/faces/PCM8.jpg', style='max-width: 30%;'> </img> <p><strong>你是否选择发射武器？</strong></p>","1",""
"","","","","","html-keyboard-response","104","170377","0.0-4.0-0.50","162","1","2022-11-28 06:59:24","7b1eb8be57ff77859c7d9ac988e43411","114.252.41.243","Mozilla/5.0 (Windows NT 10.0; Win64; x64; rv:107.0) Gecko/20100101 Firefox/107.0","","Firefox","107.0","Windows","10.0","null","<div style=""font-size:60px;"">+</div>","null",""
"","","","","","html-button-response","105","172219","0.0-4.0-1.50","162","1","2022-11-28 06:59:24","7b1eb8be57ff77859c7d9ac988e43411","114.252.41.243","Mozilla/5.0 (Windows NT 10.0; Win64; x64; rv:107.0) Gecko/20100101 Firefox/107.0","","Firefox","107.0","Windows","10.0","1836","<p>作为军队的指挥官，你可以选择发射导弹杀死 <strong>10名</strong> 敌国士兵，但会误杀附近的 <strong>1名</strong> 敌国平民。</p> <p>平民照片如下图所示。</p> <p></p> <img src='stimuli/faces/PCM5.jpg', style='max-width: 30%;'> </img> <p><strong>你是否选择发射武器？</strong></p>","0",""
"","","","","","html-keyboard-response","106","173228","0.0-4.0-0.51","162","1","2022-11-28 06:59:24","7b1eb8be57ff77859c7d9ac988e43411","114.252.41.243","Mozilla/5.0 (Windows NT 10.0; Win64; x64; rv:107.0) Gecko/20100101 Firefox/107.0","","Firefox","107.0","Windows","10.0","null","<div style=""font-size:60px;"">+</div>","null",""
"","","","","","html-button-response","107","174682","0.0-4.0-1.51","162","1","2022-11-28 06:59:24","7b1eb8be57ff77859c7d9ac988e43411","114.252.41.243","Mozilla/5.0 (Windows NT 10.0; Win64; x64; rv:107.0) Gecko/20100101 Firefox/107.0","","Firefox","107.0","Windows","10.0","1449","<p>作为军队的指挥官，你可以选择发射导弹杀死 <strong>6名</strong> 敌国士兵，但会误杀附近的 <strong>1名</strong> 敌国平民。</p> <p>平民照片如下图所示。</p> <p></p> <img src='stimuli/faces/PCF6.jpg', style='max-width: 30%;'> </img> <p><strong>你是否选择发射武器？</strong></p>","1",""
"","","","","","html-keyboard-response","108","175687","0.0-4.0-0.52","162","1","2022-11-28 06:59:24","7b1eb8be57ff77859c7d9ac988e43411","114.252.41.243","Mozilla/5.0 (Windows NT 10.0; Win64; x64; rv:107.0) Gecko/20100101 Firefox/107.0","","Firefox","107.0","Windows","10.0","null","<div style=""font-size:60px;"">+</div>","null",""
"","","","","","html-button-response","109","176875","0.0-4.0-1.52","162","1","2022-11-28 06:59:24","7b1eb8be57ff77859c7d9ac988e43411","114.252.41.243","Mozilla/5.0 (Windows NT 10.0; Win64; x64; rv:107.0) Gecko/20100101 Firefox/107.0","","Firefox","107.0","Windows","10.0","1183","<p>作为军队的指挥官，你可以选择发射导弹杀死 <strong>3名</strong> 敌国士兵，但会炸毁附近的 <strong>1棵</strong> 敌国树木。</p> <p>树木的照片如下图所示。</p> <p></p> <img src='stimuli/trees/3.png', style='max-width: 30%;'> </img> <p><strong>你是否选择发射武器？</strong></p>","0",""
"","","","","","html-keyboard-response","110","177890","0.0-4.0-0.53","162","1","2022-11-28 06:59:24","7b1eb8be57ff77859c7d9ac988e43411","114.252.41.243","Mozilla/5.0 (Windows NT 10.0; Win64; x64; rv:107.0) Gecko/20100101 Firefox/107.0","","Firefox","107.0","Windows","10.0","null","<div style=""font-size:60px;"">+</div>","null",""
"","","","","","html-button-response","111","179779","0.0-4.0-1.53","162","1","2022-11-28 06:59:24","7b1eb8be57ff77859c7d9ac988e43411","114.252.41.243","Mozilla/5.0 (Windows NT 10.0; Win64; x64; rv:107.0) Gecko/20100101 Firefox/107.0","","Firefox","107.0","Windows","10.0","1884","<p>作为军队的指挥官，你可以选择发射导弹杀死 <strong>10名</strong> 敌国士兵，但会炸毁附近的 <strong>1棵</strong> 敌国树木。</p> <p>树木的照片如下图所示。</p> <p></p> <img src='stimuli/trees/10.png', style='max-width: 30%;'> </img> <p><strong>你是否选择发射武器？</strong></p>","0",""
"","","","","","html-keyboard-response","112","180795","0.0-4.0-0.54","162","1","2022-11-28 06:59:24","7b1eb8be57ff77859c7d9ac988e43411","114.252.41.243","Mozilla/5.0 (Windows NT 10.0; Win64; x64; rv:107.0) Gecko/20100101 Firefox/107.0","","Firefox","107.0","Windows","10.0","null","<div style=""font-size:60px;"">+</div>","null",""
"","","","","","html-button-response","113","182155","0.0-4.0-1.54","162","1","2022-11-28 06:59:24","7b1eb8be57ff77859c7d9ac988e43411","114.252.41.243","Mozilla/5.0 (Windows NT 10.0; Win64; x64; rv:107.0) Gecko/20100101 Firefox/107.0","","Firefox","107.0","Windows","10.0","1357","<p>作为军队的指挥官，你可以选择发射导弹杀死 <strong>10名</strong> 敌国士兵，但会炸毁附近的 <strong>1棵</strong> 敌国树木。</p> <p>树木的照片如下图所示。</p> <p></p> <img src='stimuli/trees/6.png', style='max-width: 30%;'> </img> <p><strong>你是否选择发射武器？</strong></p>","0",""
"","","","","","html-keyboard-response","114","183166","0.0-4.0-0.55","162","1","2022-11-28 06:59:24","7b1eb8be57ff77859c7d9ac988e43411","114.252.41.243","Mozilla/5.0 (Windows NT 10.0; Win64; x64; rv:107.0) Gecko/20100101 Firefox/107.0","","Firefox","107.0","Windows","10.0","null","<div style=""font-size:60px;"">+</div>","null",""
"","","","","","html-button-response","115","184227","0.0-4.0-1.55","162","1","2022-11-28 06:59:24","7b1eb8be57ff77859c7d9ac988e43411","114.252.41.243","Mozilla/5.0 (Windows NT 10.0; Win64; x64; rv:107.0) Gecko/20100101 Firefox/107.0","","Firefox","107.0","Windows","10.0","1056","<p>作为军队的指挥官，你可以选择发射导弹杀死 <strong>6名</strong> 敌国士兵，但会炸毁附近的 <strong>1棵</strong> 敌国树木。</p> <p>树木的照片如下图所示。</p> <p></p> <img src='stimuli/trees/7.png', style='max-width: 30%;'> </img> <p><strong>你是否选择发射武器？</strong></p>","0",""
"","","","","","html-keyboard-response","116","185243","0.0-4.0-0.56","162","1","2022-11-28 06:59:24","7b1eb8be57ff77859c7d9ac988e43411","114.252.41.243","Mozilla/5.0 (Windows NT 10.0; Win64; x64; rv:107.0) Gecko/20100101 Firefox/107.0","","Firefox","107.0","Windows","10.0","null","<div style=""font-size:60px;"">+</div>","null",""
"","","","","","html-button-response","117","186187","0.0-4.0-1.56","162","1","2022-11-28 06:59:24","7b1eb8be57ff77859c7d9ac988e43411","114.252.41.243","Mozilla/5.0 (Windows NT 10.0; Win64; x64; rv:107.0) Gecko/20100101 Firefox/107.0","","Firefox","107.0","Windows","10.0","942","<p>作为军队的指挥官，你可以选择发射导弹杀死 <strong>3名</strong> 敌国士兵，但会炸毁附近的 <strong>1棵</strong> 敌国树木。</p> <p>树木的照片如下图所示。</p> <p></p> <img src='stimuli/trees/15.png', style='max-width: 30%;'> </img> <p><strong>你是否选择发射武器？</strong></p>","0",""
"","","","","","html-keyboard-response","118","187190","0.0-4.0-0.57","162","1","2022-11-28 06:59:24","7b1eb8be57ff77859c7d9ac988e43411","114.252.41.243","Mozilla/5.0 (Windows NT 10.0; Win64; x64; rv:107.0) Gecko/20100101 Firefox/107.0","","Firefox","107.0","Windows","10.0","null","<div style=""font-size:60px;"">+</div>","null",""
"","","","","","html-button-response","119","188683","0.0-4.0-1.57","162","1","2022-11-28 06:59:24","7b1eb8be57ff77859c7d9ac988e43411","114.252.41.243","Mozilla/5.0 (Windows NT 10.0; Win64; x64; rv:107.0) Gecko/20100101 Firefox/107.0","","Firefox","107.0","Windows","10.0","1487","<p>作为军队的指挥官，你可以选择发射导弹杀死 <strong>10名</strong> 敌国士兵，但会误杀附近的 <strong>1名</strong> 敌国平民。</p> <p>平民照片如下图所示。</p> <p></p> <img src='stimuli/faces/PCF8.jpg', style='max-width: 30%;'> </img> <p><strong>你是否选择发射武器？</strong></p>","0",""
"","","","","","html-keyboard-response","120","189694","0.0-4.0-0.58","162","1","2022-11-28 06:59:24","7b1eb8be57ff77859c7d9ac988e43411","114.252.41.243","Mozilla/5.0 (Windows NT 10.0; Win64; x64; rv:107.0) Gecko/20100101 Firefox/107.0","","Firefox","107.0","Windows","10.0","null","<div style=""font-size:60px;"">+</div>","null",""
"","","","","","html-button-response","121","190771","0.0-4.0-1.58","162","1","2022-11-28 06:59:24","7b1eb8be57ff77859c7d9ac988e43411","114.252.41.243","Mozilla/5.0 (Windows NT 10.0; Win64; x64; rv:107.0) Gecko/20100101 Firefox/107.0","","Firefox","107.0","Windows","10.0","1070","<p>作为军队的指挥官，你可以选择发射导弹杀死 <strong>10名</strong> 敌国士兵，但会误杀附近的 <strong>1名</strong> 敌国平民。</p> <p>平民照片如下图所示。</p> <p></p> <img src='stimuli/faces/PCM4.jpg', style='max-width: 30%;'> </img> <p><strong>你是否选择发射武器？</strong></p>","0",""
"","","","","","html-keyboard-response","122","191783","0.0-4.0-0.59","162","1","2022-11-28 06:59:24","7b1eb8be57ff77859c7d9ac988e43411","114.252.41.243","Mozilla/5.0 (Windows NT 10.0; Win64; x64; rv:107.0) Gecko/20100101 Firefox/107.0","","Firefox","107.0","Windows","10.0","null","<div style=""font-size:60px;"">+</div>","null",""
"","","","","","html-button-response","123","192515","0.0-4.0-1.59","162","1","2022-11-28 06:59:24","7b1eb8be57ff77859c7d9ac988e43411","114.252.41.243","Mozilla/5.0 (Windows NT 10.0; Win64; x64; rv:107.0) Gecko/20100101 Firefox/107.0","","Firefox","107.0","Windows","10.0","725","<p>作为军队的指挥官，你可以选择发射导弹杀死 <strong>5名</strong> 敌国士兵，但会炸毁附近的 <strong>1棵</strong> 敌国树木。</p> <p>树木的照片如下图所示。</p> <p></p> <img src='stimuli/trees/14.png', style='max-width: 30%;'> </img> <p><strong>你是否选择发射武器？</strong></p>","0",""
"","","","","","html-keyboard-response","124","193519","0.0-4.0-0.60","162","1","2022-11-28 06:59:24","7b1eb8be57ff77859c7d9ac988e43411","114.252.41.243","Mozilla/5.0 (Windows NT 10.0; Win64; x64; rv:107.0) Gecko/20100101 Firefox/107.0","","Firefox","107.0","Windows","10.0","null","<div style=""font-size:60px;"">+</div>","null",""
"","","","","","html-button-response","125","195962","0.0-4.0-1.60","162","1","2022-11-28 06:59:24","7b1eb8be57ff77859c7d9ac988e43411","114.252.41.243","Mozilla/5.0 (Windows NT 10.0; Win64; x64; rv:107.0) Gecko/20100101 Firefox/107.0","","Firefox","107.0","Windows","10.0","2437","<p>作为军队的指挥官，你可以选择发射导弹杀死 <strong>9名</strong> 敌国士兵，但会误杀附近的 <strong>1名</strong> 敌国平民。</p> <p>平民照片如下图所示。</p> <p></p> <img src='stimuli/faces/PCF2.jpg', style='max-width: 30%;'> </img> <p><strong>你是否选择发射武器？</strong></p>","0",""
"","","","","","html-keyboard-response","126","196968","0.0-4.0-0.61","162","1","2022-11-28 06:59:24","7b1eb8be57ff77859c7d9ac988e43411","114.252.41.243","Mozilla/5.0 (Windows NT 10.0; Win64; x64; rv:107.0) Gecko/20100101 Firefox/107.0","","Firefox","107.0","Windows","10.0","null","<div style=""font-size:60px;"">+</div>","null",""
"","","","","","html-button-response","127","198155","0.0-4.0-1.61","162","1","2022-11-28 06:59:24","7b1eb8be57ff77859c7d9ac988e43411","114.252.41.243","Mozilla/5.0 (Windows NT 10.0; Win64; x64; rv:107.0) Gecko/20100101 Firefox/107.0","","Firefox","107.0","Windows","10.0","1181","<p>作为军队的指挥官，你可以选择发射导弹杀死 <strong>4名</strong> 敌国士兵，但会误杀附近的 <strong>1名</strong> 敌国平民。</p> <p>平民照片如下图所示。</p> <p></p> <img src='stimuli/faces/PCF8.jpg', style='max-width: 30%;'> </img> <p><strong>你是否选择发射武器？</strong></p>","1",""
"","","","","","html-keyboard-response","128","199167","0.0-4.0-0.62","162","1","2022-11-28 06:59:24","7b1eb8be57ff77859c7d9ac988e43411","114.252.41.243","Mozilla/5.0 (Windows NT 10.0; Win64; x64; rv:107.0) Gecko/20100101 Firefox/107.0","","Firefox","107.0","Windows","10.0","null","<div style=""font-size:60px;"">+</div>","null",""
"","","","","","html-button-response","129","200451","0.0-4.0-1.62","162","1","2022-11-28 06:59:24","7b1eb8be57ff77859c7d9ac988e43411","114.252.41.243","Mozilla/5.0 (Windows NT 10.0; Win64; x64; rv:107.0) Gecko/20100101 Firefox/107.0","","Firefox","107.0","Windows","10.0","1268","<p>作为军队的指挥官，你可以选择发射导弹杀死 <strong>6名</strong> 敌国士兵，但会炸毁附近的 <strong>1棵</strong> 敌国树木。</p> <p>树木的照片如下图所示。</p> <p></p> <img src='stimuli/trees/13.png', style='max-width: 30%;'> </img> <p><strong>你是否选择发射武器？</strong></p>","0",""
"","","","","","html-keyboard-response","130","201466","0.0-4.0-0.63","162","1","2022-11-28 06:59:24","7b1eb8be57ff77859c7d9ac988e43411","114.252.41.243","Mozilla/5.0 (Windows NT 10.0; Win64; x64; rv:107.0) Gecko/20100101 Firefox/107.0","","Firefox","107.0","Windows","10.0","null","<div style=""font-size:60px;"">+</div>","null",""
"","","","","","html-button-response","131","202779","0.0-4.0-1.63","162","1","2022-11-28 06:59:24","7b1eb8be57ff77859c7d9ac988e43411","114.252.41.243","Mozilla/5.0 (Windows NT 10.0; Win64; x64; rv:107.0) Gecko/20100101 Firefox/107.0","","Firefox","107.0","Windows","10.0","1304","<p>作为军队的指挥官，你可以选择发射导弹杀死 <strong>3名</strong> 敌国士兵，但会误杀附近的 <strong>1名</strong> 敌国平民。</p> <p>平民照片如下图所示。</p> <p></p> <img src='stimuli/faces/PCF4.jpg', style='max-width: 30%;'> </img> <p><strong>你是否选择发射武器？</strong></p>","1",""
"","","","","","survey-multi-choice","132","209201","0.0-5.0","162","1","2022-11-28 06:59:24","7b1eb8be57ff77859c7d9ac988e43411","114.252.41.243","Mozilla/5.0 (Windows NT 10.0; Win64; x64; rv:107.0) Gecko/20100101 Firefox/107.0","","Firefox","107.0","Windows","10.0","6415","","{""Attention1"":""""}","[0]"
"","","","","","html-button-response","133","210643","0.0-6.0","162","1","2022-11-28 06:59:24","7b1eb8be57ff77859c7d9ac988e43411","114.252.41.243","Mozilla/5.0 (Windows NT 10.0; Win64; x64; rv:107.0) Gecko/20100101 Firefox/107.0","","Firefox","107.0","Windows","10.0","1435","<p style=""font-size:20px;font-weight:bold;"">恭喜！</p><p>你已经完成了实验的第一部分。</p><p>请休息放松一下，然后进入第二部分。</p><p>这部分大约需要10分钟。</p>","0",""
"","","","","","survey-text","134","327428","0.0-7.0","162","1","2022-11-28 06:59:24","7b1eb8be57ff77859c7d9ac988e43411","114.252.41.243","Mozilla/5.0 (Windows NT 10.0; Win64; x64; rv:107.0) Gecko/20100101 Firefox/107.0","","Firefox","107.0","Windows","10.0","115757","","{""Age"":""23"",""Nation"":""中国"",""Born"":""北京市"",""Live"":""北京市"",""Ethnic"":""汉"",""Alipay"":""399971109@qq.com"",""ID"":""""}",""
"","","","","","survey-multi-choice","135","337612","0.0-8.0","162","1","2022-11-28 06:59:24","7b1eb8be57ff77859c7d9ac988e43411","114.252.41.243","Mozilla/5.0 (Windows NT 10.0; Win64; x64; rv:107.0) Gecko/20100101 Firefox/107.0","","Firefox","107.0","Windows","10.0","10171","","{""Gender"":""男"",""Education"":""本科毕业"",""Income"":""￥140,000-￥269,999"",""Children"":""0"",""Race"":""亚洲人""}","[0,1,2,3,4]"
"","","","","","survey-multi-select","136","341444","0.0-9.0","162","1","2022-11-28 06:59:24","7b1eb8be57ff77859c7d9ac988e43411","114.252.41.243","Mozilla/5.0 (Windows NT 10.0; Win64; x64; rv:107.0) Gecko/20100101 Firefox/107.0","","Firefox","107.0","Windows","10.0","3819","","{""Marriage"":[""未婚""],""Religion"":[""无宗教信仰""]}","[0,1]"
"","","","","","survey-multi-choice","137","352548","0.0-10.0","162","1","2022-11-28 06:59:24","7b1eb8be57ff77859c7d9ac988e43411","114.252.41.243","Mozilla/5.0 (Windows NT 10.0; Win64; x64; rv:107.0) Gecko/20100101 Firefox/107.0","","Firefox","107.0","Windows","10.0","11097","","{""SES"":""6""}","[0]"
"","","","","","html-button-response","138","353979","0.0-11.0","162","1","2022-11-28 06:59:24","7b1eb8be57ff77859c7d9ac988e43411","114.252.41.243","Mozilla/5.0 (Windows NT 10.0; Win64; x64; rv:107.0) Gecko/20100101 Firefox/107.0","","Firefox","107.0","Windows","10.0","1424","<p><strong>请判断下列陈述在多大程度上可以形容你？</p><p> (1 = ""和我一点都不像"" to 5 = ""非常像我"".)</strong></p>","0",""
"","","","","","survey-likert","139","384445","0.0-12.0","162","1","2022-11-28 06:59:24","7b1eb8be57ff77859c7d9ac988e43411","114.252.41.243","Mozilla/5.0 (Windows NT 10.0; Win64; x64; rv:107.0) Gecko/20100101 Firefox/107.0","","Firefox","107.0","Windows","10.0","30458","","{""Aggression1"":0,""Aggression2"":0,""Aggression3"":0,""Aggression4"":0,""Aggression5"":1,""Aggression6"":0,""Aggression7"":3,""Aggression8"":0,""Aggression9"":0}","[0,1,2,3,4,5,6,7,8]"
"","","","","","html-button-response","140","385602","0.0-13.0","162","1","2022-11-28 06:59:24","7b1eb8be57ff77859c7d9ac988e43411","114.252.41.243","Mozilla/5.0 (Windows NT 10.0; Win64; x64; rv:107.0) Gecko/20100101 Firefox/107.0","","Firefox","107.0","Windows","10.0","1151","<p><strong>请判断你在多大程度上同意下列陈述。</strong></p>","0",""
"","","","","","survey-likert","141","500024","0.0-14.0","162","1","2022-11-28 06:59:24","7b1eb8be57ff77859c7d9ac988e43411","114.252.41.243","Mozilla/5.0 (Windows NT 10.0; Win64; x64; rv:107.0) Gecko/20100101 Firefox/107.0","","Firefox","107.0","Windows","10.0","114412","","{""scale16"":3,""scale27"":0,""scale10"":0,""scale26"":3,""scale25"":4,""scale22"":3,""scale4"":0,""scale21"":4,""scale1"":0,""scale18"":0,""scale11"":4,""scale20"":3,""scale6"":0,""scale24"":0,""scale8"":4,""scale12"":0,""scale23"":3,""scale2"":3,""scale3"":0,""scale17"":0,""scale28"":3,""scale9"":3,""scale13"":1,""scale7"":1,""scale5"":3,""scale14"":1,""scale19"":4,""scale15"":0}","[15,26,9,25,24,21,3,20,0,17,10,19,5,23,7,11,22,1,2,16,27,8,12,6,4,13,18,14]"
"","","","","","html-button-response","142","501138","0.0-15.0","162","1","2022-11-28 06:59:24","7b1eb8be57ff77859c7d9ac988e43411","114.252.41.243","Mozilla/5.0 (Windows NT 10.0; Win64; x64; rv:107.0) Gecko/20100101 Firefox/107.0","","Firefox","107.0","Windows","10.0","1103","<p><strong>请判断你在多大程度上同意下列陈述。</strong></p>","0",""
"","","","","","survey-likert","143","566549","0.0-16.0","162","1","2022-11-28 06:59:24","7b1eb8be57ff77859c7d9ac988e43411","114.252.41.243","Mozilla/5.0 (Windows NT 10.0; Win64; x64; rv:107.0) Gecko/20100101 Firefox/107.0","","Firefox","107.0","Windows","10.0","65402","","{""sdo14"":6,""sdo12"":5,""sdo6"":0,""sdo7"":0,""sdo8"":0,""sdo4"":0,""sdo2"":0,""sdo1"":0,""sdo10"":6,""sdo5"":1,""sdo15"":5,""sdo11"":5,""sdo3"":1,""sdo9"":5,""sdo13"":6,""sdo16"":5}","[13,11,5,6,7,3,1,0,9,4,14,10,2,8,12,15]"
"","","","","","html-button-response","144","567674","0.0-17.0","162","1","2022-11-28 06:59:24","7b1eb8be57ff77859c7d9ac988e43411","114.252.41.243","Mozilla/5.0 (Windows NT 10.0; Win64; x64; rv:107.0) Gecko/20100101 Firefox/107.0","","Firefox","107.0","Windows","10.0","1117","<p><strong>请判断你在多大程度上同意下列陈述。</strong></p>","0",""
"","","","","","survey-likert","145","600684","0.0-18.0","162","1","2022-11-28 06:59:24","7b1eb8be57ff77859c7d9ac988e43411","114.252.41.243","Mozilla/5.0 (Windows NT 10.0; Win64; x64; rv:107.0) Gecko/20100101 Firefox/107.0","","Firefox","107.0","Windows","10.0","33001","","{""caring1"":4,""liking1"":0,""caring2"":4,""protection1"":3,""liking2"":0,""caring3"":4,""protection2"":2,""liking3"":0,""protection3"":4,""caring4"":4,""liking4"":0,""protection4"":4,""caring5"":4,""liking5"":0,""protection5"":3}","[0,1,2,3,4,5,6,7,8,9,10,11,12,13,14]"
"","","","","","html-button-response","146","601794","0.0-19.0","162","1","2022-11-28 06:59:24","7b1eb8be57ff77859c7d9ac988e43411","114.252.41.243","Mozilla/5.0 (Windows NT 10.0; Win64; x64; rv:107.0) Gecko/20100101 Firefox/107.0","","Firefox","107.0","Windows","10.0","1104","<p><strong>请判断下列场景中你的内心感受有多柔软。</strong></p>","0",""
"","","","","","survey-likert","147","621421","0.0-20.0","162","1","2022-11-28 06:59:24","7b1eb8be57ff77859c7d9ac988e43411","114.252.41.243","Mozilla/5.0 (Windows NT 10.0; Win64; x64; rv:107.0) Gecko/20100101 Firefox/107.0","","Firefox","107.0","Windows","10.0","19620","","{""tenderness-positive1"":4,""tenderness-negative1"":3,""tenderness-negative2"":3,""tenderness-positive2"":4,""tenderness-positive3"":4,""tenderness-negative3"":3,""tenderness-positive4"":3,""tenderness-negative4"":4,""tenderness-negative5"":3,""tenderness-positive5"":4}","[0,1,2,3,4,5,6,7,8,9]"
"","","","","","survey-multi-choice","148","629003","0.0-21.0","162","1","2022-11-28 06:59:24","7b1eb8be57ff77859c7d9ac988e43411","114.252.41.243","Mozilla/5.0 (Windows NT 10.0; Win64; x64; rv:107.0) Gecko/20100101 Firefox/107.0","","Firefox","107.0","Windows","10.0","7579","","{""Attention2"":""其他""}","[0]"
"","","","","","html-button-response","149","629994","0.0-22.0","162","1","2022-11-28 06:59:24","7b1eb8be57ff77859c7d9ac988e43411","114.252.41.243","Mozilla/5.0 (Windows NT 10.0; Win64; x64; rv:107.0) Gecko/20100101 Firefox/107.0","","Firefox","107.0","Windows","10.0","987","<p><strong>请判断你在多大程度上同意下列陈述。</strong></p>","0",""
"","","","","","survey-likert","150","727957","0.0-23.0","162","1","2022-11-28 06:59:24","7b1eb8be57ff77859c7d9ac988e43411","114.252.41.243","Mozilla/5.0 (Windows NT 10.0; Win64; x64; rv:107.0) Gecko/20100101 Firefox/107.0","","Firefox","107.0","Windows","10.0","97956","","{""Patri11"":0,""Patri9"":0,""Patri1"":4,""Nation5"":2,""Patri2"":4,""Nation1"":3,""Patri4"":4,""Nation6"":3,""Patri5"":4,""Patri8"":4,""Nation4"":3,""Nation3"":1,""Patri7"":4,""Nation2"":4,""Nation8"":0,""Patri10"":0,""Patri6"":0,""Patri12"":0,""Nation7"":3,""Patri3"":3}","[10,8,0,16,1,12,3,17,4,7,15,14,6,13,19,9,5,11,18,2]"
"","","","","","html-button-response","151","729338","0.0-24.0","162","1","2022-11-28 06:59:24","7b1eb8be57ff77859c7d9ac988e43411","114.252.41.243","Mozilla/5.0 (Windows NT 10.0; Win64; x64; rv:107.0) Gecko/20100101 Firefox/107.0","","Firefox","107.0","Windows","10.0","1375","<p><strong>请判断你在多大程度上同意下列陈述。</strong></p>","0",""
"","","","","","survey-likert","152","801726","0.0-25.0","162","1","2022-11-28 06:59:24","7b1eb8be57ff77859c7d9ac988e43411","114.252.41.243","Mozilla/5.0 (Windows NT 10.0; Win64; x64; rv:107.0) Gecko/20100101 Firefox/107.0","","Firefox","107.0","Windows","10.0","72379","","{""hi3"":0,""hi4"":6,""vi2"":1,""vi3"":6,""hi2"":6,""vc1"":8,""vc2"":7,""hc3"":8,""vi1"":5,""vi4"":0,""vc3"":8,""hc1"":7,""hi1"":6,""vc4"":7,""Robot"":6,""hc4"":8,""hc2"":7}","[2,3,5,6,1,13,14,11,4,8,15,9,0,16,7,12,10]"
"","","","","","survey-text","153","803178","0.0-26.0","162","1","2022-11-28 06:59:24","7b1eb8be57ff77859c7d9ac988e43411","114.252.41.243","Mozilla/5.0 (Windows NT 10.0; Win64; x64; rv:107.0) Gecko/20100101 Firefox/107.0","","Firefox","107.0","Windows","10.0","1443","","{""Comments"":""""}",""
"","","","","","html-button-response","154","805282","0.0-27.0","162","1","2022-11-28 06:59:24","7b1eb8be57ff77859c7d9ac988e43411","114.252.41.243","Mozilla/5.0 (Windows NT 10.0; Win64; x64; rv:107.0) Gecko/20100101 Firefox/107.0","","Firefox","107.0","Windows","10.0","2099","<strong><p>恭喜你完成了实验！</p><p>感谢您的参与。</p></strong>","0",""
