"success","timeout","failed_images","failed_audio","failed_video","trial_type","trial_index","time_elapsed","internal_node_id","run_id","condition","recorded_at","source_code_version","ip","user_agent","device","browser","browser_version","platform","platform_version","rt","stimulus","response","question_order"
"true","false","[]","[]","[]","preload","0","1685","0.0-0.0","165","1","2022-11-28 08:07:47","7b1eb8be57ff77859c7d9ac988e43411","223.104.194.132","Mozilla/5.0 (Windows NT 10.0; WOW64) AppleWebKit/537.36 (KHTML, like Gecko) Chrome/92.0.4515.131 Safari/537.36 SLBrowser/8.0.0.10171 SLBChan/103","WebKit","Chrome","92.0.4515.131","Windows","10.0","","","",""
"true","","","","","fullscreen","1","4352","0.0-1.0","165","1","2022-11-28 08:07:47","7b1eb8be57ff77859c7d9ac988e43411","223.104.194.132","Mozilla/5.0 (Windows NT 10.0; WOW64) AppleWebKit/537.36 (KHTML, like Gecko) Chrome/92.0.4515.131 Safari/537.36 SLBrowser/8.0.0.10171 SLBChan/103","WebKit","Chrome","92.0.4515.131","Windows","10.0","","","",""
"","","","","","html-button-response","2","13850","0.0-2.0","165","1","2022-11-28 08:07:47","7b1eb8be57ff77859c7d9ac988e43411","223.104.194.132","Mozilla/5.0 (Windows NT 10.0; WOW64) AppleWebKit/537.36 (KHTML, like Gecko) Chrome/92.0.4515.131 Safari/537.36 SLBrowser/8.0.0.10171 SLBChan/103","WebKit","Chrome","92.0.4515.131","Windows","10.0","9497","<p style=""font-size:20px;font-weight:bold;"">实验知情同意书</p><p style=""text-align:left;""><strong>实验名称：</strong>社会冲突研究</p><p style=""text-align:left;""><strong>主要研究者：</strong>韩晓春副教授（北京师范大学心理学部）</p><p style=""text-align:left;""><strong>联系方式：</strong>发送邮件至xiaochun.han@bnu.edu.cn</p><p style=""text-align:left;""><strong>研究目的：</strong>研究旨在了解人类面对群体冲突时的决策方式，以及相关的心理学特质。实验调查大约需要20分钟。</p><p style=""text-align:left;""><strong>实验流程：</strong>实验包含两部分。第一部分呈现一系列群体冲突场景，请你决定如何对这些冲突进行反应，大约需要10分钟完成。第二部分包含一系列人口统计学信息收集和心理学问卷，大约需要10分钟完成。</p><p style=""text-align:left;""><strong>参加及退出规则：</strong>参加本实验完全取决于您的个人意愿。在参与过程中，您可以随时退出，并且不用承担任何后果。</p><p style=""text-align:left;""><strong>隐私：</strong>本实验完全匿名进行，不会收集您的姓名或其他能够识别您身份的信息。实验中收集的作答仅用作科学研究使用，可能会在学术期刊/书籍上发表，或者用于教学，您的数据未来可能会和其他研究者或实验室分享，但您的个人身份不会被识别。</p><p style=""text-align:left;""><strong>实验报酬：</strong>实验完成后，您将获得15元人民币报酬，以感谢您的时间和努力。调查问卷中包含几道题目用以测验您作答时的认真度。只有完成全部实验，并且正确回答认真度测验的被试才能获得实验报酬。实验报酬将通过支付宝转账发放。</p><p style=""text-align:left;font-size:20px;""><strong>如果您同意以上实验知情同意书的内容，请点击'同意并且开始实验'按钮；否则请关闭浏览器界面，退出实验。</strong></p>","0",""
"","","","","","html-button-response","3","22203","0.0-3.0","165","1","2022-11-28 08:07:47","7b1eb8be57ff77859c7d9ac988e43411","223.104.194.132","Mozilla/5.0 (Windows NT 10.0; WOW64) AppleWebKit/537.36 (KHTML, like Gecko) Chrome/92.0.4515.131 Safari/537.36 SLBrowser/8.0.0.10171 SLBChan/103","WebKit","Chrome","92.0.4515.131","Windows","10.0","8351","<p ><strong>实验任务一：</strong></p><p>请想象你的国家与另一个国家发生了军事冲突。</p><p>你是国家军队的指挥官，你将如何在冲突中进行决策。</p><p>具体来说，作为军队指挥官，请你决定是否发射导弹进行打击。</p><p>接下来，你会面对一系列场景，请仔细阅读每个场景，然后进行决策。</p><p>这部分实验任务大约需要10分钟。</p><p><strong>实验过程中，请集中注意力。</strong></p>","0",""
"","","","","","html-keyboard-response","4","23210","0.0-4.0-0.0","165","1","2022-11-28 08:07:47","7b1eb8be57ff77859c7d9ac988e43411","223.104.194.132","Mozilla/5.0 (Windows NT 10.0; WOW64) AppleWebKit/537.36 (KHTML, like Gecko) Chrome/92.0.4515.131 Safari/537.36 SLBrowser/8.0.0.10171 SLBChan/103","WebKit","Chrome","92.0.4515.131","Windows","10.0","null","<div style=""font-size:60px;"">+</div>","null",""
"","","","","","html-button-response","5","29962","0.0-4.0-1.0","165","1","2022-11-28 08:07:47","7b1eb8be57ff77859c7d9ac988e43411","223.104.194.132","Mozilla/5.0 (Windows NT 10.0; WOW64) AppleWebKit/537.36 (KHTML, like Gecko) Chrome/92.0.4515.131 Safari/537.36 SLBrowser/8.0.0.10171 SLBChan/103","WebKit","Chrome","92.0.4515.131","Windows","10.0","6750","<p>作为军队的指挥官，你可以选择发射导弹杀死 <strong>10名</strong> 敌国士兵，但会炸毁附近的 <strong>1棵</strong> 敌国树木。</p> <p>树木的照片如下图所示。</p> <p></p> <img src='stimuli/trees/14.png', style='max-width: 30%;'> </img> <p><strong>你是否选择发射武器？</strong></p>","0",""
"","","","","","html-keyboard-response","6","30972","0.0-4.0-0.1","165","1","2022-11-28 08:07:47","7b1eb8be57ff77859c7d9ac988e43411","223.104.194.132","Mozilla/5.0 (Windows NT 10.0; WOW64) AppleWebKit/537.36 (KHTML, like Gecko) Chrome/92.0.4515.131 Safari/537.36 SLBrowser/8.0.0.10171 SLBChan/103","WebKit","Chrome","92.0.4515.131","Windows","10.0","null","<div style=""font-size:60px;"">+</div>","null",""
"","","","","","html-button-response","7","32571","0.0-4.0-1.1","165","1","2022-11-28 08:07:47","7b1eb8be57ff77859c7d9ac988e43411","223.104.194.132","Mozilla/5.0 (Windows NT 10.0; WOW64) AppleWebKit/537.36 (KHTML, like Gecko) Chrome/92.0.4515.131 Safari/537.36 SLBrowser/8.0.0.10171 SLBChan/103","WebKit","Chrome","92.0.4515.131","Windows","10.0","1596","<p>作为军队的指挥官，你可以选择发射导弹杀死 <strong>5名</strong> 敌国士兵，但会炸毁附近的 <strong>1棵</strong> 敌国树木。</p> <p>树木的照片如下图所示。</p> <p></p> <img src='stimuli/trees/3.png', style='max-width: 30%;'> </img> <p><strong>你是否选择发射武器？</strong></p>","0",""
"","","","","","html-keyboard-response","8","33589","0.0-4.0-0.2","165","1","2022-11-28 08:07:47","7b1eb8be57ff77859c7d9ac988e43411","223.104.194.132","Mozilla/5.0 (Windows NT 10.0; WOW64) AppleWebKit/537.36 (KHTML, like Gecko) Chrome/92.0.4515.131 Safari/537.36 SLBrowser/8.0.0.10171 SLBChan/103","WebKit","Chrome","92.0.4515.131","Windows","10.0","null","<div style=""font-size:60px;"">+</div>","null",""
"","","","","","html-button-response","9","38915","0.0-4.0-1.2","165","1","2022-11-28 08:07:47","7b1eb8be57ff77859c7d9ac988e43411","223.104.194.132","Mozilla/5.0 (Windows NT 10.0; WOW64) AppleWebKit/537.36 (KHTML, like Gecko) Chrome/92.0.4515.131 Safari/537.36 SLBrowser/8.0.0.10171 SLBChan/103","WebKit","Chrome","92.0.4515.131","Windows","10.0","5324","<p>作为军队的指挥官，你可以选择发射导弹杀死 <strong>1名</strong> 敌国士兵，但会误杀附近的 <strong>1名</strong> 敌国平民。</p> <p>平民照片如下图所示。</p> <p></p> <img src='stimuli/faces/PCF1.jpg', style='max-width: 30%;'> </img> <p><strong>你是否选择发射武器？</strong></p>","1",""
"","","","","","html-keyboard-response","10","39928","0.0-4.0-0.3","165","1","2022-11-28 08:07:47","7b1eb8be57ff77859c7d9ac988e43411","223.104.194.132","Mozilla/5.0 (Windows NT 10.0; WOW64) AppleWebKit/537.36 (KHTML, like Gecko) Chrome/92.0.4515.131 Safari/537.36 SLBrowser/8.0.0.10171 SLBChan/103","WebKit","Chrome","92.0.4515.131","Windows","10.0","null","<div style=""font-size:60px;"">+</div>","null",""
"","","","","","html-button-response","11","42211","0.0-4.0-1.3","165","1","2022-11-28 08:07:47","7b1eb8be57ff77859c7d9ac988e43411","223.104.194.132","Mozilla/5.0 (Windows NT 10.0; WOW64) AppleWebKit/537.36 (KHTML, like Gecko) Chrome/92.0.4515.131 Safari/537.36 SLBrowser/8.0.0.10171 SLBChan/103","WebKit","Chrome","92.0.4515.131","Windows","10.0","2281","<p>作为军队的指挥官，你可以选择发射导弹杀死 <strong>5名</strong> 敌国士兵，但会炸毁附近的 <strong>1棵</strong> 敌国树木。</p> <p>树木的照片如下图所示。</p> <p></p> <img src='stimuli/trees/15.png', style='max-width: 30%;'> </img> <p><strong>你是否选择发射武器？</strong></p>","0",""
"","","","","","html-keyboard-response","12","43218","0.0-4.0-0.4","165","1","2022-11-28 08:07:47","7b1eb8be57ff77859c7d9ac988e43411","223.104.194.132","Mozilla/5.0 (Windows NT 10.0; WOW64) AppleWebKit/537.36 (KHTML, like Gecko) Chrome/92.0.4515.131 Safari/537.36 SLBrowser/8.0.0.10171 SLBChan/103","WebKit","Chrome","92.0.4515.131","Windows","10.0","null","<div style=""font-size:60px;"">+</div>","null",""
"","","","","","html-button-response","13","45205","0.0-4.0-1.4","165","1","2022-11-28 08:07:47","7b1eb8be57ff77859c7d9ac988e43411","223.104.194.132","Mozilla/5.0 (Windows NT 10.0; WOW64) AppleWebKit/537.36 (KHTML, like Gecko) Chrome/92.0.4515.131 Safari/537.36 SLBrowser/8.0.0.10171 SLBChan/103","WebKit","Chrome","92.0.4515.131","Windows","10.0","1984","<p>作为军队的指挥官，你可以选择发射导弹杀死 <strong>4名</strong> 敌国士兵，但会炸毁附近的 <strong>1棵</strong> 敌国树木。</p> <p>树木的照片如下图所示。</p> <p></p> <img src='stimuli/trees/10.png', style='max-width: 30%;'> </img> <p><strong>你是否选择发射武器？</strong></p>","0",""
"","","","","","html-keyboard-response","14","46221","0.0-4.0-0.5","165","1","2022-11-28 08:07:47","7b1eb8be57ff77859c7d9ac988e43411","223.104.194.132","Mozilla/5.0 (Windows NT 10.0; WOW64) AppleWebKit/537.36 (KHTML, like Gecko) Chrome/92.0.4515.131 Safari/537.36 SLBrowser/8.0.0.10171 SLBChan/103","WebKit","Chrome","92.0.4515.131","Windows","10.0","null","<div style=""font-size:60px;"">+</div>","null",""
"","","","","","html-button-response","15","47995","0.0-4.0-1.5","165","1","2022-11-28 08:07:47","7b1eb8be57ff77859c7d9ac988e43411","223.104.194.132","Mozilla/5.0 (Windows NT 10.0; WOW64) AppleWebKit/537.36 (KHTML, like Gecko) Chrome/92.0.4515.131 Safari/537.36 SLBrowser/8.0.0.10171 SLBChan/103","WebKit","Chrome","92.0.4515.131","Windows","10.0","1768","<p>作为军队的指挥官，你可以选择发射导弹杀死 <strong>9名</strong> 敌国士兵，但会炸毁附近的 <strong>1棵</strong> 敌国树木。</p> <p>树木的照片如下图所示。</p> <p></p> <img src='stimuli/trees/8.png', style='max-width: 30%;'> </img> <p><strong>你是否选择发射武器？</strong></p>","0",""
"","","","","","html-keyboard-response","16","49003","0.0-4.0-0.6","165","1","2022-11-28 08:07:47","7b1eb8be57ff77859c7d9ac988e43411","223.104.194.132","Mozilla/5.0 (Windows NT 10.0; WOW64) AppleWebKit/537.36 (KHTML, like Gecko) Chrome/92.0.4515.131 Safari/537.36 SLBrowser/8.0.0.10171 SLBChan/103","WebKit","Chrome","92.0.4515.131","Windows","10.0","null","<div style=""font-size:60px;"">+</div>","null",""
"","","","","","html-button-response","17","49764","0.0-4.0-1.6","165","1","2022-11-28 08:07:47","7b1eb8be57ff77859c7d9ac988e43411","223.104.194.132","Mozilla/5.0 (Windows NT 10.0; WOW64) AppleWebKit/537.36 (KHTML, like Gecko) Chrome/92.0.4515.131 Safari/537.36 SLBrowser/8.0.0.10171 SLBChan/103","WebKit","Chrome","92.0.4515.131","Windows","10.0","760","<p>作为军队的指挥官，你可以选择发射导弹杀死 <strong>2名</strong> 敌国士兵，但会炸毁附近的 <strong>1棵</strong> 敌国树木。</p> <p>树木的照片如下图所示。</p> <p></p> <img src='stimuli/trees/4.png', style='max-width: 30%;'> </img> <p><strong>你是否选择发射武器？</strong></p>","0",""
"","","","","","html-keyboard-response","18","50769","0.0-4.0-0.7","165","1","2022-11-28 08:07:47","7b1eb8be57ff77859c7d9ac988e43411","223.104.194.132","Mozilla/5.0 (Windows NT 10.0; WOW64) AppleWebKit/537.36 (KHTML, like Gecko) Chrome/92.0.4515.131 Safari/537.36 SLBrowser/8.0.0.10171 SLBChan/103","WebKit","Chrome","92.0.4515.131","Windows","10.0","null","<div style=""font-size:60px;"">+</div>","null",""
"","","","","","html-button-response","19","51651","0.0-4.0-1.7","165","1","2022-11-28 08:07:47","7b1eb8be57ff77859c7d9ac988e43411","223.104.194.132","Mozilla/5.0 (Windows NT 10.0; WOW64) AppleWebKit/537.36 (KHTML, like Gecko) Chrome/92.0.4515.131 Safari/537.36 SLBrowser/8.0.0.10171 SLBChan/103","WebKit","Chrome","92.0.4515.131","Windows","10.0","879","<p>作为军队的指挥官，你可以选择发射导弹杀死 <strong>4名</strong> 敌国士兵，但会炸毁附近的 <strong>1棵</strong> 敌国树木。</p> <p>树木的照片如下图所示。</p> <p></p> <img src='stimuli/trees/1.png', style='max-width: 30%;'> </img> <p><strong>你是否选择发射武器？</strong></p>","0",""
"","","","","","html-keyboard-response","20","52657","0.0-4.0-0.8","165","1","2022-11-28 08:07:47","7b1eb8be57ff77859c7d9ac988e43411","223.104.194.132","Mozilla/5.0 (Windows NT 10.0; WOW64) AppleWebKit/537.36 (KHTML, like Gecko) Chrome/92.0.4515.131 Safari/537.36 SLBrowser/8.0.0.10171 SLBChan/103","WebKit","Chrome","92.0.4515.131","Windows","10.0","null","<div style=""font-size:60px;"">+</div>","null",""
"","","","","","html-button-response","21","55324","0.0-4.0-1.8","165","1","2022-11-28 08:07:47","7b1eb8be57ff77859c7d9ac988e43411","223.104.194.132","Mozilla/5.0 (Windows NT 10.0; WOW64) AppleWebKit/537.36 (KHTML, like Gecko) Chrome/92.0.4515.131 Safari/537.36 SLBrowser/8.0.0.10171 SLBChan/103","WebKit","Chrome","92.0.4515.131","Windows","10.0","2664","<p>作为军队的指挥官，你可以选择发射导弹杀死 <strong>4名</strong> 敌国士兵，但会误杀附近的 <strong>1名</strong> 敌国平民。</p> <p>平民照片如下图所示。</p> <p></p> <img src='stimuli/faces/PCF4.jpg', style='max-width: 30%;'> </img> <p><strong>你是否选择发射武器？</strong></p>","0",""
"","","","","","html-keyboard-response","22","56332","0.0-4.0-0.9","165","1","2022-11-28 08:07:47","7b1eb8be57ff77859c7d9ac988e43411","223.104.194.132","Mozilla/5.0 (Windows NT 10.0; WOW64) AppleWebKit/537.36 (KHTML, like Gecko) Chrome/92.0.4515.131 Safari/537.36 SLBrowser/8.0.0.10171 SLBChan/103","WebKit","Chrome","92.0.4515.131","Windows","10.0","null","<div style=""font-size:60px;"">+</div>","null",""
"","","","","","html-button-response","23","57193","0.0-4.0-1.9","165","1","2022-11-28 08:07:47","7b1eb8be57ff77859c7d9ac988e43411","223.104.194.132","Mozilla/5.0 (Windows NT 10.0; WOW64) AppleWebKit/537.36 (KHTML, like Gecko) Chrome/92.0.4515.131 Safari/537.36 SLBrowser/8.0.0.10171 SLBChan/103","WebKit","Chrome","92.0.4515.131","Windows","10.0","859","<p>作为军队的指挥官，你可以选择发射导弹杀死 <strong>8名</strong> 敌国士兵，但会炸毁附近的 <strong>1棵</strong> 敌国树木。</p> <p>树木的照片如下图所示。</p> <p></p> <img src='stimuli/trees/1.png', style='max-width: 30%;'> </img> <p><strong>你是否选择发射武器？</strong></p>","0",""
"","","","","","html-keyboard-response","24","58201","0.0-4.0-0.10","165","1","2022-11-28 08:07:47","7b1eb8be57ff77859c7d9ac988e43411","223.104.194.132","Mozilla/5.0 (Windows NT 10.0; WOW64) AppleWebKit/537.36 (KHTML, like Gecko) Chrome/92.0.4515.131 Safari/537.36 SLBrowser/8.0.0.10171 SLBChan/103","WebKit","Chrome","92.0.4515.131","Windows","10.0","null","<div style=""font-size:60px;"">+</div>","null",""
"","","","","","html-button-response","25","58953","0.0-4.0-1.10","165","1","2022-11-28 08:07:47","7b1eb8be57ff77859c7d9ac988e43411","223.104.194.132","Mozilla/5.0 (Windows NT 10.0; WOW64) AppleWebKit/537.36 (KHTML, like Gecko) Chrome/92.0.4515.131 Safari/537.36 SLBrowser/8.0.0.10171 SLBChan/103","WebKit","Chrome","92.0.4515.131","Windows","10.0","749","<p>作为军队的指挥官，你可以选择发射导弹杀死 <strong>9名</strong> 敌国士兵，但会炸毁附近的 <strong>1棵</strong> 敌国树木。</p> <p>树木的照片如下图所示。</p> <p></p> <img src='stimuli/trees/4.png', style='max-width: 30%;'> </img> <p><strong>你是否选择发射武器？</strong></p>","0",""
"","","","","","html-keyboard-response","26","59963","0.0-4.0-0.11","165","1","2022-11-28 08:07:47","7b1eb8be57ff77859c7d9ac988e43411","223.104.194.132","Mozilla/5.0 (Windows NT 10.0; WOW64) AppleWebKit/537.36 (KHTML, like Gecko) Chrome/92.0.4515.131 Safari/537.36 SLBrowser/8.0.0.10171 SLBChan/103","WebKit","Chrome","92.0.4515.131","Windows","10.0","null","<div style=""font-size:60px;"">+</div>","null",""
"","","","","","html-button-response","27","63153","0.0-4.0-1.11","165","1","2022-11-28 08:07:47","7b1eb8be57ff77859c7d9ac988e43411","223.104.194.132","Mozilla/5.0 (Windows NT 10.0; WOW64) AppleWebKit/537.36 (KHTML, like Gecko) Chrome/92.0.4515.131 Safari/537.36 SLBrowser/8.0.0.10171 SLBChan/103","WebKit","Chrome","92.0.4515.131","Windows","10.0","3187","<p>作为军队的指挥官，你可以选择发射导弹杀死 <strong>1名</strong> 敌国士兵，但会误杀附近的 <strong>1名</strong> 敌国平民。</p> <p>平民照片如下图所示。</p> <p></p> <img src='stimuli/faces/PCM7.jpg', style='max-width: 30%;'> </img> <p><strong>你是否选择发射武器？</strong></p>","1",""
"","","","","","html-keyboard-response","28","64165","0.0-4.0-0.12","165","1","2022-11-28 08:07:47","7b1eb8be57ff77859c7d9ac988e43411","223.104.194.132","Mozilla/5.0 (Windows NT 10.0; WOW64) AppleWebKit/537.36 (KHTML, like Gecko) Chrome/92.0.4515.131 Safari/537.36 SLBrowser/8.0.0.10171 SLBChan/103","WebKit","Chrome","92.0.4515.131","Windows","10.0","null","<div style=""font-size:60px;"">+</div>","null",""
"","","","","","html-button-response","29","66538","0.0-4.0-1.12","165","1","2022-11-28 08:07:47","7b1eb8be57ff77859c7d9ac988e43411","223.104.194.132","Mozilla/5.0 (Windows NT 10.0; WOW64) AppleWebKit/537.36 (KHTML, like Gecko) Chrome/92.0.4515.131 Safari/537.36 SLBrowser/8.0.0.10171 SLBChan/103","WebKit","Chrome","92.0.4515.131","Windows","10.0","2370","<p>作为军队的指挥官，你可以选择发射导弹杀死 <strong>1名</strong> 敌国士兵，但会误杀附近的 <strong>1名</strong> 敌国平民。</p> <p>平民照片如下图所示。</p> <p></p> <img src='stimuli/faces/PCF6.jpg', style='max-width: 30%;'> </img> <p><strong>你是否选择发射武器？</strong></p>","1",""
"","","","","","html-keyboard-response","30","67543","0.0-4.0-0.13","165","1","2022-11-28 08:07:47","7b1eb8be57ff77859c7d9ac988e43411","223.104.194.132","Mozilla/5.0 (Windows NT 10.0; WOW64) AppleWebKit/537.36 (KHTML, like Gecko) Chrome/92.0.4515.131 Safari/537.36 SLBrowser/8.0.0.10171 SLBChan/103","WebKit","Chrome","92.0.4515.131","Windows","10.0","null","<div style=""font-size:60px;"">+</div>","null",""
"","","","","","html-button-response","31","68488","0.0-4.0-1.13","165","1","2022-11-28 08:07:47","7b1eb8be57ff77859c7d9ac988e43411","223.104.194.132","Mozilla/5.0 (Windows NT 10.0; WOW64) AppleWebKit/537.36 (KHTML, like Gecko) Chrome/92.0.4515.131 Safari/537.36 SLBrowser/8.0.0.10171 SLBChan/103","WebKit","Chrome","92.0.4515.131","Windows","10.0","943","<p>作为军队的指挥官，你可以选择发射导弹杀死 <strong>5名</strong> 敌国士兵，但会炸毁附近的 <strong>1棵</strong> 敌国树木。</p> <p>树木的照片如下图所示。</p> <p></p> <img src='stimuli/trees/2.png', style='max-width: 30%;'> </img> <p><strong>你是否选择发射武器？</strong></p>","0",""
"","","","","","html-keyboard-response","32","69494","0.0-4.0-0.14","165","1","2022-11-28 08:07:47","7b1eb8be57ff77859c7d9ac988e43411","223.104.194.132","Mozilla/5.0 (Windows NT 10.0; WOW64) AppleWebKit/537.36 (KHTML, like Gecko) Chrome/92.0.4515.131 Safari/537.36 SLBrowser/8.0.0.10171 SLBChan/103","WebKit","Chrome","92.0.4515.131","Windows","10.0","null","<div style=""font-size:60px;"">+</div>","null",""
"","","","","","html-button-response","33","70081","0.0-4.0-1.14","165","1","2022-11-28 08:07:47","7b1eb8be57ff77859c7d9ac988e43411","223.104.194.132","Mozilla/5.0 (Windows NT 10.0; WOW64) AppleWebKit/537.36 (KHTML, like Gecko) Chrome/92.0.4515.131 Safari/537.36 SLBrowser/8.0.0.10171 SLBChan/103","WebKit","Chrome","92.0.4515.131","Windows","10.0","584","<p>作为军队的指挥官，你可以选择发射导弹杀死 <strong>3名</strong> 敌国士兵，但会误杀附近的 <strong>1名</strong> 敌国平民。</p> <p>平民照片如下图所示。</p> <p></p> <img src='stimuli/faces/PCF3.jpg', style='max-width: 30%;'> </img> <p><strong>你是否选择发射武器？</strong></p>","0",""
"","","","","","html-keyboard-response","34","71089","0.0-4.0-0.15","165","1","2022-11-28 08:07:47","7b1eb8be57ff77859c7d9ac988e43411","223.104.194.132","Mozilla/5.0 (Windows NT 10.0; WOW64) AppleWebKit/537.36 (KHTML, like Gecko) Chrome/92.0.4515.131 Safari/537.36 SLBrowser/8.0.0.10171 SLBChan/103","WebKit","Chrome","92.0.4515.131","Windows","10.0","null","<div style=""font-size:60px;"">+</div>","null",""
"","","","","","html-button-response","35","71689","0.0-4.0-1.15","165","1","2022-11-28 08:07:47","7b1eb8be57ff77859c7d9ac988e43411","223.104.194.132","Mozilla/5.0 (Windows NT 10.0; WOW64) AppleWebKit/537.36 (KHTML, like Gecko) Chrome/92.0.4515.131 Safari/537.36 SLBrowser/8.0.0.10171 SLBChan/103","WebKit","Chrome","92.0.4515.131","Windows","10.0","597","<p>作为军队的指挥官，你可以选择发射导弹杀死 <strong>10名</strong> 敌国士兵，但会炸毁附近的 <strong>1棵</strong> 敌国树木。</p> <p>树木的照片如下图所示。</p> <p></p> <img src='stimuli/trees/15.png', style='max-width: 30%;'> </img> <p><strong>你是否选择发射武器？</strong></p>","0",""
"","","","","","html-keyboard-response","36","72692","0.0-4.0-0.16","165","1","2022-11-28 08:07:47","7b1eb8be57ff77859c7d9ac988e43411","223.104.194.132","Mozilla/5.0 (Windows NT 10.0; WOW64) AppleWebKit/537.36 (KHTML, like Gecko) Chrome/92.0.4515.131 Safari/537.36 SLBrowser/8.0.0.10171 SLBChan/103","WebKit","Chrome","92.0.4515.131","Windows","10.0","null","<div style=""font-size:60px;"">+</div>","null",""
"","","","","","html-button-response","37","73122","0.0-4.0-1.16","165","1","2022-11-28 08:07:47","7b1eb8be57ff77859c7d9ac988e43411","223.104.194.132","Mozilla/5.0 (Windows NT 10.0; WOW64) AppleWebKit/537.36 (KHTML, like Gecko) Chrome/92.0.4515.131 Safari/537.36 SLBrowser/8.0.0.10171 SLBChan/103","WebKit","Chrome","92.0.4515.131","Windows","10.0","427","<p>作为军队的指挥官，你可以选择发射导弹杀死 <strong>9名</strong> 敌国士兵，但会炸毁附近的 <strong>1棵</strong> 敌国树木。</p> <p>树木的照片如下图所示。</p> <p></p> <img src='stimuli/trees/9.png', style='max-width: 30%;'> </img> <p><strong>你是否选择发射武器？</strong></p>","0",""
"","","","","","html-keyboard-response","38","74126","0.0-4.0-0.17","165","1","2022-11-28 08:07:47","7b1eb8be57ff77859c7d9ac988e43411","223.104.194.132","Mozilla/5.0 (Windows NT 10.0; WOW64) AppleWebKit/537.36 (KHTML, like Gecko) Chrome/92.0.4515.131 Safari/537.36 SLBrowser/8.0.0.10171 SLBChan/103","WebKit","Chrome","92.0.4515.131","Windows","10.0","null","<div style=""font-size:60px;"">+</div>","null",""
"","","","","","html-button-response","39","74633","0.0-4.0-1.17","165","1","2022-11-28 08:07:47","7b1eb8be57ff77859c7d9ac988e43411","223.104.194.132","Mozilla/5.0 (Windows NT 10.0; WOW64) AppleWebKit/537.36 (KHTML, like Gecko) Chrome/92.0.4515.131 Safari/537.36 SLBrowser/8.0.0.10171 SLBChan/103","WebKit","Chrome","92.0.4515.131","Windows","10.0","505","<p>作为军队的指挥官，你可以选择发射导弹杀死 <strong>8名</strong> 敌国士兵，但会炸毁附近的 <strong>1棵</strong> 敌国树木。</p> <p>树木的照片如下图所示。</p> <p></p> <img src='stimuli/trees/16.png', style='max-width: 30%;'> </img> <p><strong>你是否选择发射武器？</strong></p>","0",""
"","","","","","html-keyboard-response","40","75651","0.0-4.0-0.18","165","1","2022-11-28 08:07:47","7b1eb8be57ff77859c7d9ac988e43411","223.104.194.132","Mozilla/5.0 (Windows NT 10.0; WOW64) AppleWebKit/537.36 (KHTML, like Gecko) Chrome/92.0.4515.131 Safari/537.36 SLBrowser/8.0.0.10171 SLBChan/103","WebKit","Chrome","92.0.4515.131","Windows","10.0","null","<div style=""font-size:60px;"">+</div>","null",""
"","","","","","html-button-response","41","76114","0.0-4.0-1.18","165","1","2022-11-28 08:07:47","7b1eb8be57ff77859c7d9ac988e43411","223.104.194.132","Mozilla/5.0 (Windows NT 10.0; WOW64) AppleWebKit/537.36 (KHTML, like Gecko) Chrome/92.0.4515.131 Safari/537.36 SLBrowser/8.0.0.10171 SLBChan/103","WebKit","Chrome","92.0.4515.131","Windows","10.0","460","<p>作为军队的指挥官，你可以选择发射导弹杀死 <strong>3名</strong> 敌国士兵，但会误杀附近的 <strong>1名</strong> 敌国平民。</p> <p>平民照片如下图所示。</p> <p></p> <img src='stimuli/faces/PCF8.jpg', style='max-width: 30%;'> </img> <p><strong>你是否选择发射武器？</strong></p>","0",""
"","","","","","html-keyboard-response","42","77117","0.0-4.0-0.19","165","1","2022-11-28 08:07:47","7b1eb8be57ff77859c7d9ac988e43411","223.104.194.132","Mozilla/5.0 (Windows NT 10.0; WOW64) AppleWebKit/537.36 (KHTML, like Gecko) Chrome/92.0.4515.131 Safari/537.36 SLBrowser/8.0.0.10171 SLBChan/103","WebKit","Chrome","92.0.4515.131","Windows","10.0","null","<div style=""font-size:60px;"">+</div>","null",""
"","","","","","html-button-response","43","77594","0.0-4.0-1.19","165","1","2022-11-28 08:07:47","7b1eb8be57ff77859c7d9ac988e43411","223.104.194.132","Mozilla/5.0 (Windows NT 10.0; WOW64) AppleWebKit/537.36 (KHTML, like Gecko) Chrome/92.0.4515.131 Safari/537.36 SLBrowser/8.0.0.10171 SLBChan/103","WebKit","Chrome","92.0.4515.131","Windows","10.0","472","<p>作为军队的指挥官，你可以选择发射导弹杀死 <strong>5名</strong> 敌国士兵，但会炸毁附近的 <strong>1棵</strong> 敌国树木。</p> <p>树木的照片如下图所示。</p> <p></p> <img src='stimuli/trees/5.png', style='max-width: 30%;'> </img> <p><strong>你是否选择发射武器？</strong></p>","1",""
"","","","","","html-keyboard-response","44","78612","0.0-4.0-0.20","165","1","2022-11-28 08:07:47","7b1eb8be57ff77859c7d9ac988e43411","223.104.194.132","Mozilla/5.0 (Windows NT 10.0; WOW64) AppleWebKit/537.36 (KHTML, like Gecko) Chrome/92.0.4515.131 Safari/537.36 SLBrowser/8.0.0.10171 SLBChan/103","WebKit","Chrome","92.0.4515.131","Windows","10.0","null","<div style=""font-size:60px;"">+</div>","null",""
"","","","","","html-button-response","45","79073","0.0-4.0-1.20","165","1","2022-11-28 08:07:47","7b1eb8be57ff77859c7d9ac988e43411","223.104.194.132","Mozilla/5.0 (Windows NT 10.0; WOW64) AppleWebKit/537.36 (KHTML, like Gecko) Chrome/92.0.4515.131 Safari/537.36 SLBrowser/8.0.0.10171 SLBChan/103","WebKit","Chrome","92.0.4515.131","Windows","10.0","457","<p>作为军队的指挥官，你可以选择发射导弹杀死 <strong>8名</strong> 敌国士兵，但会炸毁附近的 <strong>1棵</strong> 敌国树木。</p> <p>树木的照片如下图所示。</p> <p></p> <img src='stimuli/trees/3.png', style='max-width: 30%;'> </img> <p><strong>你是否选择发射武器？</strong></p>","0",""
"","","","","","html-keyboard-response","46","80078","0.0-4.0-0.21","165","1","2022-11-28 08:07:47","7b1eb8be57ff77859c7d9ac988e43411","223.104.194.132","Mozilla/5.0 (Windows NT 10.0; WOW64) AppleWebKit/537.36 (KHTML, like Gecko) Chrome/92.0.4515.131 Safari/537.36 SLBrowser/8.0.0.10171 SLBChan/103","WebKit","Chrome","92.0.4515.131","Windows","10.0","null","<div style=""font-size:60px;"">+</div>","null",""
"","","","","","html-button-response","47","81402","0.0-4.0-1.21","165","1","2022-11-28 08:07:47","7b1eb8be57ff77859c7d9ac988e43411","223.104.194.132","Mozilla/5.0 (Windows NT 10.0; WOW64) AppleWebKit/537.36 (KHTML, like Gecko) Chrome/92.0.4515.131 Safari/537.36 SLBrowser/8.0.0.10171 SLBChan/103","WebKit","Chrome","92.0.4515.131","Windows","10.0","1321","<p>作为军队的指挥官，你可以选择发射导弹杀死 <strong>10名</strong> 敌国士兵，但会误杀附近的 <strong>1名</strong> 敌国平民。</p> <p>平民照片如下图所示。</p> <p></p> <img src='stimuli/faces/PCF8.jpg', style='max-width: 30%;'> </img> <p><strong>你是否选择发射武器？</strong></p>","0",""
"","","","","","html-keyboard-response","48","82407","0.0-4.0-0.22","165","1","2022-11-28 08:07:47","7b1eb8be57ff77859c7d9ac988e43411","223.104.194.132","Mozilla/5.0 (Windows NT 10.0; WOW64) AppleWebKit/537.36 (KHTML, like Gecko) Chrome/92.0.4515.131 Safari/537.36 SLBrowser/8.0.0.10171 SLBChan/103","WebKit","Chrome","92.0.4515.131","Windows","10.0","null","<div style=""font-size:60px;"">+</div>","null",""
"","","","","","html-button-response","49","83154","0.0-4.0-1.22","165","1","2022-11-28 08:07:47","7b1eb8be57ff77859c7d9ac988e43411","223.104.194.132","Mozilla/5.0 (Windows NT 10.0; WOW64) AppleWebKit/537.36 (KHTML, like Gecko) Chrome/92.0.4515.131 Safari/537.36 SLBrowser/8.0.0.10171 SLBChan/103","WebKit","Chrome","92.0.4515.131","Windows","10.0","744","<p>作为军队的指挥官，你可以选择发射导弹杀死 <strong>10名</strong> 敌国士兵，但会误杀附近的 <strong>1名</strong> 敌国平民。</p> <p>平民照片如下图所示。</p> <p></p> <img src='stimuli/faces/PCF7.jpg', style='max-width: 30%;'> </img> <p><strong>你是否选择发射武器？</strong></p>","0",""
"","","","","","html-keyboard-response","50","84169","0.0-4.0-0.23","165","1","2022-11-28 08:07:47","7b1eb8be57ff77859c7d9ac988e43411","223.104.194.132","Mozilla/5.0 (Windows NT 10.0; WOW64) AppleWebKit/537.36 (KHTML, like Gecko) Chrome/92.0.4515.131 Safari/537.36 SLBrowser/8.0.0.10171 SLBChan/103","WebKit","Chrome","92.0.4515.131","Windows","10.0","null","<div style=""font-size:60px;"">+</div>","null",""
"","","","","","html-button-response","51","85411","0.0-4.0-1.23","165","1","2022-11-28 08:07:47","7b1eb8be57ff77859c7d9ac988e43411","223.104.194.132","Mozilla/5.0 (Windows NT 10.0; WOW64) AppleWebKit/537.36 (KHTML, like Gecko) Chrome/92.0.4515.131 Safari/537.36 SLBrowser/8.0.0.10171 SLBChan/103","WebKit","Chrome","92.0.4515.131","Windows","10.0","1240","<p>作为军队的指挥官，你可以选择发射导弹杀死 <strong>1名</strong> 敌国士兵，但会误杀附近的 <strong>1名</strong> 敌国平民。</p> <p>平民照片如下图所示。</p> <p></p> <img src='stimuli/faces/PCM6.jpg', style='max-width: 30%;'> </img> <p><strong>你是否选择发射武器？</strong></p>","1",""
"","","","","","html-keyboard-response","52","86422","0.0-4.0-0.24","165","1","2022-11-28 08:07:47","7b1eb8be57ff77859c7d9ac988e43411","223.104.194.132","Mozilla/5.0 (Windows NT 10.0; WOW64) AppleWebKit/537.36 (KHTML, like Gecko) Chrome/92.0.4515.131 Safari/537.36 SLBrowser/8.0.0.10171 SLBChan/103","WebKit","Chrome","92.0.4515.131","Windows","10.0","null","<div style=""font-size:60px;"">+</div>","null",""
"","","","","","html-button-response","53","88161","0.0-4.0-1.24","165","1","2022-11-28 08:07:47","7b1eb8be57ff77859c7d9ac988e43411","223.104.194.132","Mozilla/5.0 (Windows NT 10.0; WOW64) AppleWebKit/537.36 (KHTML, like Gecko) Chrome/92.0.4515.131 Safari/537.36 SLBrowser/8.0.0.10171 SLBChan/103","WebKit","Chrome","92.0.4515.131","Windows","10.0","1736","<p>作为军队的指挥官，你可以选择发射导弹杀死 <strong>3名</strong> 敌国士兵，但会误杀附近的 <strong>1名</strong> 敌国平民。</p> <p>平民照片如下图所示。</p> <p></p> <img src='stimuli/faces/PCM5.jpg', style='max-width: 30%;'> </img> <p><strong>你是否选择发射武器？</strong></p>","0",""
"","","","","","html-keyboard-response","54","89180","0.0-4.0-0.25","165","1","2022-11-28 08:07:47","7b1eb8be57ff77859c7d9ac988e43411","223.104.194.132","Mozilla/5.0 (Windows NT 10.0; WOW64) AppleWebKit/537.36 (KHTML, like Gecko) Chrome/92.0.4515.131 Safari/537.36 SLBrowser/8.0.0.10171 SLBChan/103","WebKit","Chrome","92.0.4515.131","Windows","10.0","null","<div style=""font-size:60px;"">+</div>","null",""
"","","","","","html-button-response","55","89921","0.0-4.0-1.25","165","1","2022-11-28 08:07:47","7b1eb8be57ff77859c7d9ac988e43411","223.104.194.132","Mozilla/5.0 (Windows NT 10.0; WOW64) AppleWebKit/537.36 (KHTML, like Gecko) Chrome/92.0.4515.131 Safari/537.36 SLBrowser/8.0.0.10171 SLBChan/103","WebKit","Chrome","92.0.4515.131","Windows","10.0","738","<p>作为军队的指挥官，你可以选择发射导弹杀死 <strong>10名</strong> 敌国士兵，但会炸毁附近的 <strong>1棵</strong> 敌国树木。</p> <p>树木的照片如下图所示。</p> <p></p> <img src='stimuli/trees/6.png', style='max-width: 30%;'> </img> <p><strong>你是否选择发射武器？</strong></p>","0",""
"","","","","","html-keyboard-response","56","90928","0.0-4.0-0.26","165","1","2022-11-28 08:07:47","7b1eb8be57ff77859c7d9ac988e43411","223.104.194.132","Mozilla/5.0 (Windows NT 10.0; WOW64) AppleWebKit/537.36 (KHTML, like Gecko) Chrome/92.0.4515.131 Safari/537.36 SLBrowser/8.0.0.10171 SLBChan/103","WebKit","Chrome","92.0.4515.131","Windows","10.0","null","<div style=""font-size:60px;"">+</div>","null",""
"","","","","","html-button-response","57","91457","0.0-4.0-1.26","165","1","2022-11-28 08:07:47","7b1eb8be57ff77859c7d9ac988e43411","223.104.194.132","Mozilla/5.0 (Windows NT 10.0; WOW64) AppleWebKit/537.36 (KHTML, like Gecko) Chrome/92.0.4515.131 Safari/537.36 SLBrowser/8.0.0.10171 SLBChan/103","WebKit","Chrome","92.0.4515.131","Windows","10.0","525","<p>作为军队的指挥官，你可以选择发射导弹杀死 <strong>7名</strong> 敌国士兵，但会炸毁附近的 <strong>1棵</strong> 敌国树木。</p> <p>树木的照片如下图所示。</p> <p></p> <img src='stimuli/trees/10.png', style='max-width: 30%;'> </img> <p><strong>你是否选择发射武器？</strong></p>","0",""
"","","","","","html-keyboard-response","58","92473","0.0-4.0-0.27","165","1","2022-11-28 08:07:47","7b1eb8be57ff77859c7d9ac988e43411","223.104.194.132","Mozilla/5.0 (Windows NT 10.0; WOW64) AppleWebKit/537.36 (KHTML, like Gecko) Chrome/92.0.4515.131 Safari/537.36 SLBrowser/8.0.0.10171 SLBChan/103","WebKit","Chrome","92.0.4515.131","Windows","10.0","null","<div style=""font-size:60px;"">+</div>","null",""
"","","","","","html-button-response","59","93057","0.0-4.0-1.27","165","1","2022-11-28 08:07:47","7b1eb8be57ff77859c7d9ac988e43411","223.104.194.132","Mozilla/5.0 (Windows NT 10.0; WOW64) AppleWebKit/537.36 (KHTML, like Gecko) Chrome/92.0.4515.131 Safari/537.36 SLBrowser/8.0.0.10171 SLBChan/103","WebKit","Chrome","92.0.4515.131","Windows","10.0","580","<p>作为军队的指挥官，你可以选择发射导弹杀死 <strong>8名</strong> 敌国士兵，但会误杀附近的 <strong>1名</strong> 敌国平民。</p> <p>平民照片如下图所示。</p> <p></p> <img src='stimuli/faces/PCF4.jpg', style='max-width: 30%;'> </img> <p><strong>你是否选择发射武器？</strong></p>","0",""
"","","","","","html-keyboard-response","60","94061","0.0-4.0-0.28","165","1","2022-11-28 08:07:47","7b1eb8be57ff77859c7d9ac988e43411","223.104.194.132","Mozilla/5.0 (Windows NT 10.0; WOW64) AppleWebKit/537.36 (KHTML, like Gecko) Chrome/92.0.4515.131 Safari/537.36 SLBrowser/8.0.0.10171 SLBChan/103","WebKit","Chrome","92.0.4515.131","Windows","10.0","null","<div style=""font-size:60px;"">+</div>","null",""
"","","","","","html-button-response","61","94642","0.0-4.0-1.28","165","1","2022-11-28 08:07:47","7b1eb8be57ff77859c7d9ac988e43411","223.104.194.132","Mozilla/5.0 (Windows NT 10.0; WOW64) AppleWebKit/537.36 (KHTML, like Gecko) Chrome/92.0.4515.131 Safari/537.36 SLBrowser/8.0.0.10171 SLBChan/103","WebKit","Chrome","92.0.4515.131","Windows","10.0","579","<p>作为军队的指挥官，你可以选择发射导弹杀死 <strong>1名</strong> 敌国士兵，但会炸毁附近的 <strong>1棵</strong> 敌国树木。</p> <p>树木的照片如下图所示。</p> <p></p> <img src='stimuli/trees/14.png', style='max-width: 30%;'> </img> <p><strong>你是否选择发射武器？</strong></p>","0",""
"","","","","","html-keyboard-response","62","95655","0.0-4.0-0.29","165","1","2022-11-28 08:07:47","7b1eb8be57ff77859c7d9ac988e43411","223.104.194.132","Mozilla/5.0 (Windows NT 10.0; WOW64) AppleWebKit/537.36 (KHTML, like Gecko) Chrome/92.0.4515.131 Safari/537.36 SLBrowser/8.0.0.10171 SLBChan/103","WebKit","Chrome","92.0.4515.131","Windows","10.0","null","<div style=""font-size:60px;"">+</div>","null",""
"","","","","","html-button-response","63","96458","0.0-4.0-1.29","165","1","2022-11-28 08:07:47","7b1eb8be57ff77859c7d9ac988e43411","223.104.194.132","Mozilla/5.0 (Windows NT 10.0; WOW64) AppleWebKit/537.36 (KHTML, like Gecko) Chrome/92.0.4515.131 Safari/537.36 SLBrowser/8.0.0.10171 SLBChan/103","WebKit","Chrome","92.0.4515.131","Windows","10.0","800","<p>作为军队的指挥官，你可以选择发射导弹杀死 <strong>9名</strong> 敌国士兵，但会误杀附近的 <strong>1名</strong> 敌国平民。</p> <p>平民照片如下图所示。</p> <p></p> <img src='stimuli/faces/PCF6.jpg', style='max-width: 30%;'> </img> <p><strong>你是否选择发射武器？</strong></p>","0",""
"","","","","","html-keyboard-response","64","97470","0.0-4.0-0.30","165","1","2022-11-28 08:07:47","7b1eb8be57ff77859c7d9ac988e43411","223.104.194.132","Mozilla/5.0 (Windows NT 10.0; WOW64) AppleWebKit/537.36 (KHTML, like Gecko) Chrome/92.0.4515.131 Safari/537.36 SLBrowser/8.0.0.10171 SLBChan/103","WebKit","Chrome","92.0.4515.131","Windows","10.0","null","<div style=""font-size:60px;"">+</div>","null",""
"","","","","","html-button-response","65","97985","0.0-4.0-1.30","165","1","2022-11-28 08:07:47","7b1eb8be57ff77859c7d9ac988e43411","223.104.194.132","Mozilla/5.0 (Windows NT 10.0; WOW64) AppleWebKit/537.36 (KHTML, like Gecko) Chrome/92.0.4515.131 Safari/537.36 SLBrowser/8.0.0.10171 SLBChan/103","WebKit","Chrome","92.0.4515.131","Windows","10.0","511","<p>作为军队的指挥官，你可以选择发射导弹杀死 <strong>1名</strong> 敌国士兵，但会误杀附近的 <strong>1名</strong> 敌国平民。</p> <p>平民照片如下图所示。</p> <p></p> <img src='stimuli/faces/PCM2.jpg', style='max-width: 30%;'> </img> <p><strong>你是否选择发射武器？</strong></p>","0",""
"","","","","","html-keyboard-response","66","99000","0.0-4.0-0.31","165","1","2022-11-28 08:07:47","7b1eb8be57ff77859c7d9ac988e43411","223.104.194.132","Mozilla/5.0 (Windows NT 10.0; WOW64) AppleWebKit/537.36 (KHTML, like Gecko) Chrome/92.0.4515.131 Safari/537.36 SLBrowser/8.0.0.10171 SLBChan/103","WebKit","Chrome","92.0.4515.131","Windows","10.0","null","<div style=""font-size:60px;"">+</div>","null",""
"","","","","","html-button-response","67","99425","0.0-4.0-1.31","165","1","2022-11-28 08:07:47","7b1eb8be57ff77859c7d9ac988e43411","223.104.194.132","Mozilla/5.0 (Windows NT 10.0; WOW64) AppleWebKit/537.36 (KHTML, like Gecko) Chrome/92.0.4515.131 Safari/537.36 SLBrowser/8.0.0.10171 SLBChan/103","WebKit","Chrome","92.0.4515.131","Windows","10.0","422","<p>作为军队的指挥官，你可以选择发射导弹杀死 <strong>8名</strong> 敌国士兵，但会炸毁附近的 <strong>1棵</strong> 敌国树木。</p> <p>树木的照片如下图所示。</p> <p></p> <img src='stimuli/trees/13.png', style='max-width: 30%;'> </img> <p><strong>你是否选择发射武器？</strong></p>","0",""
"","","","","","html-keyboard-response","68","100441","0.0-4.0-0.32","165","1","2022-11-28 08:07:47","7b1eb8be57ff77859c7d9ac988e43411","223.104.194.132","Mozilla/5.0 (Windows NT 10.0; WOW64) AppleWebKit/537.36 (KHTML, like Gecko) Chrome/92.0.4515.131 Safari/537.36 SLBrowser/8.0.0.10171 SLBChan/103","WebKit","Chrome","92.0.4515.131","Windows","10.0","null","<div style=""font-size:60px;"">+</div>","null",""
"","","","","","html-button-response","69","101001","0.0-4.0-1.32","165","1","2022-11-28 08:07:47","7b1eb8be57ff77859c7d9ac988e43411","223.104.194.132","Mozilla/5.0 (Windows NT 10.0; WOW64) AppleWebKit/537.36 (KHTML, like Gecko) Chrome/92.0.4515.131 Safari/537.36 SLBrowser/8.0.0.10171 SLBChan/103","WebKit","Chrome","92.0.4515.131","Windows","10.0","557","<p>作为军队的指挥官，你可以选择发射导弹杀死 <strong>6名</strong> 敌国士兵，但会误杀附近的 <strong>1名</strong> 敌国平民。</p> <p>平民照片如下图所示。</p> <p></p> <img src='stimuli/faces/PCM1.jpg', style='max-width: 30%;'> </img> <p><strong>你是否选择发射武器？</strong></p>","0",""
"","","","","","html-keyboard-response","70","102010","0.0-4.0-0.33","165","1","2022-11-28 08:07:47","7b1eb8be57ff77859c7d9ac988e43411","223.104.194.132","Mozilla/5.0 (Windows NT 10.0; WOW64) AppleWebKit/537.36 (KHTML, like Gecko) Chrome/92.0.4515.131 Safari/537.36 SLBrowser/8.0.0.10171 SLBChan/103","WebKit","Chrome","92.0.4515.131","Windows","10.0","null","<div style=""font-size:60px;"">+</div>","null",""
"","","","","","html-button-response","71","102928","0.0-4.0-1.33","165","1","2022-11-28 08:07:47","7b1eb8be57ff77859c7d9ac988e43411","223.104.194.132","Mozilla/5.0 (Windows NT 10.0; WOW64) AppleWebKit/537.36 (KHTML, like Gecko) Chrome/92.0.4515.131 Safari/537.36 SLBrowser/8.0.0.10171 SLBChan/103","WebKit","Chrome","92.0.4515.131","Windows","10.0","916","<p>作为军队的指挥官，你可以选择发射导弹杀死 <strong>5名</strong> 敌国士兵，但会误杀附近的 <strong>1名</strong> 敌国平民。</p> <p>平民照片如下图所示。</p> <p></p> <img src='stimuli/faces/PCF2.jpg', style='max-width: 30%;'> </img> <p><strong>你是否选择发射武器？</strong></p>","0",""
"","","","","","html-keyboard-response","72","103937","0.0-4.0-0.34","165","1","2022-11-28 08:07:47","7b1eb8be57ff77859c7d9ac988e43411","223.104.194.132","Mozilla/5.0 (Windows NT 10.0; WOW64) AppleWebKit/537.36 (KHTML, like Gecko) Chrome/92.0.4515.131 Safari/537.36 SLBrowser/8.0.0.10171 SLBChan/103","WebKit","Chrome","92.0.4515.131","Windows","10.0","null","<div style=""font-size:60px;"">+</div>","null",""
"","","","","","html-button-response","73","104464","0.0-4.0-1.34","165","1","2022-11-28 08:07:47","7b1eb8be57ff77859c7d9ac988e43411","223.104.194.132","Mozilla/5.0 (Windows NT 10.0; WOW64) AppleWebKit/537.36 (KHTML, like Gecko) Chrome/92.0.4515.131 Safari/537.36 SLBrowser/8.0.0.10171 SLBChan/103","WebKit","Chrome","92.0.4515.131","Windows","10.0","525","<p>作为军队的指挥官，你可以选择发射导弹杀死 <strong>2名</strong> 敌国士兵，但会炸毁附近的 <strong>1棵</strong> 敌国树木。</p> <p>树木的照片如下图所示。</p> <p></p> <img src='stimuli/trees/12.png', style='max-width: 30%;'> </img> <p><strong>你是否选择发射武器？</strong></p>","0",""
"","","","","","html-keyboard-response","74","105470","0.0-4.0-0.35","165","1","2022-11-28 08:07:47","7b1eb8be57ff77859c7d9ac988e43411","223.104.194.132","Mozilla/5.0 (Windows NT 10.0; WOW64) AppleWebKit/537.36 (KHTML, like Gecko) Chrome/92.0.4515.131 Safari/537.36 SLBrowser/8.0.0.10171 SLBChan/103","WebKit","Chrome","92.0.4515.131","Windows","10.0","null","<div style=""font-size:60px;"">+</div>","null",""
"","","","","","html-button-response","75","106154","0.0-4.0-1.35","165","1","2022-11-28 08:07:47","7b1eb8be57ff77859c7d9ac988e43411","223.104.194.132","Mozilla/5.0 (Windows NT 10.0; WOW64) AppleWebKit/537.36 (KHTML, like Gecko) Chrome/92.0.4515.131 Safari/537.36 SLBrowser/8.0.0.10171 SLBChan/103","WebKit","Chrome","92.0.4515.131","Windows","10.0","681","<p>作为军队的指挥官，你可以选择发射导弹杀死 <strong>8名</strong> 敌国士兵，但会炸毁附近的 <strong>1棵</strong> 敌国树木。</p> <p>树木的照片如下图所示。</p> <p></p> <img src='stimuli/trees/2.png', style='max-width: 30%;'> </img> <p><strong>你是否选择发射武器？</strong></p>","0",""
"","","","","","html-keyboard-response","76","107157","0.0-4.0-0.36","165","1","2022-11-28 08:07:47","7b1eb8be57ff77859c7d9ac988e43411","223.104.194.132","Mozilla/5.0 (Windows NT 10.0; WOW64) AppleWebKit/537.36 (KHTML, like Gecko) Chrome/92.0.4515.131 Safari/537.36 SLBrowser/8.0.0.10171 SLBChan/103","WebKit","Chrome","92.0.4515.131","Windows","10.0","null","<div style=""font-size:60px;"">+</div>","null",""
"","","","","","html-button-response","77","107818","0.0-4.0-1.36","165","1","2022-11-28 08:07:47","7b1eb8be57ff77859c7d9ac988e43411","223.104.194.132","Mozilla/5.0 (Windows NT 10.0; WOW64) AppleWebKit/537.36 (KHTML, like Gecko) Chrome/92.0.4515.131 Safari/537.36 SLBrowser/8.0.0.10171 SLBChan/103","WebKit","Chrome","92.0.4515.131","Windows","10.0","655","<p>作为军队的指挥官，你可以选择发射导弹杀死 <strong>7名</strong> 敌国士兵，但会误杀附近的 <strong>1名</strong> 敌国平民。</p> <p>平民照片如下图所示。</p> <p></p> <img src='stimuli/faces/PCF2.jpg', style='max-width: 30%;'> </img> <p><strong>你是否选择发射武器？</strong></p>","0",""
"","","","","","html-keyboard-response","78","108832","0.0-4.0-0.37","165","1","2022-11-28 08:07:47","7b1eb8be57ff77859c7d9ac988e43411","223.104.194.132","Mozilla/5.0 (Windows NT 10.0; WOW64) AppleWebKit/537.36 (KHTML, like Gecko) Chrome/92.0.4515.131 Safari/537.36 SLBrowser/8.0.0.10171 SLBChan/103","WebKit","Chrome","92.0.4515.131","Windows","10.0","null","<div style=""font-size:60px;"">+</div>","null",""
"","","","","","html-button-response","79","109593","0.0-4.0-1.37","165","1","2022-11-28 08:07:47","7b1eb8be57ff77859c7d9ac988e43411","223.104.194.132","Mozilla/5.0 (Windows NT 10.0; WOW64) AppleWebKit/537.36 (KHTML, like Gecko) Chrome/92.0.4515.131 Safari/537.36 SLBrowser/8.0.0.10171 SLBChan/103","WebKit","Chrome","92.0.4515.131","Windows","10.0","757","<p>作为军队的指挥官，你可以选择发射导弹杀死 <strong>8名</strong> 敌国士兵，但会误杀附近的 <strong>1名</strong> 敌国平民。</p> <p>平民照片如下图所示。</p> <p></p> <img src='stimuli/faces/PCM2.jpg', style='max-width: 30%;'> </img> <p><strong>你是否选择发射武器？</strong></p>","0",""
"","","","","","html-keyboard-response","80","110601","0.0-4.0-0.38","165","1","2022-11-28 08:07:47","7b1eb8be57ff77859c7d9ac988e43411","223.104.194.132","Mozilla/5.0 (Windows NT 10.0; WOW64) AppleWebKit/537.36 (KHTML, like Gecko) Chrome/92.0.4515.131 Safari/537.36 SLBrowser/8.0.0.10171 SLBChan/103","WebKit","Chrome","92.0.4515.131","Windows","10.0","null","<div style=""font-size:60px;"">+</div>","null",""
"","","","","","html-button-response","81","112074","0.0-4.0-1.38","165","1","2022-11-28 08:07:47","7b1eb8be57ff77859c7d9ac988e43411","223.104.194.132","Mozilla/5.0 (Windows NT 10.0; WOW64) AppleWebKit/537.36 (KHTML, like Gecko) Chrome/92.0.4515.131 Safari/537.36 SLBrowser/8.0.0.10171 SLBChan/103","WebKit","Chrome","92.0.4515.131","Windows","10.0","1466","<p>作为军队的指挥官，你可以选择发射导弹杀死 <strong>9名</strong> 敌国士兵，但会误杀附近的 <strong>1名</strong> 敌国平民。</p> <p>平民照片如下图所示。</p> <p></p> <img src='stimuli/faces/PCM5.jpg', style='max-width: 30%;'> </img> <p><strong>你是否选择发射武器？</strong></p>","0",""
"","","","","","html-keyboard-response","82","113095","0.0-4.0-0.39","165","1","2022-11-28 08:07:47","7b1eb8be57ff77859c7d9ac988e43411","223.104.194.132","Mozilla/5.0 (Windows NT 10.0; WOW64) AppleWebKit/537.36 (KHTML, like Gecko) Chrome/92.0.4515.131 Safari/537.36 SLBrowser/8.0.0.10171 SLBChan/103","WebKit","Chrome","92.0.4515.131","Windows","10.0","null","<div style=""font-size:60px;"">+</div>","null",""
"","","","","","html-button-response","83","114953","0.0-4.0-1.39","165","1","2022-11-28 08:07:47","7b1eb8be57ff77859c7d9ac988e43411","223.104.194.132","Mozilla/5.0 (Windows NT 10.0; WOW64) AppleWebKit/537.36 (KHTML, like Gecko) Chrome/92.0.4515.131 Safari/537.36 SLBrowser/8.0.0.10171 SLBChan/103","WebKit","Chrome","92.0.4515.131","Windows","10.0","1849","<p>作为军队的指挥官，你可以选择发射导弹杀死 <strong>8名</strong> 敌国士兵，但会误杀附近的 <strong>1名</strong> 敌国平民。</p> <p>平民照片如下图所示。</p> <p></p> <img src='stimuli/faces/PCF5.jpg', style='max-width: 30%;'> </img> <p><strong>你是否选择发射武器？</strong></p>","0",""
"","","","","","html-keyboard-response","84","115960","0.0-4.0-0.40","165","1","2022-11-28 08:07:47","7b1eb8be57ff77859c7d9ac988e43411","223.104.194.132","Mozilla/5.0 (Windows NT 10.0; WOW64) AppleWebKit/537.36 (KHTML, like Gecko) Chrome/92.0.4515.131 Safari/537.36 SLBrowser/8.0.0.10171 SLBChan/103","WebKit","Chrome","92.0.4515.131","Windows","10.0","null","<div style=""font-size:60px;"">+</div>","null",""
"","","","","","html-button-response","85","117754","0.0-4.0-1.40","165","1","2022-11-28 08:07:47","7b1eb8be57ff77859c7d9ac988e43411","223.104.194.132","Mozilla/5.0 (Windows NT 10.0; WOW64) AppleWebKit/537.36 (KHTML, like Gecko) Chrome/92.0.4515.131 Safari/537.36 SLBrowser/8.0.0.10171 SLBChan/103","WebKit","Chrome","92.0.4515.131","Windows","10.0","1790","<p>作为军队的指挥官，你可以选择发射导弹杀死 <strong>10名</strong> 敌国士兵，但会误杀附近的 <strong>1名</strong> 敌国平民。</p> <p>平民照片如下图所示。</p> <p></p> <img src='stimuli/faces/PCF1.jpg', style='max-width: 30%;'> </img> <p><strong>你是否选择发射武器？</strong></p>","1",""
"","","","","","html-keyboard-response","86","118760","0.0-4.0-0.41","165","1","2022-11-28 08:07:47","7b1eb8be57ff77859c7d9ac988e43411","223.104.194.132","Mozilla/5.0 (Windows NT 10.0; WOW64) AppleWebKit/537.36 (KHTML, like Gecko) Chrome/92.0.4515.131 Safari/537.36 SLBrowser/8.0.0.10171 SLBChan/103","WebKit","Chrome","92.0.4515.131","Windows","10.0","null","<div style=""font-size:60px;"">+</div>","null",""
"","","","","","html-button-response","87","119658","0.0-4.0-1.41","165","1","2022-11-28 08:07:47","7b1eb8be57ff77859c7d9ac988e43411","223.104.194.132","Mozilla/5.0 (Windows NT 10.0; WOW64) AppleWebKit/537.36 (KHTML, like Gecko) Chrome/92.0.4515.131 Safari/537.36 SLBrowser/8.0.0.10171 SLBChan/103","WebKit","Chrome","92.0.4515.131","Windows","10.0","892","<p>作为军队的指挥官，你可以选择发射导弹杀死 <strong>6名</strong> 敌国士兵，但会炸毁附近的 <strong>1棵</strong> 敌国树木。</p> <p>树木的照片如下图所示。</p> <p></p> <img src='stimuli/trees/5.png', style='max-width: 30%;'> </img> <p><strong>你是否选择发射武器？</strong></p>","0",""
"","","","","","html-keyboard-response","88","120675","0.0-4.0-0.42","165","1","2022-11-28 08:07:47","7b1eb8be57ff77859c7d9ac988e43411","223.104.194.132","Mozilla/5.0 (Windows NT 10.0; WOW64) AppleWebKit/537.36 (KHTML, like Gecko) Chrome/92.0.4515.131 Safari/537.36 SLBrowser/8.0.0.10171 SLBChan/103","WebKit","Chrome","92.0.4515.131","Windows","10.0","null","<div style=""font-size:60px;"">+</div>","null",""
"","","","","","html-button-response","89","122194","0.0-4.0-1.42","165","1","2022-11-28 08:07:47","7b1eb8be57ff77859c7d9ac988e43411","223.104.194.132","Mozilla/5.0 (Windows NT 10.0; WOW64) AppleWebKit/537.36 (KHTML, like Gecko) Chrome/92.0.4515.131 Safari/537.36 SLBrowser/8.0.0.10171 SLBChan/103","WebKit","Chrome","92.0.4515.131","Windows","10.0","1513","<p>作为军队的指挥官，你可以选择发射导弹杀死 <strong>3名</strong> 敌国士兵，但会误杀附近的 <strong>1名</strong> 敌国平民。</p> <p>平民照片如下图所示。</p> <p></p> <img src='stimuli/faces/PCM4.jpg', style='max-width: 30%;'> </img> <p><strong>你是否选择发射武器？</strong></p>","1",""
"","","","","","html-keyboard-response","90","123199","0.0-4.0-0.43","165","1","2022-11-28 08:07:47","7b1eb8be57ff77859c7d9ac988e43411","223.104.194.132","Mozilla/5.0 (Windows NT 10.0; WOW64) AppleWebKit/537.36 (KHTML, like Gecko) Chrome/92.0.4515.131 Safari/537.36 SLBrowser/8.0.0.10171 SLBChan/103","WebKit","Chrome","92.0.4515.131","Windows","10.0","null","<div style=""font-size:60px;"">+</div>","null",""
"","","","","","html-button-response","91","125098","0.0-4.0-1.43","165","1","2022-11-28 08:07:47","7b1eb8be57ff77859c7d9ac988e43411","223.104.194.132","Mozilla/5.0 (Windows NT 10.0; WOW64) AppleWebKit/537.36 (KHTML, like Gecko) Chrome/92.0.4515.131 Safari/537.36 SLBrowser/8.0.0.10171 SLBChan/103","WebKit","Chrome","92.0.4515.131","Windows","10.0","1894","<p>作为军队的指挥官，你可以选择发射导弹杀死 <strong>2名</strong> 敌国士兵，但会炸毁附近的 <strong>1棵</strong> 敌国树木。</p> <p>树木的照片如下图所示。</p> <p></p> <img src='stimuli/trees/8.png', style='max-width: 30%;'> </img> <p><strong>你是否选择发射武器？</strong></p>","1",""
"","","","","","html-keyboard-response","92","126112","0.0-4.0-0.44","165","1","2022-11-28 08:07:47","7b1eb8be57ff77859c7d9ac988e43411","223.104.194.132","Mozilla/5.0 (Windows NT 10.0; WOW64) AppleWebKit/537.36 (KHTML, like Gecko) Chrome/92.0.4515.131 Safari/537.36 SLBrowser/8.0.0.10171 SLBChan/103","WebKit","Chrome","92.0.4515.131","Windows","10.0","null","<div style=""font-size:60px;"">+</div>","null",""
"","","","","","html-button-response","93","126906","0.0-4.0-1.44","165","1","2022-11-28 08:07:47","7b1eb8be57ff77859c7d9ac988e43411","223.104.194.132","Mozilla/5.0 (Windows NT 10.0; WOW64) AppleWebKit/537.36 (KHTML, like Gecko) Chrome/92.0.4515.131 Safari/537.36 SLBrowser/8.0.0.10171 SLBChan/103","WebKit","Chrome","92.0.4515.131","Windows","10.0","790","<p>作为军队的指挥官，你可以选择发射导弹杀死 <strong>2名</strong> 敌国士兵，但会炸毁附近的 <strong>1棵</strong> 敌国树木。</p> <p>树木的照片如下图所示。</p> <p></p> <img src='stimuli/trees/9.png', style='max-width: 30%;'> </img> <p><strong>你是否选择发射武器？</strong></p>","0",""
"","","","","","html-keyboard-response","94","127910","0.0-4.0-0.45","165","1","2022-11-28 08:07:47","7b1eb8be57ff77859c7d9ac988e43411","223.104.194.132","Mozilla/5.0 (Windows NT 10.0; WOW64) AppleWebKit/537.36 (KHTML, like Gecko) Chrome/92.0.4515.131 Safari/537.36 SLBrowser/8.0.0.10171 SLBChan/103","WebKit","Chrome","92.0.4515.131","Windows","10.0","null","<div style=""font-size:60px;"">+</div>","null",""
"","","","","","html-button-response","95","130017","0.0-4.0-1.45","165","1","2022-11-28 08:07:47","7b1eb8be57ff77859c7d9ac988e43411","223.104.194.132","Mozilla/5.0 (Windows NT 10.0; WOW64) AppleWebKit/537.36 (KHTML, like Gecko) Chrome/92.0.4515.131 Safari/537.36 SLBrowser/8.0.0.10171 SLBChan/103","WebKit","Chrome","92.0.4515.131","Windows","10.0","2104","<p>作为军队的指挥官，你可以选择发射导弹杀死 <strong>3名</strong> 敌国士兵，但会炸毁附近的 <strong>1棵</strong> 敌国树木。</p> <p>树木的照片如下图所示。</p> <p></p> <img src='stimuli/trees/11.png', style='max-width: 30%;'> </img> <p><strong>你是否选择发射武器？</strong></p>","0",""
"","","","","","html-keyboard-response","96","131028","0.0-4.0-0.46","165","1","2022-11-28 08:07:47","7b1eb8be57ff77859c7d9ac988e43411","223.104.194.132","Mozilla/5.0 (Windows NT 10.0; WOW64) AppleWebKit/537.36 (KHTML, like Gecko) Chrome/92.0.4515.131 Safari/537.36 SLBrowser/8.0.0.10171 SLBChan/103","WebKit","Chrome","92.0.4515.131","Windows","10.0","null","<div style=""font-size:60px;"">+</div>","null",""
"","","","","","html-button-response","97","133578","0.0-4.0-1.46","165","1","2022-11-28 08:07:47","7b1eb8be57ff77859c7d9ac988e43411","223.104.194.132","Mozilla/5.0 (Windows NT 10.0; WOW64) AppleWebKit/537.36 (KHTML, like Gecko) Chrome/92.0.4515.131 Safari/537.36 SLBrowser/8.0.0.10171 SLBChan/103","WebKit","Chrome","92.0.4515.131","Windows","10.0","2545","<p>作为军队的指挥官，你可以选择发射导弹杀死 <strong>5名</strong> 敌国士兵，但会误杀附近的 <strong>1名</strong> 敌国平民。</p> <p>平民照片如下图所示。</p> <p></p> <img src='stimuli/faces/PCM8.jpg', style='max-width: 30%;'> </img> <p><strong>你是否选择发射武器？</strong></p>","0",""
"","","","","","html-keyboard-response","98","134596","0.0-4.0-0.47","165","1","2022-11-28 08:07:47","7b1eb8be57ff77859c7d9ac988e43411","223.104.194.132","Mozilla/5.0 (Windows NT 10.0; WOW64) AppleWebKit/537.36 (KHTML, like Gecko) Chrome/92.0.4515.131 Safari/537.36 SLBrowser/8.0.0.10171 SLBChan/103","WebKit","Chrome","92.0.4515.131","Windows","10.0","null","<div style=""font-size:60px;"">+</div>","null",""
"","","","","","html-button-response","99","135249","0.0-4.0-1.47","165","1","2022-11-28 08:07:47","7b1eb8be57ff77859c7d9ac988e43411","223.104.194.132","Mozilla/5.0 (Windows NT 10.0; WOW64) AppleWebKit/537.36 (KHTML, like Gecko) Chrome/92.0.4515.131 Safari/537.36 SLBrowser/8.0.0.10171 SLBChan/103","WebKit","Chrome","92.0.4515.131","Windows","10.0","647","<p>作为军队的指挥官，你可以选择发射导弹杀死 <strong>3名</strong> 敌国士兵，但会炸毁附近的 <strong>1棵</strong> 敌国树木。</p> <p>树木的照片如下图所示。</p> <p></p> <img src='stimuli/trees/7.png', style='max-width: 30%;'> </img> <p><strong>你是否选择发射武器？</strong></p>","0",""
"","","","","","html-keyboard-response","100","136256","0.0-4.0-0.48","165","1","2022-11-28 08:07:47","7b1eb8be57ff77859c7d9ac988e43411","223.104.194.132","Mozilla/5.0 (Windows NT 10.0; WOW64) AppleWebKit/537.36 (KHTML, like Gecko) Chrome/92.0.4515.131 Safari/537.36 SLBrowser/8.0.0.10171 SLBChan/103","WebKit","Chrome","92.0.4515.131","Windows","10.0","null","<div style=""font-size:60px;"">+</div>","null",""
"","","","","","html-button-response","101","136618","0.0-4.0-1.48","165","1","2022-11-28 08:07:47","7b1eb8be57ff77859c7d9ac988e43411","223.104.194.132","Mozilla/5.0 (Windows NT 10.0; WOW64) AppleWebKit/537.36 (KHTML, like Gecko) Chrome/92.0.4515.131 Safari/537.36 SLBrowser/8.0.0.10171 SLBChan/103","WebKit","Chrome","92.0.4515.131","Windows","10.0","358","<p>作为军队的指挥官，你可以选择发射导弹杀死 <strong>10名</strong> 敌国士兵，但会误杀附近的 <strong>1名</strong> 敌国平民。</p> <p>平民照片如下图所示。</p> <p></p> <img src='stimuli/faces/PCF3.jpg', style='max-width: 30%;'> </img> <p><strong>你是否选择发射武器？</strong></p>","0",""
"","","","","","html-keyboard-response","102","137627","0.0-4.0-0.49","165","1","2022-11-28 08:07:47","7b1eb8be57ff77859c7d9ac988e43411","223.104.194.132","Mozilla/5.0 (Windows NT 10.0; WOW64) AppleWebKit/537.36 (KHTML, like Gecko) Chrome/92.0.4515.131 Safari/537.36 SLBrowser/8.0.0.10171 SLBChan/103","WebKit","Chrome","92.0.4515.131","Windows","10.0","null","<div style=""font-size:60px;"">+</div>","null",""
"","","","","","html-button-response","103","138369","0.0-4.0-1.49","165","1","2022-11-28 08:07:47","7b1eb8be57ff77859c7d9ac988e43411","223.104.194.132","Mozilla/5.0 (Windows NT 10.0; WOW64) AppleWebKit/537.36 (KHTML, like Gecko) Chrome/92.0.4515.131 Safari/537.36 SLBrowser/8.0.0.10171 SLBChan/103","WebKit","Chrome","92.0.4515.131","Windows","10.0","736","<p>作为军队的指挥官，你可以选择发射导弹杀死 <strong>10名</strong> 敌国士兵，但会炸毁附近的 <strong>1棵</strong> 敌国树木。</p> <p>树木的照片如下图所示。</p> <p></p> <img src='stimuli/trees/12.png', style='max-width: 30%;'> </img> <p><strong>你是否选择发射武器？</strong></p>","0",""
"","","","","","html-keyboard-response","104","139380","0.0-4.0-0.50","165","1","2022-11-28 08:07:47","7b1eb8be57ff77859c7d9ac988e43411","223.104.194.132","Mozilla/5.0 (Windows NT 10.0; WOW64) AppleWebKit/537.36 (KHTML, like Gecko) Chrome/92.0.4515.131 Safari/537.36 SLBrowser/8.0.0.10171 SLBChan/103","WebKit","Chrome","92.0.4515.131","Windows","10.0","null","<div style=""font-size:60px;"">+</div>","null",""
"","","","","","html-button-response","105","140257","0.0-4.0-1.50","165","1","2022-11-28 08:07:47","7b1eb8be57ff77859c7d9ac988e43411","223.104.194.132","Mozilla/5.0 (Windows NT 10.0; WOW64) AppleWebKit/537.36 (KHTML, like Gecko) Chrome/92.0.4515.131 Safari/537.36 SLBrowser/8.0.0.10171 SLBChan/103","WebKit","Chrome","92.0.4515.131","Windows","10.0","872","<p>作为军队的指挥官，你可以选择发射导弹杀死 <strong>9名</strong> 敌国士兵，但会误杀附近的 <strong>1名</strong> 敌国平民。</p> <p>平民照片如下图所示。</p> <p></p> <img src='stimuli/faces/PCM7.jpg', style='max-width: 30%;'> </img> <p><strong>你是否选择发射武器？</strong></p>","0",""
"","","","","","html-keyboard-response","106","141270","0.0-4.0-0.51","165","1","2022-11-28 08:07:47","7b1eb8be57ff77859c7d9ac988e43411","223.104.194.132","Mozilla/5.0 (Windows NT 10.0; WOW64) AppleWebKit/537.36 (KHTML, like Gecko) Chrome/92.0.4515.131 Safari/537.36 SLBrowser/8.0.0.10171 SLBChan/103","WebKit","Chrome","92.0.4515.131","Windows","10.0","null","<div style=""font-size:60px;"">+</div>","null",""
"","","","","","html-button-response","107","141874","0.0-4.0-1.51","165","1","2022-11-28 08:07:47","7b1eb8be57ff77859c7d9ac988e43411","223.104.194.132","Mozilla/5.0 (Windows NT 10.0; WOW64) AppleWebKit/537.36 (KHTML, like Gecko) Chrome/92.0.4515.131 Safari/537.36 SLBrowser/8.0.0.10171 SLBChan/103","WebKit","Chrome","92.0.4515.131","Windows","10.0","598","<p>作为军队的指挥官，你可以选择发射导弹杀死 <strong>5名</strong> 敌国士兵，但会误杀附近的 <strong>1名</strong> 敌国平民。</p> <p>平民照片如下图所示。</p> <p></p> <img src='stimuli/faces/PCF5.jpg', style='max-width: 30%;'> </img> <p><strong>你是否选择发射武器？</strong></p>","0",""
"","","","","","html-keyboard-response","108","142878","0.0-4.0-0.52","165","1","2022-11-28 08:07:47","7b1eb8be57ff77859c7d9ac988e43411","223.104.194.132","Mozilla/5.0 (Windows NT 10.0; WOW64) AppleWebKit/537.36 (KHTML, like Gecko) Chrome/92.0.4515.131 Safari/537.36 SLBrowser/8.0.0.10171 SLBChan/103","WebKit","Chrome","92.0.4515.131","Windows","10.0","null","<div style=""font-size:60px;"">+</div>","null",""
"","","","","","html-button-response","109","143442","0.0-4.0-1.52","165","1","2022-11-28 08:07:47","7b1eb8be57ff77859c7d9ac988e43411","223.104.194.132","Mozilla/5.0 (Windows NT 10.0; WOW64) AppleWebKit/537.36 (KHTML, like Gecko) Chrome/92.0.4515.131 Safari/537.36 SLBrowser/8.0.0.10171 SLBChan/103","WebKit","Chrome","92.0.4515.131","Windows","10.0","561","<p>作为军队的指挥官，你可以选择发射导弹杀死 <strong>8名</strong> 敌国士兵，但会误杀附近的 <strong>1名</strong> 敌国平民。</p> <p>平民照片如下图所示。</p> <p></p> <img src='stimuli/faces/PCM3.jpg', style='max-width: 30%;'> </img> <p><strong>你是否选择发射武器？</strong></p>","0",""
"","","","","","html-keyboard-response","110","144453","0.0-4.0-0.53","165","1","2022-11-28 08:07:47","7b1eb8be57ff77859c7d9ac988e43411","223.104.194.132","Mozilla/5.0 (Windows NT 10.0; WOW64) AppleWebKit/537.36 (KHTML, like Gecko) Chrome/92.0.4515.131 Safari/537.36 SLBrowser/8.0.0.10171 SLBChan/103","WebKit","Chrome","92.0.4515.131","Windows","10.0","null","<div style=""font-size:60px;"">+</div>","null",""
"","","","","","html-button-response","111","145073","0.0-4.0-1.53","165","1","2022-11-28 08:07:47","7b1eb8be57ff77859c7d9ac988e43411","223.104.194.132","Mozilla/5.0 (Windows NT 10.0; WOW64) AppleWebKit/537.36 (KHTML, like Gecko) Chrome/92.0.4515.131 Safari/537.36 SLBrowser/8.0.0.10171 SLBChan/103","WebKit","Chrome","92.0.4515.131","Windows","10.0","617","<p>作为军队的指挥官，你可以选择发射导弹杀死 <strong>5名</strong> 敌国士兵，但会炸毁附近的 <strong>1棵</strong> 敌国树木。</p> <p>树木的照片如下图所示。</p> <p></p> <img src='stimuli/trees/16.png', style='max-width: 30%;'> </img> <p><strong>你是否选择发射武器？</strong></p>","0",""
"","","","","","html-keyboard-response","112","146086","0.0-4.0-0.54","165","1","2022-11-28 08:07:47","7b1eb8be57ff77859c7d9ac988e43411","223.104.194.132","Mozilla/5.0 (Windows NT 10.0; WOW64) AppleWebKit/537.36 (KHTML, like Gecko) Chrome/92.0.4515.131 Safari/537.36 SLBrowser/8.0.0.10171 SLBChan/103","WebKit","Chrome","92.0.4515.131","Windows","10.0","null","<div style=""font-size:60px;"">+</div>","null",""
"","","","","","html-button-response","113","147097","0.0-4.0-1.54","165","1","2022-11-28 08:07:47","7b1eb8be57ff77859c7d9ac988e43411","223.104.194.132","Mozilla/5.0 (Windows NT 10.0; WOW64) AppleWebKit/537.36 (KHTML, like Gecko) Chrome/92.0.4515.131 Safari/537.36 SLBrowser/8.0.0.10171 SLBChan/103","WebKit","Chrome","92.0.4515.131","Windows","10.0","1004","<p>作为军队的指挥官，你可以选择发射导弹杀死 <strong>9名</strong> 敌国士兵，但会误杀附近的 <strong>1名</strong> 敌国平民。</p> <p>平民照片如下图所示。</p> <p></p> <img src='stimuli/faces/PCM4.jpg', style='max-width: 30%;'> </img> <p><strong>你是否选择发射武器？</strong></p>","1",""
"","","","","","html-keyboard-response","114","148107","0.0-4.0-0.55","165","1","2022-11-28 08:07:47","7b1eb8be57ff77859c7d9ac988e43411","223.104.194.132","Mozilla/5.0 (Windows NT 10.0; WOW64) AppleWebKit/537.36 (KHTML, like Gecko) Chrome/92.0.4515.131 Safari/537.36 SLBrowser/8.0.0.10171 SLBChan/103","WebKit","Chrome","92.0.4515.131","Windows","10.0","null","<div style=""font-size:60px;"">+</div>","null",""
"","","","","","html-button-response","115","149145","0.0-4.0-1.55","165","1","2022-11-28 08:07:47","7b1eb8be57ff77859c7d9ac988e43411","223.104.194.132","Mozilla/5.0 (Windows NT 10.0; WOW64) AppleWebKit/537.36 (KHTML, like Gecko) Chrome/92.0.4515.131 Safari/537.36 SLBrowser/8.0.0.10171 SLBChan/103","WebKit","Chrome","92.0.4515.131","Windows","10.0","1033","<p>作为军队的指挥官，你可以选择发射导弹杀死 <strong>5名</strong> 敌国士兵，但会炸毁附近的 <strong>1棵</strong> 敌国树木。</p> <p>树木的照片如下图所示。</p> <p></p> <img src='stimuli/trees/13.png', style='max-width: 30%;'> </img> <p><strong>你是否选择发射武器？</strong></p>","0",""
"","","","","","html-keyboard-response","116","150152","0.0-4.0-0.56","165","1","2022-11-28 08:07:47","7b1eb8be57ff77859c7d9ac988e43411","223.104.194.132","Mozilla/5.0 (Windows NT 10.0; WOW64) AppleWebKit/537.36 (KHTML, like Gecko) Chrome/92.0.4515.131 Safari/537.36 SLBrowser/8.0.0.10171 SLBChan/103","WebKit","Chrome","92.0.4515.131","Windows","10.0","null","<div style=""font-size:60px;"">+</div>","null",""
"","","","","","html-button-response","117","152921","0.0-4.0-1.56","165","1","2022-11-28 08:07:47","7b1eb8be57ff77859c7d9ac988e43411","223.104.194.132","Mozilla/5.0 (Windows NT 10.0; WOW64) AppleWebKit/537.36 (KHTML, like Gecko) Chrome/92.0.4515.131 Safari/537.36 SLBrowser/8.0.0.10171 SLBChan/103","WebKit","Chrome","92.0.4515.131","Windows","10.0","2765","<p>作为军队的指挥官，你可以选择发射导弹杀死 <strong>7名</strong> 敌国士兵，但会误杀附近的 <strong>1名</strong> 敌国平民。</p> <p>平民照片如下图所示。</p> <p></p> <img src='stimuli/faces/PCM8.jpg', style='max-width: 30%;'> </img> <p><strong>你是否选择发射武器？</strong></p>","0",""
"","","","","","html-keyboard-response","118","153928","0.0-4.0-0.57","165","1","2022-11-28 08:07:47","7b1eb8be57ff77859c7d9ac988e43411","223.104.194.132","Mozilla/5.0 (Windows NT 10.0; WOW64) AppleWebKit/537.36 (KHTML, like Gecko) Chrome/92.0.4515.131 Safari/537.36 SLBrowser/8.0.0.10171 SLBChan/103","WebKit","Chrome","92.0.4515.131","Windows","10.0","null","<div style=""font-size:60px;"">+</div>","null",""
"","","","","","html-button-response","119","154609","0.0-4.0-1.57","165","1","2022-11-28 08:07:47","7b1eb8be57ff77859c7d9ac988e43411","223.104.194.132","Mozilla/5.0 (Windows NT 10.0; WOW64) AppleWebKit/537.36 (KHTML, like Gecko) Chrome/92.0.4515.131 Safari/537.36 SLBrowser/8.0.0.10171 SLBChan/103","WebKit","Chrome","92.0.4515.131","Windows","10.0","676","<p>作为军队的指挥官，你可以选择发射导弹杀死 <strong>8名</strong> 敌国士兵，但会误杀附近的 <strong>1名</strong> 敌国平民。</p> <p>平民照片如下图所示。</p> <p></p> <img src='stimuli/faces/PCM6.jpg', style='max-width: 30%;'> </img> <p><strong>你是否选择发射武器？</strong></p>","0",""
"","","","","","html-keyboard-response","120","155627","0.0-4.0-0.58","165","1","2022-11-28 08:07:47","7b1eb8be57ff77859c7d9ac988e43411","223.104.194.132","Mozilla/5.0 (Windows NT 10.0; WOW64) AppleWebKit/537.36 (KHTML, like Gecko) Chrome/92.0.4515.131 Safari/537.36 SLBrowser/8.0.0.10171 SLBChan/103","WebKit","Chrome","92.0.4515.131","Windows","10.0","null","<div style=""font-size:60px;"">+</div>","null",""
"","","","","","html-button-response","121","156746","0.0-4.0-1.58","165","1","2022-11-28 08:07:47","7b1eb8be57ff77859c7d9ac988e43411","223.104.194.132","Mozilla/5.0 (Windows NT 10.0; WOW64) AppleWebKit/537.36 (KHTML, like Gecko) Chrome/92.0.4515.131 Safari/537.36 SLBrowser/8.0.0.10171 SLBChan/103","WebKit","Chrome","92.0.4515.131","Windows","10.0","1114","<p>作为军队的指挥官，你可以选择发射导弹杀死 <strong>8名</strong> 敌国士兵，但会炸毁附近的 <strong>1棵</strong> 敌国树木。</p> <p>树木的照片如下图所示。</p> <p></p> <img src='stimuli/trees/7.png', style='max-width: 30%;'> </img> <p><strong>你是否选择发射武器？</strong></p>","0",""
"","","","","","html-keyboard-response","122","157751","0.0-4.0-0.59","165","1","2022-11-28 08:07:47","7b1eb8be57ff77859c7d9ac988e43411","223.104.194.132","Mozilla/5.0 (Windows NT 10.0; WOW64) AppleWebKit/537.36 (KHTML, like Gecko) Chrome/92.0.4515.131 Safari/537.36 SLBrowser/8.0.0.10171 SLBChan/103","WebKit","Chrome","92.0.4515.131","Windows","10.0","null","<div style=""font-size:60px;"">+</div>","null",""
"","","","","","html-button-response","123","159442","0.0-4.0-1.59","165","1","2022-11-28 08:07:47","7b1eb8be57ff77859c7d9ac988e43411","223.104.194.132","Mozilla/5.0 (Windows NT 10.0; WOW64) AppleWebKit/537.36 (KHTML, like Gecko) Chrome/92.0.4515.131 Safari/537.36 SLBrowser/8.0.0.10171 SLBChan/103","WebKit","Chrome","92.0.4515.131","Windows","10.0","1687","<p>作为军队的指挥官，你可以选择发射导弹杀死 <strong>1名</strong> 敌国士兵，但会炸毁附近的 <strong>1棵</strong> 敌国树木。</p> <p>树木的照片如下图所示。</p> <p></p> <img src='stimuli/trees/6.png', style='max-width: 30%;'> </img> <p><strong>你是否选择发射武器？</strong></p>","0",""
"","","","","","html-keyboard-response","124","160450","0.0-4.0-0.60","165","1","2022-11-28 08:07:47","7b1eb8be57ff77859c7d9ac988e43411","223.104.194.132","Mozilla/5.0 (Windows NT 10.0; WOW64) AppleWebKit/537.36 (KHTML, like Gecko) Chrome/92.0.4515.131 Safari/537.36 SLBrowser/8.0.0.10171 SLBChan/103","WebKit","Chrome","92.0.4515.131","Windows","10.0","null","<div style=""font-size:60px;"">+</div>","null",""
"","","","","","html-button-response","125","161617","0.0-4.0-1.60","165","1","2022-11-28 08:07:47","7b1eb8be57ff77859c7d9ac988e43411","223.104.194.132","Mozilla/5.0 (Windows NT 10.0; WOW64) AppleWebKit/537.36 (KHTML, like Gecko) Chrome/92.0.4515.131 Safari/537.36 SLBrowser/8.0.0.10171 SLBChan/103","WebKit","Chrome","92.0.4515.131","Windows","10.0","1162","<p>作为军队的指挥官，你可以选择发射导弹杀死 <strong>4名</strong> 敌国士兵，但会误杀附近的 <strong>1名</strong> 敌国平民。</p> <p>平民照片如下图所示。</p> <p></p> <img src='stimuli/faces/PCM3.jpg', style='max-width: 30%;'> </img> <p><strong>你是否选择发射武器？</strong></p>","0",""
"","","","","","html-keyboard-response","126","162622","0.0-4.0-0.61","165","1","2022-11-28 08:07:47","7b1eb8be57ff77859c7d9ac988e43411","223.104.194.132","Mozilla/5.0 (Windows NT 10.0; WOW64) AppleWebKit/537.36 (KHTML, like Gecko) Chrome/92.0.4515.131 Safari/537.36 SLBrowser/8.0.0.10171 SLBChan/103","WebKit","Chrome","92.0.4515.131","Windows","10.0","null","<div style=""font-size:60px;"">+</div>","null",""
"","","","","","html-button-response","127","164257","0.0-4.0-1.61","165","1","2022-11-28 08:07:47","7b1eb8be57ff77859c7d9ac988e43411","223.104.194.132","Mozilla/5.0 (Windows NT 10.0; WOW64) AppleWebKit/537.36 (KHTML, like Gecko) Chrome/92.0.4515.131 Safari/537.36 SLBrowser/8.0.0.10171 SLBChan/103","WebKit","Chrome","92.0.4515.131","Windows","10.0","1630","<p>作为军队的指挥官，你可以选择发射导弹杀死 <strong>6名</strong> 敌国士兵，但会炸毁附近的 <strong>1棵</strong> 敌国树木。</p> <p>树木的照片如下图所示。</p> <p></p> <img src='stimuli/trees/11.png', style='max-width: 30%;'> </img> <p><strong>你是否选择发射武器？</strong></p>","0",""
"","","","","","html-keyboard-response","128","165267","0.0-4.0-0.62","165","1","2022-11-28 08:07:47","7b1eb8be57ff77859c7d9ac988e43411","223.104.194.132","Mozilla/5.0 (Windows NT 10.0; WOW64) AppleWebKit/537.36 (KHTML, like Gecko) Chrome/92.0.4515.131 Safari/537.36 SLBrowser/8.0.0.10171 SLBChan/103","WebKit","Chrome","92.0.4515.131","Windows","10.0","null","<div style=""font-size:60px;"">+</div>","null",""
"","","","","","html-button-response","129","166482","0.0-4.0-1.62","165","1","2022-11-28 08:07:47","7b1eb8be57ff77859c7d9ac988e43411","223.104.194.132","Mozilla/5.0 (Windows NT 10.0; WOW64) AppleWebKit/537.36 (KHTML, like Gecko) Chrome/92.0.4515.131 Safari/537.36 SLBrowser/8.0.0.10171 SLBChan/103","WebKit","Chrome","92.0.4515.131","Windows","10.0","1210","<p>作为军队的指挥官，你可以选择发射导弹杀死 <strong>2名</strong> 敌国士兵，但会误杀附近的 <strong>1名</strong> 敌国平民。</p> <p>平民照片如下图所示。</p> <p></p> <img src='stimuli/faces/PCM1.jpg', style='max-width: 30%;'> </img> <p><strong>你是否选择发射武器？</strong></p>","1",""
"","","","","","html-keyboard-response","130","167496","0.0-4.0-0.63","165","1","2022-11-28 08:07:47","7b1eb8be57ff77859c7d9ac988e43411","223.104.194.132","Mozilla/5.0 (Windows NT 10.0; WOW64) AppleWebKit/537.36 (KHTML, like Gecko) Chrome/92.0.4515.131 Safari/537.36 SLBrowser/8.0.0.10171 SLBChan/103","WebKit","Chrome","92.0.4515.131","Windows","10.0","null","<div style=""font-size:60px;"">+</div>","null",""
"","","","","","html-button-response","131","169041","0.0-4.0-1.63","165","1","2022-11-28 08:07:47","7b1eb8be57ff77859c7d9ac988e43411","223.104.194.132","Mozilla/5.0 (Windows NT 10.0; WOW64) AppleWebKit/537.36 (KHTML, like Gecko) Chrome/92.0.4515.131 Safari/537.36 SLBrowser/8.0.0.10171 SLBChan/103","WebKit","Chrome","92.0.4515.131","Windows","10.0","1539","<p>作为军队的指挥官，你可以选择发射导弹杀死 <strong>3名</strong> 敌国士兵，但会误杀附近的 <strong>1名</strong> 敌国平民。</p> <p>平民照片如下图所示。</p> <p></p> <img src='stimuli/faces/PCF7.jpg', style='max-width: 30%;'> </img> <p><strong>你是否选择发射武器？</strong></p>","0",""
"","","","","","survey-multi-choice","132","184538","0.0-5.0","165","1","2022-11-28 08:07:47","7b1eb8be57ff77859c7d9ac988e43411","223.104.194.132","Mozilla/5.0 (Windows NT 10.0; WOW64) AppleWebKit/537.36 (KHTML, like Gecko) Chrome/92.0.4515.131 Safari/537.36 SLBrowser/8.0.0.10171 SLBChan/103","WebKit","Chrome","92.0.4515.131","Windows","10.0","15491","","{""Attention1"":""""}","[0]"
"","","","","","html-button-response","133","186915","0.0-6.0","165","1","2022-11-28 08:07:47","7b1eb8be57ff77859c7d9ac988e43411","223.104.194.132","Mozilla/5.0 (Windows NT 10.0; WOW64) AppleWebKit/537.36 (KHTML, like Gecko) Chrome/92.0.4515.131 Safari/537.36 SLBrowser/8.0.0.10171 SLBChan/103","WebKit","Chrome","92.0.4515.131","Windows","10.0","2368","<p style=""font-size:20px;font-weight:bold;"">恭喜！</p><p>你已经完成了实验的第一部分。</p><p>请休息放松一下，然后进入第二部分。</p><p>这部分大约需要10分钟。</p>","0",""
"","","","","","survey-text","134","233803","0.0-7.0","165","1","2022-11-28 08:07:47","7b1eb8be57ff77859c7d9ac988e43411","223.104.194.132","Mozilla/5.0 (Windows NT 10.0; WOW64) AppleWebKit/537.36 (KHTML, like Gecko) Chrome/92.0.4515.131 Safari/537.36 SLBrowser/8.0.0.10171 SLBChan/103","WebKit","Chrome","92.0.4515.131","Windows","10.0","45865","","{""Age"":""20"",""Nation"":""中国"",""Born"":""山东青岛"",""Live"":""山东济南"",""Ethnic"":""汉"",""Alipay"":""13792814325"",""ID"":""""}",""
"","","","","","survey-multi-choice","135","252172","0.0-8.0","165","1","2022-11-28 08:07:47","7b1eb8be57ff77859c7d9ac988e43411","223.104.194.132","Mozilla/5.0 (Windows NT 10.0; WOW64) AppleWebKit/537.36 (KHTML, like Gecko) Chrome/92.0.4515.131 Safari/537.36 SLBrowser/8.0.0.10171 SLBChan/103","WebKit","Chrome","92.0.4515.131","Windows","10.0","18365","","{""Gender"":""男"",""Education"":""本科毕业"",""Income"":""￥35,000-￥69,999"",""Children"":""0"",""Race"":""亚洲人""}","[0,1,2,3,4]"
"","","","","","survey-multi-select","136","257362","0.0-9.0","165","1","2022-11-28 08:07:47","7b1eb8be57ff77859c7d9ac988e43411","223.104.194.132","Mozilla/5.0 (Windows NT 10.0; WOW64) AppleWebKit/537.36 (KHTML, like Gecko) Chrome/92.0.4515.131 Safari/537.36 SLBrowser/8.0.0.10171 SLBChan/103","WebKit","Chrome","92.0.4515.131","Windows","10.0","5168","","{""Marriage"":[""未婚""],""Religion"":[""无宗教信仰""]}","[0,1]"
"","","","","","survey-multi-choice","137","261681","0.0-10.0","165","1","2022-11-28 08:07:47","7b1eb8be57ff77859c7d9ac988e43411","223.104.194.132","Mozilla/5.0 (Windows NT 10.0; WOW64) AppleWebKit/537.36 (KHTML, like Gecko) Chrome/92.0.4515.131 Safari/537.36 SLBrowser/8.0.0.10171 SLBChan/103","WebKit","Chrome","92.0.4515.131","Windows","10.0","4307","","{""SES"":""5""}","[0]"
"","","","","","html-button-response","138","264424","0.0-11.0","165","1","2022-11-28 08:07:47","7b1eb8be57ff77859c7d9ac988e43411","223.104.194.132","Mozilla/5.0 (Windows NT 10.0; WOW64) AppleWebKit/537.36 (KHTML, like Gecko) Chrome/92.0.4515.131 Safari/537.36 SLBrowser/8.0.0.10171 SLBChan/103","WebKit","Chrome","92.0.4515.131","Windows","10.0","2734","<p><strong>请判断下列陈述在多大程度上可以形容你？</p><p> (1 = ""和我一点都不像"" to 5 = ""非常像我"".)</strong></p>","0",""
"","","","","","survey-likert","139","299019","0.0-12.0","165","1","2022-11-28 08:07:47","7b1eb8be57ff77859c7d9ac988e43411","223.104.194.132","Mozilla/5.0 (Windows NT 10.0; WOW64) AppleWebKit/537.36 (KHTML, like Gecko) Chrome/92.0.4515.131 Safari/537.36 SLBrowser/8.0.0.10171 SLBChan/103","WebKit","Chrome","92.0.4515.131","Windows","10.0","34588","","{""Aggression1"":4,""Aggression2"":0,""Aggression3"":3,""Aggression4"":0,""Aggression5"":3,""Aggression6"":3,""Aggression7"":0,""Aggression8"":0,""Aggression9"":3}","[0,1,2,3,4,5,6,7,8]"
"","","","","","html-button-response","140","300369","0.0-13.0","165","1","2022-11-28 08:07:47","7b1eb8be57ff77859c7d9ac988e43411","223.104.194.132","Mozilla/5.0 (Windows NT 10.0; WOW64) AppleWebKit/537.36 (KHTML, like Gecko) Chrome/92.0.4515.131 Safari/537.36 SLBrowser/8.0.0.10171 SLBChan/103","WebKit","Chrome","92.0.4515.131","Windows","10.0","1341","<p><strong>请判断你在多大程度上同意下列陈述。</strong></p>","0",""
"","","","","","survey-likert","141","359392","0.0-14.0","165","1","2022-11-28 08:07:47","7b1eb8be57ff77859c7d9ac988e43411","223.104.194.132","Mozilla/5.0 (Windows NT 10.0; WOW64) AppleWebKit/537.36 (KHTML, like Gecko) Chrome/92.0.4515.131 Safari/537.36 SLBrowser/8.0.0.10171 SLBChan/103","WebKit","Chrome","92.0.4515.131","Windows","10.0","59009","","{""scale7"":1,""scale3"":1,""scale19"":3,""scale16"":4,""scale18"":1,""scale1"":1,""scale13"":4,""scale25"":4,""scale15"":2,""scale21"":2,""scale8"":1,""scale27"":2,""scale11"":3,""scale9"":3,""scale10"":2,""scale14"":1,""scale17"":4,""scale26"":3,""scale12"":2,""scale5"":2,""scale22"":4,""scale2"":1,""scale20"":4,""scale6"":3,""scale23"":3,""scale24"":3,""scale4"":1,""scale28"":3}","[6,2,18,15,17,0,12,24,14,20,7,26,10,8,9,13,16,25,11,4,21,1,19,5,22,23,3,27]"
"","","","","","html-button-response","142","361235","0.0-15.0","165","1","2022-11-28 08:07:47","7b1eb8be57ff77859c7d9ac988e43411","223.104.194.132","Mozilla/5.0 (Windows NT 10.0; WOW64) AppleWebKit/537.36 (KHTML, like Gecko) Chrome/92.0.4515.131 Safari/537.36 SLBrowser/8.0.0.10171 SLBChan/103","WebKit","Chrome","92.0.4515.131","Windows","10.0","1837","<p><strong>请判断你在多大程度上同意下列陈述。</strong></p>","0",""
"","","","","","survey-likert","143","399972","0.0-16.0","165","1","2022-11-28 08:07:47","7b1eb8be57ff77859c7d9ac988e43411","223.104.194.132","Mozilla/5.0 (Windows NT 10.0; WOW64) AppleWebKit/537.36 (KHTML, like Gecko) Chrome/92.0.4515.131 Safari/537.36 SLBrowser/8.0.0.10171 SLBChan/103","WebKit","Chrome","92.0.4515.131","Windows","10.0","38733","","{""sdo1"":5,""sdo2"":5,""sdo7"":1,""sdo14"":5,""sdo13"":5,""sdo12"":5,""sdo8"":5,""sdo9"":2,""sdo16"":6,""sdo15"":5,""sdo6"":5,""sdo11"":6,""sdo3"":3,""sdo10"":5,""sdo4"":2,""sdo5"":4}","[0,1,6,13,12,11,7,8,15,14,5,10,2,9,3,4]"
"","","","","","html-button-response","144","401042","0.0-17.0","165","1","2022-11-28 08:07:47","7b1eb8be57ff77859c7d9ac988e43411","223.104.194.132","Mozilla/5.0 (Windows NT 10.0; WOW64) AppleWebKit/537.36 (KHTML, like Gecko) Chrome/92.0.4515.131 Safari/537.36 SLBrowser/8.0.0.10171 SLBChan/103","WebKit","Chrome","92.0.4515.131","Windows","10.0","1059","<p><strong>请判断你在多大程度上同意下列陈述。</strong></p>","0",""
"","","","","","survey-likert","145","437910","0.0-18.0","165","1","2022-11-28 08:07:47","7b1eb8be57ff77859c7d9ac988e43411","223.104.194.132","Mozilla/5.0 (Windows NT 10.0; WOW64) AppleWebKit/537.36 (KHTML, like Gecko) Chrome/92.0.4515.131 Safari/537.36 SLBrowser/8.0.0.10171 SLBChan/103","WebKit","Chrome","92.0.4515.131","Windows","10.0","36858","","{""caring1"":0,""liking1"":4,""caring2"":1,""protection1"":2,""liking2"":4,""caring3"":0,""protection2"":2,""liking3"":4,""protection3"":2,""caring4"":0,""liking4"":4,""protection4"":1,""caring5"":0,""liking5"":3,""protection5"":1}","[0,1,2,3,4,5,6,7,8,9,10,11,12,13,14]"
"","","","","","html-button-response","146","439556","0.0-19.0","165","1","2022-11-28 08:07:47","7b1eb8be57ff77859c7d9ac988e43411","223.104.194.132","Mozilla/5.0 (Windows NT 10.0; WOW64) AppleWebKit/537.36 (KHTML, like Gecko) Chrome/92.0.4515.131 Safari/537.36 SLBrowser/8.0.0.10171 SLBChan/103","WebKit","Chrome","92.0.4515.131","Windows","10.0","1637","<p><strong>请判断下列场景中你的内心感受有多柔软。</strong></p>","0",""
"","","","","","survey-likert","147","464743","0.0-20.0","165","1","2022-11-28 08:07:47","7b1eb8be57ff77859c7d9ac988e43411","223.104.194.132","Mozilla/5.0 (Windows NT 10.0; WOW64) AppleWebKit/537.36 (KHTML, like Gecko) Chrome/92.0.4515.131 Safari/537.36 SLBrowser/8.0.0.10171 SLBChan/103","WebKit","Chrome","92.0.4515.131","Windows","10.0","25177","","{""tenderness-positive1"":1,""tenderness-negative1"":1,""tenderness-negative2"":1,""tenderness-positive2"":1,""tenderness-positive3"":1,""tenderness-negative3"":0,""tenderness-positive4"":0,""tenderness-negative4"":0,""tenderness-negative5"":0,""tenderness-positive5"":3}","[0,1,2,3,4,5,6,7,8,9]"
"","","","","","survey-multi-choice","148","476748","0.0-21.0","165","1","2022-11-28 08:07:47","7b1eb8be57ff77859c7d9ac988e43411","223.104.194.132","Mozilla/5.0 (Windows NT 10.0; WOW64) AppleWebKit/537.36 (KHTML, like Gecko) Chrome/92.0.4515.131 Safari/537.36 SLBrowser/8.0.0.10171 SLBChan/103","WebKit","Chrome","92.0.4515.131","Windows","10.0","11993","","{""Attention2"":""其他""}","[0]"
"","","","","","html-button-response","149","478124","0.0-22.0","165","1","2022-11-28 08:07:47","7b1eb8be57ff77859c7d9ac988e43411","223.104.194.132","Mozilla/5.0 (Windows NT 10.0; WOW64) AppleWebKit/537.36 (KHTML, like Gecko) Chrome/92.0.4515.131 Safari/537.36 SLBrowser/8.0.0.10171 SLBChan/103","WebKit","Chrome","92.0.4515.131","Windows","10.0","1367","<p><strong>请判断你在多大程度上同意下列陈述。</strong></p>","0",""
"","","","","","survey-likert","150","529043","0.0-23.0","165","1","2022-11-28 08:07:47","7b1eb8be57ff77859c7d9ac988e43411","223.104.194.132","Mozilla/5.0 (Windows NT 10.0; WOW64) AppleWebKit/537.36 (KHTML, like Gecko) Chrome/92.0.4515.131 Safari/537.36 SLBrowser/8.0.0.10171 SLBChan/103","WebKit","Chrome","92.0.4515.131","Windows","10.0","50914","","{""Patri11"":3,""Patri7"":4,""Patri8"":3,""Nation6"":3,""Patri6"":1,""Nation2"":3,""Patri5"":4,""Nation7"":4,""Patri10"":1,""Nation3"":3,""Patri1"":4,""Nation8"":1,""Nation1"":3,""Patri12"":1,""Patri4"":3,""Patri2"":4,""Patri9"":1,""Patri3"":3,""Nation4"":1,""Nation5"":2}","[10,6,7,17,5,13,4,18,9,14,0,19,12,11,3,1,8,2,15,16]"
"","","","","","html-button-response","151","530520","0.0-24.0","165","1","2022-11-28 08:07:47","7b1eb8be57ff77859c7d9ac988e43411","223.104.194.132","Mozilla/5.0 (Windows NT 10.0; WOW64) AppleWebKit/537.36 (KHTML, like Gecko) Chrome/92.0.4515.131 Safari/537.36 SLBrowser/8.0.0.10171 SLBChan/103","WebKit","Chrome","92.0.4515.131","Windows","10.0","1467","<p><strong>请判断你在多大程度上同意下列陈述。</strong></p>","0",""
"","","","","","survey-likert","152","568301","0.0-25.0","165","1","2022-11-28 08:07:47","7b1eb8be57ff77859c7d9ac988e43411","223.104.194.132","Mozilla/5.0 (Windows NT 10.0; WOW64) AppleWebKit/537.36 (KHTML, like Gecko) Chrome/92.0.4515.131 Safari/537.36 SLBrowser/8.0.0.10171 SLBChan/103","WebKit","Chrome","92.0.4515.131","Windows","10.0","37773","","{""hc4"":6,""vi4"":7,""hi3"":3,""hi2"":5,""vi2"":2,""vc4"":6,""hi1"":3,""Robot"":6,""vc3"":6,""hc3"":7,""vc1"":5,""vi1"":6,""hc1"":6,""hi4"":7,""hc2"":6,""vi3"":7,""vc2"":6}","[12,8,2,1,5,16,0,7,15,11,13,4,9,3,10,6,14]"
"","","","","","survey-text","153","573273","0.0-26.0","165","1","2022-11-28 08:07:47","7b1eb8be57ff77859c7d9ac988e43411","223.104.194.132","Mozilla/5.0 (Windows NT 10.0; WOW64) AppleWebKit/537.36 (KHTML, like Gecko) Chrome/92.0.4515.131 Safari/537.36 SLBrowser/8.0.0.10171 SLBChan/103","WebKit","Chrome","92.0.4515.131","Windows","10.0","4956","","{""Comments"":""无""}",""
"","","","","","html-button-response","154","574217","0.0-27.0","165","1","2022-11-28 08:07:47","7b1eb8be57ff77859c7d9ac988e43411","223.104.194.132","Mozilla/5.0 (Windows NT 10.0; WOW64) AppleWebKit/537.36 (KHTML, like Gecko) Chrome/92.0.4515.131 Safari/537.36 SLBrowser/8.0.0.10171 SLBChan/103","WebKit","Chrome","92.0.4515.131","Windows","10.0","940","<strong><p>恭喜你完成了实验！</p><p>感谢您的参与。</p></strong>","0",""
