"success","timeout","failed_images","failed_audio","failed_video","trial_type","trial_index","time_elapsed","internal_node_id","run_id","condition","recorded_at","source_code_version","ip","user_agent","device","browser","browser_version","platform","platform_version","rt","stimulus","response","question_order"
"true","false","[]","[]","[]","preload","0","1473","0.0-0.0","164","1","2022-11-28 08:00:22","7b1eb8be57ff77859c7d9ac988e43411","36.157.215.152","Mozilla/5.0 (Windows NT 10.0; WOW64) AppleWebKit/537.36 (KHTML, like Gecko) Chrome/86.0.4240.198 Safari/537.36","WebKit","Chrome","86.0.4240.198","Windows","10.0","","","",""
"true","","","","","fullscreen","1","6589","0.0-1.0","164","1","2022-11-28 08:00:22","7b1eb8be57ff77859c7d9ac988e43411","36.157.215.152","Mozilla/5.0 (Windows NT 10.0; WOW64) AppleWebKit/537.36 (KHTML, like Gecko) Chrome/86.0.4240.198 Safari/537.36","WebKit","Chrome","86.0.4240.198","Windows","10.0","","","",""
"","","","","","html-button-response","2","48765","0.0-2.0","164","1","2022-11-28 08:00:22","7b1eb8be57ff77859c7d9ac988e43411","36.157.215.152","Mozilla/5.0 (Windows NT 10.0; WOW64) AppleWebKit/537.36 (KHTML, like Gecko) Chrome/86.0.4240.198 Safari/537.36","WebKit","Chrome","86.0.4240.198","Windows","10.0","42175","<p style=""font-size:20px;font-weight:bold;"">实验知情同意书</p><p style=""text-align:left;""><strong>实验名称：</strong>社会冲突研究</p><p style=""text-align:left;""><strong>主要研究者：</strong>韩晓春副教授（北京师范大学心理学部）</p><p style=""text-align:left;""><strong>联系方式：</strong>发送邮件至xiaochun.han@bnu.edu.cn</p><p style=""text-align:left;""><strong>研究目的：</strong>研究旨在了解人类面对群体冲突时的决策方式，以及相关的心理学特质。实验调查大约需要20分钟。</p><p style=""text-align:left;""><strong>实验流程：</strong>实验包含两部分。第一部分呈现一系列群体冲突场景，请你决定如何对这些冲突进行反应，大约需要10分钟完成。第二部分包含一系列人口统计学信息收集和心理学问卷，大约需要10分钟完成。</p><p style=""text-align:left;""><strong>参加及退出规则：</strong>参加本实验完全取决于您的个人意愿。在参与过程中，您可以随时退出，并且不用承担任何后果。</p><p style=""text-align:left;""><strong>隐私：</strong>本实验完全匿名进行，不会收集您的姓名或其他能够识别您身份的信息。实验中收集的作答仅用作科学研究使用，可能会在学术期刊/书籍上发表，或者用于教学，您的数据未来可能会和其他研究者或实验室分享，但您的个人身份不会被识别。</p><p style=""text-align:left;""><strong>实验报酬：</strong>实验完成后，您将获得15元人民币报酬，以感谢您的时间和努力。调查问卷中包含几道题目用以测验您作答时的认真度。只有完成全部实验，并且正确回答认真度测验的被试才能获得实验报酬。实验报酬将通过支付宝转账发放。</p><p style=""text-align:left;font-size:20px;""><strong>如果您同意以上实验知情同意书的内容，请点击'同意并且开始实验'按钮；否则请关闭浏览器界面，退出实验。</strong></p>","0",""
"","","","","","html-button-response","3","73021","0.0-3.0","164","1","2022-11-28 08:00:22","7b1eb8be57ff77859c7d9ac988e43411","36.157.215.152","Mozilla/5.0 (Windows NT 10.0; WOW64) AppleWebKit/537.36 (KHTML, like Gecko) Chrome/86.0.4240.198 Safari/537.36","WebKit","Chrome","86.0.4240.198","Windows","10.0","24254","<p ><strong>实验任务一：</strong></p><p>请想象你的国家与另一个国家发生了军事冲突。</p><p>你是国家军队的指挥官，你将如何在冲突中进行决策。</p><p>具体来说，作为军队指挥官，请你决定是否发射导弹进行打击。</p><p>接下来，你会面对一系列场景，请仔细阅读每个场景，然后进行决策。</p><p>这部分实验任务大约需要10分钟。</p><p><strong>实验过程中，请集中注意力。</strong></p>","0",""
"","","","","","html-keyboard-response","4","74023","0.0-4.0-0.0","164","1","2022-11-28 08:00:22","7b1eb8be57ff77859c7d9ac988e43411","36.157.215.152","Mozilla/5.0 (Windows NT 10.0; WOW64) AppleWebKit/537.36 (KHTML, like Gecko) Chrome/86.0.4240.198 Safari/537.36","WebKit","Chrome","86.0.4240.198","Windows","10.0","null","<div style=""font-size:60px;"">+</div>","null",""
"","","","","","html-button-response","5","85965","0.0-4.0-1.0","164","1","2022-11-28 08:00:22","7b1eb8be57ff77859c7d9ac988e43411","36.157.215.152","Mozilla/5.0 (Windows NT 10.0; WOW64) AppleWebKit/537.36 (KHTML, like Gecko) Chrome/86.0.4240.198 Safari/537.36","WebKit","Chrome","86.0.4240.198","Windows","10.0","11940","<p>作为军队的指挥官，你可以选择发射导弹杀死 <strong>5名</strong> 敌国士兵，但会炸毁附近的 <strong>1棵</strong> 敌国树木。</p> <p>树木的照片如下图所示。</p> <p></p> <img src='stimuli/trees/10.png', style='max-width: 30%;'> </img> <p><strong>你是否选择发射武器？</strong></p>","0",""
"","","","","","html-keyboard-response","6","86966","0.0-4.0-0.1","164","1","2022-11-28 08:00:22","7b1eb8be57ff77859c7d9ac988e43411","36.157.215.152","Mozilla/5.0 (Windows NT 10.0; WOW64) AppleWebKit/537.36 (KHTML, like Gecko) Chrome/86.0.4240.198 Safari/537.36","WebKit","Chrome","86.0.4240.198","Windows","10.0","null","<div style=""font-size:60px;"">+</div>","null",""
"","","","","","html-button-response","7","88549","0.0-4.0-1.1","164","1","2022-11-28 08:00:22","7b1eb8be57ff77859c7d9ac988e43411","36.157.215.152","Mozilla/5.0 (Windows NT 10.0; WOW64) AppleWebKit/537.36 (KHTML, like Gecko) Chrome/86.0.4240.198 Safari/537.36","WebKit","Chrome","86.0.4240.198","Windows","10.0","1581","<p>作为军队的指挥官，你可以选择发射导弹杀死 <strong>10名</strong> 敌国士兵，但会炸毁附近的 <strong>1棵</strong> 敌国树木。</p> <p>树木的照片如下图所示。</p> <p></p> <img src='stimuli/trees/10.png', style='max-width: 30%;'> </img> <p><strong>你是否选择发射武器？</strong></p>","0",""
"","","","","","html-keyboard-response","8","89550","0.0-4.0-0.2","164","1","2022-11-28 08:00:22","7b1eb8be57ff77859c7d9ac988e43411","36.157.215.152","Mozilla/5.0 (Windows NT 10.0; WOW64) AppleWebKit/537.36 (KHTML, like Gecko) Chrome/86.0.4240.198 Safari/537.36","WebKit","Chrome","86.0.4240.198","Windows","10.0","null","<div style=""font-size:60px;"">+</div>","null",""
"","","","","","html-button-response","9","91101","0.0-4.0-1.2","164","1","2022-11-28 08:00:22","7b1eb8be57ff77859c7d9ac988e43411","36.157.215.152","Mozilla/5.0 (Windows NT 10.0; WOW64) AppleWebKit/537.36 (KHTML, like Gecko) Chrome/86.0.4240.198 Safari/537.36","WebKit","Chrome","86.0.4240.198","Windows","10.0","1549","<p>作为军队的指挥官，你可以选择发射导弹杀死 <strong>6名</strong> 敌国士兵，但会炸毁附近的 <strong>1棵</strong> 敌国树木。</p> <p>树木的照片如下图所示。</p> <p></p> <img src='stimuli/trees/15.png', style='max-width: 30%;'> </img> <p><strong>你是否选择发射武器？</strong></p>","0",""
"","","","","","html-keyboard-response","10","92102","0.0-4.0-0.3","164","1","2022-11-28 08:00:22","7b1eb8be57ff77859c7d9ac988e43411","36.157.215.152","Mozilla/5.0 (Windows NT 10.0; WOW64) AppleWebKit/537.36 (KHTML, like Gecko) Chrome/86.0.4240.198 Safari/537.36","WebKit","Chrome","86.0.4240.198","Windows","10.0","null","<div style=""font-size:60px;"">+</div>","null",""
"","","","","","html-button-response","11","93382","0.0-4.0-1.3","164","1","2022-11-28 08:00:22","7b1eb8be57ff77859c7d9ac988e43411","36.157.215.152","Mozilla/5.0 (Windows NT 10.0; WOW64) AppleWebKit/537.36 (KHTML, like Gecko) Chrome/86.0.4240.198 Safari/537.36","WebKit","Chrome","86.0.4240.198","Windows","10.0","1278","<p>作为军队的指挥官，你可以选择发射导弹杀死 <strong>9名</strong> 敌国士兵，但会炸毁附近的 <strong>1棵</strong> 敌国树木。</p> <p>树木的照片如下图所示。</p> <p></p> <img src='stimuli/trees/4.png', style='max-width: 30%;'> </img> <p><strong>你是否选择发射武器？</strong></p>","0",""
"","","","","","html-keyboard-response","12","94383","0.0-4.0-0.4","164","1","2022-11-28 08:00:22","7b1eb8be57ff77859c7d9ac988e43411","36.157.215.152","Mozilla/5.0 (Windows NT 10.0; WOW64) AppleWebKit/537.36 (KHTML, like Gecko) Chrome/86.0.4240.198 Safari/537.36","WebKit","Chrome","86.0.4240.198","Windows","10.0","null","<div style=""font-size:60px;"">+</div>","null",""
"","","","","","html-button-response","13","95957","0.0-4.0-1.4","164","1","2022-11-28 08:00:22","7b1eb8be57ff77859c7d9ac988e43411","36.157.215.152","Mozilla/5.0 (Windows NT 10.0; WOW64) AppleWebKit/537.36 (KHTML, like Gecko) Chrome/86.0.4240.198 Safari/537.36","WebKit","Chrome","86.0.4240.198","Windows","10.0","1572","<p>作为军队的指挥官，你可以选择发射导弹杀死 <strong>5名</strong> 敌国士兵，但会炸毁附近的 <strong>1棵</strong> 敌国树木。</p> <p>树木的照片如下图所示。</p> <p></p> <img src='stimuli/trees/11.png', style='max-width: 30%;'> </img> <p><strong>你是否选择发射武器？</strong></p>","0",""
"","","","","","html-keyboard-response","14","96959","0.0-4.0-0.5","164","1","2022-11-28 08:00:22","7b1eb8be57ff77859c7d9ac988e43411","36.157.215.152","Mozilla/5.0 (Windows NT 10.0; WOW64) AppleWebKit/537.36 (KHTML, like Gecko) Chrome/86.0.4240.198 Safari/537.36","WebKit","Chrome","86.0.4240.198","Windows","10.0","null","<div style=""font-size:60px;"">+</div>","null",""
"","","","","","html-button-response","15","100357","0.0-4.0-1.5","164","1","2022-11-28 08:00:22","7b1eb8be57ff77859c7d9ac988e43411","36.157.215.152","Mozilla/5.0 (Windows NT 10.0; WOW64) AppleWebKit/537.36 (KHTML, like Gecko) Chrome/86.0.4240.198 Safari/537.36","WebKit","Chrome","86.0.4240.198","Windows","10.0","3396","<p>作为军队的指挥官，你可以选择发射导弹杀死 <strong>6名</strong> 敌国士兵，但会误杀附近的 <strong>1名</strong> 敌国平民。</p> <p>平民照片如下图所示。</p> <p></p> <img src='stimuli/faces/PCF5.jpg', style='max-width: 30%;'> </img> <p><strong>你是否选择发射武器？</strong></p>","1",""
"","","","","","html-keyboard-response","16","101359","0.0-4.0-0.6","164","1","2022-11-28 08:00:22","7b1eb8be57ff77859c7d9ac988e43411","36.157.215.152","Mozilla/5.0 (Windows NT 10.0; WOW64) AppleWebKit/537.36 (KHTML, like Gecko) Chrome/86.0.4240.198 Safari/537.36","WebKit","Chrome","86.0.4240.198","Windows","10.0","null","<div style=""font-size:60px;"">+</div>","null",""
"","","","","","html-button-response","17","103093","0.0-4.0-1.6","164","1","2022-11-28 08:00:22","7b1eb8be57ff77859c7d9ac988e43411","36.157.215.152","Mozilla/5.0 (Windows NT 10.0; WOW64) AppleWebKit/537.36 (KHTML, like Gecko) Chrome/86.0.4240.198 Safari/537.36","WebKit","Chrome","86.0.4240.198","Windows","10.0","1731","<p>作为军队的指挥官，你可以选择发射导弹杀死 <strong>3名</strong> 敌国士兵，但会误杀附近的 <strong>1名</strong> 敌国平民。</p> <p>平民照片如下图所示。</p> <p></p> <img src='stimuli/faces/PCM8.jpg', style='max-width: 30%;'> </img> <p><strong>你是否选择发射武器？</strong></p>","1",""
"","","","","","html-keyboard-response","18","104094","0.0-4.0-0.7","164","1","2022-11-28 08:00:22","7b1eb8be57ff77859c7d9ac988e43411","36.157.215.152","Mozilla/5.0 (Windows NT 10.0; WOW64) AppleWebKit/537.36 (KHTML, like Gecko) Chrome/86.0.4240.198 Safari/537.36","WebKit","Chrome","86.0.4240.198","Windows","10.0","null","<div style=""font-size:60px;"">+</div>","null",""
"","","","","","html-button-response","19","105629","0.0-4.0-1.7","164","1","2022-11-28 08:00:22","7b1eb8be57ff77859c7d9ac988e43411","36.157.215.152","Mozilla/5.0 (Windows NT 10.0; WOW64) AppleWebKit/537.36 (KHTML, like Gecko) Chrome/86.0.4240.198 Safari/537.36","WebKit","Chrome","86.0.4240.198","Windows","10.0","1534","<p>作为军队的指挥官，你可以选择发射导弹杀死 <strong>6名</strong> 敌国士兵，但会炸毁附近的 <strong>1棵</strong> 敌国树木。</p> <p>树木的照片如下图所示。</p> <p></p> <img src='stimuli/trees/8.png', style='max-width: 30%;'> </img> <p><strong>你是否选择发射武器？</strong></p>","0",""
"","","","","","html-keyboard-response","20","106632","0.0-4.0-0.8","164","1","2022-11-28 08:00:22","7b1eb8be57ff77859c7d9ac988e43411","36.157.215.152","Mozilla/5.0 (Windows NT 10.0; WOW64) AppleWebKit/537.36 (KHTML, like Gecko) Chrome/86.0.4240.198 Safari/537.36","WebKit","Chrome","86.0.4240.198","Windows","10.0","null","<div style=""font-size:60px;"">+</div>","null",""
"","","","","","html-button-response","21","108013","0.0-4.0-1.8","164","1","2022-11-28 08:00:22","7b1eb8be57ff77859c7d9ac988e43411","36.157.215.152","Mozilla/5.0 (Windows NT 10.0; WOW64) AppleWebKit/537.36 (KHTML, like Gecko) Chrome/86.0.4240.198 Safari/537.36","WebKit","Chrome","86.0.4240.198","Windows","10.0","1380","<p>作为军队的指挥官，你可以选择发射导弹杀死 <strong>1名</strong> 敌国士兵，但会炸毁附近的 <strong>1棵</strong> 敌国树木。</p> <p>树木的照片如下图所示。</p> <p></p> <img src='stimuli/trees/5.png', style='max-width: 30%;'> </img> <p><strong>你是否选择发射武器？</strong></p>","0",""
"","","","","","html-keyboard-response","22","109014","0.0-4.0-0.9","164","1","2022-11-28 08:00:22","7b1eb8be57ff77859c7d9ac988e43411","36.157.215.152","Mozilla/5.0 (Windows NT 10.0; WOW64) AppleWebKit/537.36 (KHTML, like Gecko) Chrome/86.0.4240.198 Safari/537.36","WebKit","Chrome","86.0.4240.198","Windows","10.0","null","<div style=""font-size:60px;"">+</div>","null",""
"","","","","","html-button-response","23","110302","0.0-4.0-1.9","164","1","2022-11-28 08:00:22","7b1eb8be57ff77859c7d9ac988e43411","36.157.215.152","Mozilla/5.0 (Windows NT 10.0; WOW64) AppleWebKit/537.36 (KHTML, like Gecko) Chrome/86.0.4240.198 Safari/537.36","WebKit","Chrome","86.0.4240.198","Windows","10.0","1286","<p>作为军队的指挥官，你可以选择发射导弹杀死 <strong>2名</strong> 敌国士兵，但会误杀附近的 <strong>1名</strong> 敌国平民。</p> <p>平民照片如下图所示。</p> <p></p> <img src='stimuli/faces/PCM5.jpg', style='max-width: 30%;'> </img> <p><strong>你是否选择发射武器？</strong></p>","1",""
"","","","","","html-keyboard-response","24","111304","0.0-4.0-0.10","164","1","2022-11-28 08:00:22","7b1eb8be57ff77859c7d9ac988e43411","36.157.215.152","Mozilla/5.0 (Windows NT 10.0; WOW64) AppleWebKit/537.36 (KHTML, like Gecko) Chrome/86.0.4240.198 Safari/537.36","WebKit","Chrome","86.0.4240.198","Windows","10.0","null","<div style=""font-size:60px;"">+</div>","null",""
"","","","","","html-button-response","25","114245","0.0-4.0-1.10","164","1","2022-11-28 08:00:22","7b1eb8be57ff77859c7d9ac988e43411","36.157.215.152","Mozilla/5.0 (Windows NT 10.0; WOW64) AppleWebKit/537.36 (KHTML, like Gecko) Chrome/86.0.4240.198 Safari/537.36","WebKit","Chrome","86.0.4240.198","Windows","10.0","2940","<p>作为军队的指挥官，你可以选择发射导弹杀死 <strong>2名</strong> 敌国士兵，但会炸毁附近的 <strong>1棵</strong> 敌国树木。</p> <p>树木的照片如下图所示。</p> <p></p> <img src='stimuli/trees/6.png', style='max-width: 30%;'> </img> <p><strong>你是否选择发射武器？</strong></p>","0",""
"","","","","","html-keyboard-response","26","115247","0.0-4.0-0.11","164","1","2022-11-28 08:00:22","7b1eb8be57ff77859c7d9ac988e43411","36.157.215.152","Mozilla/5.0 (Windows NT 10.0; WOW64) AppleWebKit/537.36 (KHTML, like Gecko) Chrome/86.0.4240.198 Safari/537.36","WebKit","Chrome","86.0.4240.198","Windows","10.0","null","<div style=""font-size:60px;"">+</div>","null",""
"","","","","","html-button-response","27","116493","0.0-4.0-1.11","164","1","2022-11-28 08:00:22","7b1eb8be57ff77859c7d9ac988e43411","36.157.215.152","Mozilla/5.0 (Windows NT 10.0; WOW64) AppleWebKit/537.36 (KHTML, like Gecko) Chrome/86.0.4240.198 Safari/537.36","WebKit","Chrome","86.0.4240.198","Windows","10.0","1245","<p>作为军队的指挥官，你可以选择发射导弹杀死 <strong>1名</strong> 敌国士兵，但会炸毁附近的 <strong>1棵</strong> 敌国树木。</p> <p>树木的照片如下图所示。</p> <p></p> <img src='stimuli/trees/14.png', style='max-width: 30%;'> </img> <p><strong>你是否选择发射武器？</strong></p>","0",""
"","","","","","html-keyboard-response","28","117495","0.0-4.0-0.12","164","1","2022-11-28 08:00:22","7b1eb8be57ff77859c7d9ac988e43411","36.157.215.152","Mozilla/5.0 (Windows NT 10.0; WOW64) AppleWebKit/537.36 (KHTML, like Gecko) Chrome/86.0.4240.198 Safari/537.36","WebKit","Chrome","86.0.4240.198","Windows","10.0","null","<div style=""font-size:60px;"">+</div>","null",""
"","","","","","html-button-response","29","119180","0.0-4.0-1.12","164","1","2022-11-28 08:00:22","7b1eb8be57ff77859c7d9ac988e43411","36.157.215.152","Mozilla/5.0 (Windows NT 10.0; WOW64) AppleWebKit/537.36 (KHTML, like Gecko) Chrome/86.0.4240.198 Safari/537.36","WebKit","Chrome","86.0.4240.198","Windows","10.0","1684","<p>作为军队的指挥官，你可以选择发射导弹杀死 <strong>3名</strong> 敌国士兵，但会误杀附近的 <strong>1名</strong> 敌国平民。</p> <p>平民照片如下图所示。</p> <p></p> <img src='stimuli/faces/PCM6.jpg', style='max-width: 30%;'> </img> <p><strong>你是否选择发射武器？</strong></p>","1",""
"","","","","","html-keyboard-response","30","120182","0.0-4.0-0.13","164","1","2022-11-28 08:00:22","7b1eb8be57ff77859c7d9ac988e43411","36.157.215.152","Mozilla/5.0 (Windows NT 10.0; WOW64) AppleWebKit/537.36 (KHTML, like Gecko) Chrome/86.0.4240.198 Safari/537.36","WebKit","Chrome","86.0.4240.198","Windows","10.0","null","<div style=""font-size:60px;"">+</div>","null",""
"","","","","","html-button-response","31","123565","0.0-4.0-1.13","164","1","2022-11-28 08:00:22","7b1eb8be57ff77859c7d9ac988e43411","36.157.215.152","Mozilla/5.0 (Windows NT 10.0; WOW64) AppleWebKit/537.36 (KHTML, like Gecko) Chrome/86.0.4240.198 Safari/537.36","WebKit","Chrome","86.0.4240.198","Windows","10.0","3381","<p>作为军队的指挥官，你可以选择发射导弹杀死 <strong>7名</strong> 敌国士兵，但会炸毁附近的 <strong>1棵</strong> 敌国树木。</p> <p>树木的照片如下图所示。</p> <p></p> <img src='stimuli/trees/7.png', style='max-width: 30%;'> </img> <p><strong>你是否选择发射武器？</strong></p>","0",""
"","","","","","html-keyboard-response","32","124566","0.0-4.0-0.14","164","1","2022-11-28 08:00:22","7b1eb8be57ff77859c7d9ac988e43411","36.157.215.152","Mozilla/5.0 (Windows NT 10.0; WOW64) AppleWebKit/537.36 (KHTML, like Gecko) Chrome/86.0.4240.198 Safari/537.36","WebKit","Chrome","86.0.4240.198","Windows","10.0","null","<div style=""font-size:60px;"">+</div>","null",""
"","","","","","html-button-response","33","126437","0.0-4.0-1.14","164","1","2022-11-28 08:00:22","7b1eb8be57ff77859c7d9ac988e43411","36.157.215.152","Mozilla/5.0 (Windows NT 10.0; WOW64) AppleWebKit/537.36 (KHTML, like Gecko) Chrome/86.0.4240.198 Safari/537.36","WebKit","Chrome","86.0.4240.198","Windows","10.0","1869","<p>作为军队的指挥官，你可以选择发射导弹杀死 <strong>5名</strong> 敌国士兵，但会炸毁附近的 <strong>1棵</strong> 敌国树木。</p> <p>树木的照片如下图所示。</p> <p></p> <img src='stimuli/trees/2.png', style='max-width: 30%;'> </img> <p><strong>你是否选择发射武器？</strong></p>","0",""
"","","","","","html-keyboard-response","34","127439","0.0-4.0-0.15","164","1","2022-11-28 08:00:22","7b1eb8be57ff77859c7d9ac988e43411","36.157.215.152","Mozilla/5.0 (Windows NT 10.0; WOW64) AppleWebKit/537.36 (KHTML, like Gecko) Chrome/86.0.4240.198 Safari/537.36","WebKit","Chrome","86.0.4240.198","Windows","10.0","null","<div style=""font-size:60px;"">+</div>","null",""
"","","","","","html-button-response","35","129093","0.0-4.0-1.15","164","1","2022-11-28 08:00:22","7b1eb8be57ff77859c7d9ac988e43411","36.157.215.152","Mozilla/5.0 (Windows NT 10.0; WOW64) AppleWebKit/537.36 (KHTML, like Gecko) Chrome/86.0.4240.198 Safari/537.36","WebKit","Chrome","86.0.4240.198","Windows","10.0","1652","<p>作为军队的指挥官，你可以选择发射导弹杀死 <strong>4名</strong> 敌国士兵，但会误杀附近的 <strong>1名</strong> 敌国平民。</p> <p>平民照片如下图所示。</p> <p></p> <img src='stimuli/faces/PCM2.jpg', style='max-width: 30%;'> </img> <p><strong>你是否选择发射武器？</strong></p>","1",""
"","","","","","html-keyboard-response","36","130095","0.0-4.0-0.16","164","1","2022-11-28 08:00:22","7b1eb8be57ff77859c7d9ac988e43411","36.157.215.152","Mozilla/5.0 (Windows NT 10.0; WOW64) AppleWebKit/537.36 (KHTML, like Gecko) Chrome/86.0.4240.198 Safari/537.36","WebKit","Chrome","86.0.4240.198","Windows","10.0","null","<div style=""font-size:60px;"">+</div>","null",""
"","","","","","html-button-response","37","131829","0.0-4.0-1.16","164","1","2022-11-28 08:00:22","7b1eb8be57ff77859c7d9ac988e43411","36.157.215.152","Mozilla/5.0 (Windows NT 10.0; WOW64) AppleWebKit/537.36 (KHTML, like Gecko) Chrome/86.0.4240.198 Safari/537.36","WebKit","Chrome","86.0.4240.198","Windows","10.0","1733","<p>作为军队的指挥官，你可以选择发射导弹杀死 <strong>7名</strong> 敌国士兵，但会炸毁附近的 <strong>1棵</strong> 敌国树木。</p> <p>树木的照片如下图所示。</p> <p></p> <img src='stimuli/trees/16.png', style='max-width: 30%;'> </img> <p><strong>你是否选择发射武器？</strong></p>","0",""
"","","","","","html-keyboard-response","38","132831","0.0-4.0-0.17","164","1","2022-11-28 08:00:22","7b1eb8be57ff77859c7d9ac988e43411","36.157.215.152","Mozilla/5.0 (Windows NT 10.0; WOW64) AppleWebKit/537.36 (KHTML, like Gecko) Chrome/86.0.4240.198 Safari/537.36","WebKit","Chrome","86.0.4240.198","Windows","10.0","null","<div style=""font-size:60px;"">+</div>","null",""
"","","","","","html-button-response","39","135757","0.0-4.0-1.17","164","1","2022-11-28 08:00:22","7b1eb8be57ff77859c7d9ac988e43411","36.157.215.152","Mozilla/5.0 (Windows NT 10.0; WOW64) AppleWebKit/537.36 (KHTML, like Gecko) Chrome/86.0.4240.198 Safari/537.36","WebKit","Chrome","86.0.4240.198","Windows","10.0","2924","<p>作为军队的指挥官，你可以选择发射导弹杀死 <strong>5名</strong> 敌国士兵，但会炸毁附近的 <strong>1棵</strong> 敌国树木。</p> <p>树木的照片如下图所示。</p> <p></p> <img src='stimuli/trees/16.png', style='max-width: 30%;'> </img> <p><strong>你是否选择发射武器？</strong></p>","0",""
"","","","","","html-keyboard-response","40","136760","0.0-4.0-0.18","164","1","2022-11-28 08:00:22","7b1eb8be57ff77859c7d9ac988e43411","36.157.215.152","Mozilla/5.0 (Windows NT 10.0; WOW64) AppleWebKit/537.36 (KHTML, like Gecko) Chrome/86.0.4240.198 Safari/537.36","WebKit","Chrome","86.0.4240.198","Windows","10.0","null","<div style=""font-size:60px;"">+</div>","null",""
"","","","","","html-button-response","41","139908","0.0-4.0-1.18","164","1","2022-11-28 08:00:22","7b1eb8be57ff77859c7d9ac988e43411","36.157.215.152","Mozilla/5.0 (Windows NT 10.0; WOW64) AppleWebKit/537.36 (KHTML, like Gecko) Chrome/86.0.4240.198 Safari/537.36","WebKit","Chrome","86.0.4240.198","Windows","10.0","3146","<p>作为军队的指挥官，你可以选择发射导弹杀死 <strong>8名</strong> 敌国士兵，但会炸毁附近的 <strong>1棵</strong> 敌国树木。</p> <p>树木的照片如下图所示。</p> <p></p> <img src='stimuli/trees/2.png', style='max-width: 30%;'> </img> <p><strong>你是否选择发射武器？</strong></p>","0",""
"","","","","","html-keyboard-response","42","140910","0.0-4.0-0.19","164","1","2022-11-28 08:00:22","7b1eb8be57ff77859c7d9ac988e43411","36.157.215.152","Mozilla/5.0 (Windows NT 10.0; WOW64) AppleWebKit/537.36 (KHTML, like Gecko) Chrome/86.0.4240.198 Safari/537.36","WebKit","Chrome","86.0.4240.198","Windows","10.0","null","<div style=""font-size:60px;"">+</div>","null",""
"","","","","","html-button-response","43","142116","0.0-4.0-1.19","164","1","2022-11-28 08:00:22","7b1eb8be57ff77859c7d9ac988e43411","36.157.215.152","Mozilla/5.0 (Windows NT 10.0; WOW64) AppleWebKit/537.36 (KHTML, like Gecko) Chrome/86.0.4240.198 Safari/537.36","WebKit","Chrome","86.0.4240.198","Windows","10.0","1204","<p>作为军队的指挥官，你可以选择发射导弹杀死 <strong>9名</strong> 敌国士兵，但会误杀附近的 <strong>1名</strong> 敌国平民。</p> <p>平民照片如下图所示。</p> <p></p> <img src='stimuli/faces/PCM7.jpg', style='max-width: 30%;'> </img> <p><strong>你是否选择发射武器？</strong></p>","1",""
"","","","","","html-keyboard-response","44","143118","0.0-4.0-0.20","164","1","2022-11-28 08:00:22","7b1eb8be57ff77859c7d9ac988e43411","36.157.215.152","Mozilla/5.0 (Windows NT 10.0; WOW64) AppleWebKit/537.36 (KHTML, like Gecko) Chrome/86.0.4240.198 Safari/537.36","WebKit","Chrome","86.0.4240.198","Windows","10.0","null","<div style=""font-size:60px;"">+</div>","null",""
"","","","","","html-button-response","45","145788","0.0-4.0-1.20","164","1","2022-11-28 08:00:22","7b1eb8be57ff77859c7d9ac988e43411","36.157.215.152","Mozilla/5.0 (Windows NT 10.0; WOW64) AppleWebKit/537.36 (KHTML, like Gecko) Chrome/86.0.4240.198 Safari/537.36","WebKit","Chrome","86.0.4240.198","Windows","10.0","2668","<p>作为军队的指挥官，你可以选择发射导弹杀死 <strong>10名</strong> 敌国士兵，但会误杀附近的 <strong>1名</strong> 敌国平民。</p> <p>平民照片如下图所示。</p> <p></p> <img src='stimuli/faces/PCM5.jpg', style='max-width: 30%;'> </img> <p><strong>你是否选择发射武器？</strong></p>","1",""
"","","","","","html-keyboard-response","46","146790","0.0-4.0-0.21","164","1","2022-11-28 08:00:22","7b1eb8be57ff77859c7d9ac988e43411","36.157.215.152","Mozilla/5.0 (Windows NT 10.0; WOW64) AppleWebKit/537.36 (KHTML, like Gecko) Chrome/86.0.4240.198 Safari/537.36","WebKit","Chrome","86.0.4240.198","Windows","10.0","null","<div style=""font-size:60px;"">+</div>","null",""
"","","","","","html-button-response","47","148236","0.0-4.0-1.21","164","1","2022-11-28 08:00:22","7b1eb8be57ff77859c7d9ac988e43411","36.157.215.152","Mozilla/5.0 (Windows NT 10.0; WOW64) AppleWebKit/537.36 (KHTML, like Gecko) Chrome/86.0.4240.198 Safari/537.36","WebKit","Chrome","86.0.4240.198","Windows","10.0","1444","<p>作为军队的指挥官，你可以选择发射导弹杀死 <strong>8名</strong> 敌国士兵，但会误杀附近的 <strong>1名</strong> 敌国平民。</p> <p>平民照片如下图所示。</p> <p></p> <img src='stimuli/faces/PCF7.jpg', style='max-width: 30%;'> </img> <p><strong>你是否选择发射武器？</strong></p>","1",""
"","","","","","html-keyboard-response","48","149239","0.0-4.0-0.22","164","1","2022-11-28 08:00:22","7b1eb8be57ff77859c7d9ac988e43411","36.157.215.152","Mozilla/5.0 (Windows NT 10.0; WOW64) AppleWebKit/537.36 (KHTML, like Gecko) Chrome/86.0.4240.198 Safari/537.36","WebKit","Chrome","86.0.4240.198","Windows","10.0","null","<div style=""font-size:60px;"">+</div>","null",""
"","","","","","html-button-response","49","150605","0.0-4.0-1.22","164","1","2022-11-28 08:00:22","7b1eb8be57ff77859c7d9ac988e43411","36.157.215.152","Mozilla/5.0 (Windows NT 10.0; WOW64) AppleWebKit/537.36 (KHTML, like Gecko) Chrome/86.0.4240.198 Safari/537.36","WebKit","Chrome","86.0.4240.198","Windows","10.0","1364","<p>作为军队的指挥官，你可以选择发射导弹杀死 <strong>8名</strong> 敌国士兵，但会炸毁附近的 <strong>1棵</strong> 敌国树木。</p> <p>树木的照片如下图所示。</p> <p></p> <img src='stimuli/trees/12.png', style='max-width: 30%;'> </img> <p><strong>你是否选择发射武器？</strong></p>","0",""
"","","","","","html-keyboard-response","50","151607","0.0-4.0-0.23","164","1","2022-11-28 08:00:22","7b1eb8be57ff77859c7d9ac988e43411","36.157.215.152","Mozilla/5.0 (Windows NT 10.0; WOW64) AppleWebKit/537.36 (KHTML, like Gecko) Chrome/86.0.4240.198 Safari/537.36","WebKit","Chrome","86.0.4240.198","Windows","10.0","null","<div style=""font-size:60px;"">+</div>","null",""
"","","","","","html-button-response","51","153372","0.0-4.0-1.23","164","1","2022-11-28 08:00:22","7b1eb8be57ff77859c7d9ac988e43411","36.157.215.152","Mozilla/5.0 (Windows NT 10.0; WOW64) AppleWebKit/537.36 (KHTML, like Gecko) Chrome/86.0.4240.198 Safari/537.36","WebKit","Chrome","86.0.4240.198","Windows","10.0","1764","<p>作为军队的指挥官，你可以选择发射导弹杀死 <strong>9名</strong> 敌国士兵，但会误杀附近的 <strong>1名</strong> 敌国平民。</p> <p>平民照片如下图所示。</p> <p></p> <img src='stimuli/faces/PCM3.jpg', style='max-width: 30%;'> </img> <p><strong>你是否选择发射武器？</strong></p>","1",""
"","","","","","html-keyboard-response","52","154375","0.0-4.0-0.24","164","1","2022-11-28 08:00:22","7b1eb8be57ff77859c7d9ac988e43411","36.157.215.152","Mozilla/5.0 (Windows NT 10.0; WOW64) AppleWebKit/537.36 (KHTML, like Gecko) Chrome/86.0.4240.198 Safari/537.36","WebKit","Chrome","86.0.4240.198","Windows","10.0","null","<div style=""font-size:60px;"">+</div>","null",""
"","","","","","html-button-response","53","155405","0.0-4.0-1.24","164","1","2022-11-28 08:00:22","7b1eb8be57ff77859c7d9ac988e43411","36.157.215.152","Mozilla/5.0 (Windows NT 10.0; WOW64) AppleWebKit/537.36 (KHTML, like Gecko) Chrome/86.0.4240.198 Safari/537.36","WebKit","Chrome","86.0.4240.198","Windows","10.0","1028","<p>作为军队的指挥官，你可以选择发射导弹杀死 <strong>10名</strong> 敌国士兵，但会误杀附近的 <strong>1名</strong> 敌国平民。</p> <p>平民照片如下图所示。</p> <p></p> <img src='stimuli/faces/PCM8.jpg', style='max-width: 30%;'> </img> <p><strong>你是否选择发射武器？</strong></p>","1",""
"","","","","","html-keyboard-response","54","156406","0.0-4.0-0.25","164","1","2022-11-28 08:00:22","7b1eb8be57ff77859c7d9ac988e43411","36.157.215.152","Mozilla/5.0 (Windows NT 10.0; WOW64) AppleWebKit/537.36 (KHTML, like Gecko) Chrome/86.0.4240.198 Safari/537.36","WebKit","Chrome","86.0.4240.198","Windows","10.0","null","<div style=""font-size:60px;"">+</div>","null",""
"","","","","","html-button-response","55","158701","0.0-4.0-1.25","164","1","2022-11-28 08:00:22","7b1eb8be57ff77859c7d9ac988e43411","36.157.215.152","Mozilla/5.0 (Windows NT 10.0; WOW64) AppleWebKit/537.36 (KHTML, like Gecko) Chrome/86.0.4240.198 Safari/537.36","WebKit","Chrome","86.0.4240.198","Windows","10.0","2292","<p>作为军队的指挥官，你可以选择发射导弹杀死 <strong>1名</strong> 敌国士兵，但会炸毁附近的 <strong>1棵</strong> 敌国树木。</p> <p>树木的照片如下图所示。</p> <p></p> <img src='stimuli/trees/15.png', style='max-width: 30%;'> </img> <p><strong>你是否选择发射武器？</strong></p>","0",""
"","","","","","html-keyboard-response","56","159704","0.0-4.0-0.26","164","1","2022-11-28 08:00:22","7b1eb8be57ff77859c7d9ac988e43411","36.157.215.152","Mozilla/5.0 (Windows NT 10.0; WOW64) AppleWebKit/537.36 (KHTML, like Gecko) Chrome/86.0.4240.198 Safari/537.36","WebKit","Chrome","86.0.4240.198","Windows","10.0","null","<div style=""font-size:60px;"">+</div>","null",""
"","","","","","html-button-response","57","161428","0.0-4.0-1.26","164","1","2022-11-28 08:00:22","7b1eb8be57ff77859c7d9ac988e43411","36.157.215.152","Mozilla/5.0 (Windows NT 10.0; WOW64) AppleWebKit/537.36 (KHTML, like Gecko) Chrome/86.0.4240.198 Safari/537.36","WebKit","Chrome","86.0.4240.198","Windows","10.0","1723","<p>作为军队的指挥官，你可以选择发射导弹杀死 <strong>6名</strong> 敌国士兵，但会炸毁附近的 <strong>1棵</strong> 敌国树木。</p> <p>树木的照片如下图所示。</p> <p></p> <img src='stimuli/trees/1.png', style='max-width: 30%;'> </img> <p><strong>你是否选择发射武器？</strong></p>","0",""
"","","","","","html-keyboard-response","58","162430","0.0-4.0-0.27","164","1","2022-11-28 08:00:22","7b1eb8be57ff77859c7d9ac988e43411","36.157.215.152","Mozilla/5.0 (Windows NT 10.0; WOW64) AppleWebKit/537.36 (KHTML, like Gecko) Chrome/86.0.4240.198 Safari/537.36","WebKit","Chrome","86.0.4240.198","Windows","10.0","null","<div style=""font-size:60px;"">+</div>","null",""
"","","","","","html-button-response","59","166421","0.0-4.0-1.27","164","1","2022-11-28 08:00:22","7b1eb8be57ff77859c7d9ac988e43411","36.157.215.152","Mozilla/5.0 (Windows NT 10.0; WOW64) AppleWebKit/537.36 (KHTML, like Gecko) Chrome/86.0.4240.198 Safari/537.36","WebKit","Chrome","86.0.4240.198","Windows","10.0","3988","<p>作为军队的指挥官，你可以选择发射导弹杀死 <strong>1名</strong> 敌国士兵，但会误杀附近的 <strong>1名</strong> 敌国平民。</p> <p>平民照片如下图所示。</p> <p></p> <img src='stimuli/faces/PCF4.jpg', style='max-width: 30%;'> </img> <p><strong>你是否选择发射武器？</strong></p>","1",""
"","","","","","html-keyboard-response","60","167423","0.0-4.0-0.28","164","1","2022-11-28 08:00:22","7b1eb8be57ff77859c7d9ac988e43411","36.157.215.152","Mozilla/5.0 (Windows NT 10.0; WOW64) AppleWebKit/537.36 (KHTML, like Gecko) Chrome/86.0.4240.198 Safari/537.36","WebKit","Chrome","86.0.4240.198","Windows","10.0","null","<div style=""font-size:60px;"">+</div>","null",""
"","","","","","html-button-response","61","169909","0.0-4.0-1.28","164","1","2022-11-28 08:00:22","7b1eb8be57ff77859c7d9ac988e43411","36.157.215.152","Mozilla/5.0 (Windows NT 10.0; WOW64) AppleWebKit/537.36 (KHTML, like Gecko) Chrome/86.0.4240.198 Safari/537.36","WebKit","Chrome","86.0.4240.198","Windows","10.0","2484","<p>作为军队的指挥官，你可以选择发射导弹杀死 <strong>10名</strong> 敌国士兵，但会炸毁附近的 <strong>1棵</strong> 敌国树木。</p> <p>树木的照片如下图所示。</p> <p></p> <img src='stimuli/trees/11.png', style='max-width: 30%;'> </img> <p><strong>你是否选择发射武器？</strong></p>","0",""
"","","","","","html-keyboard-response","62","170912","0.0-4.0-0.29","164","1","2022-11-28 08:00:22","7b1eb8be57ff77859c7d9ac988e43411","36.157.215.152","Mozilla/5.0 (Windows NT 10.0; WOW64) AppleWebKit/537.36 (KHTML, like Gecko) Chrome/86.0.4240.198 Safari/537.36","WebKit","Chrome","86.0.4240.198","Windows","10.0","null","<div style=""font-size:60px;"">+</div>","null",""
"","","","","","html-button-response","63","172661","0.0-4.0-1.29","164","1","2022-11-28 08:00:22","7b1eb8be57ff77859c7d9ac988e43411","36.157.215.152","Mozilla/5.0 (Windows NT 10.0; WOW64) AppleWebKit/537.36 (KHTML, like Gecko) Chrome/86.0.4240.198 Safari/537.36","WebKit","Chrome","86.0.4240.198","Windows","10.0","1746","<p>作为军队的指挥官，你可以选择发射导弹杀死 <strong>10名</strong> 敌国士兵，但会炸毁附近的 <strong>1棵</strong> 敌国树木。</p> <p>树木的照片如下图所示。</p> <p></p> <img src='stimuli/trees/3.png', style='max-width: 30%;'> </img> <p><strong>你是否选择发射武器？</strong></p>","0",""
"","","","","","html-keyboard-response","64","173663","0.0-4.0-0.30","164","1","2022-11-28 08:00:22","7b1eb8be57ff77859c7d9ac988e43411","36.157.215.152","Mozilla/5.0 (Windows NT 10.0; WOW64) AppleWebKit/537.36 (KHTML, like Gecko) Chrome/86.0.4240.198 Safari/537.36","WebKit","Chrome","86.0.4240.198","Windows","10.0","null","<div style=""font-size:60px;"">+</div>","null",""
"","","","","","html-button-response","65","175037","0.0-4.0-1.30","164","1","2022-11-28 08:00:22","7b1eb8be57ff77859c7d9ac988e43411","36.157.215.152","Mozilla/5.0 (Windows NT 10.0; WOW64) AppleWebKit/537.36 (KHTML, like Gecko) Chrome/86.0.4240.198 Safari/537.36","WebKit","Chrome","86.0.4240.198","Windows","10.0","1372","<p>作为军队的指挥官，你可以选择发射导弹杀死 <strong>8名</strong> 敌国士兵，但会误杀附近的 <strong>1名</strong> 敌国平民。</p> <p>平民照片如下图所示。</p> <p></p> <img src='stimuli/faces/PCM4.jpg', style='max-width: 30%;'> </img> <p><strong>你是否选择发射武器？</strong></p>","1",""
"","","","","","html-keyboard-response","66","176039","0.0-4.0-0.31","164","1","2022-11-28 08:00:22","7b1eb8be57ff77859c7d9ac988e43411","36.157.215.152","Mozilla/5.0 (Windows NT 10.0; WOW64) AppleWebKit/537.36 (KHTML, like Gecko) Chrome/86.0.4240.198 Safari/537.36","WebKit","Chrome","86.0.4240.198","Windows","10.0","null","<div style=""font-size:60px;"">+</div>","null",""
"","","","","","html-button-response","67","176828","0.0-4.0-1.31","164","1","2022-11-28 08:00:22","7b1eb8be57ff77859c7d9ac988e43411","36.157.215.152","Mozilla/5.0 (Windows NT 10.0; WOW64) AppleWebKit/537.36 (KHTML, like Gecko) Chrome/86.0.4240.198 Safari/537.36","WebKit","Chrome","86.0.4240.198","Windows","10.0","787","<p>作为军队的指挥官，你可以选择发射导弹杀死 <strong>1名</strong> 敌国士兵，但会误杀附近的 <strong>1名</strong> 敌国平民。</p> <p>平民照片如下图所示。</p> <p></p> <img src='stimuli/faces/PCF7.jpg', style='max-width: 30%;'> </img> <p><strong>你是否选择发射武器？</strong></p>","1",""
"","","","","","html-keyboard-response","68","177831","0.0-4.0-0.32","164","1","2022-11-28 08:00:22","7b1eb8be57ff77859c7d9ac988e43411","36.157.215.152","Mozilla/5.0 (Windows NT 10.0; WOW64) AppleWebKit/537.36 (KHTML, like Gecko) Chrome/86.0.4240.198 Safari/537.36","WebKit","Chrome","86.0.4240.198","Windows","10.0","null","<div style=""font-size:60px;"">+</div>","null",""
"","","","","","html-button-response","69","179045","0.0-4.0-1.32","164","1","2022-11-28 08:00:22","7b1eb8be57ff77859c7d9ac988e43411","36.157.215.152","Mozilla/5.0 (Windows NT 10.0; WOW64) AppleWebKit/537.36 (KHTML, like Gecko) Chrome/86.0.4240.198 Safari/537.36","WebKit","Chrome","86.0.4240.198","Windows","10.0","1211","<p>作为军队的指挥官，你可以选择发射导弹杀死 <strong>10名</strong> 敌国士兵，但会炸毁附近的 <strong>1棵</strong> 敌国树木。</p> <p>树木的照片如下图所示。</p> <p></p> <img src='stimuli/trees/5.png', style='max-width: 30%;'> </img> <p><strong>你是否选择发射武器？</strong></p>","0",""
"","","","","","html-keyboard-response","70","180047","0.0-4.0-0.33","164","1","2022-11-28 08:00:22","7b1eb8be57ff77859c7d9ac988e43411","36.157.215.152","Mozilla/5.0 (Windows NT 10.0; WOW64) AppleWebKit/537.36 (KHTML, like Gecko) Chrome/86.0.4240.198 Safari/537.36","WebKit","Chrome","86.0.4240.198","Windows","10.0","null","<div style=""font-size:60px;"">+</div>","null",""
"","","","","","html-button-response","71","182293","0.0-4.0-1.33","164","1","2022-11-28 08:00:22","7b1eb8be57ff77859c7d9ac988e43411","36.157.215.152","Mozilla/5.0 (Windows NT 10.0; WOW64) AppleWebKit/537.36 (KHTML, like Gecko) Chrome/86.0.4240.198 Safari/537.36","WebKit","Chrome","86.0.4240.198","Windows","10.0","2244","<p>作为军队的指挥官，你可以选择发射导弹杀死 <strong>6名</strong> 敌国士兵，但会炸毁附近的 <strong>1棵</strong> 敌国树木。</p> <p>树木的照片如下图所示。</p> <p></p> <img src='stimuli/trees/9.png', style='max-width: 30%;'> </img> <p><strong>你是否选择发射武器？</strong></p>","0",""
"","","","","","html-keyboard-response","72","183295","0.0-4.0-0.34","164","1","2022-11-28 08:00:22","7b1eb8be57ff77859c7d9ac988e43411","36.157.215.152","Mozilla/5.0 (Windows NT 10.0; WOW64) AppleWebKit/537.36 (KHTML, like Gecko) Chrome/86.0.4240.198 Safari/537.36","WebKit","Chrome","86.0.4240.198","Windows","10.0","null","<div style=""font-size:60px;"">+</div>","null",""
"","","","","","html-button-response","73","184477","0.0-4.0-1.34","164","1","2022-11-28 08:00:22","7b1eb8be57ff77859c7d9ac988e43411","36.157.215.152","Mozilla/5.0 (Windows NT 10.0; WOW64) AppleWebKit/537.36 (KHTML, like Gecko) Chrome/86.0.4240.198 Safari/537.36","WebKit","Chrome","86.0.4240.198","Windows","10.0","1180","<p>作为军队的指挥官，你可以选择发射导弹杀死 <strong>8名</strong> 敌国士兵，但会炸毁附近的 <strong>1棵</strong> 敌国树木。</p> <p>树木的照片如下图所示。</p> <p></p> <img src='stimuli/trees/6.png', style='max-width: 30%;'> </img> <p><strong>你是否选择发射武器？</strong></p>","0",""
"","","","","","html-keyboard-response","74","185479","0.0-4.0-0.35","164","1","2022-11-28 08:00:22","7b1eb8be57ff77859c7d9ac988e43411","36.157.215.152","Mozilla/5.0 (Windows NT 10.0; WOW64) AppleWebKit/537.36 (KHTML, like Gecko) Chrome/86.0.4240.198 Safari/537.36","WebKit","Chrome","86.0.4240.198","Windows","10.0","null","<div style=""font-size:60px;"">+</div>","null",""
"","","","","","html-button-response","75","187101","0.0-4.0-1.35","164","1","2022-11-28 08:00:22","7b1eb8be57ff77859c7d9ac988e43411","36.157.215.152","Mozilla/5.0 (Windows NT 10.0; WOW64) AppleWebKit/537.36 (KHTML, like Gecko) Chrome/86.0.4240.198 Safari/537.36","WebKit","Chrome","86.0.4240.198","Windows","10.0","1620","<p>作为军队的指挥官，你可以选择发射导弹杀死 <strong>7名</strong> 敌国士兵，但会误杀附近的 <strong>1名</strong> 敌国平民。</p> <p>平民照片如下图所示。</p> <p></p> <img src='stimuli/faces/PCM1.jpg', style='max-width: 30%;'> </img> <p><strong>你是否选择发射武器？</strong></p>","1",""
"","","","","","html-keyboard-response","76","188104","0.0-4.0-0.36","164","1","2022-11-28 08:00:22","7b1eb8be57ff77859c7d9ac988e43411","36.157.215.152","Mozilla/5.0 (Windows NT 10.0; WOW64) AppleWebKit/537.36 (KHTML, like Gecko) Chrome/86.0.4240.198 Safari/537.36","WebKit","Chrome","86.0.4240.198","Windows","10.0","null","<div style=""font-size:60px;"">+</div>","null",""
"","","","","","html-button-response","77","188884","0.0-4.0-1.36","164","1","2022-11-28 08:00:22","7b1eb8be57ff77859c7d9ac988e43411","36.157.215.152","Mozilla/5.0 (Windows NT 10.0; WOW64) AppleWebKit/537.36 (KHTML, like Gecko) Chrome/86.0.4240.198 Safari/537.36","WebKit","Chrome","86.0.4240.198","Windows","10.0","779","<p>作为军队的指挥官，你可以选择发射导弹杀死 <strong>6名</strong> 敌国士兵，但会误杀附近的 <strong>1名</strong> 敌国平民。</p> <p>平民照片如下图所示。</p> <p></p> <img src='stimuli/faces/PCF6.jpg', style='max-width: 30%;'> </img> <p><strong>你是否选择发射武器？</strong></p>","1",""
"","","","","","html-keyboard-response","78","189886","0.0-4.0-0.37","164","1","2022-11-28 08:00:22","7b1eb8be57ff77859c7d9ac988e43411","36.157.215.152","Mozilla/5.0 (Windows NT 10.0; WOW64) AppleWebKit/537.36 (KHTML, like Gecko) Chrome/86.0.4240.198 Safari/537.36","WebKit","Chrome","86.0.4240.198","Windows","10.0","null","<div style=""font-size:60px;"">+</div>","null",""
"","","","","","html-button-response","79","191661","0.0-4.0-1.37","164","1","2022-11-28 08:00:22","7b1eb8be57ff77859c7d9ac988e43411","36.157.215.152","Mozilla/5.0 (Windows NT 10.0; WOW64) AppleWebKit/537.36 (KHTML, like Gecko) Chrome/86.0.4240.198 Safari/537.36","WebKit","Chrome","86.0.4240.198","Windows","10.0","1772","<p>作为军队的指挥官，你可以选择发射导弹杀死 <strong>2名</strong> 敌国士兵，但会误杀附近的 <strong>1名</strong> 敌国平民。</p> <p>平民照片如下图所示。</p> <p></p> <img src='stimuli/faces/PCM3.jpg', style='max-width: 30%;'> </img> <p><strong>你是否选择发射武器？</strong></p>","1",""
"","","","","","html-keyboard-response","80","192663","0.0-4.0-0.38","164","1","2022-11-28 08:00:22","7b1eb8be57ff77859c7d9ac988e43411","36.157.215.152","Mozilla/5.0 (Windows NT 10.0; WOW64) AppleWebKit/537.36 (KHTML, like Gecko) Chrome/86.0.4240.198 Safari/537.36","WebKit","Chrome","86.0.4240.198","Windows","10.0","null","<div style=""font-size:60px;"">+</div>","null",""
"","","","","","html-button-response","81","193765","0.0-4.0-1.38","164","1","2022-11-28 08:00:22","7b1eb8be57ff77859c7d9ac988e43411","36.157.215.152","Mozilla/5.0 (Windows NT 10.0; WOW64) AppleWebKit/537.36 (KHTML, like Gecko) Chrome/86.0.4240.198 Safari/537.36","WebKit","Chrome","86.0.4240.198","Windows","10.0","1099","<p>作为军队的指挥官，你可以选择发射导弹杀死 <strong>3名</strong> 敌国士兵，但会误杀附近的 <strong>1名</strong> 敌国平民。</p> <p>平民照片如下图所示。</p> <p></p> <img src='stimuli/faces/PCF2.jpg', style='max-width: 30%;'> </img> <p><strong>你是否选择发射武器？</strong></p>","1",""
"","","","","","html-keyboard-response","82","194769","0.0-4.0-0.39","164","1","2022-11-28 08:00:22","7b1eb8be57ff77859c7d9ac988e43411","36.157.215.152","Mozilla/5.0 (Windows NT 10.0; WOW64) AppleWebKit/537.36 (KHTML, like Gecko) Chrome/86.0.4240.198 Safari/537.36","WebKit","Chrome","86.0.4240.198","Windows","10.0","null","<div style=""font-size:60px;"">+</div>","null",""
"","","","","","html-button-response","83","196205","0.0-4.0-1.39","164","1","2022-11-28 08:00:22","7b1eb8be57ff77859c7d9ac988e43411","36.157.215.152","Mozilla/5.0 (Windows NT 10.0; WOW64) AppleWebKit/537.36 (KHTML, like Gecko) Chrome/86.0.4240.198 Safari/537.36","WebKit","Chrome","86.0.4240.198","Windows","10.0","1434","<p>作为军队的指挥官，你可以选择发射导弹杀死 <strong>1名</strong> 敌国士兵，但会炸毁附近的 <strong>1棵</strong> 敌国树木。</p> <p>树木的照片如下图所示。</p> <p></p> <img src='stimuli/trees/8.png', style='max-width: 30%;'> </img> <p><strong>你是否选择发射武器？</strong></p>","0",""
"","","","","","html-keyboard-response","84","197207","0.0-4.0-0.40","164","1","2022-11-28 08:00:22","7b1eb8be57ff77859c7d9ac988e43411","36.157.215.152","Mozilla/5.0 (Windows NT 10.0; WOW64) AppleWebKit/537.36 (KHTML, like Gecko) Chrome/86.0.4240.198 Safari/537.36","WebKit","Chrome","86.0.4240.198","Windows","10.0","null","<div style=""font-size:60px;"">+</div>","null",""
"","","","","","html-button-response","85","198229","0.0-4.0-1.40","164","1","2022-11-28 08:00:22","7b1eb8be57ff77859c7d9ac988e43411","36.157.215.152","Mozilla/5.0 (Windows NT 10.0; WOW64) AppleWebKit/537.36 (KHTML, like Gecko) Chrome/86.0.4240.198 Safari/537.36","WebKit","Chrome","86.0.4240.198","Windows","10.0","1019","<p>作为军队的指挥官，你可以选择发射导弹杀死 <strong>3名</strong> 敌国士兵，但会炸毁附近的 <strong>1棵</strong> 敌国树木。</p> <p>树木的照片如下图所示。</p> <p></p> <img src='stimuli/trees/4.png', style='max-width: 30%;'> </img> <p><strong>你是否选择发射武器？</strong></p>","0",""
"","","","","","html-keyboard-response","86","199232","0.0-4.0-0.41","164","1","2022-11-28 08:00:22","7b1eb8be57ff77859c7d9ac988e43411","36.157.215.152","Mozilla/5.0 (Windows NT 10.0; WOW64) AppleWebKit/537.36 (KHTML, like Gecko) Chrome/86.0.4240.198 Safari/537.36","WebKit","Chrome","86.0.4240.198","Windows","10.0","null","<div style=""font-size:60px;"">+</div>","null",""
"","","","","","html-button-response","87","200341","0.0-4.0-1.41","164","1","2022-11-28 08:00:22","7b1eb8be57ff77859c7d9ac988e43411","36.157.215.152","Mozilla/5.0 (Windows NT 10.0; WOW64) AppleWebKit/537.36 (KHTML, like Gecko) Chrome/86.0.4240.198 Safari/537.36","WebKit","Chrome","86.0.4240.198","Windows","10.0","1107","<p>作为军队的指挥官，你可以选择发射导弹杀死 <strong>6名</strong> 敌国士兵，但会误杀附近的 <strong>1名</strong> 敌国平民。</p> <p>平民照片如下图所示。</p> <p></p> <img src='stimuli/faces/PCF1.jpg', style='max-width: 30%;'> </img> <p><strong>你是否选择发射武器？</strong></p>","1",""
"","","","","","html-keyboard-response","88","201343","0.0-4.0-0.42","164","1","2022-11-28 08:00:22","7b1eb8be57ff77859c7d9ac988e43411","36.157.215.152","Mozilla/5.0 (Windows NT 10.0; WOW64) AppleWebKit/537.36 (KHTML, like Gecko) Chrome/86.0.4240.198 Safari/537.36","WebKit","Chrome","86.0.4240.198","Windows","10.0","null","<div style=""font-size:60px;"">+</div>","null",""
"","","","","","html-button-response","89","202909","0.0-4.0-1.42","164","1","2022-11-28 08:00:22","7b1eb8be57ff77859c7d9ac988e43411","36.157.215.152","Mozilla/5.0 (Windows NT 10.0; WOW64) AppleWebKit/537.36 (KHTML, like Gecko) Chrome/86.0.4240.198 Safari/537.36","WebKit","Chrome","86.0.4240.198","Windows","10.0","1563","<p>作为军队的指挥官，你可以选择发射导弹杀死 <strong>2名</strong> 敌国士兵，但会炸毁附近的 <strong>1棵</strong> 敌国树木。</p> <p>树木的照片如下图所示。</p> <p></p> <img src='stimuli/trees/7.png', style='max-width: 30%;'> </img> <p><strong>你是否选择发射武器？</strong></p>","0",""
"","","","","","html-keyboard-response","90","203912","0.0-4.0-0.43","164","1","2022-11-28 08:00:22","7b1eb8be57ff77859c7d9ac988e43411","36.157.215.152","Mozilla/5.0 (Windows NT 10.0; WOW64) AppleWebKit/537.36 (KHTML, like Gecko) Chrome/86.0.4240.198 Safari/537.36","WebKit","Chrome","86.0.4240.198","Windows","10.0","null","<div style=""font-size:60px;"">+</div>","null",""
"","","","","","html-button-response","91","204965","0.0-4.0-1.43","164","1","2022-11-28 08:00:22","7b1eb8be57ff77859c7d9ac988e43411","36.157.215.152","Mozilla/5.0 (Windows NT 10.0; WOW64) AppleWebKit/537.36 (KHTML, like Gecko) Chrome/86.0.4240.198 Safari/537.36","WebKit","Chrome","86.0.4240.198","Windows","10.0","1050","<p>作为军队的指挥官，你可以选择发射导弹杀死 <strong>8名</strong> 敌国士兵，但会误杀附近的 <strong>1名</strong> 敌国平民。</p> <p>平民照片如下图所示。</p> <p></p> <img src='stimuli/faces/PCM2.jpg', style='max-width: 30%;'> </img> <p><strong>你是否选择发射武器？</strong></p>","1",""
"","","","","","html-keyboard-response","92","205967","0.0-4.0-0.44","164","1","2022-11-28 08:00:22","7b1eb8be57ff77859c7d9ac988e43411","36.157.215.152","Mozilla/5.0 (Windows NT 10.0; WOW64) AppleWebKit/537.36 (KHTML, like Gecko) Chrome/86.0.4240.198 Safari/537.36","WebKit","Chrome","86.0.4240.198","Windows","10.0","null","<div style=""font-size:60px;"">+</div>","null",""
"","","","","","html-button-response","93","206909","0.0-4.0-1.44","164","1","2022-11-28 08:00:22","7b1eb8be57ff77859c7d9ac988e43411","36.157.215.152","Mozilla/5.0 (Windows NT 10.0; WOW64) AppleWebKit/537.36 (KHTML, like Gecko) Chrome/86.0.4240.198 Safari/537.36","WebKit","Chrome","86.0.4240.198","Windows","10.0","939","<p>作为军队的指挥官，你可以选择发射导弹杀死 <strong>3名</strong> 敌国士兵，但会误杀附近的 <strong>1名</strong> 敌国平民。</p> <p>平民照片如下图所示。</p> <p></p> <img src='stimuli/faces/PCM7.jpg', style='max-width: 30%;'> </img> <p><strong>你是否选择发射武器？</strong></p>","1",""
"","","","","","html-keyboard-response","94","207912","0.0-4.0-0.45","164","1","2022-11-28 08:00:22","7b1eb8be57ff77859c7d9ac988e43411","36.157.215.152","Mozilla/5.0 (Windows NT 10.0; WOW64) AppleWebKit/537.36 (KHTML, like Gecko) Chrome/86.0.4240.198 Safari/537.36","WebKit","Chrome","86.0.4240.198","Windows","10.0","null","<div style=""font-size:60px;"">+</div>","null",""
"","","","","","html-button-response","95","209205","0.0-4.0-1.45","164","1","2022-11-28 08:00:22","7b1eb8be57ff77859c7d9ac988e43411","36.157.215.152","Mozilla/5.0 (Windows NT 10.0; WOW64) AppleWebKit/537.36 (KHTML, like Gecko) Chrome/86.0.4240.198 Safari/537.36","WebKit","Chrome","86.0.4240.198","Windows","10.0","1291","<p>作为军队的指挥官，你可以选择发射导弹杀死 <strong>3名</strong> 敌国士兵，但会炸毁附近的 <strong>1棵</strong> 敌国树木。</p> <p>树木的照片如下图所示。</p> <p></p> <img src='stimuli/trees/3.png', style='max-width: 30%;'> </img> <p><strong>你是否选择发射武器？</strong></p>","0",""
"","","","","","html-keyboard-response","96","210209","0.0-4.0-0.46","164","1","2022-11-28 08:00:22","7b1eb8be57ff77859c7d9ac988e43411","36.157.215.152","Mozilla/5.0 (Windows NT 10.0; WOW64) AppleWebKit/537.36 (KHTML, like Gecko) Chrome/86.0.4240.198 Safari/537.36","WebKit","Chrome","86.0.4240.198","Windows","10.0","null","<div style=""font-size:60px;"">+</div>","null",""
"","","","","","html-button-response","97","211021","0.0-4.0-1.46","164","1","2022-11-28 08:00:22","7b1eb8be57ff77859c7d9ac988e43411","36.157.215.152","Mozilla/5.0 (Windows NT 10.0; WOW64) AppleWebKit/537.36 (KHTML, like Gecko) Chrome/86.0.4240.198 Safari/537.36","WebKit","Chrome","86.0.4240.198","Windows","10.0","810","<p>作为军队的指挥官，你可以选择发射导弹杀死 <strong>3名</strong> 敌国士兵，但会炸毁附近的 <strong>1棵</strong> 敌国树木。</p> <p>树木的照片如下图所示。</p> <p></p> <img src='stimuli/trees/1.png', style='max-width: 30%;'> </img> <p><strong>你是否选择发射武器？</strong></p>","0",""
"","","","","","html-keyboard-response","98","212023","0.0-4.0-0.47","164","1","2022-11-28 08:00:22","7b1eb8be57ff77859c7d9ac988e43411","36.157.215.152","Mozilla/5.0 (Windows NT 10.0; WOW64) AppleWebKit/537.36 (KHTML, like Gecko) Chrome/86.0.4240.198 Safari/537.36","WebKit","Chrome","86.0.4240.198","Windows","10.0","null","<div style=""font-size:60px;"">+</div>","null",""
"","","","","","html-button-response","99","213093","0.0-4.0-1.47","164","1","2022-11-28 08:00:22","7b1eb8be57ff77859c7d9ac988e43411","36.157.215.152","Mozilla/5.0 (Windows NT 10.0; WOW64) AppleWebKit/537.36 (KHTML, like Gecko) Chrome/86.0.4240.198 Safari/537.36","WebKit","Chrome","86.0.4240.198","Windows","10.0","1068","<p>作为军队的指挥官，你可以选择发射导弹杀死 <strong>10名</strong> 敌国士兵，但会误杀附近的 <strong>1名</strong> 敌国平民。</p> <p>平民照片如下图所示。</p> <p></p> <img src='stimuli/faces/PCF3.jpg', style='max-width: 30%;'> </img> <p><strong>你是否选择发射武器？</strong></p>","1",""
"","","","","","html-keyboard-response","100","214096","0.0-4.0-0.48","164","1","2022-11-28 08:00:22","7b1eb8be57ff77859c7d9ac988e43411","36.157.215.152","Mozilla/5.0 (Windows NT 10.0; WOW64) AppleWebKit/537.36 (KHTML, like Gecko) Chrome/86.0.4240.198 Safari/537.36","WebKit","Chrome","86.0.4240.198","Windows","10.0","null","<div style=""font-size:60px;"">+</div>","null",""
"","","","","","html-button-response","101","215141","0.0-4.0-1.48","164","1","2022-11-28 08:00:22","7b1eb8be57ff77859c7d9ac988e43411","36.157.215.152","Mozilla/5.0 (Windows NT 10.0; WOW64) AppleWebKit/537.36 (KHTML, like Gecko) Chrome/86.0.4240.198 Safari/537.36","WebKit","Chrome","86.0.4240.198","Windows","10.0","1042","<p>作为军队的指挥官，你可以选择发射导弹杀死 <strong>8名</strong> 敌国士兵，但会误杀附近的 <strong>1名</strong> 敌国平民。</p> <p>平民照片如下图所示。</p> <p></p> <img src='stimuli/faces/PCF8.jpg', style='max-width: 30%;'> </img> <p><strong>你是否选择发射武器？</strong></p>","1",""
"","","","","","html-keyboard-response","102","216143","0.0-4.0-0.49","164","1","2022-11-28 08:00:22","7b1eb8be57ff77859c7d9ac988e43411","36.157.215.152","Mozilla/5.0 (Windows NT 10.0; WOW64) AppleWebKit/537.36 (KHTML, like Gecko) Chrome/86.0.4240.198 Safari/537.36","WebKit","Chrome","86.0.4240.198","Windows","10.0","null","<div style=""font-size:60px;"">+</div>","null",""
"","","","","","html-button-response","103","217068","0.0-4.0-1.49","164","1","2022-11-28 08:00:22","7b1eb8be57ff77859c7d9ac988e43411","36.157.215.152","Mozilla/5.0 (Windows NT 10.0; WOW64) AppleWebKit/537.36 (KHTML, like Gecko) Chrome/86.0.4240.198 Safari/537.36","WebKit","Chrome","86.0.4240.198","Windows","10.0","923","<p>作为军队的指挥官，你可以选择发射导弹杀死 <strong>5名</strong> 敌国士兵，但会误杀附近的 <strong>1名</strong> 敌国平民。</p> <p>平民照片如下图所示。</p> <p></p> <img src='stimuli/faces/PCM4.jpg', style='max-width: 30%;'> </img> <p><strong>你是否选择发射武器？</strong></p>","1",""
"","","","","","html-keyboard-response","104","218071","0.0-4.0-0.50","164","1","2022-11-28 08:00:22","7b1eb8be57ff77859c7d9ac988e43411","36.157.215.152","Mozilla/5.0 (Windows NT 10.0; WOW64) AppleWebKit/537.36 (KHTML, like Gecko) Chrome/86.0.4240.198 Safari/537.36","WebKit","Chrome","86.0.4240.198","Windows","10.0","null","<div style=""font-size:60px;"">+</div>","null",""
"","","","","","html-button-response","105","219533","0.0-4.0-1.50","164","1","2022-11-28 08:00:22","7b1eb8be57ff77859c7d9ac988e43411","36.157.215.152","Mozilla/5.0 (Windows NT 10.0; WOW64) AppleWebKit/537.36 (KHTML, like Gecko) Chrome/86.0.4240.198 Safari/537.36","WebKit","Chrome","86.0.4240.198","Windows","10.0","1460","<p>作为军队的指挥官，你可以选择发射导弹杀死 <strong>6名</strong> 敌国士兵，但会炸毁附近的 <strong>1棵</strong> 敌国树木。</p> <p>树木的照片如下图所示。</p> <p></p> <img src='stimuli/trees/14.png', style='max-width: 30%;'> </img> <p><strong>你是否选择发射武器？</strong></p>","0",""
"","","","","","html-keyboard-response","106","220534","0.0-4.0-0.51","164","1","2022-11-28 08:00:22","7b1eb8be57ff77859c7d9ac988e43411","36.157.215.152","Mozilla/5.0 (Windows NT 10.0; WOW64) AppleWebKit/537.36 (KHTML, like Gecko) Chrome/86.0.4240.198 Safari/537.36","WebKit","Chrome","86.0.4240.198","Windows","10.0","null","<div style=""font-size:60px;"">+</div>","null",""
"","","","","","html-button-response","107","222253","0.0-4.0-1.51","164","1","2022-11-28 08:00:22","7b1eb8be57ff77859c7d9ac988e43411","36.157.215.152","Mozilla/5.0 (Windows NT 10.0; WOW64) AppleWebKit/537.36 (KHTML, like Gecko) Chrome/86.0.4240.198 Safari/537.36","WebKit","Chrome","86.0.4240.198","Windows","10.0","1716","<p>作为军队的指挥官，你可以选择发射导弹杀死 <strong>5名</strong> 敌国士兵，但会误杀附近的 <strong>1名</strong> 敌国平民。</p> <p>平民照片如下图所示。</p> <p></p> <img src='stimuli/faces/PCM1.jpg', style='max-width: 30%;'> </img> <p><strong>你是否选择发射武器？</strong></p>","1",""
"","","","","","html-keyboard-response","108","223256","0.0-4.0-0.52","164","1","2022-11-28 08:00:22","7b1eb8be57ff77859c7d9ac988e43411","36.157.215.152","Mozilla/5.0 (Windows NT 10.0; WOW64) AppleWebKit/537.36 (KHTML, like Gecko) Chrome/86.0.4240.198 Safari/537.36","WebKit","Chrome","86.0.4240.198","Windows","10.0","null","<div style=""font-size:60px;"">+</div>","null",""
"","","","","","html-button-response","109","224405","0.0-4.0-1.52","164","1","2022-11-28 08:00:22","7b1eb8be57ff77859c7d9ac988e43411","36.157.215.152","Mozilla/5.0 (Windows NT 10.0; WOW64) AppleWebKit/537.36 (KHTML, like Gecko) Chrome/86.0.4240.198 Safari/537.36","WebKit","Chrome","86.0.4240.198","Windows","10.0","1146","<p>作为军队的指挥官，你可以选择发射导弹杀死 <strong>3名</strong> 敌国士兵，但会误杀附近的 <strong>1名</strong> 敌国平民。</p> <p>平民照片如下图所示。</p> <p></p> <img src='stimuli/faces/PCF8.jpg', style='max-width: 30%;'> </img> <p><strong>你是否选择发射武器？</strong></p>","1",""
"","","","","","html-keyboard-response","110","225407","0.0-4.0-0.53","164","1","2022-11-28 08:00:22","7b1eb8be57ff77859c7d9ac988e43411","36.157.215.152","Mozilla/5.0 (Windows NT 10.0; WOW64) AppleWebKit/537.36 (KHTML, like Gecko) Chrome/86.0.4240.198 Safari/537.36","WebKit","Chrome","86.0.4240.198","Windows","10.0","null","<div style=""font-size:60px;"">+</div>","null",""
"","","","","","html-button-response","111","226181","0.0-4.0-1.53","164","1","2022-11-28 08:00:22","7b1eb8be57ff77859c7d9ac988e43411","36.157.215.152","Mozilla/5.0 (Windows NT 10.0; WOW64) AppleWebKit/537.36 (KHTML, like Gecko) Chrome/86.0.4240.198 Safari/537.36","WebKit","Chrome","86.0.4240.198","Windows","10.0","771","<p>作为军队的指挥官，你可以选择发射导弹杀死 <strong>7名</strong> 敌国士兵，但会误杀附近的 <strong>1名</strong> 敌国平民。</p> <p>平民照片如下图所示。</p> <p></p> <img src='stimuli/faces/PCM6.jpg', style='max-width: 30%;'> </img> <p><strong>你是否选择发射武器？</strong></p>","1",""
"","","","","","html-keyboard-response","112","227184","0.0-4.0-0.54","164","1","2022-11-28 08:00:22","7b1eb8be57ff77859c7d9ac988e43411","36.157.215.152","Mozilla/5.0 (Windows NT 10.0; WOW64) AppleWebKit/537.36 (KHTML, like Gecko) Chrome/86.0.4240.198 Safari/537.36","WebKit","Chrome","86.0.4240.198","Windows","10.0","null","<div style=""font-size:60px;"">+</div>","null",""
"","","","","","html-button-response","113","228109","0.0-4.0-1.54","164","1","2022-11-28 08:00:22","7b1eb8be57ff77859c7d9ac988e43411","36.157.215.152","Mozilla/5.0 (Windows NT 10.0; WOW64) AppleWebKit/537.36 (KHTML, like Gecko) Chrome/86.0.4240.198 Safari/537.36","WebKit","Chrome","86.0.4240.198","Windows","10.0","922","<p>作为军队的指挥官，你可以选择发射导弹杀死 <strong>2名</strong> 敌国士兵，但会误杀附近的 <strong>1名</strong> 敌国平民。</p> <p>平民照片如下图所示。</p> <p></p> <img src='stimuli/faces/PCF5.jpg', style='max-width: 30%;'> </img> <p><strong>你是否选择发射武器？</strong></p>","1",""
"","","","","","html-keyboard-response","114","229112","0.0-4.0-0.55","164","1","2022-11-28 08:00:22","7b1eb8be57ff77859c7d9ac988e43411","36.157.215.152","Mozilla/5.0 (Windows NT 10.0; WOW64) AppleWebKit/537.36 (KHTML, like Gecko) Chrome/86.0.4240.198 Safari/537.36","WebKit","Chrome","86.0.4240.198","Windows","10.0","null","<div style=""font-size:60px;"">+</div>","null",""
"","","","","","html-button-response","115","230205","0.0-4.0-1.55","164","1","2022-11-28 08:00:22","7b1eb8be57ff77859c7d9ac988e43411","36.157.215.152","Mozilla/5.0 (Windows NT 10.0; WOW64) AppleWebKit/537.36 (KHTML, like Gecko) Chrome/86.0.4240.198 Safari/537.36","WebKit","Chrome","86.0.4240.198","Windows","10.0","1091","<p>作为军队的指挥官，你可以选择发射导弹杀死 <strong>5名</strong> 敌国士兵，但会误杀附近的 <strong>1名</strong> 敌国平民。</p> <p>平民照片如下图所示。</p> <p></p> <img src='stimuli/faces/PCF1.jpg', style='max-width: 30%;'> </img> <p><strong>你是否选择发射武器？</strong></p>","1",""
"","","","","","html-keyboard-response","116","231208","0.0-4.0-0.56","164","1","2022-11-28 08:00:22","7b1eb8be57ff77859c7d9ac988e43411","36.157.215.152","Mozilla/5.0 (Windows NT 10.0; WOW64) AppleWebKit/537.36 (KHTML, like Gecko) Chrome/86.0.4240.198 Safari/537.36","WebKit","Chrome","86.0.4240.198","Windows","10.0","null","<div style=""font-size:60px;"">+</div>","null",""
"","","","","","html-button-response","117","232980","0.0-4.0-1.56","164","1","2022-11-28 08:00:22","7b1eb8be57ff77859c7d9ac988e43411","36.157.215.152","Mozilla/5.0 (Windows NT 10.0; WOW64) AppleWebKit/537.36 (KHTML, like Gecko) Chrome/86.0.4240.198 Safari/537.36","WebKit","Chrome","86.0.4240.198","Windows","10.0","1770","<p>作为军队的指挥官，你可以选择发射导弹杀死 <strong>5名</strong> 敌国士兵，但会炸毁附近的 <strong>1棵</strong> 敌国树木。</p> <p>树木的照片如下图所示。</p> <p></p> <img src='stimuli/trees/9.png', style='max-width: 30%;'> </img> <p><strong>你是否选择发射武器？</strong></p>","0",""
"","","","","","html-keyboard-response","118","233984","0.0-4.0-0.57","164","1","2022-11-28 08:00:22","7b1eb8be57ff77859c7d9ac988e43411","36.157.215.152","Mozilla/5.0 (Windows NT 10.0; WOW64) AppleWebKit/537.36 (KHTML, like Gecko) Chrome/86.0.4240.198 Safari/537.36","WebKit","Chrome","86.0.4240.198","Windows","10.0","null","<div style=""font-size:60px;"">+</div>","null",""
"","","","","","html-button-response","119","235373","0.0-4.0-1.57","164","1","2022-11-28 08:00:22","7b1eb8be57ff77859c7d9ac988e43411","36.157.215.152","Mozilla/5.0 (Windows NT 10.0; WOW64) AppleWebKit/537.36 (KHTML, like Gecko) Chrome/86.0.4240.198 Safari/537.36","WebKit","Chrome","86.0.4240.198","Windows","10.0","1387","<p>作为军队的指挥官，你可以选择发射导弹杀死 <strong>4名</strong> 敌国士兵，但会炸毁附近的 <strong>1棵</strong> 敌国树木。</p> <p>树木的照片如下图所示。</p> <p></p> <img src='stimuli/trees/13.png', style='max-width: 30%;'> </img> <p><strong>你是否选择发射武器？</strong></p>","0",""
"","","","","","html-keyboard-response","120","236376","0.0-4.0-0.58","164","1","2022-11-28 08:00:22","7b1eb8be57ff77859c7d9ac988e43411","36.157.215.152","Mozilla/5.0 (Windows NT 10.0; WOW64) AppleWebKit/537.36 (KHTML, like Gecko) Chrome/86.0.4240.198 Safari/537.36","WebKit","Chrome","86.0.4240.198","Windows","10.0","null","<div style=""font-size:60px;"">+</div>","null",""
"","","","","","html-button-response","121","240428","0.0-4.0-1.58","164","1","2022-11-28 08:00:22","7b1eb8be57ff77859c7d9ac988e43411","36.157.215.152","Mozilla/5.0 (Windows NT 10.0; WOW64) AppleWebKit/537.36 (KHTML, like Gecko) Chrome/86.0.4240.198 Safari/537.36","WebKit","Chrome","86.0.4240.198","Windows","10.0","4050","<p>作为军队的指挥官，你可以选择发射导弹杀死 <strong>9名</strong> 敌国士兵，但会误杀附近的 <strong>1名</strong> 敌国平民。</p> <p>平民照片如下图所示。</p> <p></p> <img src='stimuli/faces/PCF4.jpg', style='max-width: 30%;'> </img> <p><strong>你是否选择发射武器？</strong></p>","1",""
"","","","","","html-keyboard-response","122","241431","0.0-4.0-0.59","164","1","2022-11-28 08:00:22","7b1eb8be57ff77859c7d9ac988e43411","36.157.215.152","Mozilla/5.0 (Windows NT 10.0; WOW64) AppleWebKit/537.36 (KHTML, like Gecko) Chrome/86.0.4240.198 Safari/537.36","WebKit","Chrome","86.0.4240.198","Windows","10.0","null","<div style=""font-size:60px;"">+</div>","null",""
"","","","","","html-button-response","123","242685","0.0-4.0-1.59","164","1","2022-11-28 08:00:22","7b1eb8be57ff77859c7d9ac988e43411","36.157.215.152","Mozilla/5.0 (Windows NT 10.0; WOW64) AppleWebKit/537.36 (KHTML, like Gecko) Chrome/86.0.4240.198 Safari/537.36","WebKit","Chrome","86.0.4240.198","Windows","10.0","1251","<p>作为军队的指挥官，你可以选择发射导弹杀死 <strong>1名</strong> 敌国士兵，但会炸毁附近的 <strong>1棵</strong> 敌国树木。</p> <p>树木的照片如下图所示。</p> <p></p> <img src='stimuli/trees/12.png', style='max-width: 30%;'> </img> <p><strong>你是否选择发射武器？</strong></p>","0",""
"","","","","","html-keyboard-response","124","243688","0.0-4.0-0.60","164","1","2022-11-28 08:00:22","7b1eb8be57ff77859c7d9ac988e43411","36.157.215.152","Mozilla/5.0 (Windows NT 10.0; WOW64) AppleWebKit/537.36 (KHTML, like Gecko) Chrome/86.0.4240.198 Safari/537.36","WebKit","Chrome","86.0.4240.198","Windows","10.0","null","<div style=""font-size:60px;"">+</div>","null",""
"","","","","","html-button-response","125","244477","0.0-4.0-1.60","164","1","2022-11-28 08:00:22","7b1eb8be57ff77859c7d9ac988e43411","36.157.215.152","Mozilla/5.0 (Windows NT 10.0; WOW64) AppleWebKit/537.36 (KHTML, like Gecko) Chrome/86.0.4240.198 Safari/537.36","WebKit","Chrome","86.0.4240.198","Windows","10.0","786","<p>作为军队的指挥官，你可以选择发射导弹杀死 <strong>6名</strong> 敌国士兵，但会炸毁附近的 <strong>1棵</strong> 敌国树木。</p> <p>树木的照片如下图所示。</p> <p></p> <img src='stimuli/trees/13.png', style='max-width: 30%;'> </img> <p><strong>你是否选择发射武器？</strong></p>","0",""
"","","","","","html-keyboard-response","126","245480","0.0-4.0-0.61","164","1","2022-11-28 08:00:22","7b1eb8be57ff77859c7d9ac988e43411","36.157.215.152","Mozilla/5.0 (Windows NT 10.0; WOW64) AppleWebKit/537.36 (KHTML, like Gecko) Chrome/86.0.4240.198 Safari/537.36","WebKit","Chrome","86.0.4240.198","Windows","10.0","null","<div style=""font-size:60px;"">+</div>","null",""
"","","","","","html-button-response","127","247324","0.0-4.0-1.61","164","1","2022-11-28 08:00:22","7b1eb8be57ff77859c7d9ac988e43411","36.157.215.152","Mozilla/5.0 (Windows NT 10.0; WOW64) AppleWebKit/537.36 (KHTML, like Gecko) Chrome/86.0.4240.198 Safari/537.36","WebKit","Chrome","86.0.4240.198","Windows","10.0","1842","<p>作为军队的指挥官，你可以选择发射导弹杀死 <strong>5名</strong> 敌国士兵，但会误杀附近的 <strong>1名</strong> 敌国平民。</p> <p>平民照片如下图所示。</p> <p></p> <img src='stimuli/faces/PCF6.jpg', style='max-width: 30%;'> </img> <p><strong>你是否选择发射武器？</strong></p>","1",""
"","","","","","html-keyboard-response","128","248328","0.0-4.0-0.62","164","1","2022-11-28 08:00:22","7b1eb8be57ff77859c7d9ac988e43411","36.157.215.152","Mozilla/5.0 (Windows NT 10.0; WOW64) AppleWebKit/537.36 (KHTML, like Gecko) Chrome/86.0.4240.198 Safari/537.36","WebKit","Chrome","86.0.4240.198","Windows","10.0","null","<div style=""font-size:60px;"">+</div>","null",""
"","","","","","html-button-response","129","249629","0.0-4.0-1.62","164","1","2022-11-28 08:00:22","7b1eb8be57ff77859c7d9ac988e43411","36.157.215.152","Mozilla/5.0 (Windows NT 10.0; WOW64) AppleWebKit/537.36 (KHTML, like Gecko) Chrome/86.0.4240.198 Safari/537.36","WebKit","Chrome","86.0.4240.198","Windows","10.0","1298","<p>作为军队的指挥官，你可以选择发射导弹杀死 <strong>6名</strong> 敌国士兵，但会误杀附近的 <strong>1名</strong> 敌国平民。</p> <p>平民照片如下图所示。</p> <p></p> <img src='stimuli/faces/PCF2.jpg', style='max-width: 30%;'> </img> <p><strong>你是否选择发射武器？</strong></p>","1",""
"","","","","","html-keyboard-response","130","250632","0.0-4.0-0.63","164","1","2022-11-28 08:00:22","7b1eb8be57ff77859c7d9ac988e43411","36.157.215.152","Mozilla/5.0 (Windows NT 10.0; WOW64) AppleWebKit/537.36 (KHTML, like Gecko) Chrome/86.0.4240.198 Safari/537.36","WebKit","Chrome","86.0.4240.198","Windows","10.0","null","<div style=""font-size:60px;"">+</div>","null",""
"","","","","","html-button-response","131","251749","0.0-4.0-1.63","164","1","2022-11-28 08:00:22","7b1eb8be57ff77859c7d9ac988e43411","36.157.215.152","Mozilla/5.0 (Windows NT 10.0; WOW64) AppleWebKit/537.36 (KHTML, like Gecko) Chrome/86.0.4240.198 Safari/537.36","WebKit","Chrome","86.0.4240.198","Windows","10.0","1115","<p>作为军队的指挥官，你可以选择发射导弹杀死 <strong>1名</strong> 敌国士兵，但会误杀附近的 <strong>1名</strong> 敌国平民。</p> <p>平民照片如下图所示。</p> <p></p> <img src='stimuli/faces/PCF3.jpg', style='max-width: 30%;'> </img> <p><strong>你是否选择发射武器？</strong></p>","1",""
"","","","","","survey-multi-choice","132","314141","0.0-5.0","164","1","2022-11-28 08:00:22","7b1eb8be57ff77859c7d9ac988e43411","36.157.215.152","Mozilla/5.0 (Windows NT 10.0; WOW64) AppleWebKit/537.36 (KHTML, like Gecko) Chrome/86.0.4240.198 Safari/537.36","WebKit","Chrome","86.0.4240.198","Windows","10.0","62389","","{""Attention1"":""""}","[0]"
"","","","","","html-button-response","133","389996","0.0-6.0","164","1","2022-11-28 08:00:22","7b1eb8be57ff77859c7d9ac988e43411","36.157.215.152","Mozilla/5.0 (Windows NT 10.0; WOW64) AppleWebKit/537.36 (KHTML, like Gecko) Chrome/86.0.4240.198 Safari/537.36","WebKit","Chrome","86.0.4240.198","Windows","10.0","75851","<p style=""font-size:20px;font-weight:bold;"">恭喜！</p><p>你已经完成了实验的第一部分。</p><p>请休息放松一下，然后进入第二部分。</p><p>这部分大约需要10分钟。</p>","0",""
"","","","","","survey-text","134","443421","0.0-7.0","164","1","2022-11-28 08:00:22","7b1eb8be57ff77859c7d9ac988e43411","36.157.215.152","Mozilla/5.0 (Windows NT 10.0; WOW64) AppleWebKit/537.36 (KHTML, like Gecko) Chrome/86.0.4240.198 Safari/537.36","WebKit","Chrome","86.0.4240.198","Windows","10.0","52415","","{""Age"":""20"",""Nation"":""中国"",""Born"":""湖南长沙"",""Live"":""湖南长沙"",""Ethnic"":""汉族"",""Alipay"":""19186500706"",""ID"":""""}",""
"","","","","","survey-multi-choice","135","460270","0.0-8.0","164","1","2022-11-28 08:00:22","7b1eb8be57ff77859c7d9ac988e43411","36.157.215.152","Mozilla/5.0 (Windows NT 10.0; WOW64) AppleWebKit/537.36 (KHTML, like Gecko) Chrome/86.0.4240.198 Safari/537.36","WebKit","Chrome","86.0.4240.198","Windows","10.0","16846","","{""Gender"":""男"",""Education"":""本科毕业"",""Income"":""￥140,000-￥269,999"",""Children"":""1"",""Race"":""亚洲人""}","[0,1,2,3,4]"
"","","","","","survey-multi-select","136","475301","0.0-9.0","164","1","2022-11-28 08:00:22","7b1eb8be57ff77859c7d9ac988e43411","36.157.215.152","Mozilla/5.0 (Windows NT 10.0; WOW64) AppleWebKit/537.36 (KHTML, like Gecko) Chrome/86.0.4240.198 Safari/537.36","WebKit","Chrome","86.0.4240.198","Windows","10.0","15022","","{""Marriage"":[""已婚""],""Religion"":[""无宗教信仰""]}","[0,1]"
"","","","","","survey-multi-choice","137","481044","0.0-10.0","164","1","2022-11-28 08:00:22","7b1eb8be57ff77859c7d9ac988e43411","36.157.215.152","Mozilla/5.0 (Windows NT 10.0; WOW64) AppleWebKit/537.36 (KHTML, like Gecko) Chrome/86.0.4240.198 Safari/537.36","WebKit","Chrome","86.0.4240.198","Windows","10.0","5738","","{""SES"":""7""}","[0]"
"","","","","","html-button-response","138","485900","0.0-11.0","164","1","2022-11-28 08:00:22","7b1eb8be57ff77859c7d9ac988e43411","36.157.215.152","Mozilla/5.0 (Windows NT 10.0; WOW64) AppleWebKit/537.36 (KHTML, like Gecko) Chrome/86.0.4240.198 Safari/537.36","WebKit","Chrome","86.0.4240.198","Windows","10.0","4851","<p><strong>请判断下列陈述在多大程度上可以形容你？</p><p> (1 = ""和我一点都不像"" to 5 = ""非常像我"".)</strong></p>","0",""
"","","","","","survey-likert","139","541021","0.0-12.0","164","1","2022-11-28 08:00:22","7b1eb8be57ff77859c7d9ac988e43411","36.157.215.152","Mozilla/5.0 (Windows NT 10.0; WOW64) AppleWebKit/537.36 (KHTML, like Gecko) Chrome/86.0.4240.198 Safari/537.36","WebKit","Chrome","86.0.4240.198","Windows","10.0","55117","","{""Aggression1"":3,""Aggression2"":3,""Aggression3"":4,""Aggression4"":3,""Aggression5"":4,""Aggression6"":4,""Aggression7"":0,""Aggression8"":3,""Aggression9"":4}","[0,1,2,3,4,5,6,7,8]"
"","","","","","html-button-response","140","543043","0.0-13.0","164","1","2022-11-28 08:00:22","7b1eb8be57ff77859c7d9ac988e43411","36.157.215.152","Mozilla/5.0 (Windows NT 10.0; WOW64) AppleWebKit/537.36 (KHTML, like Gecko) Chrome/86.0.4240.198 Safari/537.36","WebKit","Chrome","86.0.4240.198","Windows","10.0","2018","<p><strong>请判断你在多大程度上同意下列陈述。</strong></p>","0",""
"","","","","","survey-likert","141","616663","0.0-14.0","164","1","2022-11-28 08:00:22","7b1eb8be57ff77859c7d9ac988e43411","36.157.215.152","Mozilla/5.0 (Windows NT 10.0; WOW64) AppleWebKit/537.36 (KHTML, like Gecko) Chrome/86.0.4240.198 Safari/537.36","WebKit","Chrome","86.0.4240.198","Windows","10.0","73613","","{""scale11"":3,""scale26"":2,""scale18"":3,""scale14"":4,""scale4"":3,""scale8"":4,""scale25"":3,""scale15"":4,""scale13"":0,""scale5"":3,""scale20"":3,""scale7"":0,""scale27"":3,""scale23"":4,""scale9"":3,""scale17"":4,""scale10"":3,""scale6"":4,""scale16"":3,""scale1"":3,""scale12"":4,""scale3"":3,""scale19"":2,""scale28"":1,""scale24"":3,""scale2"":3,""scale22"":4,""scale21"":3}","[10,25,17,13,3,7,24,14,12,4,19,6,26,22,8,16,9,5,15,0,11,2,18,27,23,1,21,20]"
"","","","","","html-button-response","142","664116","0.0-15.0","164","1","2022-11-28 08:00:22","7b1eb8be57ff77859c7d9ac988e43411","36.157.215.152","Mozilla/5.0 (Windows NT 10.0; WOW64) AppleWebKit/537.36 (KHTML, like Gecko) Chrome/86.0.4240.198 Safari/537.36","WebKit","Chrome","86.0.4240.198","Windows","10.0","47448","<p><strong>请判断你在多大程度上同意下列陈述。</strong></p>","0",""
"","","","","","survey-likert","143","716725","0.0-16.0","164","1","2022-11-28 08:00:22","7b1eb8be57ff77859c7d9ac988e43411","36.157.215.152","Mozilla/5.0 (Windows NT 10.0; WOW64) AppleWebKit/537.36 (KHTML, like Gecko) Chrome/86.0.4240.198 Safari/537.36","WebKit","Chrome","86.0.4240.198","Windows","10.0","52605","","{""sdo7"":2,""sdo10"":6,""sdo6"":4,""sdo11"":5,""sdo15"":5,""sdo5"":4,""sdo1"":6,""sdo3"":5,""sdo13"":6,""sdo9"":6,""sdo8"":1,""sdo14"":5,""sdo2"":5,""sdo12"":6,""sdo4"":0,""sdo16"":5}","[6,9,5,10,14,4,0,2,12,8,7,13,1,11,3,15]"
"","","","","","html-button-response","144","718779","0.0-17.0","164","1","2022-11-28 08:00:22","7b1eb8be57ff77859c7d9ac988e43411","36.157.215.152","Mozilla/5.0 (Windows NT 10.0; WOW64) AppleWebKit/537.36 (KHTML, like Gecko) Chrome/86.0.4240.198 Safari/537.36","WebKit","Chrome","86.0.4240.198","Windows","10.0","2050","<p><strong>请判断你在多大程度上同意下列陈述。</strong></p>","0",""
"","","","","","survey-likert","145","815973","0.0-18.0","164","1","2022-11-28 08:00:22","7b1eb8be57ff77859c7d9ac988e43411","36.157.215.152","Mozilla/5.0 (Windows NT 10.0; WOW64) AppleWebKit/537.36 (KHTML, like Gecko) Chrome/86.0.4240.198 Safari/537.36","WebKit","Chrome","86.0.4240.198","Windows","10.0","97190","","{""caring1"":4,""liking1"":0,""caring2"":4,""protection1"":4,""liking2"":0,""caring3"":4,""protection2"":4,""liking3"":0,""protection3"":4,""caring4"":4,""liking4"":0,""protection4"":4,""caring5"":4,""liking5"":0,""protection5"":4}","[0,1,2,3,4,5,6,7,8,9,10,11,12,13,14]"
"","","","","","html-button-response","146","817803","0.0-19.0","164","1","2022-11-28 08:00:22","7b1eb8be57ff77859c7d9ac988e43411","36.157.215.152","Mozilla/5.0 (Windows NT 10.0; WOW64) AppleWebKit/537.36 (KHTML, like Gecko) Chrome/86.0.4240.198 Safari/537.36","WebKit","Chrome","86.0.4240.198","Windows","10.0","1825","<p><strong>请判断下列场景中你的内心感受有多柔软。</strong></p>","0",""
"","","","","","survey-likert","147","840317","0.0-20.0","164","1","2022-11-28 08:00:22","7b1eb8be57ff77859c7d9ac988e43411","36.157.215.152","Mozilla/5.0 (Windows NT 10.0; WOW64) AppleWebKit/537.36 (KHTML, like Gecko) Chrome/86.0.4240.198 Safari/537.36","WebKit","Chrome","86.0.4240.198","Windows","10.0","22510","","{""tenderness-positive1"":4,""tenderness-negative1"":3,""tenderness-negative2"":1,""tenderness-positive2"":4,""tenderness-positive3"":3,""tenderness-negative3"":3,""tenderness-positive4"":4,""tenderness-negative4"":1,""tenderness-negative5"":3,""tenderness-positive5"":4}","[0,1,2,3,4,5,6,7,8,9]"
"","","","","","survey-multi-choice","148","860835","0.0-21.0","164","1","2022-11-28 08:00:22","7b1eb8be57ff77859c7d9ac988e43411","36.157.215.152","Mozilla/5.0 (Windows NT 10.0; WOW64) AppleWebKit/537.36 (KHTML, like Gecko) Chrome/86.0.4240.198 Safari/537.36","WebKit","Chrome","86.0.4240.198","Windows","10.0","20514","","{""Attention2"":""其他""}","[0]"
"","","","","","html-button-response","149","863124","0.0-22.0","164","1","2022-11-28 08:00:22","7b1eb8be57ff77859c7d9ac988e43411","36.157.215.152","Mozilla/5.0 (Windows NT 10.0; WOW64) AppleWebKit/537.36 (KHTML, like Gecko) Chrome/86.0.4240.198 Safari/537.36","WebKit","Chrome","86.0.4240.198","Windows","10.0","2284","<p><strong>请判断你在多大程度上同意下列陈述。</strong></p>","0",""
"","","","","","survey-likert","150","957302","0.0-23.0","164","1","2022-11-28 08:00:22","7b1eb8be57ff77859c7d9ac988e43411","36.157.215.152","Mozilla/5.0 (Windows NT 10.0; WOW64) AppleWebKit/537.36 (KHTML, like Gecko) Chrome/86.0.4240.198 Safari/537.36","WebKit","Chrome","86.0.4240.198","Windows","10.0","94174","","{""Nation7"":3,""Nation3"":3,""Nation8"":0,""Patri2"":4,""Nation5"":0,""Patri4"":4,""Patri3"":3,""Patri5"":4,""Patri12"":0,""Nation6"":4,""Patri10"":0,""Nation2"":4,""Patri8"":4,""Patri9"":0,""Patri7"":4,""Patri11"":0,""Patri1"":4,""Patri6"":4,""Nation1"":3,""Nation4"":3}","[18,14,19,1,16,3,2,4,11,17,9,13,7,8,6,10,0,5,12,15]"
"","","","","","html-button-response","151","959131","0.0-24.0","164","1","2022-11-28 08:00:22","7b1eb8be57ff77859c7d9ac988e43411","36.157.215.152","Mozilla/5.0 (Windows NT 10.0; WOW64) AppleWebKit/537.36 (KHTML, like Gecko) Chrome/86.0.4240.198 Safari/537.36","WebKit","Chrome","86.0.4240.198","Windows","10.0","1825","<p><strong>请判断你在多大程度上同意下列陈述。</strong></p>","0",""
"","","","","","survey-likert","152","1087134","0.0-25.0","164","1","2022-11-28 08:00:22","7b1eb8be57ff77859c7d9ac988e43411","36.157.215.152","Mozilla/5.0 (Windows NT 10.0; WOW64) AppleWebKit/537.36 (KHTML, like Gecko) Chrome/86.0.4240.198 Safari/537.36","WebKit","Chrome","86.0.4240.198","Windows","10.0","127997","","{""hi4"":8,""vi1"":7,""hi3"":1,""hi2"":2,""vi4"":7,""vi3"":8,""vc4"":8,""Robot"":6,""vi2"":3,""hc1"":1,""vc3"":7,""hi1"":6,""vc2"":8,""hc2"":1,""vc1"":8,""hc3"":6,""hc4"":8}","[3,4,2,1,8,6,16,7,5,9,15,0,14,10,13,11,12]"
"","","","","","survey-text","153","1093291","0.0-26.0","164","1","2022-11-28 08:00:22","7b1eb8be57ff77859c7d9ac988e43411","36.157.215.152","Mozilla/5.0 (Windows NT 10.0; WOW64) AppleWebKit/537.36 (KHTML, like Gecko) Chrome/86.0.4240.198 Safari/537.36","WebKit","Chrome","86.0.4240.198","Windows","10.0","6147","","{""Comments"":""没有""}",""
"","","","","","html-button-response","154","1094667","0.0-27.0","164","1","2022-11-28 08:00:22","7b1eb8be57ff77859c7d9ac988e43411","36.157.215.152","Mozilla/5.0 (Windows NT 10.0; WOW64) AppleWebKit/537.36 (KHTML, like Gecko) Chrome/86.0.4240.198 Safari/537.36","WebKit","Chrome","86.0.4240.198","Windows","10.0","1373","<strong><p>恭喜你完成了实验！</p><p>感谢您的参与。</p></strong>","0",""
