"success","timeout","failed_images","failed_audio","failed_video","trial_type","trial_index","time_elapsed","internal_node_id","run_id","condition","recorded_at","source_code_version","ip","user_agent","device","browser","browser_version","platform","platform_version","rt","stimulus","response","question_order"
"true","false","[]","[]","[]","preload","0","2290","0.0-0.0","178","1","2022-11-28 09:56:13","7b1eb8be57ff77859c7d9ac988e43411","111.199.64.132","Mozilla/5.0 (Macintosh; Intel Mac OS X 10_15_7) AppleWebKit/605.1.15 (KHTML, like Gecko) Version/15.0 Safari/605.1.15","Macintosh","Safari","15.0","OS X","10_15_7","","","",""
"true","","","","","fullscreen","1","15888","0.0-1.0","178","1","2022-11-28 09:56:13","7b1eb8be57ff77859c7d9ac988e43411","111.199.64.132","Mozilla/5.0 (Macintosh; Intel Mac OS X 10_15_7) AppleWebKit/605.1.15 (KHTML, like Gecko) Version/15.0 Safari/605.1.15","Macintosh","Safari","15.0","OS X","10_15_7","","","",""
"","","","","","html-button-response","2","37662","0.0-2.0","178","1","2022-11-28 09:56:13","7b1eb8be57ff77859c7d9ac988e43411","111.199.64.132","Mozilla/5.0 (Macintosh; Intel Mac OS X 10_15_7) AppleWebKit/605.1.15 (KHTML, like Gecko) Version/15.0 Safari/605.1.15","Macintosh","Safari","15.0","OS X","10_15_7","21769","<p style=""font-size:20px;font-weight:bold;"">实验知情同意书</p><p style=""text-align:left;""><strong>实验名称：</strong>社会冲突研究</p><p style=""text-align:left;""><strong>主要研究者：</strong>韩晓春副教授（北京师范大学心理学部）</p><p style=""text-align:left;""><strong>联系方式：</strong>发送邮件至xiaochun.han@bnu.edu.cn</p><p style=""text-align:left;""><strong>研究目的：</strong>研究旨在了解人类面对群体冲突时的决策方式，以及相关的心理学特质。实验调查大约需要20分钟。</p><p style=""text-align:left;""><strong>实验流程：</strong>实验包含两部分。第一部分呈现一系列群体冲突场景，请你决定如何对这些冲突进行反应，大约需要10分钟完成。第二部分包含一系列人口统计学信息收集和心理学问卷，大约需要10分钟完成。</p><p style=""text-align:left;""><strong>参加及退出规则：</strong>参加本实验完全取决于您的个人意愿。在参与过程中，您可以随时退出，并且不用承担任何后果。</p><p style=""text-align:left;""><strong>隐私：</strong>本实验完全匿名进行，不会收集您的姓名或其他能够识别您身份的信息。实验中收集的作答仅用作科学研究使用，可能会在学术期刊/书籍上发表，或者用于教学，您的数据未来可能会和其他研究者或实验室分享，但您的个人身份不会被识别。</p><p style=""text-align:left;""><strong>实验报酬：</strong>实验完成后，您将获得15元人民币报酬，以感谢您的时间和努力。调查问卷中包含几道题目用以测验您作答时的认真度。只有完成全部实验，并且正确回答认真度测验的被试才能获得实验报酬。实验报酬将通过支付宝转账发放。</p><p style=""text-align:left;font-size:20px;""><strong>如果您同意以上实验知情同意书的内容，请点击'同意并且开始实验'按钮；否则请关闭浏览器界面，退出实验。</strong></p>","0",""
"","","","","","html-button-response","3","62920","0.0-3.0","178","1","2022-11-28 09:56:13","7b1eb8be57ff77859c7d9ac988e43411","111.199.64.132","Mozilla/5.0 (Macintosh; Intel Mac OS X 10_15_7) AppleWebKit/605.1.15 (KHTML, like Gecko) Version/15.0 Safari/605.1.15","Macintosh","Safari","15.0","OS X","10_15_7","25254","<p ><strong>实验任务一：</strong></p><p>请想象你的国家与另一个国家发生了军事冲突。</p><p>你是国家军队的指挥官，你将如何在冲突中进行决策。</p><p>具体来说，作为军队指挥官，请你决定是否发射导弹进行打击。</p><p>接下来，你会面对一系列场景，请仔细阅读每个场景，然后进行决策。</p><p>这部分实验任务大约需要10分钟。</p><p><strong>实验过程中，请集中注意力。</strong></p>","0",""
"","","","","","html-keyboard-response","4","63925","0.0-4.0-0.0","178","1","2022-11-28 09:56:13","7b1eb8be57ff77859c7d9ac988e43411","111.199.64.132","Mozilla/5.0 (Macintosh; Intel Mac OS X 10_15_7) AppleWebKit/605.1.15 (KHTML, like Gecko) Version/15.0 Safari/605.1.15","Macintosh","Safari","15.0","OS X","10_15_7","null","<div style=""font-size:60px;"">+</div>","null",""
"","","","","","html-button-response","5","66809","0.0-4.0-1.0","178","1","2022-11-28 09:56:13","7b1eb8be57ff77859c7d9ac988e43411","111.199.64.132","Mozilla/5.0 (Macintosh; Intel Mac OS X 10_15_7) AppleWebKit/605.1.15 (KHTML, like Gecko) Version/15.0 Safari/605.1.15","Macintosh","Safari","15.0","OS X","10_15_7","2877","<p>作为军队的指挥官，你可以选择发射导弹杀死 <strong>8名</strong> 敌国士兵，但会炸毁附近的 <strong>1棵</strong> 敌国树木。</p> <p>树木的照片如下图所示。</p> <p></p> <img src='stimuli/trees/3.png', style='max-width: 30%;'> </img> <p><strong>你是否选择发射武器？</strong></p>","0",""
"","","","","","html-keyboard-response","6","67813","0.0-4.0-0.1","178","1","2022-11-28 09:56:13","7b1eb8be57ff77859c7d9ac988e43411","111.199.64.132","Mozilla/5.0 (Macintosh; Intel Mac OS X 10_15_7) AppleWebKit/605.1.15 (KHTML, like Gecko) Version/15.0 Safari/605.1.15","Macintosh","Safari","15.0","OS X","10_15_7","null","<div style=""font-size:60px;"">+</div>","null",""
"","","","","","html-button-response","7","70038","0.0-4.0-1.1","178","1","2022-11-28 09:56:13","7b1eb8be57ff77859c7d9ac988e43411","111.199.64.132","Mozilla/5.0 (Macintosh; Intel Mac OS X 10_15_7) AppleWebKit/605.1.15 (KHTML, like Gecko) Version/15.0 Safari/605.1.15","Macintosh","Safari","15.0","OS X","10_15_7","2221","<p>作为军队的指挥官，你可以选择发射导弹杀死 <strong>8名</strong> 敌国士兵，但会误杀附近的 <strong>1名</strong> 敌国平民。</p> <p>平民照片如下图所示。</p> <p></p> <img src='stimuli/faces/PCF8.jpg', style='max-width: 30%;'> </img> <p><strong>你是否选择发射武器？</strong></p>","1",""
"","","","","","html-keyboard-response","8","71042","0.0-4.0-0.2","178","1","2022-11-28 09:56:13","7b1eb8be57ff77859c7d9ac988e43411","111.199.64.132","Mozilla/5.0 (Macintosh; Intel Mac OS X 10_15_7) AppleWebKit/605.1.15 (KHTML, like Gecko) Version/15.0 Safari/605.1.15","Macintosh","Safari","15.0","OS X","10_15_7","null","<div style=""font-size:60px;"">+</div>","null",""
"","","","","","html-button-response","9","72716","0.0-4.0-1.2","178","1","2022-11-28 09:56:13","7b1eb8be57ff77859c7d9ac988e43411","111.199.64.132","Mozilla/5.0 (Macintosh; Intel Mac OS X 10_15_7) AppleWebKit/605.1.15 (KHTML, like Gecko) Version/15.0 Safari/605.1.15","Macintosh","Safari","15.0","OS X","10_15_7","1671","<p>作为军队的指挥官，你可以选择发射导弹杀死 <strong>2名</strong> 敌国士兵，但会误杀附近的 <strong>1名</strong> 敌国平民。</p> <p>平民照片如下图所示。</p> <p></p> <img src='stimuli/faces/PCM7.jpg', style='max-width: 30%;'> </img> <p><strong>你是否选择发射武器？</strong></p>","1",""
"","","","","","html-keyboard-response","10","73720","0.0-4.0-0.3","178","1","2022-11-28 09:56:13","7b1eb8be57ff77859c7d9ac988e43411","111.199.64.132","Mozilla/5.0 (Macintosh; Intel Mac OS X 10_15_7) AppleWebKit/605.1.15 (KHTML, like Gecko) Version/15.0 Safari/605.1.15","Macintosh","Safari","15.0","OS X","10_15_7","null","<div style=""font-size:60px;"">+</div>","null",""
"","","","","","html-button-response","11","76248","0.0-4.0-1.3","178","1","2022-11-28 09:56:13","7b1eb8be57ff77859c7d9ac988e43411","111.199.64.132","Mozilla/5.0 (Macintosh; Intel Mac OS X 10_15_7) AppleWebKit/605.1.15 (KHTML, like Gecko) Version/15.0 Safari/605.1.15","Macintosh","Safari","15.0","OS X","10_15_7","2524","<p>作为军队的指挥官，你可以选择发射导弹杀死 <strong>8名</strong> 敌国士兵，但会炸毁附近的 <strong>1棵</strong> 敌国树木。</p> <p>树木的照片如下图所示。</p> <p></p> <img src='stimuli/trees/11.png', style='max-width: 30%;'> </img> <p><strong>你是否选择发射武器？</strong></p>","0",""
"","","","","","html-keyboard-response","12","77252","0.0-4.0-0.4","178","1","2022-11-28 09:56:13","7b1eb8be57ff77859c7d9ac988e43411","111.199.64.132","Mozilla/5.0 (Macintosh; Intel Mac OS X 10_15_7) AppleWebKit/605.1.15 (KHTML, like Gecko) Version/15.0 Safari/605.1.15","Macintosh","Safari","15.0","OS X","10_15_7","null","<div style=""font-size:60px;"">+</div>","null",""
"","","","","","html-button-response","13","79128","0.0-4.0-1.4","178","1","2022-11-28 09:56:13","7b1eb8be57ff77859c7d9ac988e43411","111.199.64.132","Mozilla/5.0 (Macintosh; Intel Mac OS X 10_15_7) AppleWebKit/605.1.15 (KHTML, like Gecko) Version/15.0 Safari/605.1.15","Macintosh","Safari","15.0","OS X","10_15_7","1871","<p>作为军队的指挥官，你可以选择发射导弹杀死 <strong>3名</strong> 敌国士兵，但会误杀附近的 <strong>1名</strong> 敌国平民。</p> <p>平民照片如下图所示。</p> <p></p> <img src='stimuli/faces/PCF2.jpg', style='max-width: 30%;'> </img> <p><strong>你是否选择发射武器？</strong></p>","1",""
"","","","","","html-keyboard-response","14","80132","0.0-4.0-0.5","178","1","2022-11-28 09:56:13","7b1eb8be57ff77859c7d9ac988e43411","111.199.64.132","Mozilla/5.0 (Macintosh; Intel Mac OS X 10_15_7) AppleWebKit/605.1.15 (KHTML, like Gecko) Version/15.0 Safari/605.1.15","Macintosh","Safari","15.0","OS X","10_15_7","null","<div style=""font-size:60px;"">+</div>","null",""
"","","","","","html-button-response","15","83224","0.0-4.0-1.5","178","1","2022-11-28 09:56:13","7b1eb8be57ff77859c7d9ac988e43411","111.199.64.132","Mozilla/5.0 (Macintosh; Intel Mac OS X 10_15_7) AppleWebKit/605.1.15 (KHTML, like Gecko) Version/15.0 Safari/605.1.15","Macintosh","Safari","15.0","OS X","10_15_7","3088","<p>作为军队的指挥官，你可以选择发射导弹杀死 <strong>5名</strong> 敌国士兵，但会误杀附近的 <strong>1名</strong> 敌国平民。</p> <p>平民照片如下图所示。</p> <p></p> <img src='stimuli/faces/PCF5.jpg', style='max-width: 30%;'> </img> <p><strong>你是否选择发射武器？</strong></p>","1",""
"","","","","","html-keyboard-response","16","84228","0.0-4.0-0.6","178","1","2022-11-28 09:56:13","7b1eb8be57ff77859c7d9ac988e43411","111.199.64.132","Mozilla/5.0 (Macintosh; Intel Mac OS X 10_15_7) AppleWebKit/605.1.15 (KHTML, like Gecko) Version/15.0 Safari/605.1.15","Macintosh","Safari","15.0","OS X","10_15_7","null","<div style=""font-size:60px;"">+</div>","null",""
"","","","","","html-button-response","17","87420","0.0-4.0-1.6","178","1","2022-11-28 09:56:13","7b1eb8be57ff77859c7d9ac988e43411","111.199.64.132","Mozilla/5.0 (Macintosh; Intel Mac OS X 10_15_7) AppleWebKit/605.1.15 (KHTML, like Gecko) Version/15.0 Safari/605.1.15","Macintosh","Safari","15.0","OS X","10_15_7","3184","<p>作为军队的指挥官，你可以选择发射导弹杀死 <strong>6名</strong> 敌国士兵，但会误杀附近的 <strong>1名</strong> 敌国平民。</p> <p>平民照片如下图所示。</p> <p></p> <img src='stimuli/faces/PCF1.jpg', style='max-width: 30%;'> </img> <p><strong>你是否选择发射武器？</strong></p>","1",""
"","","","","","html-keyboard-response","18","88424","0.0-4.0-0.7","178","1","2022-11-28 09:56:13","7b1eb8be57ff77859c7d9ac988e43411","111.199.64.132","Mozilla/5.0 (Macintosh; Intel Mac OS X 10_15_7) AppleWebKit/605.1.15 (KHTML, like Gecko) Version/15.0 Safari/605.1.15","Macintosh","Safari","15.0","OS X","10_15_7","null","<div style=""font-size:60px;"">+</div>","null",""
"","","","","","html-button-response","19","91574","0.0-4.0-1.7","178","1","2022-11-28 09:56:13","7b1eb8be57ff77859c7d9ac988e43411","111.199.64.132","Mozilla/5.0 (Macintosh; Intel Mac OS X 10_15_7) AppleWebKit/605.1.15 (KHTML, like Gecko) Version/15.0 Safari/605.1.15","Macintosh","Safari","15.0","OS X","10_15_7","3146","<p>作为军队的指挥官，你可以选择发射导弹杀死 <strong>3名</strong> 敌国士兵，但会炸毁附近的 <strong>1棵</strong> 敌国树木。</p> <p>树木的照片如下图所示。</p> <p></p> <img src='stimuli/trees/1.png', style='max-width: 30%;'> </img> <p><strong>你是否选择发射武器？</strong></p>","0",""
"","","","","","html-keyboard-response","20","92578","0.0-4.0-0.8","178","1","2022-11-28 09:56:13","7b1eb8be57ff77859c7d9ac988e43411","111.199.64.132","Mozilla/5.0 (Macintosh; Intel Mac OS X 10_15_7) AppleWebKit/605.1.15 (KHTML, like Gecko) Version/15.0 Safari/605.1.15","Macintosh","Safari","15.0","OS X","10_15_7","null","<div style=""font-size:60px;"">+</div>","null",""
"","","","","","html-button-response","21","98391","0.0-4.0-1.8","178","1","2022-11-28 09:56:13","7b1eb8be57ff77859c7d9ac988e43411","111.199.64.132","Mozilla/5.0 (Macintosh; Intel Mac OS X 10_15_7) AppleWebKit/605.1.15 (KHTML, like Gecko) Version/15.0 Safari/605.1.15","Macintosh","Safari","15.0","OS X","10_15_7","5806","<p>作为军队的指挥官，你可以选择发射导弹杀死 <strong>8名</strong> 敌国士兵，但会误杀附近的 <strong>1名</strong> 敌国平民。</p> <p>平民照片如下图所示。</p> <p></p> <img src='stimuli/faces/PCM8.jpg', style='max-width: 30%;'> </img> <p><strong>你是否选择发射武器？</strong></p>","1",""
"","","","","","html-keyboard-response","22","99395","0.0-4.0-0.9","178","1","2022-11-28 09:56:13","7b1eb8be57ff77859c7d9ac988e43411","111.199.64.132","Mozilla/5.0 (Macintosh; Intel Mac OS X 10_15_7) AppleWebKit/605.1.15 (KHTML, like Gecko) Version/15.0 Safari/605.1.15","Macintosh","Safari","15.0","OS X","10_15_7","null","<div style=""font-size:60px;"">+</div>","null",""
"","","","","","html-button-response","23","100631","0.0-4.0-1.9","178","1","2022-11-28 09:56:13","7b1eb8be57ff77859c7d9ac988e43411","111.199.64.132","Mozilla/5.0 (Macintosh; Intel Mac OS X 10_15_7) AppleWebKit/605.1.15 (KHTML, like Gecko) Version/15.0 Safari/605.1.15","Macintosh","Safari","15.0","OS X","10_15_7","1231","<p>作为军队的指挥官，你可以选择发射导弹杀死 <strong>2名</strong> 敌国士兵，但会误杀附近的 <strong>1名</strong> 敌国平民。</p> <p>平民照片如下图所示。</p> <p></p> <img src='stimuli/faces/PCF4.jpg', style='max-width: 30%;'> </img> <p><strong>你是否选择发射武器？</strong></p>","1",""
"","","","","","html-keyboard-response","24","101635","0.0-4.0-0.10","178","1","2022-11-28 09:56:13","7b1eb8be57ff77859c7d9ac988e43411","111.199.64.132","Mozilla/5.0 (Macintosh; Intel Mac OS X 10_15_7) AppleWebKit/605.1.15 (KHTML, like Gecko) Version/15.0 Safari/605.1.15","Macintosh","Safari","15.0","OS X","10_15_7","null","<div style=""font-size:60px;"">+</div>","null",""
"","","","","","html-button-response","25","103619","0.0-4.0-1.10","178","1","2022-11-28 09:56:13","7b1eb8be57ff77859c7d9ac988e43411","111.199.64.132","Mozilla/5.0 (Macintosh; Intel Mac OS X 10_15_7) AppleWebKit/605.1.15 (KHTML, like Gecko) Version/15.0 Safari/605.1.15","Macintosh","Safari","15.0","OS X","10_15_7","1978","<p>作为军队的指挥官，你可以选择发射导弹杀死 <strong>1名</strong> 敌国士兵，但会炸毁附近的 <strong>1棵</strong> 敌国树木。</p> <p>树木的照片如下图所示。</p> <p></p> <img src='stimuli/trees/9.png', style='max-width: 30%;'> </img> <p><strong>你是否选择发射武器？</strong></p>","0",""
"","","","","","html-keyboard-response","26","104624","0.0-4.0-0.11","178","1","2022-11-28 09:56:13","7b1eb8be57ff77859c7d9ac988e43411","111.199.64.132","Mozilla/5.0 (Macintosh; Intel Mac OS X 10_15_7) AppleWebKit/605.1.15 (KHTML, like Gecko) Version/15.0 Safari/605.1.15","Macintosh","Safari","15.0","OS X","10_15_7","null","<div style=""font-size:60px;"">+</div>","null",""
"","","","","","html-button-response","27","106277","0.0-4.0-1.11","178","1","2022-11-28 09:56:13","7b1eb8be57ff77859c7d9ac988e43411","111.199.64.132","Mozilla/5.0 (Macintosh; Intel Mac OS X 10_15_7) AppleWebKit/605.1.15 (KHTML, like Gecko) Version/15.0 Safari/605.1.15","Macintosh","Safari","15.0","OS X","10_15_7","1646","<p>作为军队的指挥官，你可以选择发射导弹杀死 <strong>10名</strong> 敌国士兵，但会炸毁附近的 <strong>1棵</strong> 敌国树木。</p> <p>树木的照片如下图所示。</p> <p></p> <img src='stimuli/trees/15.png', style='max-width: 30%;'> </img> <p><strong>你是否选择发射武器？</strong></p>","0",""
"","","","","","html-keyboard-response","28","107282","0.0-4.0-0.12","178","1","2022-11-28 09:56:13","7b1eb8be57ff77859c7d9ac988e43411","111.199.64.132","Mozilla/5.0 (Macintosh; Intel Mac OS X 10_15_7) AppleWebKit/605.1.15 (KHTML, like Gecko) Version/15.0 Safari/605.1.15","Macintosh","Safari","15.0","OS X","10_15_7","null","<div style=""font-size:60px;"">+</div>","null",""
"","","","","","html-button-response","29","126379","0.0-4.0-1.12","178","1","2022-11-28 09:56:13","7b1eb8be57ff77859c7d9ac988e43411","111.199.64.132","Mozilla/5.0 (Macintosh; Intel Mac OS X 10_15_7) AppleWebKit/605.1.15 (KHTML, like Gecko) Version/15.0 Safari/605.1.15","Macintosh","Safari","15.0","OS X","10_15_7","19091","<p>作为军队的指挥官，你可以选择发射导弹杀死 <strong>4名</strong> 敌国士兵，但会误杀附近的 <strong>1名</strong> 敌国平民。</p> <p>平民照片如下图所示。</p> <p></p> <img src='stimuli/faces/PCF8.jpg', style='max-width: 30%;'> </img> <p><strong>你是否选择发射武器？</strong></p>","1",""
"","","","","","html-keyboard-response","30","127384","0.0-4.0-0.13","178","1","2022-11-28 09:56:13","7b1eb8be57ff77859c7d9ac988e43411","111.199.64.132","Mozilla/5.0 (Macintosh; Intel Mac OS X 10_15_7) AppleWebKit/605.1.15 (KHTML, like Gecko) Version/15.0 Safari/605.1.15","Macintosh","Safari","15.0","OS X","10_15_7","null","<div style=""font-size:60px;"">+</div>","null",""
"","","","","","html-button-response","31","131171","0.0-4.0-1.13","178","1","2022-11-28 09:56:13","7b1eb8be57ff77859c7d9ac988e43411","111.199.64.132","Mozilla/5.0 (Macintosh; Intel Mac OS X 10_15_7) AppleWebKit/605.1.15 (KHTML, like Gecko) Version/15.0 Safari/605.1.15","Macintosh","Safari","15.0","OS X","10_15_7","3782","<p>作为军队的指挥官，你可以选择发射导弹杀死 <strong>5名</strong> 敌国士兵，但会误杀附近的 <strong>1名</strong> 敌国平民。</p> <p>平民照片如下图所示。</p> <p></p> <img src='stimuli/faces/PCM1.jpg', style='max-width: 30%;'> </img> <p><strong>你是否选择发射武器？</strong></p>","1",""
"","","","","","html-keyboard-response","32","132176","0.0-4.0-0.14","178","1","2022-11-28 09:56:13","7b1eb8be57ff77859c7d9ac988e43411","111.199.64.132","Mozilla/5.0 (Macintosh; Intel Mac OS X 10_15_7) AppleWebKit/605.1.15 (KHTML, like Gecko) Version/15.0 Safari/605.1.15","Macintosh","Safari","15.0","OS X","10_15_7","null","<div style=""font-size:60px;"">+</div>","null",""
"","","","","","html-button-response","33","141870","0.0-4.0-1.14","178","1","2022-11-28 09:56:13","7b1eb8be57ff77859c7d9ac988e43411","111.199.64.132","Mozilla/5.0 (Macintosh; Intel Mac OS X 10_15_7) AppleWebKit/605.1.15 (KHTML, like Gecko) Version/15.0 Safari/605.1.15","Macintosh","Safari","15.0","OS X","10_15_7","9689","<p>作为军队的指挥官，你可以选择发射导弹杀死 <strong>3名</strong> 敌国士兵，但会误杀附近的 <strong>1名</strong> 敌国平民。</p> <p>平民照片如下图所示。</p> <p></p> <img src='stimuli/faces/PCM2.jpg', style='max-width: 30%;'> </img> <p><strong>你是否选择发射武器？</strong></p>","1",""
"","","","","","html-keyboard-response","34","142875","0.0-4.0-0.15","178","1","2022-11-28 09:56:13","7b1eb8be57ff77859c7d9ac988e43411","111.199.64.132","Mozilla/5.0 (Macintosh; Intel Mac OS X 10_15_7) AppleWebKit/605.1.15 (KHTML, like Gecko) Version/15.0 Safari/605.1.15","Macintosh","Safari","15.0","OS X","10_15_7","null","<div style=""font-size:60px;"">+</div>","null",""
"","","","","","html-button-response","35","144850","0.0-4.0-1.15","178","1","2022-11-28 09:56:13","7b1eb8be57ff77859c7d9ac988e43411","111.199.64.132","Mozilla/5.0 (Macintosh; Intel Mac OS X 10_15_7) AppleWebKit/605.1.15 (KHTML, like Gecko) Version/15.0 Safari/605.1.15","Macintosh","Safari","15.0","OS X","10_15_7","1971","<p>作为军队的指挥官，你可以选择发射导弹杀死 <strong>1名</strong> 敌国士兵，但会误杀附近的 <strong>1名</strong> 敌国平民。</p> <p>平民照片如下图所示。</p> <p></p> <img src='stimuli/faces/PCM6.jpg', style='max-width: 30%;'> </img> <p><strong>你是否选择发射武器？</strong></p>","1",""
"","","","","","html-keyboard-response","36","145855","0.0-4.0-0.16","178","1","2022-11-28 09:56:13","7b1eb8be57ff77859c7d9ac988e43411","111.199.64.132","Mozilla/5.0 (Macintosh; Intel Mac OS X 10_15_7) AppleWebKit/605.1.15 (KHTML, like Gecko) Version/15.0 Safari/605.1.15","Macintosh","Safari","15.0","OS X","10_15_7","null","<div style=""font-size:60px;"">+</div>","null",""
"","","","","","html-button-response","37","147573","0.0-4.0-1.16","178","1","2022-11-28 09:56:13","7b1eb8be57ff77859c7d9ac988e43411","111.199.64.132","Mozilla/5.0 (Macintosh; Intel Mac OS X 10_15_7) AppleWebKit/605.1.15 (KHTML, like Gecko) Version/15.0 Safari/605.1.15","Macintosh","Safari","15.0","OS X","10_15_7","1712","<p>作为军队的指挥官，你可以选择发射导弹杀死 <strong>3名</strong> 敌国士兵，但会炸毁附近的 <strong>1棵</strong> 敌国树木。</p> <p>树木的照片如下图所示。</p> <p></p> <img src='stimuli/trees/8.png', style='max-width: 30%;'> </img> <p><strong>你是否选择发射武器？</strong></p>","0",""
"","","","","","html-keyboard-response","38","148578","0.0-4.0-0.17","178","1","2022-11-28 09:56:13","7b1eb8be57ff77859c7d9ac988e43411","111.199.64.132","Mozilla/5.0 (Macintosh; Intel Mac OS X 10_15_7) AppleWebKit/605.1.15 (KHTML, like Gecko) Version/15.0 Safari/605.1.15","Macintosh","Safari","15.0","OS X","10_15_7","null","<div style=""font-size:60px;"">+</div>","null",""
"","","","","","html-button-response","39","163155","0.0-4.0-1.17","178","1","2022-11-28 09:56:13","7b1eb8be57ff77859c7d9ac988e43411","111.199.64.132","Mozilla/5.0 (Macintosh; Intel Mac OS X 10_15_7) AppleWebKit/605.1.15 (KHTML, like Gecko) Version/15.0 Safari/605.1.15","Macintosh","Safari","15.0","OS X","10_15_7","14572","<p>作为军队的指挥官，你可以选择发射导弹杀死 <strong>7名</strong> 敌国士兵，但会炸毁附近的 <strong>1棵</strong> 敌国树木。</p> <p>树木的照片如下图所示。</p> <p></p> <img src='stimuli/trees/1.png', style='max-width: 30%;'> </img> <p><strong>你是否选择发射武器？</strong></p>","0",""
"","","","","","html-keyboard-response","40","164160","0.0-4.0-0.18","178","1","2022-11-28 09:56:13","7b1eb8be57ff77859c7d9ac988e43411","111.199.64.132","Mozilla/5.0 (Macintosh; Intel Mac OS X 10_15_7) AppleWebKit/605.1.15 (KHTML, like Gecko) Version/15.0 Safari/605.1.15","Macintosh","Safari","15.0","OS X","10_15_7","null","<div style=""font-size:60px;"">+</div>","null",""
"","","","","","html-button-response","41","166924","0.0-4.0-1.18","178","1","2022-11-28 09:56:13","7b1eb8be57ff77859c7d9ac988e43411","111.199.64.132","Mozilla/5.0 (Macintosh; Intel Mac OS X 10_15_7) AppleWebKit/605.1.15 (KHTML, like Gecko) Version/15.0 Safari/605.1.15","Macintosh","Safari","15.0","OS X","10_15_7","2758","<p>作为军队的指挥官，你可以选择发射导弹杀死 <strong>9名</strong> 敌国士兵，但会误杀附近的 <strong>1名</strong> 敌国平民。</p> <p>平民照片如下图所示。</p> <p></p> <img src='stimuli/faces/PCM6.jpg', style='max-width: 30%;'> </img> <p><strong>你是否选择发射武器？</strong></p>","1",""
"","","","","","html-keyboard-response","42","167929","0.0-4.0-0.19","178","1","2022-11-28 09:56:13","7b1eb8be57ff77859c7d9ac988e43411","111.199.64.132","Mozilla/5.0 (Macintosh; Intel Mac OS X 10_15_7) AppleWebKit/605.1.15 (KHTML, like Gecko) Version/15.0 Safari/605.1.15","Macintosh","Safari","15.0","OS X","10_15_7","null","<div style=""font-size:60px;"">+</div>","null",""
"","","","","","html-button-response","43","169679","0.0-4.0-1.19","178","1","2022-11-28 09:56:13","7b1eb8be57ff77859c7d9ac988e43411","111.199.64.132","Mozilla/5.0 (Macintosh; Intel Mac OS X 10_15_7) AppleWebKit/605.1.15 (KHTML, like Gecko) Version/15.0 Safari/605.1.15","Macintosh","Safari","15.0","OS X","10_15_7","1744","<p>作为军队的指挥官，你可以选择发射导弹杀死 <strong>9名</strong> 敌国士兵，但会炸毁附近的 <strong>1棵</strong> 敌国树木。</p> <p>树木的照片如下图所示。</p> <p></p> <img src='stimuli/trees/9.png', style='max-width: 30%;'> </img> <p><strong>你是否选择发射武器？</strong></p>","0",""
"","","","","","html-keyboard-response","44","170684","0.0-4.0-0.20","178","1","2022-11-28 09:56:13","7b1eb8be57ff77859c7d9ac988e43411","111.199.64.132","Mozilla/5.0 (Macintosh; Intel Mac OS X 10_15_7) AppleWebKit/605.1.15 (KHTML, like Gecko) Version/15.0 Safari/605.1.15","Macintosh","Safari","15.0","OS X","10_15_7","null","<div style=""font-size:60px;"">+</div>","null",""
"","","","","","html-button-response","45","172393","0.0-4.0-1.20","178","1","2022-11-28 09:56:13","7b1eb8be57ff77859c7d9ac988e43411","111.199.64.132","Mozilla/5.0 (Macintosh; Intel Mac OS X 10_15_7) AppleWebKit/605.1.15 (KHTML, like Gecko) Version/15.0 Safari/605.1.15","Macintosh","Safari","15.0","OS X","10_15_7","1703","<p>作为军队的指挥官，你可以选择发射导弹杀死 <strong>4名</strong> 敌国士兵，但会误杀附近的 <strong>1名</strong> 敌国平民。</p> <p>平民照片如下图所示。</p> <p></p> <img src='stimuli/faces/PCM3.jpg', style='max-width: 30%;'> </img> <p><strong>你是否选择发射武器？</strong></p>","1",""
"","","","","","html-keyboard-response","46","173398","0.0-4.0-0.21","178","1","2022-11-28 09:56:13","7b1eb8be57ff77859c7d9ac988e43411","111.199.64.132","Mozilla/5.0 (Macintosh; Intel Mac OS X 10_15_7) AppleWebKit/605.1.15 (KHTML, like Gecko) Version/15.0 Safari/605.1.15","Macintosh","Safari","15.0","OS X","10_15_7","null","<div style=""font-size:60px;"">+</div>","null",""
"","","","","","html-button-response","47","177734","0.0-4.0-1.21","178","1","2022-11-28 09:56:13","7b1eb8be57ff77859c7d9ac988e43411","111.199.64.132","Mozilla/5.0 (Macintosh; Intel Mac OS X 10_15_7) AppleWebKit/605.1.15 (KHTML, like Gecko) Version/15.0 Safari/605.1.15","Macintosh","Safari","15.0","OS X","10_15_7","4331","<p>作为军队的指挥官，你可以选择发射导弹杀死 <strong>1名</strong> 敌国士兵，但会炸毁附近的 <strong>1棵</strong> 敌国树木。</p> <p>树木的照片如下图所示。</p> <p></p> <img src='stimuli/trees/12.png', style='max-width: 30%;'> </img> <p><strong>你是否选择发射武器？</strong></p>","0",""
"","","","","","html-keyboard-response","48","178739","0.0-4.0-0.22","178","1","2022-11-28 09:56:13","7b1eb8be57ff77859c7d9ac988e43411","111.199.64.132","Mozilla/5.0 (Macintosh; Intel Mac OS X 10_15_7) AppleWebKit/605.1.15 (KHTML, like Gecko) Version/15.0 Safari/605.1.15","Macintosh","Safari","15.0","OS X","10_15_7","null","<div style=""font-size:60px;"">+</div>","null",""
"","","","","","html-button-response","49","182393","0.0-4.0-1.22","178","1","2022-11-28 09:56:13","7b1eb8be57ff77859c7d9ac988e43411","111.199.64.132","Mozilla/5.0 (Macintosh; Intel Mac OS X 10_15_7) AppleWebKit/605.1.15 (KHTML, like Gecko) Version/15.0 Safari/605.1.15","Macintosh","Safari","15.0","OS X","10_15_7","3648","<p>作为军队的指挥官，你可以选择发射导弹杀死 <strong>7名</strong> 敌国士兵，但会误杀附近的 <strong>1名</strong> 敌国平民。</p> <p>平民照片如下图所示。</p> <p></p> <img src='stimuli/faces/PCM7.jpg', style='max-width: 30%;'> </img> <p><strong>你是否选择发射武器？</strong></p>","1",""
"","","","","","html-keyboard-response","50","183398","0.0-4.0-0.23","178","1","2022-11-28 09:56:13","7b1eb8be57ff77859c7d9ac988e43411","111.199.64.132","Mozilla/5.0 (Macintosh; Intel Mac OS X 10_15_7) AppleWebKit/605.1.15 (KHTML, like Gecko) Version/15.0 Safari/605.1.15","Macintosh","Safari","15.0","OS X","10_15_7","null","<div style=""font-size:60px;"">+</div>","null",""
"","","","","","html-button-response","51","184383","0.0-4.0-1.23","178","1","2022-11-28 09:56:13","7b1eb8be57ff77859c7d9ac988e43411","111.199.64.132","Mozilla/5.0 (Macintosh; Intel Mac OS X 10_15_7) AppleWebKit/605.1.15 (KHTML, like Gecko) Version/15.0 Safari/605.1.15","Macintosh","Safari","15.0","OS X","10_15_7","979","<p>作为军队的指挥官，你可以选择发射导弹杀死 <strong>9名</strong> 敌国士兵，但会误杀附近的 <strong>1名</strong> 敌国平民。</p> <p>平民照片如下图所示。</p> <p></p> <img src='stimuli/faces/PCM4.jpg', style='max-width: 30%;'> </img> <p><strong>你是否选择发射武器？</strong></p>","1",""
"","","","","","html-keyboard-response","52","185388","0.0-4.0-0.24","178","1","2022-11-28 09:56:13","7b1eb8be57ff77859c7d9ac988e43411","111.199.64.132","Mozilla/5.0 (Macintosh; Intel Mac OS X 10_15_7) AppleWebKit/605.1.15 (KHTML, like Gecko) Version/15.0 Safari/605.1.15","Macintosh","Safari","15.0","OS X","10_15_7","null","<div style=""font-size:60px;"">+</div>","null",""
"","","","","","html-button-response","53","186363","0.0-4.0-1.24","178","1","2022-11-28 09:56:13","7b1eb8be57ff77859c7d9ac988e43411","111.199.64.132","Mozilla/5.0 (Macintosh; Intel Mac OS X 10_15_7) AppleWebKit/605.1.15 (KHTML, like Gecko) Version/15.0 Safari/605.1.15","Macintosh","Safari","15.0","OS X","10_15_7","970","<p>作为军队的指挥官，你可以选择发射导弹杀死 <strong>7名</strong> 敌国士兵，但会炸毁附近的 <strong>1棵</strong> 敌国树木。</p> <p>树木的照片如下图所示。</p> <p></p> <img src='stimuli/trees/8.png', style='max-width: 30%;'> </img> <p><strong>你是否选择发射武器？</strong></p>","0",""
"","","","","","html-keyboard-response","54","187367","0.0-4.0-0.25","178","1","2022-11-28 09:56:13","7b1eb8be57ff77859c7d9ac988e43411","111.199.64.132","Mozilla/5.0 (Macintosh; Intel Mac OS X 10_15_7) AppleWebKit/605.1.15 (KHTML, like Gecko) Version/15.0 Safari/605.1.15","Macintosh","Safari","15.0","OS X","10_15_7","null","<div style=""font-size:60px;"">+</div>","null",""
"","","","","","html-button-response","55","189750","0.0-4.0-1.25","178","1","2022-11-28 09:56:13","7b1eb8be57ff77859c7d9ac988e43411","111.199.64.132","Mozilla/5.0 (Macintosh; Intel Mac OS X 10_15_7) AppleWebKit/605.1.15 (KHTML, like Gecko) Version/15.0 Safari/605.1.15","Macintosh","Safari","15.0","OS X","10_15_7","2377","<p>作为军队的指挥官，你可以选择发射导弹杀死 <strong>8名</strong> 敌国士兵，但会误杀附近的 <strong>1名</strong> 敌国平民。</p> <p>平民照片如下图所示。</p> <p></p> <img src='stimuli/faces/PCF2.jpg', style='max-width: 30%;'> </img> <p><strong>你是否选择发射武器？</strong></p>","1",""
"","","","","","html-keyboard-response","56","190756","0.0-4.0-0.26","178","1","2022-11-28 09:56:13","7b1eb8be57ff77859c7d9ac988e43411","111.199.64.132","Mozilla/5.0 (Macintosh; Intel Mac OS X 10_15_7) AppleWebKit/605.1.15 (KHTML, like Gecko) Version/15.0 Safari/605.1.15","Macintosh","Safari","15.0","OS X","10_15_7","null","<div style=""font-size:60px;"">+</div>","null",""
"","","","","","html-button-response","57","193137","0.0-4.0-1.26","178","1","2022-11-28 09:56:13","7b1eb8be57ff77859c7d9ac988e43411","111.199.64.132","Mozilla/5.0 (Macintosh; Intel Mac OS X 10_15_7) AppleWebKit/605.1.15 (KHTML, like Gecko) Version/15.0 Safari/605.1.15","Macintosh","Safari","15.0","OS X","10_15_7","2375","<p>作为军队的指挥官，你可以选择发射导弹杀死 <strong>7名</strong> 敌国士兵，但会炸毁附近的 <strong>1棵</strong> 敌国树木。</p> <p>树木的照片如下图所示。</p> <p></p> <img src='stimuli/trees/13.png', style='max-width: 30%;'> </img> <p><strong>你是否选择发射武器？</strong></p>","0",""
"","","","","","html-keyboard-response","58","194142","0.0-4.0-0.27","178","1","2022-11-28 09:56:13","7b1eb8be57ff77859c7d9ac988e43411","111.199.64.132","Mozilla/5.0 (Macintosh; Intel Mac OS X 10_15_7) AppleWebKit/605.1.15 (KHTML, like Gecko) Version/15.0 Safari/605.1.15","Macintosh","Safari","15.0","OS X","10_15_7","null","<div style=""font-size:60px;"">+</div>","null",""
"","","","","","html-button-response","59","196252","0.0-4.0-1.27","178","1","2022-11-28 09:56:13","7b1eb8be57ff77859c7d9ac988e43411","111.199.64.132","Mozilla/5.0 (Macintosh; Intel Mac OS X 10_15_7) AppleWebKit/605.1.15 (KHTML, like Gecko) Version/15.0 Safari/605.1.15","Macintosh","Safari","15.0","OS X","10_15_7","2104","<p>作为军队的指挥官，你可以选择发射导弹杀死 <strong>6名</strong> 敌国士兵，但会炸毁附近的 <strong>1棵</strong> 敌国树木。</p> <p>树木的照片如下图所示。</p> <p></p> <img src='stimuli/trees/14.png', style='max-width: 30%;'> </img> <p><strong>你是否选择发射武器？</strong></p>","0",""
"","","","","","html-keyboard-response","60","197257","0.0-4.0-0.28","178","1","2022-11-28 09:56:13","7b1eb8be57ff77859c7d9ac988e43411","111.199.64.132","Mozilla/5.0 (Macintosh; Intel Mac OS X 10_15_7) AppleWebKit/605.1.15 (KHTML, like Gecko) Version/15.0 Safari/605.1.15","Macintosh","Safari","15.0","OS X","10_15_7","null","<div style=""font-size:60px;"">+</div>","null",""
"","","","","","html-button-response","61","198694","0.0-4.0-1.28","178","1","2022-11-28 09:56:13","7b1eb8be57ff77859c7d9ac988e43411","111.199.64.132","Mozilla/5.0 (Macintosh; Intel Mac OS X 10_15_7) AppleWebKit/605.1.15 (KHTML, like Gecko) Version/15.0 Safari/605.1.15","Macintosh","Safari","15.0","OS X","10_15_7","1432","<p>作为军队的指挥官，你可以选择发射导弹杀死 <strong>10名</strong> 敌国士兵，但会误杀附近的 <strong>1名</strong> 敌国平民。</p> <p>平民照片如下图所示。</p> <p></p> <img src='stimuli/faces/PCM2.jpg', style='max-width: 30%;'> </img> <p><strong>你是否选择发射武器？</strong></p>","1",""
"","","","","","html-keyboard-response","62","199700","0.0-4.0-0.29","178","1","2022-11-28 09:56:13","7b1eb8be57ff77859c7d9ac988e43411","111.199.64.132","Mozilla/5.0 (Macintosh; Intel Mac OS X 10_15_7) AppleWebKit/605.1.15 (KHTML, like Gecko) Version/15.0 Safari/605.1.15","Macintosh","Safari","15.0","OS X","10_15_7","null","<div style=""font-size:60px;"">+</div>","null",""
"","","","","","html-button-response","63","200875","0.0-4.0-1.29","178","1","2022-11-28 09:56:13","7b1eb8be57ff77859c7d9ac988e43411","111.199.64.132","Mozilla/5.0 (Macintosh; Intel Mac OS X 10_15_7) AppleWebKit/605.1.15 (KHTML, like Gecko) Version/15.0 Safari/605.1.15","Macintosh","Safari","15.0","OS X","10_15_7","1169","<p>作为军队的指挥官，你可以选择发射导弹杀死 <strong>4名</strong> 敌国士兵，但会误杀附近的 <strong>1名</strong> 敌国平民。</p> <p>平民照片如下图所示。</p> <p></p> <img src='stimuli/faces/PCF7.jpg', style='max-width: 30%;'> </img> <p><strong>你是否选择发射武器？</strong></p>","1",""
"","","","","","html-keyboard-response","64","201881","0.0-4.0-0.30","178","1","2022-11-28 09:56:13","7b1eb8be57ff77859c7d9ac988e43411","111.199.64.132","Mozilla/5.0 (Macintosh; Intel Mac OS X 10_15_7) AppleWebKit/605.1.15 (KHTML, like Gecko) Version/15.0 Safari/605.1.15","Macintosh","Safari","15.0","OS X","10_15_7","null","<div style=""font-size:60px;"">+</div>","null",""
"","","","","","html-button-response","65","205141","0.0-4.0-1.30","178","1","2022-11-28 09:56:13","7b1eb8be57ff77859c7d9ac988e43411","111.199.64.132","Mozilla/5.0 (Macintosh; Intel Mac OS X 10_15_7) AppleWebKit/605.1.15 (KHTML, like Gecko) Version/15.0 Safari/605.1.15","Macintosh","Safari","15.0","OS X","10_15_7","3254","<p>作为军队的指挥官，你可以选择发射导弹杀死 <strong>5名</strong> 敌国士兵，但会误杀附近的 <strong>1名</strong> 敌国平民。</p> <p>平民照片如下图所示。</p> <p></p> <img src='stimuli/faces/PCF3.jpg', style='max-width: 30%;'> </img> <p><strong>你是否选择发射武器？</strong></p>","1",""
"","","","","","html-keyboard-response","66","206147","0.0-4.0-0.31","178","1","2022-11-28 09:56:13","7b1eb8be57ff77859c7d9ac988e43411","111.199.64.132","Mozilla/5.0 (Macintosh; Intel Mac OS X 10_15_7) AppleWebKit/605.1.15 (KHTML, like Gecko) Version/15.0 Safari/605.1.15","Macintosh","Safari","15.0","OS X","10_15_7","null","<div style=""font-size:60px;"">+</div>","null",""
"","","","","","html-button-response","67","228554","0.0-4.0-1.31","178","1","2022-11-28 09:56:13","7b1eb8be57ff77859c7d9ac988e43411","111.199.64.132","Mozilla/5.0 (Macintosh; Intel Mac OS X 10_15_7) AppleWebKit/605.1.15 (KHTML, like Gecko) Version/15.0 Safari/605.1.15","Macintosh","Safari","15.0","OS X","10_15_7","22401","<p>作为军队的指挥官，你可以选择发射导弹杀死 <strong>8名</strong> 敌国士兵，但会炸毁附近的 <strong>1棵</strong> 敌国树木。</p> <p>树木的照片如下图所示。</p> <p></p> <img src='stimuli/trees/4.png', style='max-width: 30%;'> </img> <p><strong>你是否选择发射武器？</strong></p>","0",""
"","","","","","html-keyboard-response","68","229561","0.0-4.0-0.32","178","1","2022-11-28 09:56:13","7b1eb8be57ff77859c7d9ac988e43411","111.199.64.132","Mozilla/5.0 (Macintosh; Intel Mac OS X 10_15_7) AppleWebKit/605.1.15 (KHTML, like Gecko) Version/15.0 Safari/605.1.15","Macintosh","Safari","15.0","OS X","10_15_7","null","<div style=""font-size:60px;"">+</div>","null",""
"","","","","","html-button-response","69","230655","0.0-4.0-1.32","178","1","2022-11-28 09:56:13","7b1eb8be57ff77859c7d9ac988e43411","111.199.64.132","Mozilla/5.0 (Macintosh; Intel Mac OS X 10_15_7) AppleWebKit/605.1.15 (KHTML, like Gecko) Version/15.0 Safari/605.1.15","Macintosh","Safari","15.0","OS X","10_15_7","1086","<p>作为军队的指挥官，你可以选择发射导弹杀死 <strong>4名</strong> 敌国士兵，但会误杀附近的 <strong>1名</strong> 敌国平民。</p> <p>平民照片如下图所示。</p> <p></p> <img src='stimuli/faces/PCM4.jpg', style='max-width: 30%;'> </img> <p><strong>你是否选择发射武器？</strong></p>","1",""
"","","","","","html-keyboard-response","70","231660","0.0-4.0-0.33","178","1","2022-11-28 09:56:13","7b1eb8be57ff77859c7d9ac988e43411","111.199.64.132","Mozilla/5.0 (Macintosh; Intel Mac OS X 10_15_7) AppleWebKit/605.1.15 (KHTML, like Gecko) Version/15.0 Safari/605.1.15","Macintosh","Safari","15.0","OS X","10_15_7","null","<div style=""font-size:60px;"">+</div>","null",""
"","","","","","html-button-response","71","234031","0.0-4.0-1.33","178","1","2022-11-28 09:56:13","7b1eb8be57ff77859c7d9ac988e43411","111.199.64.132","Mozilla/5.0 (Macintosh; Intel Mac OS X 10_15_7) AppleWebKit/605.1.15 (KHTML, like Gecko) Version/15.0 Safari/605.1.15","Macintosh","Safari","15.0","OS X","10_15_7","2365","<p>作为军队的指挥官，你可以选择发射导弹杀死 <strong>8名</strong> 敌国士兵，但会误杀附近的 <strong>1名</strong> 敌国平民。</p> <p>平民照片如下图所示。</p> <p></p> <img src='stimuli/faces/PCM5.jpg', style='max-width: 30%;'> </img> <p><strong>你是否选择发射武器？</strong></p>","1",""
"","","","","","html-keyboard-response","72","235036","0.0-4.0-0.34","178","1","2022-11-28 09:56:13","7b1eb8be57ff77859c7d9ac988e43411","111.199.64.132","Mozilla/5.0 (Macintosh; Intel Mac OS X 10_15_7) AppleWebKit/605.1.15 (KHTML, like Gecko) Version/15.0 Safari/605.1.15","Macintosh","Safari","15.0","OS X","10_15_7","null","<div style=""font-size:60px;"">+</div>","null",""
"","","","","","html-button-response","73","236741","0.0-4.0-1.34","178","1","2022-11-28 09:56:13","7b1eb8be57ff77859c7d9ac988e43411","111.199.64.132","Mozilla/5.0 (Macintosh; Intel Mac OS X 10_15_7) AppleWebKit/605.1.15 (KHTML, like Gecko) Version/15.0 Safari/605.1.15","Macintosh","Safari","15.0","OS X","10_15_7","1698","<p>作为军队的指挥官，你可以选择发射导弹杀死 <strong>2名</strong> 敌国士兵，但会炸毁附近的 <strong>1棵</strong> 敌国树木。</p> <p>树木的照片如下图所示。</p> <p></p> <img src='stimuli/trees/2.png', style='max-width: 30%;'> </img> <p><strong>你是否选择发射武器？</strong></p>","0",""
"","","","","","html-keyboard-response","74","237748","0.0-4.0-0.35","178","1","2022-11-28 09:56:13","7b1eb8be57ff77859c7d9ac988e43411","111.199.64.132","Mozilla/5.0 (Macintosh; Intel Mac OS X 10_15_7) AppleWebKit/605.1.15 (KHTML, like Gecko) Version/15.0 Safari/605.1.15","Macintosh","Safari","15.0","OS X","10_15_7","null","<div style=""font-size:60px;"">+</div>","null",""
"","","","","","html-button-response","75","239746","0.0-4.0-1.35","178","1","2022-11-28 09:56:13","7b1eb8be57ff77859c7d9ac988e43411","111.199.64.132","Mozilla/5.0 (Macintosh; Intel Mac OS X 10_15_7) AppleWebKit/605.1.15 (KHTML, like Gecko) Version/15.0 Safari/605.1.15","Macintosh","Safari","15.0","OS X","10_15_7","1992","<p>作为军队的指挥官，你可以选择发射导弹杀死 <strong>10名</strong> 敌国士兵，但会误杀附近的 <strong>1名</strong> 敌国平民。</p> <p>平民照片如下图所示。</p> <p></p> <img src='stimuli/faces/PCM3.jpg', style='max-width: 30%;'> </img> <p><strong>你是否选择发射武器？</strong></p>","1",""
"","","","","","html-keyboard-response","76","240752","0.0-4.0-0.36","178","1","2022-11-28 09:56:13","7b1eb8be57ff77859c7d9ac988e43411","111.199.64.132","Mozilla/5.0 (Macintosh; Intel Mac OS X 10_15_7) AppleWebKit/605.1.15 (KHTML, like Gecko) Version/15.0 Safari/605.1.15","Macintosh","Safari","15.0","OS X","10_15_7","null","<div style=""font-size:60px;"">+</div>","null",""
"","","","","","html-button-response","77","241838","0.0-4.0-1.36","178","1","2022-11-28 09:56:13","7b1eb8be57ff77859c7d9ac988e43411","111.199.64.132","Mozilla/5.0 (Macintosh; Intel Mac OS X 10_15_7) AppleWebKit/605.1.15 (KHTML, like Gecko) Version/15.0 Safari/605.1.15","Macintosh","Safari","15.0","OS X","10_15_7","1079","<p>作为军队的指挥官，你可以选择发射导弹杀死 <strong>7名</strong> 敌国士兵，但会误杀附近的 <strong>1名</strong> 敌国平民。</p> <p>平民照片如下图所示。</p> <p></p> <img src='stimuli/faces/PCF4.jpg', style='max-width: 30%;'> </img> <p><strong>你是否选择发射武器？</strong></p>","1",""
"","","","","","html-keyboard-response","78","242844","0.0-4.0-0.37","178","1","2022-11-28 09:56:13","7b1eb8be57ff77859c7d9ac988e43411","111.199.64.132","Mozilla/5.0 (Macintosh; Intel Mac OS X 10_15_7) AppleWebKit/605.1.15 (KHTML, like Gecko) Version/15.0 Safari/605.1.15","Macintosh","Safari","15.0","OS X","10_15_7","null","<div style=""font-size:60px;"">+</div>","null",""
"","","","","","html-button-response","79","243813","0.0-4.0-1.37","178","1","2022-11-28 09:56:13","7b1eb8be57ff77859c7d9ac988e43411","111.199.64.132","Mozilla/5.0 (Macintosh; Intel Mac OS X 10_15_7) AppleWebKit/605.1.15 (KHTML, like Gecko) Version/15.0 Safari/605.1.15","Macintosh","Safari","15.0","OS X","10_15_7","963","<p>作为军队的指挥官，你可以选择发射导弹杀死 <strong>10名</strong> 敌国士兵，但会炸毁附近的 <strong>1棵</strong> 敌国树木。</p> <p>树木的照片如下图所示。</p> <p></p> <img src='stimuli/trees/5.png', style='max-width: 30%;'> </img> <p><strong>你是否选择发射武器？</strong></p>","0",""
"","","","","","html-keyboard-response","80","244819","0.0-4.0-0.38","178","1","2022-11-28 09:56:13","7b1eb8be57ff77859c7d9ac988e43411","111.199.64.132","Mozilla/5.0 (Macintosh; Intel Mac OS X 10_15_7) AppleWebKit/605.1.15 (KHTML, like Gecko) Version/15.0 Safari/605.1.15","Macintosh","Safari","15.0","OS X","10_15_7","null","<div style=""font-size:60px;"">+</div>","null",""
"","","","","","html-button-response","81","245462","0.0-4.0-1.38","178","1","2022-11-28 09:56:13","7b1eb8be57ff77859c7d9ac988e43411","111.199.64.132","Mozilla/5.0 (Macintosh; Intel Mac OS X 10_15_7) AppleWebKit/605.1.15 (KHTML, like Gecko) Version/15.0 Safari/605.1.15","Macintosh","Safari","15.0","OS X","10_15_7","636","<p>作为军队的指挥官，你可以选择发射导弹杀死 <strong>4名</strong> 敌国士兵，但会炸毁附近的 <strong>1棵</strong> 敌国树木。</p> <p>树木的照片如下图所示。</p> <p></p> <img src='stimuli/trees/11.png', style='max-width: 30%;'> </img> <p><strong>你是否选择发射武器？</strong></p>","0",""
"","","","","","html-keyboard-response","82","246468","0.0-4.0-0.39","178","1","2022-11-28 09:56:13","7b1eb8be57ff77859c7d9ac988e43411","111.199.64.132","Mozilla/5.0 (Macintosh; Intel Mac OS X 10_15_7) AppleWebKit/605.1.15 (KHTML, like Gecko) Version/15.0 Safari/605.1.15","Macintosh","Safari","15.0","OS X","10_15_7","null","<div style=""font-size:60px;"">+</div>","null",""
"","","","","","html-button-response","83","247079","0.0-4.0-1.39","178","1","2022-11-28 09:56:13","7b1eb8be57ff77859c7d9ac988e43411","111.199.64.132","Mozilla/5.0 (Macintosh; Intel Mac OS X 10_15_7) AppleWebKit/605.1.15 (KHTML, like Gecko) Version/15.0 Safari/605.1.15","Macintosh","Safari","15.0","OS X","10_15_7","605","<p>作为军队的指挥官，你可以选择发射导弹杀死 <strong>5名</strong> 敌国士兵，但会炸毁附近的 <strong>1棵</strong> 敌国树木。</p> <p>树木的照片如下图所示。</p> <p></p> <img src='stimuli/trees/4.png', style='max-width: 30%;'> </img> <p><strong>你是否选择发射武器？</strong></p>","0",""
"","","","","","html-keyboard-response","84","248086","0.0-4.0-0.40","178","1","2022-11-28 09:56:13","7b1eb8be57ff77859c7d9ac988e43411","111.199.64.132","Mozilla/5.0 (Macintosh; Intel Mac OS X 10_15_7) AppleWebKit/605.1.15 (KHTML, like Gecko) Version/15.0 Safari/605.1.15","Macintosh","Safari","15.0","OS X","10_15_7","null","<div style=""font-size:60px;"">+</div>","null",""
"","","","","","html-button-response","85","248689","0.0-4.0-1.40","178","1","2022-11-28 09:56:13","7b1eb8be57ff77859c7d9ac988e43411","111.199.64.132","Mozilla/5.0 (Macintosh; Intel Mac OS X 10_15_7) AppleWebKit/605.1.15 (KHTML, like Gecko) Version/15.0 Safari/605.1.15","Macintosh","Safari","15.0","OS X","10_15_7","595","<p>作为军队的指挥官，你可以选择发射导弹杀死 <strong>3名</strong> 敌国士兵，但会炸毁附近的 <strong>1棵</strong> 敌国树木。</p> <p>树木的照片如下图所示。</p> <p></p> <img src='stimuli/trees/3.png', style='max-width: 30%;'> </img> <p><strong>你是否选择发射武器？</strong></p>","0",""
"","","","","","html-keyboard-response","86","249695","0.0-4.0-0.41","178","1","2022-11-28 09:56:13","7b1eb8be57ff77859c7d9ac988e43411","111.199.64.132","Mozilla/5.0 (Macintosh; Intel Mac OS X 10_15_7) AppleWebKit/605.1.15 (KHTML, like Gecko) Version/15.0 Safari/605.1.15","Macintosh","Safari","15.0","OS X","10_15_7","null","<div style=""font-size:60px;"">+</div>","null",""
"","","","","","html-button-response","87","251377","0.0-4.0-1.41","178","1","2022-11-28 09:56:13","7b1eb8be57ff77859c7d9ac988e43411","111.199.64.132","Mozilla/5.0 (Macintosh; Intel Mac OS X 10_15_7) AppleWebKit/605.1.15 (KHTML, like Gecko) Version/15.0 Safari/605.1.15","Macintosh","Safari","15.0","OS X","10_15_7","1675","<p>作为军队的指挥官，你可以选择发射导弹杀死 <strong>5名</strong> 敌国士兵，但会误杀附近的 <strong>1名</strong> 敌国平民。</p> <p>平民照片如下图所示。</p> <p></p> <img src='stimuli/faces/PCF1.jpg', style='max-width: 30%;'> </img> <p><strong>你是否选择发射武器？</strong></p>","1",""
"","","","","","html-keyboard-response","88","252384","0.0-4.0-0.42","178","1","2022-11-28 09:56:13","7b1eb8be57ff77859c7d9ac988e43411","111.199.64.132","Mozilla/5.0 (Macintosh; Intel Mac OS X 10_15_7) AppleWebKit/605.1.15 (KHTML, like Gecko) Version/15.0 Safari/605.1.15","Macintosh","Safari","15.0","OS X","10_15_7","null","<div style=""font-size:60px;"">+</div>","null",""
"","","","","","html-button-response","89","254146","0.0-4.0-1.42","178","1","2022-11-28 09:56:13","7b1eb8be57ff77859c7d9ac988e43411","111.199.64.132","Mozilla/5.0 (Macintosh; Intel Mac OS X 10_15_7) AppleWebKit/605.1.15 (KHTML, like Gecko) Version/15.0 Safari/605.1.15","Macintosh","Safari","15.0","OS X","10_15_7","1754","<p>作为军队的指挥官，你可以选择发射导弹杀死 <strong>10名</strong> 敌国士兵，但会误杀附近的 <strong>1名</strong> 敌国平民。</p> <p>平民照片如下图所示。</p> <p></p> <img src='stimuli/faces/PCF7.jpg', style='max-width: 30%;'> </img> <p><strong>你是否选择发射武器？</strong></p>","1",""
"","","","","","html-keyboard-response","90","255151","0.0-4.0-0.43","178","1","2022-11-28 09:56:13","7b1eb8be57ff77859c7d9ac988e43411","111.199.64.132","Mozilla/5.0 (Macintosh; Intel Mac OS X 10_15_7) AppleWebKit/605.1.15 (KHTML, like Gecko) Version/15.0 Safari/605.1.15","Macintosh","Safari","15.0","OS X","10_15_7","null","<div style=""font-size:60px;"">+</div>","null",""
"","","","","","html-button-response","91","258781","0.0-4.0-1.43","178","1","2022-11-28 09:56:13","7b1eb8be57ff77859c7d9ac988e43411","111.199.64.132","Mozilla/5.0 (Macintosh; Intel Mac OS X 10_15_7) AppleWebKit/605.1.15 (KHTML, like Gecko) Version/15.0 Safari/605.1.15","Macintosh","Safari","15.0","OS X","10_15_7","3623","<p>作为军队的指挥官，你可以选择发射导弹杀死 <strong>2名</strong> 敌国士兵，但会误杀附近的 <strong>1名</strong> 敌国平民。</p> <p>平民照片如下图所示。</p> <p></p> <img src='stimuli/faces/PCF6.jpg', style='max-width: 30%;'> </img> <p><strong>你是否选择发射武器？</strong></p>","1",""
"","","","","","html-keyboard-response","92","259790","0.0-4.0-0.44","178","1","2022-11-28 09:56:13","7b1eb8be57ff77859c7d9ac988e43411","111.199.64.132","Mozilla/5.0 (Macintosh; Intel Mac OS X 10_15_7) AppleWebKit/605.1.15 (KHTML, like Gecko) Version/15.0 Safari/605.1.15","Macintosh","Safari","15.0","OS X","10_15_7","null","<div style=""font-size:60px;"">+</div>","null",""
"","","","","","html-button-response","93","261188","0.0-4.0-1.44","178","1","2022-11-28 09:56:13","7b1eb8be57ff77859c7d9ac988e43411","111.199.64.132","Mozilla/5.0 (Macintosh; Intel Mac OS X 10_15_7) AppleWebKit/605.1.15 (KHTML, like Gecko) Version/15.0 Safari/605.1.15","Macintosh","Safari","15.0","OS X","10_15_7","1390","<p>作为军队的指挥官，你可以选择发射导弹杀死 <strong>4名</strong> 敌国士兵，但会误杀附近的 <strong>1名</strong> 敌国平民。</p> <p>平民照片如下图所示。</p> <p></p> <img src='stimuli/faces/PCM8.jpg', style='max-width: 30%;'> </img> <p><strong>你是否选择发射武器？</strong></p>","1",""
"","","","","","html-keyboard-response","94","262194","0.0-4.0-0.45","178","1","2022-11-28 09:56:13","7b1eb8be57ff77859c7d9ac988e43411","111.199.64.132","Mozilla/5.0 (Macintosh; Intel Mac OS X 10_15_7) AppleWebKit/605.1.15 (KHTML, like Gecko) Version/15.0 Safari/605.1.15","Macintosh","Safari","15.0","OS X","10_15_7","null","<div style=""font-size:60px;"">+</div>","null",""
"","","","","","html-button-response","95","263369","0.0-4.0-1.45","178","1","2022-11-28 09:56:13","7b1eb8be57ff77859c7d9ac988e43411","111.199.64.132","Mozilla/5.0 (Macintosh; Intel Mac OS X 10_15_7) AppleWebKit/605.1.15 (KHTML, like Gecko) Version/15.0 Safari/605.1.15","Macintosh","Safari","15.0","OS X","10_15_7","1168","<p>作为军队的指挥官，你可以选择发射导弹杀死 <strong>10名</strong> 敌国士兵，但会炸毁附近的 <strong>1棵</strong> 敌国树木。</p> <p>树木的照片如下图所示。</p> <p></p> <img src='stimuli/trees/7.png', style='max-width: 30%;'> </img> <p><strong>你是否选择发射武器？</strong></p>","0",""
"","","","","","html-keyboard-response","96","264377","0.0-4.0-0.46","178","1","2022-11-28 09:56:13","7b1eb8be57ff77859c7d9ac988e43411","111.199.64.132","Mozilla/5.0 (Macintosh; Intel Mac OS X 10_15_7) AppleWebKit/605.1.15 (KHTML, like Gecko) Version/15.0 Safari/605.1.15","Macintosh","Safari","15.0","OS X","10_15_7","null","<div style=""font-size:60px;"">+</div>","null",""
"","","","","","html-button-response","97","266497","0.0-4.0-1.46","178","1","2022-11-28 09:56:13","7b1eb8be57ff77859c7d9ac988e43411","111.199.64.132","Mozilla/5.0 (Macintosh; Intel Mac OS X 10_15_7) AppleWebKit/605.1.15 (KHTML, like Gecko) Version/15.0 Safari/605.1.15","Macintosh","Safari","15.0","OS X","10_15_7","2112","<p>作为军队的指挥官，你可以选择发射导弹杀死 <strong>10名</strong> 敌国士兵，但会误杀附近的 <strong>1名</strong> 敌国平民。</p> <p>平民照片如下图所示。</p> <p></p> <img src='stimuli/faces/PCF5.jpg', style='max-width: 30%;'> </img> <p><strong>你是否选择发射武器？</strong></p>","1",""
"","","","","","html-keyboard-response","98","267503","0.0-4.0-0.47","178","1","2022-11-28 09:56:13","7b1eb8be57ff77859c7d9ac988e43411","111.199.64.132","Mozilla/5.0 (Macintosh; Intel Mac OS X 10_15_7) AppleWebKit/605.1.15 (KHTML, like Gecko) Version/15.0 Safari/605.1.15","Macintosh","Safari","15.0","OS X","10_15_7","null","<div style=""font-size:60px;"">+</div>","null",""
"","","","","","html-button-response","99","268658","0.0-4.0-1.47","178","1","2022-11-28 09:56:13","7b1eb8be57ff77859c7d9ac988e43411","111.199.64.132","Mozilla/5.0 (Macintosh; Intel Mac OS X 10_15_7) AppleWebKit/605.1.15 (KHTML, like Gecko) Version/15.0 Safari/605.1.15","Macintosh","Safari","15.0","OS X","10_15_7","1147","<p>作为军队的指挥官，你可以选择发射导弹杀死 <strong>5名</strong> 敌国士兵，但会炸毁附近的 <strong>1棵</strong> 敌国树木。</p> <p>树木的照片如下图所示。</p> <p></p> <img src='stimuli/trees/7.png', style='max-width: 30%;'> </img> <p><strong>你是否选择发射武器？</strong></p>","0",""
"","","","","","html-keyboard-response","100","269664","0.0-4.0-0.48","178","1","2022-11-28 09:56:13","7b1eb8be57ff77859c7d9ac988e43411","111.199.64.132","Mozilla/5.0 (Macintosh; Intel Mac OS X 10_15_7) AppleWebKit/605.1.15 (KHTML, like Gecko) Version/15.0 Safari/605.1.15","Macintosh","Safari","15.0","OS X","10_15_7","null","<div style=""font-size:60px;"">+</div>","null",""
"","","","","","html-button-response","101","270458","0.0-4.0-1.48","178","1","2022-11-28 09:56:13","7b1eb8be57ff77859c7d9ac988e43411","111.199.64.132","Mozilla/5.0 (Macintosh; Intel Mac OS X 10_15_7) AppleWebKit/605.1.15 (KHTML, like Gecko) Version/15.0 Safari/605.1.15","Macintosh","Safari","15.0","OS X","10_15_7","786","<p>作为军队的指挥官，你可以选择发射导弹杀死 <strong>10名</strong> 敌国士兵，但会炸毁附近的 <strong>1棵</strong> 敌国树木。</p> <p>树木的照片如下图所示。</p> <p></p> <img src='stimuli/trees/6.png', style='max-width: 30%;'> </img> <p><strong>你是否选择发射武器？</strong></p>","0",""
"","","","","","html-keyboard-response","102","271464","0.0-4.0-0.49","178","1","2022-11-28 09:56:13","7b1eb8be57ff77859c7d9ac988e43411","111.199.64.132","Mozilla/5.0 (Macintosh; Intel Mac OS X 10_15_7) AppleWebKit/605.1.15 (KHTML, like Gecko) Version/15.0 Safari/605.1.15","Macintosh","Safari","15.0","OS X","10_15_7","null","<div style=""font-size:60px;"">+</div>","null",""
"","","","","","html-button-response","103","272010","0.0-4.0-1.49","178","1","2022-11-28 09:56:13","7b1eb8be57ff77859c7d9ac988e43411","111.199.64.132","Mozilla/5.0 (Macintosh; Intel Mac OS X 10_15_7) AppleWebKit/605.1.15 (KHTML, like Gecko) Version/15.0 Safari/605.1.15","Macintosh","Safari","15.0","OS X","10_15_7","539","<p>作为军队的指挥官，你可以选择发射导弹杀死 <strong>5名</strong> 敌国士兵，但会炸毁附近的 <strong>1棵</strong> 敌国树木。</p> <p>树木的照片如下图所示。</p> <p></p> <img src='stimuli/trees/15.png', style='max-width: 30%;'> </img> <p><strong>你是否选择发射武器？</strong></p>","0",""
"","","","","","html-keyboard-response","104","273017","0.0-4.0-0.50","178","1","2022-11-28 09:56:13","7b1eb8be57ff77859c7d9ac988e43411","111.199.64.132","Mozilla/5.0 (Macintosh; Intel Mac OS X 10_15_7) AppleWebKit/605.1.15 (KHTML, like Gecko) Version/15.0 Safari/605.1.15","Macintosh","Safari","15.0","OS X","10_15_7","null","<div style=""font-size:60px;"">+</div>","null",""
"","","","","","html-button-response","105","273734","0.0-4.0-1.50","178","1","2022-11-28 09:56:13","7b1eb8be57ff77859c7d9ac988e43411","111.199.64.132","Mozilla/5.0 (Macintosh; Intel Mac OS X 10_15_7) AppleWebKit/605.1.15 (KHTML, like Gecko) Version/15.0 Safari/605.1.15","Macintosh","Safari","15.0","OS X","10_15_7","709","<p>作为军队的指挥官，你可以选择发射导弹杀死 <strong>1名</strong> 敌国士兵，但会炸毁附近的 <strong>1棵</strong> 敌国树木。</p> <p>树木的照片如下图所示。</p> <p></p> <img src='stimuli/trees/13.png', style='max-width: 30%;'> </img> <p><strong>你是否选择发射武器？</strong></p>","0",""
"","","","","","html-keyboard-response","106","274740","0.0-4.0-0.51","178","1","2022-11-28 09:56:13","7b1eb8be57ff77859c7d9ac988e43411","111.199.64.132","Mozilla/5.0 (Macintosh; Intel Mac OS X 10_15_7) AppleWebKit/605.1.15 (KHTML, like Gecko) Version/15.0 Safari/605.1.15","Macintosh","Safari","15.0","OS X","10_15_7","null","<div style=""font-size:60px;"">+</div>","null",""
"","","","","","html-button-response","107","275407","0.0-4.0-1.51","178","1","2022-11-28 09:56:13","7b1eb8be57ff77859c7d9ac988e43411","111.199.64.132","Mozilla/5.0 (Macintosh; Intel Mac OS X 10_15_7) AppleWebKit/605.1.15 (KHTML, like Gecko) Version/15.0 Safari/605.1.15","Macintosh","Safari","15.0","OS X","10_15_7","660","<p>作为军队的指挥官，你可以选择发射导弹杀死 <strong>6名</strong> 敌国士兵，但会炸毁附近的 <strong>1棵</strong> 敌国树木。</p> <p>树木的照片如下图所示。</p> <p></p> <img src='stimuli/trees/10.png', style='max-width: 30%;'> </img> <p><strong>你是否选择发射武器？</strong></p>","0",""
"","","","","","html-keyboard-response","108","276413","0.0-4.0-0.52","178","1","2022-11-28 09:56:13","7b1eb8be57ff77859c7d9ac988e43411","111.199.64.132","Mozilla/5.0 (Macintosh; Intel Mac OS X 10_15_7) AppleWebKit/605.1.15 (KHTML, like Gecko) Version/15.0 Safari/605.1.15","Macintosh","Safari","15.0","OS X","10_15_7","null","<div style=""font-size:60px;"">+</div>","null",""
"","","","","","html-button-response","109","277230","0.0-4.0-1.52","178","1","2022-11-28 09:56:13","7b1eb8be57ff77859c7d9ac988e43411","111.199.64.132","Mozilla/5.0 (Macintosh; Intel Mac OS X 10_15_7) AppleWebKit/605.1.15 (KHTML, like Gecko) Version/15.0 Safari/605.1.15","Macintosh","Safari","15.0","OS X","10_15_7","809","<p>作为军队的指挥官，你可以选择发射导弹杀死 <strong>8名</strong> 敌国士兵，但会炸毁附近的 <strong>1棵</strong> 敌国树木。</p> <p>树木的照片如下图所示。</p> <p></p> <img src='stimuli/trees/12.png', style='max-width: 30%;'> </img> <p><strong>你是否选择发射武器？</strong></p>","0",""
"","","","","","html-keyboard-response","110","278235","0.0-4.0-0.53","178","1","2022-11-28 09:56:13","7b1eb8be57ff77859c7d9ac988e43411","111.199.64.132","Mozilla/5.0 (Macintosh; Intel Mac OS X 10_15_7) AppleWebKit/605.1.15 (KHTML, like Gecko) Version/15.0 Safari/605.1.15","Macintosh","Safari","15.0","OS X","10_15_7","null","<div style=""font-size:60px;"">+</div>","null",""
"","","","","","html-button-response","111","279367","0.0-4.0-1.53","178","1","2022-11-28 09:56:13","7b1eb8be57ff77859c7d9ac988e43411","111.199.64.132","Mozilla/5.0 (Macintosh; Intel Mac OS X 10_15_7) AppleWebKit/605.1.15 (KHTML, like Gecko) Version/15.0 Safari/605.1.15","Macintosh","Safari","15.0","OS X","10_15_7","1125","<p>作为军队的指挥官，你可以选择发射导弹杀死 <strong>7名</strong> 敌国士兵，但会误杀附近的 <strong>1名</strong> 敌国平民。</p> <p>平民照片如下图所示。</p> <p></p> <img src='stimuli/faces/PCM1.jpg', style='max-width: 30%;'> </img> <p><strong>你是否选择发射武器？</strong></p>","1",""
"","","","","","html-keyboard-response","112","280375","0.0-4.0-0.54","178","1","2022-11-28 09:56:13","7b1eb8be57ff77859c7d9ac988e43411","111.199.64.132","Mozilla/5.0 (Macintosh; Intel Mac OS X 10_15_7) AppleWebKit/605.1.15 (KHTML, like Gecko) Version/15.0 Safari/605.1.15","Macintosh","Safari","15.0","OS X","10_15_7","null","<div style=""font-size:60px;"">+</div>","null",""
"","","","","","html-button-response","113","281133","0.0-4.0-1.54","178","1","2022-11-28 09:56:13","7b1eb8be57ff77859c7d9ac988e43411","111.199.64.132","Mozilla/5.0 (Macintosh; Intel Mac OS X 10_15_7) AppleWebKit/605.1.15 (KHTML, like Gecko) Version/15.0 Safari/605.1.15","Macintosh","Safari","15.0","OS X","10_15_7","751","<p>作为军队的指挥官，你可以选择发射导弹杀死 <strong>10名</strong> 敌国士兵，但会误杀附近的 <strong>1名</strong> 敌国平民。</p> <p>平民照片如下图所示。</p> <p></p> <img src='stimuli/faces/PCF3.jpg', style='max-width: 30%;'> </img> <p><strong>你是否选择发射武器？</strong></p>","1",""
"","","","","","html-keyboard-response","114","282140","0.0-4.0-0.55","178","1","2022-11-28 09:56:13","7b1eb8be57ff77859c7d9ac988e43411","111.199.64.132","Mozilla/5.0 (Macintosh; Intel Mac OS X 10_15_7) AppleWebKit/605.1.15 (KHTML, like Gecko) Version/15.0 Safari/605.1.15","Macintosh","Safari","15.0","OS X","10_15_7","null","<div style=""font-size:60px;"">+</div>","null",""
"","","","","","html-button-response","115","283518","0.0-4.0-1.55","178","1","2022-11-28 09:56:13","7b1eb8be57ff77859c7d9ac988e43411","111.199.64.132","Mozilla/5.0 (Macintosh; Intel Mac OS X 10_15_7) AppleWebKit/605.1.15 (KHTML, like Gecko) Version/15.0 Safari/605.1.15","Macintosh","Safari","15.0","OS X","10_15_7","1371","<p>作为军队的指挥官，你可以选择发射导弹杀死 <strong>5名</strong> 敌国士兵，但会炸毁附近的 <strong>1棵</strong> 敌国树木。</p> <p>树木的照片如下图所示。</p> <p></p> <img src='stimuli/trees/6.png', style='max-width: 30%;'> </img> <p><strong>你是否选择发射武器？</strong></p>","0",""
"","","","","","html-keyboard-response","116","284526","0.0-4.0-0.56","178","1","2022-11-28 09:56:13","7b1eb8be57ff77859c7d9ac988e43411","111.199.64.132","Mozilla/5.0 (Macintosh; Intel Mac OS X 10_15_7) AppleWebKit/605.1.15 (KHTML, like Gecko) Version/15.0 Safari/605.1.15","Macintosh","Safari","15.0","OS X","10_15_7","null","<div style=""font-size:60px;"">+</div>","null",""
"","","","","","html-button-response","117","285284","0.0-4.0-1.56","178","1","2022-11-28 09:56:13","7b1eb8be57ff77859c7d9ac988e43411","111.199.64.132","Mozilla/5.0 (Macintosh; Intel Mac OS X 10_15_7) AppleWebKit/605.1.15 (KHTML, like Gecko) Version/15.0 Safari/605.1.15","Macintosh","Safari","15.0","OS X","10_15_7","750","<p>作为军队的指挥官，你可以选择发射导弹杀死 <strong>10名</strong> 敌国士兵，但会炸毁附近的 <strong>1棵</strong> 敌国树木。</p> <p>树木的照片如下图所示。</p> <p></p> <img src='stimuli/trees/16.png', style='max-width: 30%;'> </img> <p><strong>你是否选择发射武器？</strong></p>","0",""
"","","","","","html-keyboard-response","118","286290","0.0-4.0-0.57","178","1","2022-11-28 09:56:13","7b1eb8be57ff77859c7d9ac988e43411","111.199.64.132","Mozilla/5.0 (Macintosh; Intel Mac OS X 10_15_7) AppleWebKit/605.1.15 (KHTML, like Gecko) Version/15.0 Safari/605.1.15","Macintosh","Safari","15.0","OS X","10_15_7","null","<div style=""font-size:60px;"">+</div>","null",""
"","","","","","html-button-response","119","287175","0.0-4.0-1.57","178","1","2022-11-28 09:56:13","7b1eb8be57ff77859c7d9ac988e43411","111.199.64.132","Mozilla/5.0 (Macintosh; Intel Mac OS X 10_15_7) AppleWebKit/605.1.15 (KHTML, like Gecko) Version/15.0 Safari/605.1.15","Macintosh","Safari","15.0","OS X","10_15_7","877","<p>作为军队的指挥官，你可以选择发射导弹杀死 <strong>2名</strong> 敌国士兵，但会炸毁附近的 <strong>1棵</strong> 敌国树木。</p> <p>树木的照片如下图所示。</p> <p></p> <img src='stimuli/trees/14.png', style='max-width: 30%;'> </img> <p><strong>你是否选择发射武器？</strong></p>","0",""
"","","","","","html-keyboard-response","120","288182","0.0-4.0-0.58","178","1","2022-11-28 09:56:13","7b1eb8be57ff77859c7d9ac988e43411","111.199.64.132","Mozilla/5.0 (Macintosh; Intel Mac OS X 10_15_7) AppleWebKit/605.1.15 (KHTML, like Gecko) Version/15.0 Safari/605.1.15","Macintosh","Safari","15.0","OS X","10_15_7","null","<div style=""font-size:60px;"">+</div>","null",""
"","","","","","html-button-response","121","297740","0.0-4.0-1.58","178","1","2022-11-28 09:56:13","7b1eb8be57ff77859c7d9ac988e43411","111.199.64.132","Mozilla/5.0 (Macintosh; Intel Mac OS X 10_15_7) AppleWebKit/605.1.15 (KHTML, like Gecko) Version/15.0 Safari/605.1.15","Macintosh","Safari","15.0","OS X","10_15_7","9550","<p>作为军队的指挥官，你可以选择发射导弹杀死 <strong>8名</strong> 敌国士兵，但会误杀附近的 <strong>1名</strong> 敌国平民。</p> <p>平民照片如下图所示。</p> <p></p> <img src='stimuli/faces/PCF6.jpg', style='max-width: 30%;'> </img> <p><strong>你是否选择发射武器？</strong></p>","1",""
"","","","","","html-keyboard-response","122","298748","0.0-4.0-0.59","178","1","2022-11-28 09:56:13","7b1eb8be57ff77859c7d9ac988e43411","111.199.64.132","Mozilla/5.0 (Macintosh; Intel Mac OS X 10_15_7) AppleWebKit/605.1.15 (KHTML, like Gecko) Version/15.0 Safari/605.1.15","Macintosh","Safari","15.0","OS X","10_15_7","null","<div style=""font-size:60px;"">+</div>","null",""
"","","","","","html-button-response","123","300686","0.0-4.0-1.59","178","1","2022-11-28 09:56:13","7b1eb8be57ff77859c7d9ac988e43411","111.199.64.132","Mozilla/5.0 (Macintosh; Intel Mac OS X 10_15_7) AppleWebKit/605.1.15 (KHTML, like Gecko) Version/15.0 Safari/605.1.15","Macintosh","Safari","15.0","OS X","10_15_7","1929","<p>作为军队的指挥官，你可以选择发射导弹杀死 <strong>3名</strong> 敌国士兵，但会炸毁附近的 <strong>1棵</strong> 敌国树木。</p> <p>树木的照片如下图所示。</p> <p></p> <img src='stimuli/trees/5.png', style='max-width: 30%;'> </img> <p><strong>你是否选择发射武器？</strong></p>","0",""
"","","","","","html-keyboard-response","124","301693","0.0-4.0-0.60","178","1","2022-11-28 09:56:13","7b1eb8be57ff77859c7d9ac988e43411","111.199.64.132","Mozilla/5.0 (Macintosh; Intel Mac OS X 10_15_7) AppleWebKit/605.1.15 (KHTML, like Gecko) Version/15.0 Safari/605.1.15","Macintosh","Safari","15.0","OS X","10_15_7","null","<div style=""font-size:60px;"">+</div>","null",""
"","","","","","html-button-response","125","303387","0.0-4.0-1.60","178","1","2022-11-28 09:56:13","7b1eb8be57ff77859c7d9ac988e43411","111.199.64.132","Mozilla/5.0 (Macintosh; Intel Mac OS X 10_15_7) AppleWebKit/605.1.15 (KHTML, like Gecko) Version/15.0 Safari/605.1.15","Macintosh","Safari","15.0","OS X","10_15_7","1689","<p>作为军队的指挥官，你可以选择发射导弹杀死 <strong>3名</strong> 敌国士兵，但会炸毁附近的 <strong>1棵</strong> 敌国树木。</p> <p>树木的照片如下图所示。</p> <p></p> <img src='stimuli/trees/10.png', style='max-width: 30%;'> </img> <p><strong>你是否选择发射武器？</strong></p>","0",""
"","","","","","html-keyboard-response","126","304395","0.0-4.0-0.61","178","1","2022-11-28 09:56:13","7b1eb8be57ff77859c7d9ac988e43411","111.199.64.132","Mozilla/5.0 (Macintosh; Intel Mac OS X 10_15_7) AppleWebKit/605.1.15 (KHTML, like Gecko) Version/15.0 Safari/605.1.15","Macintosh","Safari","15.0","OS X","10_15_7","null","<div style=""font-size:60px;"">+</div>","null",""
"","","","","","html-button-response","127","305906","0.0-4.0-1.61","178","1","2022-11-28 09:56:13","7b1eb8be57ff77859c7d9ac988e43411","111.199.64.132","Mozilla/5.0 (Macintosh; Intel Mac OS X 10_15_7) AppleWebKit/605.1.15 (KHTML, like Gecko) Version/15.0 Safari/605.1.15","Macintosh","Safari","15.0","OS X","10_15_7","1503","<p>作为军队的指挥官，你可以选择发射导弹杀死 <strong>5名</strong> 敌国士兵，但会误杀附近的 <strong>1名</strong> 敌国平民。</p> <p>平民照片如下图所示。</p> <p></p> <img src='stimuli/faces/PCM5.jpg', style='max-width: 30%;'> </img> <p><strong>你是否选择发射武器？</strong></p>","1",""
"","","","","","html-keyboard-response","128","306913","0.0-4.0-0.62","178","1","2022-11-28 09:56:13","7b1eb8be57ff77859c7d9ac988e43411","111.199.64.132","Mozilla/5.0 (Macintosh; Intel Mac OS X 10_15_7) AppleWebKit/605.1.15 (KHTML, like Gecko) Version/15.0 Safari/605.1.15","Macintosh","Safari","15.0","OS X","10_15_7","null","<div style=""font-size:60px;"">+</div>","null",""
"","","","","","html-button-response","129","308178","0.0-4.0-1.62","178","1","2022-11-28 09:56:13","7b1eb8be57ff77859c7d9ac988e43411","111.199.64.132","Mozilla/5.0 (Macintosh; Intel Mac OS X 10_15_7) AppleWebKit/605.1.15 (KHTML, like Gecko) Version/15.0 Safari/605.1.15","Macintosh","Safari","15.0","OS X","10_15_7","1257","<p>作为军队的指挥官，你可以选择发射导弹杀死 <strong>6名</strong> 敌国士兵，但会炸毁附近的 <strong>1棵</strong> 敌国树木。</p> <p>树木的照片如下图所示。</p> <p></p> <img src='stimuli/trees/2.png', style='max-width: 30%;'> </img> <p><strong>你是否选择发射武器？</strong></p>","0",""
"","","","","","html-keyboard-response","130","309185","0.0-4.0-0.63","178","1","2022-11-28 09:56:13","7b1eb8be57ff77859c7d9ac988e43411","111.199.64.132","Mozilla/5.0 (Macintosh; Intel Mac OS X 10_15_7) AppleWebKit/605.1.15 (KHTML, like Gecko) Version/15.0 Safari/605.1.15","Macintosh","Safari","15.0","OS X","10_15_7","null","<div style=""font-size:60px;"">+</div>","null",""
"","","","","","html-button-response","131","311003","0.0-4.0-1.63","178","1","2022-11-28 09:56:13","7b1eb8be57ff77859c7d9ac988e43411","111.199.64.132","Mozilla/5.0 (Macintosh; Intel Mac OS X 10_15_7) AppleWebKit/605.1.15 (KHTML, like Gecko) Version/15.0 Safari/605.1.15","Macintosh","Safari","15.0","OS X","10_15_7","1811","<p>作为军队的指挥官，你可以选择发射导弹杀死 <strong>2名</strong> 敌国士兵，但会炸毁附近的 <strong>1棵</strong> 敌国树木。</p> <p>树木的照片如下图所示。</p> <p></p> <img src='stimuli/trees/16.png', style='max-width: 30%;'> </img> <p><strong>你是否选择发射武器？</strong></p>","0",""
"","","","","","survey-multi-choice","132","321295","0.0-5.0","178","1","2022-11-28 09:56:13","7b1eb8be57ff77859c7d9ac988e43411","111.199.64.132","Mozilla/5.0 (Macintosh; Intel Mac OS X 10_15_7) AppleWebKit/605.1.15 (KHTML, like Gecko) Version/15.0 Safari/605.1.15","Macintosh","Safari","15.0","OS X","10_15_7","10285","","{""Attention1"":""""}","[0]"
"","","","","","html-button-response","133","728724","0.0-6.0","178","1","2022-11-28 09:56:13","7b1eb8be57ff77859c7d9ac988e43411","111.199.64.132","Mozilla/5.0 (Macintosh; Intel Mac OS X 10_15_7) AppleWebKit/605.1.15 (KHTML, like Gecko) Version/15.0 Safari/605.1.15","Macintosh","Safari","15.0","OS X","10_15_7","407437","<p style=""font-size:20px;font-weight:bold;"">恭喜！</p><p>你已经完成了实验的第一部分。</p><p>请休息放松一下，然后进入第二部分。</p><p>这部分大约需要10分钟。</p>","0",""
"","","","","","survey-text","134","752516","0.0-7.0","178","1","2022-11-28 09:56:13","7b1eb8be57ff77859c7d9ac988e43411","111.199.64.132","Mozilla/5.0 (Macintosh; Intel Mac OS X 10_15_7) AppleWebKit/605.1.15 (KHTML, like Gecko) Version/15.0 Safari/605.1.15","Macintosh","Safari","15.0","OS X","10_15_7","22751","","{""Age"":""22"",""Nation"":""中国"",""Born"":""河南"",""Live"":""北京"",""Ethnic"":""汉"",""Alipay"":""15510391625"",""ID"":""""}",""
"","","","","","survey-multi-choice","135","775739","0.0-8.0","178","1","2022-11-28 09:56:13","7b1eb8be57ff77859c7d9ac988e43411","111.199.64.132","Mozilla/5.0 (Macintosh; Intel Mac OS X 10_15_7) AppleWebKit/605.1.15 (KHTML, like Gecko) Version/15.0 Safari/605.1.15","Macintosh","Safari","15.0","OS X","10_15_7","23218","","{""Gender"":""女"",""Education"":""本科毕业"",""Income"":""￥35,000-￥69,999"",""Children"":""0"",""Race"":""亚洲人""}","[0,1,2,3,4]"
"","","","","","survey-multi-select","136","784120","0.0-9.0","178","1","2022-11-28 09:56:13","7b1eb8be57ff77859c7d9ac988e43411","111.199.64.132","Mozilla/5.0 (Macintosh; Intel Mac OS X 10_15_7) AppleWebKit/605.1.15 (KHTML, like Gecko) Version/15.0 Safari/605.1.15","Macintosh","Safari","15.0","OS X","10_15_7","8371","","{""Marriage"":[""未婚""],""Religion"":[""无宗教信仰""]}","[0,1]"
"","","","","","survey-multi-choice","137","799241","0.0-10.0","178","1","2022-11-28 09:56:13","7b1eb8be57ff77859c7d9ac988e43411","111.199.64.132","Mozilla/5.0 (Macintosh; Intel Mac OS X 10_15_7) AppleWebKit/605.1.15 (KHTML, like Gecko) Version/15.0 Safari/605.1.15","Macintosh","Safari","15.0","OS X","10_15_7","15114","","{""SES"":""3""}","[0]"
"","","","","","html-button-response","138","800979","0.0-11.0","178","1","2022-11-28 09:56:13","7b1eb8be57ff77859c7d9ac988e43411","111.199.64.132","Mozilla/5.0 (Macintosh; Intel Mac OS X 10_15_7) AppleWebKit/605.1.15 (KHTML, like Gecko) Version/15.0 Safari/605.1.15","Macintosh","Safari","15.0","OS X","10_15_7","1732","<p><strong>请判断下列陈述在多大程度上可以形容你？</p><p> (1 = ""和我一点都不像"" to 5 = ""非常像我"".)</strong></p>","0",""
"","","","","","survey-likert","139","830984","0.0-12.0","178","1","2022-11-28 09:56:13","7b1eb8be57ff77859c7d9ac988e43411","111.199.64.132","Mozilla/5.0 (Macintosh; Intel Mac OS X 10_15_7) AppleWebKit/605.1.15 (KHTML, like Gecko) Version/15.0 Safari/605.1.15","Macintosh","Safari","15.0","OS X","10_15_7","29997","","{""Aggression1"":0,""Aggression2"":0,""Aggression3"":2,""Aggression4"":0,""Aggression5"":2,""Aggression6"":1,""Aggression7"":2,""Aggression8"":0,""Aggression9"":2}","[0,1,2,3,4,5,6,7,8]"
"","","","","","html-button-response","140","832221","0.0-13.0","178","1","2022-11-28 09:56:13","7b1eb8be57ff77859c7d9ac988e43411","111.199.64.132","Mozilla/5.0 (Macintosh; Intel Mac OS X 10_15_7) AppleWebKit/605.1.15 (KHTML, like Gecko) Version/15.0 Safari/605.1.15","Macintosh","Safari","15.0","OS X","10_15_7","1231","<p><strong>请判断你在多大程度上同意下列陈述。</strong></p>","0",""
"","","","","","survey-likert","141","1062533","0.0-14.0","178","1","2022-11-28 09:56:13","7b1eb8be57ff77859c7d9ac988e43411","111.199.64.132","Mozilla/5.0 (Macintosh; Intel Mac OS X 10_15_7) AppleWebKit/605.1.15 (KHTML, like Gecko) Version/15.0 Safari/605.1.15","Macintosh","Safari","15.0","OS X","10_15_7","230309","","{""scale5"":3,""scale24"":2,""scale7"":1,""scale28"":2,""scale27"":2,""scale23"":2,""scale4"":2,""scale18"":2,""scale14"":2,""scale10"":1,""scale6"":3,""scale16"":1,""scale15"":2,""scale8"":2,""scale1"":3,""scale13"":1,""scale26"":3,""scale19"":1,""scale20"":2,""scale12"":1,""scale22"":3,""scale11"":3,""scale17"":3,""scale2"":2,""scale9"":2,""scale25"":2,""scale21"":2,""scale3"":3}","[4,23,6,27,26,22,3,17,13,9,5,15,14,7,0,12,25,18,19,11,21,10,16,1,8,24,20,2]"
"","","","","","html-button-response","142","1064196","0.0-15.0","178","1","2022-11-28 09:56:13","7b1eb8be57ff77859c7d9ac988e43411","111.199.64.132","Mozilla/5.0 (Macintosh; Intel Mac OS X 10_15_7) AppleWebKit/605.1.15 (KHTML, like Gecko) Version/15.0 Safari/605.1.15","Macintosh","Safari","15.0","OS X","10_15_7","1656","<p><strong>请判断你在多大程度上同意下列陈述。</strong></p>","0",""
"","","","","","survey-likert","143","1174524","0.0-16.0","178","1","2022-11-28 09:56:13","7b1eb8be57ff77859c7d9ac988e43411","111.199.64.132","Mozilla/5.0 (Macintosh; Intel Mac OS X 10_15_7) AppleWebKit/605.1.15 (KHTML, like Gecko) Version/15.0 Safari/605.1.15","Macintosh","Safari","15.0","OS X","10_15_7","110323","","{""sdo3"":2,""sdo11"":3,""sdo5"":3,""sdo7"":3,""sdo4"":4,""sdo16"":4,""sdo10"":4,""sdo9"":3,""sdo12"":4,""sdo6"":3,""sdo2"":3,""sdo13"":4,""sdo1"":3,""sdo15"":3,""sdo8"":4,""sdo14"":3}","[2,10,4,6,3,15,9,8,11,5,1,12,0,14,7,13]"
"","","","","","html-button-response","144","1175842","0.0-17.0","178","1","2022-11-28 09:56:13","7b1eb8be57ff77859c7d9ac988e43411","111.199.64.132","Mozilla/5.0 (Macintosh; Intel Mac OS X 10_15_7) AppleWebKit/605.1.15 (KHTML, like Gecko) Version/15.0 Safari/605.1.15","Macintosh","Safari","15.0","OS X","10_15_7","1311","<p><strong>请判断你在多大程度上同意下列陈述。</strong></p>","0",""
"","","","","","survey-likert","145","1210715","0.0-18.0","178","1","2022-11-28 09:56:13","7b1eb8be57ff77859c7d9ac988e43411","111.199.64.132","Mozilla/5.0 (Macintosh; Intel Mac OS X 10_15_7) AppleWebKit/605.1.15 (KHTML, like Gecko) Version/15.0 Safari/605.1.15","Macintosh","Safari","15.0","OS X","10_15_7","34866","","{""caring1"":2,""liking1"":3,""caring2"":2,""protection1"":2,""liking2"":3,""caring3"":2,""protection2"":1,""liking3"":3,""protection3"":2,""caring4"":3,""liking4"":3,""protection4"":2,""caring5"":0,""liking5"":2,""protection5"":1}","[0,1,2,3,4,5,6,7,8,9,10,11,12,13,14]"
"","","","","","html-button-response","146","1211785","0.0-19.0","178","1","2022-11-28 09:56:13","7b1eb8be57ff77859c7d9ac988e43411","111.199.64.132","Mozilla/5.0 (Macintosh; Intel Mac OS X 10_15_7) AppleWebKit/605.1.15 (KHTML, like Gecko) Version/15.0 Safari/605.1.15","Macintosh","Safari","15.0","OS X","10_15_7","1064","<p><strong>请判断下列场景中你的内心感受有多柔软。</strong></p>","0",""
"","","","","","survey-likert","147","1304487","0.0-20.0","178","1","2022-11-28 09:56:13","7b1eb8be57ff77859c7d9ac988e43411","111.199.64.132","Mozilla/5.0 (Macintosh; Intel Mac OS X 10_15_7) AppleWebKit/605.1.15 (KHTML, like Gecko) Version/15.0 Safari/605.1.15","Macintosh","Safari","15.0","OS X","10_15_7","92695","","{""tenderness-positive1"":2,""tenderness-negative1"":1,""tenderness-negative2"":0,""tenderness-positive2"":2,""tenderness-positive3"":3,""tenderness-negative3"":0,""tenderness-positive4"":3,""tenderness-negative4"":1,""tenderness-negative5"":2,""tenderness-positive5"":2}","[0,1,2,3,4,5,6,7,8,9]"
"","","","","","survey-multi-choice","148","1310418","0.0-21.0","178","1","2022-11-28 09:56:13","7b1eb8be57ff77859c7d9ac988e43411","111.199.64.132","Mozilla/5.0 (Macintosh; Intel Mac OS X 10_15_7) AppleWebKit/605.1.15 (KHTML, like Gecko) Version/15.0 Safari/605.1.15","Macintosh","Safari","15.0","OS X","10_15_7","5924","","{""Attention2"":""其他""}","[0]"
"","","","","","html-button-response","149","1311574","0.0-22.0","178","1","2022-11-28 09:56:13","7b1eb8be57ff77859c7d9ac988e43411","111.199.64.132","Mozilla/5.0 (Macintosh; Intel Mac OS X 10_15_7) AppleWebKit/605.1.15 (KHTML, like Gecko) Version/15.0 Safari/605.1.15","Macintosh","Safari","15.0","OS X","10_15_7","1150","<p><strong>请判断你在多大程度上同意下列陈述。</strong></p>","0",""
"","","","","","survey-likert","150","1379074","0.0-23.0","178","1","2022-11-28 09:56:13","7b1eb8be57ff77859c7d9ac988e43411","111.199.64.132","Mozilla/5.0 (Macintosh; Intel Mac OS X 10_15_7) AppleWebKit/605.1.15 (KHTML, like Gecko) Version/15.0 Safari/605.1.15","Macintosh","Safari","15.0","OS X","10_15_7","67492","","{""Patri11"":1,""Patri4"":3,""Patri2"":2,""Patri5"":2,""Patri1"":3,""Patri3"":3,""Nation1"":2,""Patri9"":2,""Nation4"":1,""Nation7"":1,""Patri8"":2,""Patri10"":1,""Nation2"":2,""Nation3"":2,""Patri12"":3,""Patri6"":2,""Nation6"":2,""Nation5"":1,""Patri7"":2,""Nation8"":3}","[10,3,1,4,0,2,12,8,15,18,7,9,13,14,11,5,17,16,6,19]"
"","","","","","html-button-response","151","1380572","0.0-24.0","178","1","2022-11-28 09:56:13","7b1eb8be57ff77859c7d9ac988e43411","111.199.64.132","Mozilla/5.0 (Macintosh; Intel Mac OS X 10_15_7) AppleWebKit/605.1.15 (KHTML, like Gecko) Version/15.0 Safari/605.1.15","Macintosh","Safari","15.0","OS X","10_15_7","1492","<p><strong>请判断你在多大程度上同意下列陈述。</strong></p>","0",""
"","","","","","survey-likert","152","1454720","0.0-25.0","178","1","2022-11-28 09:56:13","7b1eb8be57ff77859c7d9ac988e43411","111.199.64.132","Mozilla/5.0 (Macintosh; Intel Mac OS X 10_15_7) AppleWebKit/605.1.15 (KHTML, like Gecko) Version/15.0 Safari/605.1.15","Macintosh","Safari","15.0","OS X","10_15_7","74140","","{""vi4"":5,""vi1"":5,""vc4"":4,""vc2"":4,""hi2"":6,""hc3"":6,""hi4"":6,""vi3"":5,""hi3"":6,""hc1"":5,""Robot"":6,""hc4"":3,""vi2"":4,""hc2"":5,""vc3"":3,""vc1"":4,""hi1"":6}","[8,4,16,14,1,11,3,6,2,9,7,12,5,10,15,13,0]"
"","","","","","survey-text","153","1456389","0.0-26.0","178","1","2022-11-28 09:56:13","7b1eb8be57ff77859c7d9ac988e43411","111.199.64.132","Mozilla/5.0 (Macintosh; Intel Mac OS X 10_15_7) AppleWebKit/605.1.15 (KHTML, like Gecko) Version/15.0 Safari/605.1.15","Macintosh","Safari","15.0","OS X","10_15_7","1662","","{""Comments"":""""}",""
"","","","","","html-button-response","154","1457241","0.0-27.0","178","1","2022-11-28 09:56:13","7b1eb8be57ff77859c7d9ac988e43411","111.199.64.132","Mozilla/5.0 (Macintosh; Intel Mac OS X 10_15_7) AppleWebKit/605.1.15 (KHTML, like Gecko) Version/15.0 Safari/605.1.15","Macintosh","Safari","15.0","OS X","10_15_7","846","<strong><p>恭喜你完成了实验！</p><p>感谢您的参与。</p></strong>","0",""
