"success","timeout","failed_images","failed_audio","failed_video","trial_type","trial_index","time_elapsed","internal_node_id","run_id","condition","recorded_at","source_code_version","ip","user_agent","device","browser","browser_version","platform","platform_version","rt","stimulus","response","question_order"
"true","false","[]","[]","[]","preload","0","1970","0.0-0.0","179","1","2022-11-28 10:44:35","7b1eb8be57ff77859c7d9ac988e43411","14.157.174.163","Mozilla/5.0 (Linux; Android 12; V2217A; wv) AppleWebKit/537.36 (KHTML, like Gecko) Version/4.0 Chrome/87.0.4280.141 Mobile Safari/537.36 VivoBrowser/12.0.0.0","WebKit","Chrome","87.0.4280.141","AndroidOS","12","","","",""
"true","","","","","fullscreen","1","4005","0.0-1.0","179","1","2022-11-28 10:44:35","7b1eb8be57ff77859c7d9ac988e43411","14.157.174.163","Mozilla/5.0 (Linux; Android 12; V2217A; wv) AppleWebKit/537.36 (KHTML, like Gecko) Version/4.0 Chrome/87.0.4280.141 Mobile Safari/537.36 VivoBrowser/12.0.0.0","WebKit","Chrome","87.0.4280.141","AndroidOS","12","","","",""
"","","","","","html-button-response","2","18290","0.0-2.0","179","1","2022-11-28 10:44:35","7b1eb8be57ff77859c7d9ac988e43411","14.157.174.163","Mozilla/5.0 (Linux; Android 12; V2217A; wv) AppleWebKit/537.36 (KHTML, like Gecko) Version/4.0 Chrome/87.0.4280.141 Mobile Safari/537.36 VivoBrowser/12.0.0.0","WebKit","Chrome","87.0.4280.141","AndroidOS","12","14276","<p style=""font-size:20px;font-weight:bold;"">实验知情同意书</p><p style=""text-align:left;""><strong>实验名称：</strong>社会冲突研究</p><p style=""text-align:left;""><strong>主要研究者：</strong>韩晓春副教授（北京师范大学心理学部）</p><p style=""text-align:left;""><strong>联系方式：</strong>发送邮件至xiaochun.han@bnu.edu.cn</p><p style=""text-align:left;""><strong>研究目的：</strong>研究旨在了解人类面对群体冲突时的决策方式，以及相关的心理学特质。实验调查大约需要20分钟。</p><p style=""text-align:left;""><strong>实验流程：</strong>实验包含两部分。第一部分呈现一系列群体冲突场景，请你决定如何对这些冲突进行反应，大约需要10分钟完成。第二部分包含一系列人口统计学信息收集和心理学问卷，大约需要10分钟完成。</p><p style=""text-align:left;""><strong>参加及退出规则：</strong>参加本实验完全取决于您的个人意愿。在参与过程中，您可以随时退出，并且不用承担任何后果。</p><p style=""text-align:left;""><strong>隐私：</strong>本实验完全匿名进行，不会收集您的姓名或其他能够识别您身份的信息。实验中收集的作答仅用作科学研究使用，可能会在学术期刊/书籍上发表，或者用于教学，您的数据未来可能会和其他研究者或实验室分享，但您的个人身份不会被识别。</p><p style=""text-align:left;""><strong>实验报酬：</strong>实验完成后，您将获得15元人民币报酬，以感谢您的时间和努力。调查问卷中包含几道题目用以测验您作答时的认真度。只有完成全部实验，并且正确回答认真度测验的被试才能获得实验报酬。实验报酬将通过支付宝转账发放。</p><p style=""text-align:left;font-size:20px;""><strong>如果您同意以上实验知情同意书的内容，请点击'同意并且开始实验'按钮；否则请关闭浏览器界面，退出实验。</strong></p>","0",""
"","","","","","html-button-response","3","34853","0.0-3.0","179","1","2022-11-28 10:44:35","7b1eb8be57ff77859c7d9ac988e43411","14.157.174.163","Mozilla/5.0 (Linux; Android 12; V2217A; wv) AppleWebKit/537.36 (KHTML, like Gecko) Version/4.0 Chrome/87.0.4280.141 Mobile Safari/537.36 VivoBrowser/12.0.0.0","WebKit","Chrome","87.0.4280.141","AndroidOS","12","16553","<p ><strong>实验任务一：</strong></p><p>请想象你的国家与另一个国家发生了军事冲突。</p><p>你是国家军队的指挥官，你将如何在冲突中进行决策。</p><p>具体来说，作为军队指挥官，请你决定是否发射导弹进行打击。</p><p>接下来，你会面对一系列场景，请仔细阅读每个场景，然后进行决策。</p><p>这部分实验任务大约需要10分钟。</p><p><strong>实验过程中，请集中注意力。</strong></p>","0",""
"","","","","","html-keyboard-response","4","35861","0.0-4.0-0.0","179","1","2022-11-28 10:44:35","7b1eb8be57ff77859c7d9ac988e43411","14.157.174.163","Mozilla/5.0 (Linux; Android 12; V2217A; wv) AppleWebKit/537.36 (KHTML, like Gecko) Version/4.0 Chrome/87.0.4280.141 Mobile Safari/537.36 VivoBrowser/12.0.0.0","WebKit","Chrome","87.0.4280.141","AndroidOS","12","null","<div style=""font-size:60px;"">+</div>","null",""
"","","","","","html-button-response","5","60171","0.0-4.0-1.0","179","1","2022-11-28 10:44:35","7b1eb8be57ff77859c7d9ac988e43411","14.157.174.163","Mozilla/5.0 (Linux; Android 12; V2217A; wv) AppleWebKit/537.36 (KHTML, like Gecko) Version/4.0 Chrome/87.0.4280.141 Mobile Safari/537.36 VivoBrowser/12.0.0.0","WebKit","Chrome","87.0.4280.141","AndroidOS","12","24289","<p>作为军队的指挥官，你可以选择发射导弹杀死 <strong>8名</strong> 敌国士兵，但会误杀附近的 <strong>1名</strong> 敌国平民。</p> <p>平民照片如下图所示。</p> <p></p> <img src='stimuli/faces/PCF4.jpg', style='max-width: 30%;'> </img> <p><strong>你是否选择发射武器？</strong></p>","0",""
"","","","","","html-keyboard-response","6","61178","0.0-4.0-0.1","179","1","2022-11-28 10:44:35","7b1eb8be57ff77859c7d9ac988e43411","14.157.174.163","Mozilla/5.0 (Linux; Android 12; V2217A; wv) AppleWebKit/537.36 (KHTML, like Gecko) Version/4.0 Chrome/87.0.4280.141 Mobile Safari/537.36 VivoBrowser/12.0.0.0","WebKit","Chrome","87.0.4280.141","AndroidOS","12","null","<div style=""font-size:60px;"">+</div>","null",""
"","","","","","html-button-response","7","70732","0.0-4.0-1.1","179","1","2022-11-28 10:44:35","7b1eb8be57ff77859c7d9ac988e43411","14.157.174.163","Mozilla/5.0 (Linux; Android 12; V2217A; wv) AppleWebKit/537.36 (KHTML, like Gecko) Version/4.0 Chrome/87.0.4280.141 Mobile Safari/537.36 VivoBrowser/12.0.0.0","WebKit","Chrome","87.0.4280.141","AndroidOS","12","9541","<p>作为军队的指挥官，你可以选择发射导弹杀死 <strong>9名</strong> 敌国士兵，但会误杀附近的 <strong>1名</strong> 敌国平民。</p> <p>平民照片如下图所示。</p> <p></p> <img src='stimuli/faces/PCF2.jpg', style='max-width: 30%;'> </img> <p><strong>你是否选择发射武器？</strong></p>","0",""
"","","","","","html-keyboard-response","8","71738","0.0-4.0-0.2","179","1","2022-11-28 10:44:35","7b1eb8be57ff77859c7d9ac988e43411","14.157.174.163","Mozilla/5.0 (Linux; Android 12; V2217A; wv) AppleWebKit/537.36 (KHTML, like Gecko) Version/4.0 Chrome/87.0.4280.141 Mobile Safari/537.36 VivoBrowser/12.0.0.0","WebKit","Chrome","87.0.4280.141","AndroidOS","12","null","<div style=""font-size:60px;"">+</div>","null",""
"","","","","","html-button-response","9","76244","0.0-4.0-1.2","179","1","2022-11-28 10:44:35","7b1eb8be57ff77859c7d9ac988e43411","14.157.174.163","Mozilla/5.0 (Linux; Android 12; V2217A; wv) AppleWebKit/537.36 (KHTML, like Gecko) Version/4.0 Chrome/87.0.4280.141 Mobile Safari/537.36 VivoBrowser/12.0.0.0","WebKit","Chrome","87.0.4280.141","AndroidOS","12","4493","<p>作为军队的指挥官，你可以选择发射导弹杀死 <strong>4名</strong> 敌国士兵，但会炸毁附近的 <strong>1棵</strong> 敌国树木。</p> <p>树木的照片如下图所示。</p> <p></p> <img src='stimuli/trees/1.png', style='max-width: 30%;'> </img> <p><strong>你是否选择发射武器？</strong></p>","0",""
"","","","","","html-keyboard-response","10","77251","0.0-4.0-0.3","179","1","2022-11-28 10:44:35","7b1eb8be57ff77859c7d9ac988e43411","14.157.174.163","Mozilla/5.0 (Linux; Android 12; V2217A; wv) AppleWebKit/537.36 (KHTML, like Gecko) Version/4.0 Chrome/87.0.4280.141 Mobile Safari/537.36 VivoBrowser/12.0.0.0","WebKit","Chrome","87.0.4280.141","AndroidOS","12","null","<div style=""font-size:60px;"">+</div>","null",""
"","","","","","html-button-response","11","80693","0.0-4.0-1.3","179","1","2022-11-28 10:44:35","7b1eb8be57ff77859c7d9ac988e43411","14.157.174.163","Mozilla/5.0 (Linux; Android 12; V2217A; wv) AppleWebKit/537.36 (KHTML, like Gecko) Version/4.0 Chrome/87.0.4280.141 Mobile Safari/537.36 VivoBrowser/12.0.0.0","WebKit","Chrome","87.0.4280.141","AndroidOS","12","3430","<p>作为军队的指挥官，你可以选择发射导弹杀死 <strong>9名</strong> 敌国士兵，但会误杀附近的 <strong>1名</strong> 敌国平民。</p> <p>平民照片如下图所示。</p> <p></p> <img src='stimuli/faces/PCF7.jpg', style='max-width: 30%;'> </img> <p><strong>你是否选择发射武器？</strong></p>","0",""
"","","","","","html-keyboard-response","12","81699","0.0-4.0-0.4","179","1","2022-11-28 10:44:35","7b1eb8be57ff77859c7d9ac988e43411","14.157.174.163","Mozilla/5.0 (Linux; Android 12; V2217A; wv) AppleWebKit/537.36 (KHTML, like Gecko) Version/4.0 Chrome/87.0.4280.141 Mobile Safari/537.36 VivoBrowser/12.0.0.0","WebKit","Chrome","87.0.4280.141","AndroidOS","12","null","<div style=""font-size:60px;"">+</div>","null",""
"","","","","","html-button-response","13","83798","0.0-4.0-1.4","179","1","2022-11-28 10:44:35","7b1eb8be57ff77859c7d9ac988e43411","14.157.174.163","Mozilla/5.0 (Linux; Android 12; V2217A; wv) AppleWebKit/537.36 (KHTML, like Gecko) Version/4.0 Chrome/87.0.4280.141 Mobile Safari/537.36 VivoBrowser/12.0.0.0","WebKit","Chrome","87.0.4280.141","AndroidOS","12","2085","<p>作为军队的指挥官，你可以选择发射导弹杀死 <strong>8名</strong> 敌国士兵，但会误杀附近的 <strong>1名</strong> 敌国平民。</p> <p>平民照片如下图所示。</p> <p></p> <img src='stimuli/faces/PCM2.jpg', style='max-width: 30%;'> </img> <p><strong>你是否选择发射武器？</strong></p>","0",""
"","","","","","html-keyboard-response","14","84803","0.0-4.0-0.5","179","1","2022-11-28 10:44:35","7b1eb8be57ff77859c7d9ac988e43411","14.157.174.163","Mozilla/5.0 (Linux; Android 12; V2217A; wv) AppleWebKit/537.36 (KHTML, like Gecko) Version/4.0 Chrome/87.0.4280.141 Mobile Safari/537.36 VivoBrowser/12.0.0.0","WebKit","Chrome","87.0.4280.141","AndroidOS","12","null","<div style=""font-size:60px;"">+</div>","null",""
"","","","","","html-button-response","15","86859","0.0-4.0-1.5","179","1","2022-11-28 10:44:35","7b1eb8be57ff77859c7d9ac988e43411","14.157.174.163","Mozilla/5.0 (Linux; Android 12; V2217A; wv) AppleWebKit/537.36 (KHTML, like Gecko) Version/4.0 Chrome/87.0.4280.141 Mobile Safari/537.36 VivoBrowser/12.0.0.0","WebKit","Chrome","87.0.4280.141","AndroidOS","12","2047","<p>作为军队的指挥官，你可以选择发射导弹杀死 <strong>3名</strong> 敌国士兵，但会炸毁附近的 <strong>1棵</strong> 敌国树木。</p> <p>树木的照片如下图所示。</p> <p></p> <img src='stimuli/trees/6.png', style='max-width: 30%;'> </img> <p><strong>你是否选择发射武器？</strong></p>","0",""
"","","","","","html-keyboard-response","16","87867","0.0-4.0-0.6","179","1","2022-11-28 10:44:35","7b1eb8be57ff77859c7d9ac988e43411","14.157.174.163","Mozilla/5.0 (Linux; Android 12; V2217A; wv) AppleWebKit/537.36 (KHTML, like Gecko) Version/4.0 Chrome/87.0.4280.141 Mobile Safari/537.36 VivoBrowser/12.0.0.0","WebKit","Chrome","87.0.4280.141","AndroidOS","12","null","<div style=""font-size:60px;"">+</div>","null",""
"","","","","","html-button-response","17","90145","0.0-4.0-1.6","179","1","2022-11-28 10:44:35","7b1eb8be57ff77859c7d9ac988e43411","14.157.174.163","Mozilla/5.0 (Linux; Android 12; V2217A; wv) AppleWebKit/537.36 (KHTML, like Gecko) Version/4.0 Chrome/87.0.4280.141 Mobile Safari/537.36 VivoBrowser/12.0.0.0","WebKit","Chrome","87.0.4280.141","AndroidOS","12","2259","<p>作为军队的指挥官，你可以选择发射导弹杀死 <strong>4名</strong> 敌国士兵，但会炸毁附近的 <strong>1棵</strong> 敌国树木。</p> <p>树木的照片如下图所示。</p> <p></p> <img src='stimuli/trees/16.png', style='max-width: 30%;'> </img> <p><strong>你是否选择发射武器？</strong></p>","0",""
"","","","","","html-keyboard-response","18","91154","0.0-4.0-0.7","179","1","2022-11-28 10:44:35","7b1eb8be57ff77859c7d9ac988e43411","14.157.174.163","Mozilla/5.0 (Linux; Android 12; V2217A; wv) AppleWebKit/537.36 (KHTML, like Gecko) Version/4.0 Chrome/87.0.4280.141 Mobile Safari/537.36 VivoBrowser/12.0.0.0","WebKit","Chrome","87.0.4280.141","AndroidOS","12","null","<div style=""font-size:60px;"">+</div>","null",""
"","","","","","html-button-response","19","93185","0.0-4.0-1.7","179","1","2022-11-28 10:44:35","7b1eb8be57ff77859c7d9ac988e43411","14.157.174.163","Mozilla/5.0 (Linux; Android 12; V2217A; wv) AppleWebKit/537.36 (KHTML, like Gecko) Version/4.0 Chrome/87.0.4280.141 Mobile Safari/537.36 VivoBrowser/12.0.0.0","WebKit","Chrome","87.0.4280.141","AndroidOS","12","2020","<p>作为军队的指挥官，你可以选择发射导弹杀死 <strong>10名</strong> 敌国士兵，但会误杀附近的 <strong>1名</strong> 敌国平民。</p> <p>平民照片如下图所示。</p> <p></p> <img src='stimuli/faces/PCM3.jpg', style='max-width: 30%;'> </img> <p><strong>你是否选择发射武器？</strong></p>","0",""
"","","","","","html-keyboard-response","20","94192","0.0-4.0-0.8","179","1","2022-11-28 10:44:35","7b1eb8be57ff77859c7d9ac988e43411","14.157.174.163","Mozilla/5.0 (Linux; Android 12; V2217A; wv) AppleWebKit/537.36 (KHTML, like Gecko) Version/4.0 Chrome/87.0.4280.141 Mobile Safari/537.36 VivoBrowser/12.0.0.0","WebKit","Chrome","87.0.4280.141","AndroidOS","12","null","<div style=""font-size:60px;"">+</div>","null",""
"","","","","","html-button-response","21","95870","0.0-4.0-1.8","179","1","2022-11-28 10:44:35","7b1eb8be57ff77859c7d9ac988e43411","14.157.174.163","Mozilla/5.0 (Linux; Android 12; V2217A; wv) AppleWebKit/537.36 (KHTML, like Gecko) Version/4.0 Chrome/87.0.4280.141 Mobile Safari/537.36 VivoBrowser/12.0.0.0","WebKit","Chrome","87.0.4280.141","AndroidOS","12","1669","<p>作为军队的指挥官，你可以选择发射导弹杀死 <strong>10名</strong> 敌国士兵，但会炸毁附近的 <strong>1棵</strong> 敌国树木。</p> <p>树木的照片如下图所示。</p> <p></p> <img src='stimuli/trees/5.png', style='max-width: 30%;'> </img> <p><strong>你是否选择发射武器？</strong></p>","0",""
"","","","","","html-keyboard-response","22","96877","0.0-4.0-0.9","179","1","2022-11-28 10:44:35","7b1eb8be57ff77859c7d9ac988e43411","14.157.174.163","Mozilla/5.0 (Linux; Android 12; V2217A; wv) AppleWebKit/537.36 (KHTML, like Gecko) Version/4.0 Chrome/87.0.4280.141 Mobile Safari/537.36 VivoBrowser/12.0.0.0","WebKit","Chrome","87.0.4280.141","AndroidOS","12","null","<div style=""font-size:60px;"">+</div>","null",""
"","","","","","html-button-response","23","98905","0.0-4.0-1.9","179","1","2022-11-28 10:44:35","7b1eb8be57ff77859c7d9ac988e43411","14.157.174.163","Mozilla/5.0 (Linux; Android 12; V2217A; wv) AppleWebKit/537.36 (KHTML, like Gecko) Version/4.0 Chrome/87.0.4280.141 Mobile Safari/537.36 VivoBrowser/12.0.0.0","WebKit","Chrome","87.0.4280.141","AndroidOS","12","2018","<p>作为军队的指挥官，你可以选择发射导弹杀死 <strong>1名</strong> 敌国士兵，但会误杀附近的 <strong>1名</strong> 敌国平民。</p> <p>平民照片如下图所示。</p> <p></p> <img src='stimuli/faces/PCF1.jpg', style='max-width: 30%;'> </img> <p><strong>你是否选择发射武器？</strong></p>","0",""
"","","","","","html-keyboard-response","24","99914","0.0-4.0-0.10","179","1","2022-11-28 10:44:35","7b1eb8be57ff77859c7d9ac988e43411","14.157.174.163","Mozilla/5.0 (Linux; Android 12; V2217A; wv) AppleWebKit/537.36 (KHTML, like Gecko) Version/4.0 Chrome/87.0.4280.141 Mobile Safari/537.36 VivoBrowser/12.0.0.0","WebKit","Chrome","87.0.4280.141","AndroidOS","12","null","<div style=""font-size:60px;"">+</div>","null",""
"","","","","","html-button-response","25","101084","0.0-4.0-1.10","179","1","2022-11-28 10:44:35","7b1eb8be57ff77859c7d9ac988e43411","14.157.174.163","Mozilla/5.0 (Linux; Android 12; V2217A; wv) AppleWebKit/537.36 (KHTML, like Gecko) Version/4.0 Chrome/87.0.4280.141 Mobile Safari/537.36 VivoBrowser/12.0.0.0","WebKit","Chrome","87.0.4280.141","AndroidOS","12","1154","<p>作为军队的指挥官，你可以选择发射导弹杀死 <strong>9名</strong> 敌国士兵，但会炸毁附近的 <strong>1棵</strong> 敌国树木。</p> <p>树木的照片如下图所示。</p> <p></p> <img src='stimuli/trees/13.png', style='max-width: 30%;'> </img> <p><strong>你是否选择发射武器？</strong></p>","0",""
"","","","","","html-keyboard-response","26","102091","0.0-4.0-0.11","179","1","2022-11-28 10:44:35","7b1eb8be57ff77859c7d9ac988e43411","14.157.174.163","Mozilla/5.0 (Linux; Android 12; V2217A; wv) AppleWebKit/537.36 (KHTML, like Gecko) Version/4.0 Chrome/87.0.4280.141 Mobile Safari/537.36 VivoBrowser/12.0.0.0","WebKit","Chrome","87.0.4280.141","AndroidOS","12","null","<div style=""font-size:60px;"">+</div>","null",""
"","","","","","html-button-response","27","103064","0.0-4.0-1.11","179","1","2022-11-28 10:44:35","7b1eb8be57ff77859c7d9ac988e43411","14.157.174.163","Mozilla/5.0 (Linux; Android 12; V2217A; wv) AppleWebKit/537.36 (KHTML, like Gecko) Version/4.0 Chrome/87.0.4280.141 Mobile Safari/537.36 VivoBrowser/12.0.0.0","WebKit","Chrome","87.0.4280.141","AndroidOS","12","963","<p>作为军队的指挥官，你可以选择发射导弹杀死 <strong>2名</strong> 敌国士兵，但会误杀附近的 <strong>1名</strong> 敌国平民。</p> <p>平民照片如下图所示。</p> <p></p> <img src='stimuli/faces/PCF8.jpg', style='max-width: 30%;'> </img> <p><strong>你是否选择发射武器？</strong></p>","0",""
"","","","","","html-keyboard-response","28","104073","0.0-4.0-0.12","179","1","2022-11-28 10:44:35","7b1eb8be57ff77859c7d9ac988e43411","14.157.174.163","Mozilla/5.0 (Linux; Android 12; V2217A; wv) AppleWebKit/537.36 (KHTML, like Gecko) Version/4.0 Chrome/87.0.4280.141 Mobile Safari/537.36 VivoBrowser/12.0.0.0","WebKit","Chrome","87.0.4280.141","AndroidOS","12","null","<div style=""font-size:60px;"">+</div>","null",""
"","","","","","html-button-response","29","104832","0.0-4.0-1.12","179","1","2022-11-28 10:44:35","7b1eb8be57ff77859c7d9ac988e43411","14.157.174.163","Mozilla/5.0 (Linux; Android 12; V2217A; wv) AppleWebKit/537.36 (KHTML, like Gecko) Version/4.0 Chrome/87.0.4280.141 Mobile Safari/537.36 VivoBrowser/12.0.0.0","WebKit","Chrome","87.0.4280.141","AndroidOS","12","743","<p>作为军队的指挥官，你可以选择发射导弹杀死 <strong>10名</strong> 敌国士兵，但会炸毁附近的 <strong>1棵</strong> 敌国树木。</p> <p>树木的照片如下图所示。</p> <p></p> <img src='stimuli/trees/16.png', style='max-width: 30%;'> </img> <p><strong>你是否选择发射武器？</strong></p>","0",""
"","","","","","html-keyboard-response","30","105845","0.0-4.0-0.13","179","1","2022-11-28 10:44:35","7b1eb8be57ff77859c7d9ac988e43411","14.157.174.163","Mozilla/5.0 (Linux; Android 12; V2217A; wv) AppleWebKit/537.36 (KHTML, like Gecko) Version/4.0 Chrome/87.0.4280.141 Mobile Safari/537.36 VivoBrowser/12.0.0.0","WebKit","Chrome","87.0.4280.141","AndroidOS","12","null","<div style=""font-size:60px;"">+</div>","null",""
"","","","","","html-button-response","31","106699","0.0-4.0-1.13","179","1","2022-11-28 10:44:35","7b1eb8be57ff77859c7d9ac988e43411","14.157.174.163","Mozilla/5.0 (Linux; Android 12; V2217A; wv) AppleWebKit/537.36 (KHTML, like Gecko) Version/4.0 Chrome/87.0.4280.141 Mobile Safari/537.36 VivoBrowser/12.0.0.0","WebKit","Chrome","87.0.4280.141","AndroidOS","12","836","<p>作为军队的指挥官，你可以选择发射导弹杀死 <strong>7名</strong> 敌国士兵，但会误杀附近的 <strong>1名</strong> 敌国平民。</p> <p>平民照片如下图所示。</p> <p></p> <img src='stimuli/faces/PCF5.jpg', style='max-width: 30%;'> </img> <p><strong>你是否选择发射武器？</strong></p>","0",""
"","","","","","html-keyboard-response","32","107710","0.0-4.0-0.14","179","1","2022-11-28 10:44:35","7b1eb8be57ff77859c7d9ac988e43411","14.157.174.163","Mozilla/5.0 (Linux; Android 12; V2217A; wv) AppleWebKit/537.36 (KHTML, like Gecko) Version/4.0 Chrome/87.0.4280.141 Mobile Safari/537.36 VivoBrowser/12.0.0.0","WebKit","Chrome","87.0.4280.141","AndroidOS","12","null","<div style=""font-size:60px;"">+</div>","null",""
"","","","","","html-button-response","33","111256","0.0-4.0-1.14","179","1","2022-11-28 10:44:35","7b1eb8be57ff77859c7d9ac988e43411","14.157.174.163","Mozilla/5.0 (Linux; Android 12; V2217A; wv) AppleWebKit/537.36 (KHTML, like Gecko) Version/4.0 Chrome/87.0.4280.141 Mobile Safari/537.36 VivoBrowser/12.0.0.0","WebKit","Chrome","87.0.4280.141","AndroidOS","12","3535","<p>作为军队的指挥官，你可以选择发射导弹杀死 <strong>3名</strong> 敌国士兵，但会误杀附近的 <strong>1名</strong> 敌国平民。</p> <p>平民照片如下图所示。</p> <p></p> <img src='stimuli/faces/PCM4.jpg', style='max-width: 30%;'> </img> <p><strong>你是否选择发射武器？</strong></p>","0",""
"","","","","","html-keyboard-response","34","112262","0.0-4.0-0.15","179","1","2022-11-28 10:44:35","7b1eb8be57ff77859c7d9ac988e43411","14.157.174.163","Mozilla/5.0 (Linux; Android 12; V2217A; wv) AppleWebKit/537.36 (KHTML, like Gecko) Version/4.0 Chrome/87.0.4280.141 Mobile Safari/537.36 VivoBrowser/12.0.0.0","WebKit","Chrome","87.0.4280.141","AndroidOS","12","null","<div style=""font-size:60px;"">+</div>","null",""
"","","","","","html-button-response","35","113189","0.0-4.0-1.15","179","1","2022-11-28 10:44:35","7b1eb8be57ff77859c7d9ac988e43411","14.157.174.163","Mozilla/5.0 (Linux; Android 12; V2217A; wv) AppleWebKit/537.36 (KHTML, like Gecko) Version/4.0 Chrome/87.0.4280.141 Mobile Safari/537.36 VivoBrowser/12.0.0.0","WebKit","Chrome","87.0.4280.141","AndroidOS","12","917","<p>作为军队的指挥官，你可以选择发射导弹杀死 <strong>7名</strong> 敌国士兵，但会炸毁附近的 <strong>1棵</strong> 敌国树木。</p> <p>树木的照片如下图所示。</p> <p></p> <img src='stimuli/trees/12.png', style='max-width: 30%;'> </img> <p><strong>你是否选择发射武器？</strong></p>","0",""
"","","","","","html-keyboard-response","36","114196","0.0-4.0-0.16","179","1","2022-11-28 10:44:35","7b1eb8be57ff77859c7d9ac988e43411","14.157.174.163","Mozilla/5.0 (Linux; Android 12; V2217A; wv) AppleWebKit/537.36 (KHTML, like Gecko) Version/4.0 Chrome/87.0.4280.141 Mobile Safari/537.36 VivoBrowser/12.0.0.0","WebKit","Chrome","87.0.4280.141","AndroidOS","12","null","<div style=""font-size:60px;"">+</div>","null",""
"","","","","","html-button-response","37","115081","0.0-4.0-1.16","179","1","2022-11-28 10:44:35","7b1eb8be57ff77859c7d9ac988e43411","14.157.174.163","Mozilla/5.0 (Linux; Android 12; V2217A; wv) AppleWebKit/537.36 (KHTML, like Gecko) Version/4.0 Chrome/87.0.4280.141 Mobile Safari/537.36 VivoBrowser/12.0.0.0","WebKit","Chrome","87.0.4280.141","AndroidOS","12","868","<p>作为军队的指挥官，你可以选择发射导弹杀死 <strong>8名</strong> 敌国士兵，但会误杀附近的 <strong>1名</strong> 敌国平民。</p> <p>平民照片如下图所示。</p> <p></p> <img src='stimuli/faces/PCF3.jpg', style='max-width: 30%;'> </img> <p><strong>你是否选择发射武器？</strong></p>","0",""
"","","","","","html-keyboard-response","38","116092","0.0-4.0-0.17","179","1","2022-11-28 10:44:35","7b1eb8be57ff77859c7d9ac988e43411","14.157.174.163","Mozilla/5.0 (Linux; Android 12; V2217A; wv) AppleWebKit/537.36 (KHTML, like Gecko) Version/4.0 Chrome/87.0.4280.141 Mobile Safari/537.36 VivoBrowser/12.0.0.0","WebKit","Chrome","87.0.4280.141","AndroidOS","12","null","<div style=""font-size:60px;"">+</div>","null",""
"","","","","","html-button-response","39","116919","0.0-4.0-1.17","179","1","2022-11-28 10:44:35","7b1eb8be57ff77859c7d9ac988e43411","14.157.174.163","Mozilla/5.0 (Linux; Android 12; V2217A; wv) AppleWebKit/537.36 (KHTML, like Gecko) Version/4.0 Chrome/87.0.4280.141 Mobile Safari/537.36 VivoBrowser/12.0.0.0","WebKit","Chrome","87.0.4280.141","AndroidOS","12","808","<p>作为军队的指挥官，你可以选择发射导弹杀死 <strong>8名</strong> 敌国士兵，但会误杀附近的 <strong>1名</strong> 敌国平民。</p> <p>平民照片如下图所示。</p> <p></p> <img src='stimuli/faces/PCM1.jpg', style='max-width: 30%;'> </img> <p><strong>你是否选择发射武器？</strong></p>","0",""
"","","","","","html-keyboard-response","40","117929","0.0-4.0-0.18","179","1","2022-11-28 10:44:35","7b1eb8be57ff77859c7d9ac988e43411","14.157.174.163","Mozilla/5.0 (Linux; Android 12; V2217A; wv) AppleWebKit/537.36 (KHTML, like Gecko) Version/4.0 Chrome/87.0.4280.141 Mobile Safari/537.36 VivoBrowser/12.0.0.0","WebKit","Chrome","87.0.4280.141","AndroidOS","12","null","<div style=""font-size:60px;"">+</div>","null",""
"","","","","","html-button-response","41","118858","0.0-4.0-1.18","179","1","2022-11-28 10:44:35","7b1eb8be57ff77859c7d9ac988e43411","14.157.174.163","Mozilla/5.0 (Linux; Android 12; V2217A; wv) AppleWebKit/537.36 (KHTML, like Gecko) Version/4.0 Chrome/87.0.4280.141 Mobile Safari/537.36 VivoBrowser/12.0.0.0","WebKit","Chrome","87.0.4280.141","AndroidOS","12","922","<p>作为军队的指挥官，你可以选择发射导弹杀死 <strong>10名</strong> 敌国士兵，但会误杀附近的 <strong>1名</strong> 敌国平民。</p> <p>平民照片如下图所示。</p> <p></p> <img src='stimuli/faces/PCM7.jpg', style='max-width: 30%;'> </img> <p><strong>你是否选择发射武器？</strong></p>","0",""
"","","","","","html-keyboard-response","42","119945","0.0-4.0-0.19","179","1","2022-11-28 10:44:35","7b1eb8be57ff77859c7d9ac988e43411","14.157.174.163","Mozilla/5.0 (Linux; Android 12; V2217A; wv) AppleWebKit/537.36 (KHTML, like Gecko) Version/4.0 Chrome/87.0.4280.141 Mobile Safari/537.36 VivoBrowser/12.0.0.0","WebKit","Chrome","87.0.4280.141","AndroidOS","12","null","<div style=""font-size:60px;"">+</div>","null",""
"","","","","","html-button-response","43","120792","0.0-4.0-1.19","179","1","2022-11-28 10:44:35","7b1eb8be57ff77859c7d9ac988e43411","14.157.174.163","Mozilla/5.0 (Linux; Android 12; V2217A; wv) AppleWebKit/537.36 (KHTML, like Gecko) Version/4.0 Chrome/87.0.4280.141 Mobile Safari/537.36 VivoBrowser/12.0.0.0","WebKit","Chrome","87.0.4280.141","AndroidOS","12","839","<p>作为军队的指挥官，你可以选择发射导弹杀死 <strong>4名</strong> 敌国士兵，但会误杀附近的 <strong>1名</strong> 敌国平民。</p> <p>平民照片如下图所示。</p> <p></p> <img src='stimuli/faces/PCM8.jpg', style='max-width: 30%;'> </img> <p><strong>你是否选择发射武器？</strong></p>","0",""
"","","","","","html-keyboard-response","44","121806","0.0-4.0-0.20","179","1","2022-11-28 10:44:35","7b1eb8be57ff77859c7d9ac988e43411","14.157.174.163","Mozilla/5.0 (Linux; Android 12; V2217A; wv) AppleWebKit/537.36 (KHTML, like Gecko) Version/4.0 Chrome/87.0.4280.141 Mobile Safari/537.36 VivoBrowser/12.0.0.0","WebKit","Chrome","87.0.4280.141","AndroidOS","12","null","<div style=""font-size:60px;"">+</div>","null",""
"","","","","","html-button-response","45","122503","0.0-4.0-1.20","179","1","2022-11-28 10:44:35","7b1eb8be57ff77859c7d9ac988e43411","14.157.174.163","Mozilla/5.0 (Linux; Android 12; V2217A; wv) AppleWebKit/537.36 (KHTML, like Gecko) Version/4.0 Chrome/87.0.4280.141 Mobile Safari/537.36 VivoBrowser/12.0.0.0","WebKit","Chrome","87.0.4280.141","AndroidOS","12","678","<p>作为军队的指挥官，你可以选择发射导弹杀死 <strong>8名</strong> 敌国士兵，但会误杀附近的 <strong>1名</strong> 敌国平民。</p> <p>平民照片如下图所示。</p> <p></p> <img src='stimuli/faces/PCM5.jpg', style='max-width: 30%;'> </img> <p><strong>你是否选择发射武器？</strong></p>","0",""
"","","","","","html-keyboard-response","46","123515","0.0-4.0-0.21","179","1","2022-11-28 10:44:35","7b1eb8be57ff77859c7d9ac988e43411","14.157.174.163","Mozilla/5.0 (Linux; Android 12; V2217A; wv) AppleWebKit/537.36 (KHTML, like Gecko) Version/4.0 Chrome/87.0.4280.141 Mobile Safari/537.36 VivoBrowser/12.0.0.0","WebKit","Chrome","87.0.4280.141","AndroidOS","12","null","<div style=""font-size:60px;"">+</div>","null",""
"","","","","","html-button-response","47","124270","0.0-4.0-1.21","179","1","2022-11-28 10:44:35","7b1eb8be57ff77859c7d9ac988e43411","14.157.174.163","Mozilla/5.0 (Linux; Android 12; V2217A; wv) AppleWebKit/537.36 (KHTML, like Gecko) Version/4.0 Chrome/87.0.4280.141 Mobile Safari/537.36 VivoBrowser/12.0.0.0","WebKit","Chrome","87.0.4280.141","AndroidOS","12","736","<p>作为军队的指挥官，你可以选择发射导弹杀死 <strong>8名</strong> 敌国士兵，但会误杀附近的 <strong>1名</strong> 敌国平民。</p> <p>平民照片如下图所示。</p> <p></p> <img src='stimuli/faces/PCM4.jpg', style='max-width: 30%;'> </img> <p><strong>你是否选择发射武器？</strong></p>","0",""
"","","","","","html-keyboard-response","48","125281","0.0-4.0-0.22","179","1","2022-11-28 10:44:35","7b1eb8be57ff77859c7d9ac988e43411","14.157.174.163","Mozilla/5.0 (Linux; Android 12; V2217A; wv) AppleWebKit/537.36 (KHTML, like Gecko) Version/4.0 Chrome/87.0.4280.141 Mobile Safari/537.36 VivoBrowser/12.0.0.0","WebKit","Chrome","87.0.4280.141","AndroidOS","12","null","<div style=""font-size:60px;"">+</div>","null",""
"","","","","","html-button-response","49","125908","0.0-4.0-1.22","179","1","2022-11-28 10:44:35","7b1eb8be57ff77859c7d9ac988e43411","14.157.174.163","Mozilla/5.0 (Linux; Android 12; V2217A; wv) AppleWebKit/537.36 (KHTML, like Gecko) Version/4.0 Chrome/87.0.4280.141 Mobile Safari/537.36 VivoBrowser/12.0.0.0","WebKit","Chrome","87.0.4280.141","AndroidOS","12","603","<p>作为军队的指挥官，你可以选择发射导弹杀死 <strong>3名</strong> 敌国士兵，但会误杀附近的 <strong>1名</strong> 敌国平民。</p> <p>平民照片如下图所示。</p> <p></p> <img src='stimuli/faces/PCM5.jpg', style='max-width: 30%;'> </img> <p><strong>你是否选择发射武器？</strong></p>","0",""
"","","","","","html-keyboard-response","50","126919","0.0-4.0-0.23","179","1","2022-11-28 10:44:35","7b1eb8be57ff77859c7d9ac988e43411","14.157.174.163","Mozilla/5.0 (Linux; Android 12; V2217A; wv) AppleWebKit/537.36 (KHTML, like Gecko) Version/4.0 Chrome/87.0.4280.141 Mobile Safari/537.36 VivoBrowser/12.0.0.0","WebKit","Chrome","87.0.4280.141","AndroidOS","12","null","<div style=""font-size:60px;"">+</div>","null",""
"","","","","","html-button-response","51","127825","0.0-4.0-1.23","179","1","2022-11-28 10:44:35","7b1eb8be57ff77859c7d9ac988e43411","14.157.174.163","Mozilla/5.0 (Linux; Android 12; V2217A; wv) AppleWebKit/537.36 (KHTML, like Gecko) Version/4.0 Chrome/87.0.4280.141 Mobile Safari/537.36 VivoBrowser/12.0.0.0","WebKit","Chrome","87.0.4280.141","AndroidOS","12","887","<p>作为军队的指挥官，你可以选择发射导弹杀死 <strong>10名</strong> 敌国士兵，但会误杀附近的 <strong>1名</strong> 敌国平民。</p> <p>平民照片如下图所示。</p> <p></p> <img src='stimuli/faces/PCM8.jpg', style='max-width: 30%;'> </img> <p><strong>你是否选择发射武器？</strong></p>","0",""
"","","","","","html-keyboard-response","52","128833","0.0-4.0-0.24","179","1","2022-11-28 10:44:35","7b1eb8be57ff77859c7d9ac988e43411","14.157.174.163","Mozilla/5.0 (Linux; Android 12; V2217A; wv) AppleWebKit/537.36 (KHTML, like Gecko) Version/4.0 Chrome/87.0.4280.141 Mobile Safari/537.36 VivoBrowser/12.0.0.0","WebKit","Chrome","87.0.4280.141","AndroidOS","12","null","<div style=""font-size:60px;"">+</div>","null",""
"","","","","","html-button-response","53","129818","0.0-4.0-1.24","179","1","2022-11-28 10:44:35","7b1eb8be57ff77859c7d9ac988e43411","14.157.174.163","Mozilla/5.0 (Linux; Android 12; V2217A; wv) AppleWebKit/537.36 (KHTML, like Gecko) Version/4.0 Chrome/87.0.4280.141 Mobile Safari/537.36 VivoBrowser/12.0.0.0","WebKit","Chrome","87.0.4280.141","AndroidOS","12","973","<p>作为军队的指挥官，你可以选择发射导弹杀死 <strong>5名</strong> 敌国士兵，但会炸毁附近的 <strong>1棵</strong> 敌国树木。</p> <p>树木的照片如下图所示。</p> <p></p> <img src='stimuli/trees/14.png', style='max-width: 30%;'> </img> <p><strong>你是否选择发射武器？</strong></p>","0",""
"","","","","","html-keyboard-response","54","130829","0.0-4.0-0.25","179","1","2022-11-28 10:44:35","7b1eb8be57ff77859c7d9ac988e43411","14.157.174.163","Mozilla/5.0 (Linux; Android 12; V2217A; wv) AppleWebKit/537.36 (KHTML, like Gecko) Version/4.0 Chrome/87.0.4280.141 Mobile Safari/537.36 VivoBrowser/12.0.0.0","WebKit","Chrome","87.0.4280.141","AndroidOS","12","null","<div style=""font-size:60px;"">+</div>","null",""
"","","","","","html-button-response","55","131824","0.0-4.0-1.25","179","1","2022-11-28 10:44:35","7b1eb8be57ff77859c7d9ac988e43411","14.157.174.163","Mozilla/5.0 (Linux; Android 12; V2217A; wv) AppleWebKit/537.36 (KHTML, like Gecko) Version/4.0 Chrome/87.0.4280.141 Mobile Safari/537.36 VivoBrowser/12.0.0.0","WebKit","Chrome","87.0.4280.141","AndroidOS","12","962","<p>作为军队的指挥官，你可以选择发射导弹杀死 <strong>9名</strong> 敌国士兵，但会误杀附近的 <strong>1名</strong> 敌国平民。</p> <p>平民照片如下图所示。</p> <p></p> <img src='stimuli/faces/PCF8.jpg', style='max-width: 30%;'> </img> <p><strong>你是否选择发射武器？</strong></p>","0",""
"","","","","","html-keyboard-response","56","132835","0.0-4.0-0.26","179","1","2022-11-28 10:44:35","7b1eb8be57ff77859c7d9ac988e43411","14.157.174.163","Mozilla/5.0 (Linux; Android 12; V2217A; wv) AppleWebKit/537.36 (KHTML, like Gecko) Version/4.0 Chrome/87.0.4280.141 Mobile Safari/537.36 VivoBrowser/12.0.0.0","WebKit","Chrome","87.0.4280.141","AndroidOS","12","null","<div style=""font-size:60px;"">+</div>","null",""
"","","","","","html-button-response","57","133428","0.0-4.0-1.26","179","1","2022-11-28 10:44:35","7b1eb8be57ff77859c7d9ac988e43411","14.157.174.163","Mozilla/5.0 (Linux; Android 12; V2217A; wv) AppleWebKit/537.36 (KHTML, like Gecko) Version/4.0 Chrome/87.0.4280.141 Mobile Safari/537.36 VivoBrowser/12.0.0.0","WebKit","Chrome","87.0.4280.141","AndroidOS","12","577","<p>作为军队的指挥官，你可以选择发射导弹杀死 <strong>4名</strong> 敌国士兵，但会炸毁附近的 <strong>1棵</strong> 敌国树木。</p> <p>树木的照片如下图所示。</p> <p></p> <img src='stimuli/trees/10.png', style='max-width: 30%;'> </img> <p><strong>你是否选择发射武器？</strong></p>","0",""
"","","","","","html-keyboard-response","58","134439","0.0-4.0-0.27","179","1","2022-11-28 10:44:35","7b1eb8be57ff77859c7d9ac988e43411","14.157.174.163","Mozilla/5.0 (Linux; Android 12; V2217A; wv) AppleWebKit/537.36 (KHTML, like Gecko) Version/4.0 Chrome/87.0.4280.141 Mobile Safari/537.36 VivoBrowser/12.0.0.0","WebKit","Chrome","87.0.4280.141","AndroidOS","12","null","<div style=""font-size:60px;"">+</div>","null",""
"","","","","","html-button-response","59","135024","0.0-4.0-1.27","179","1","2022-11-28 10:44:35","7b1eb8be57ff77859c7d9ac988e43411","14.157.174.163","Mozilla/5.0 (Linux; Android 12; V2217A; wv) AppleWebKit/537.36 (KHTML, like Gecko) Version/4.0 Chrome/87.0.4280.141 Mobile Safari/537.36 VivoBrowser/12.0.0.0","WebKit","Chrome","87.0.4280.141","AndroidOS","12","565","<p>作为军队的指挥官，你可以选择发射导弹杀死 <strong>10名</strong> 敌国士兵，但会炸毁附近的 <strong>1棵</strong> 敌国树木。</p> <p>树木的照片如下图所示。</p> <p></p> <img src='stimuli/trees/10.png', style='max-width: 30%;'> </img> <p><strong>你是否选择发射武器？</strong></p>","0",""
"","","","","","html-keyboard-response","60","136035","0.0-4.0-0.28","179","1","2022-11-28 10:44:35","7b1eb8be57ff77859c7d9ac988e43411","14.157.174.163","Mozilla/5.0 (Linux; Android 12; V2217A; wv) AppleWebKit/537.36 (KHTML, like Gecko) Version/4.0 Chrome/87.0.4280.141 Mobile Safari/537.36 VivoBrowser/12.0.0.0","WebKit","Chrome","87.0.4280.141","AndroidOS","12","null","<div style=""font-size:60px;"">+</div>","null",""
"","","","","","html-button-response","61","136631","0.0-4.0-1.28","179","1","2022-11-28 10:44:35","7b1eb8be57ff77859c7d9ac988e43411","14.157.174.163","Mozilla/5.0 (Linux; Android 12; V2217A; wv) AppleWebKit/537.36 (KHTML, like Gecko) Version/4.0 Chrome/87.0.4280.141 Mobile Safari/537.36 VivoBrowser/12.0.0.0","WebKit","Chrome","87.0.4280.141","AndroidOS","12","574","<p>作为军队的指挥官，你可以选择发射导弹杀死 <strong>5名</strong> 敌国士兵，但会炸毁附近的 <strong>1棵</strong> 敌国树木。</p> <p>树木的照片如下图所示。</p> <p></p> <img src='stimuli/trees/13.png', style='max-width: 30%;'> </img> <p><strong>你是否选择发射武器？</strong></p>","0",""
"","","","","","html-keyboard-response","62","137643","0.0-4.0-0.29","179","1","2022-11-28 10:44:35","7b1eb8be57ff77859c7d9ac988e43411","14.157.174.163","Mozilla/5.0 (Linux; Android 12; V2217A; wv) AppleWebKit/537.36 (KHTML, like Gecko) Version/4.0 Chrome/87.0.4280.141 Mobile Safari/537.36 VivoBrowser/12.0.0.0","WebKit","Chrome","87.0.4280.141","AndroidOS","12","null","<div style=""font-size:60px;"">+</div>","null",""
"","","","","","html-button-response","63","138363","0.0-4.0-1.29","179","1","2022-11-28 10:44:35","7b1eb8be57ff77859c7d9ac988e43411","14.157.174.163","Mozilla/5.0 (Linux; Android 12; V2217A; wv) AppleWebKit/537.36 (KHTML, like Gecko) Version/4.0 Chrome/87.0.4280.141 Mobile Safari/537.36 VivoBrowser/12.0.0.0","WebKit","Chrome","87.0.4280.141","AndroidOS","12","699","<p>作为军队的指挥官，你可以选择发射导弹杀死 <strong>7名</strong> 敌国士兵，但会炸毁附近的 <strong>1棵</strong> 敌国树木。</p> <p>树木的照片如下图所示。</p> <p></p> <img src='stimuli/trees/6.png', style='max-width: 30%;'> </img> <p><strong>你是否选择发射武器？</strong></p>","0",""
"","","","","","html-keyboard-response","64","139377","0.0-4.0-0.30","179","1","2022-11-28 10:44:35","7b1eb8be57ff77859c7d9ac988e43411","14.157.174.163","Mozilla/5.0 (Linux; Android 12; V2217A; wv) AppleWebKit/537.36 (KHTML, like Gecko) Version/4.0 Chrome/87.0.4280.141 Mobile Safari/537.36 VivoBrowser/12.0.0.0","WebKit","Chrome","87.0.4280.141","AndroidOS","12","null","<div style=""font-size:60px;"">+</div>","null",""
"","","","","","html-button-response","65","140327","0.0-4.0-1.30","179","1","2022-11-28 10:44:35","7b1eb8be57ff77859c7d9ac988e43411","14.157.174.163","Mozilla/5.0 (Linux; Android 12; V2217A; wv) AppleWebKit/537.36 (KHTML, like Gecko) Version/4.0 Chrome/87.0.4280.141 Mobile Safari/537.36 VivoBrowser/12.0.0.0","WebKit","Chrome","87.0.4280.141","AndroidOS","12","930","<p>作为军队的指挥官，你可以选择发射导弹杀死 <strong>4名</strong> 敌国士兵，但会误杀附近的 <strong>1名</strong> 敌国平民。</p> <p>平民照片如下图所示。</p> <p></p> <img src='stimuli/faces/PCM1.jpg', style='max-width: 30%;'> </img> <p><strong>你是否选择发射武器？</strong></p>","0",""
"","","","","","html-keyboard-response","66","141337","0.0-4.0-0.31","179","1","2022-11-28 10:44:35","7b1eb8be57ff77859c7d9ac988e43411","14.157.174.163","Mozilla/5.0 (Linux; Android 12; V2217A; wv) AppleWebKit/537.36 (KHTML, like Gecko) Version/4.0 Chrome/87.0.4280.141 Mobile Safari/537.36 VivoBrowser/12.0.0.0","WebKit","Chrome","87.0.4280.141","AndroidOS","12","null","<div style=""font-size:60px;"">+</div>","null",""
"","","","","","html-button-response","67","142165","0.0-4.0-1.31","179","1","2022-11-28 10:44:35","7b1eb8be57ff77859c7d9ac988e43411","14.157.174.163","Mozilla/5.0 (Linux; Android 12; V2217A; wv) AppleWebKit/537.36 (KHTML, like Gecko) Version/4.0 Chrome/87.0.4280.141 Mobile Safari/537.36 VivoBrowser/12.0.0.0","WebKit","Chrome","87.0.4280.141","AndroidOS","12","806","<p>作为军队的指挥官，你可以选择发射导弹杀死 <strong>8名</strong> 敌国士兵，但会误杀附近的 <strong>1名</strong> 敌国平民。</p> <p>平民照片如下图所示。</p> <p></p> <img src='stimuli/faces/PCF6.jpg', style='max-width: 30%;'> </img> <p><strong>你是否选择发射武器？</strong></p>","0",""
"","","","","","html-keyboard-response","68","143175","0.0-4.0-0.32","179","1","2022-11-28 10:44:35","7b1eb8be57ff77859c7d9ac988e43411","14.157.174.163","Mozilla/5.0 (Linux; Android 12; V2217A; wv) AppleWebKit/537.36 (KHTML, like Gecko) Version/4.0 Chrome/87.0.4280.141 Mobile Safari/537.36 VivoBrowser/12.0.0.0","WebKit","Chrome","87.0.4280.141","AndroidOS","12","null","<div style=""font-size:60px;"">+</div>","null",""
"","","","","","html-button-response","69","143869","0.0-4.0-1.32","179","1","2022-11-28 10:44:35","7b1eb8be57ff77859c7d9ac988e43411","14.157.174.163","Mozilla/5.0 (Linux; Android 12; V2217A; wv) AppleWebKit/537.36 (KHTML, like Gecko) Version/4.0 Chrome/87.0.4280.141 Mobile Safari/537.36 VivoBrowser/12.0.0.0","WebKit","Chrome","87.0.4280.141","AndroidOS","12","673","<p>作为军队的指挥官，你可以选择发射导弹杀死 <strong>8名</strong> 敌国士兵，但会炸毁附近的 <strong>1棵</strong> 敌国树木。</p> <p>树木的照片如下图所示。</p> <p></p> <img src='stimuli/trees/8.png', style='max-width: 30%;'> </img> <p><strong>你是否选择发射武器？</strong></p>","0",""
"","","","","","html-keyboard-response","70","144879","0.0-4.0-0.33","179","1","2022-11-28 10:44:35","7b1eb8be57ff77859c7d9ac988e43411","14.157.174.163","Mozilla/5.0 (Linux; Android 12; V2217A; wv) AppleWebKit/537.36 (KHTML, like Gecko) Version/4.0 Chrome/87.0.4280.141 Mobile Safari/537.36 VivoBrowser/12.0.0.0","WebKit","Chrome","87.0.4280.141","AndroidOS","12","null","<div style=""font-size:60px;"">+</div>","null",""
"","","","","","html-button-response","71","149783","0.0-4.0-1.33","179","1","2022-11-28 10:44:35","7b1eb8be57ff77859c7d9ac988e43411","14.157.174.163","Mozilla/5.0 (Linux; Android 12; V2217A; wv) AppleWebKit/537.36 (KHTML, like Gecko) Version/4.0 Chrome/87.0.4280.141 Mobile Safari/537.36 VivoBrowser/12.0.0.0","WebKit","Chrome","87.0.4280.141","AndroidOS","12","4881","<p>作为军队的指挥官，你可以选择发射导弹杀死 <strong>10名</strong> 敌国士兵，但会炸毁附近的 <strong>1棵</strong> 敌国树木。</p> <p>树木的照片如下图所示。</p> <p></p> <img src='stimuli/trees/1.png', style='max-width: 30%;'> </img> <p><strong>你是否选择发射武器？</strong></p>","0",""
"","","","","","html-keyboard-response","72","150859","0.0-4.0-0.34","179","1","2022-11-28 10:44:35","7b1eb8be57ff77859c7d9ac988e43411","14.157.174.163","Mozilla/5.0 (Linux; Android 12; V2217A; wv) AppleWebKit/537.36 (KHTML, like Gecko) Version/4.0 Chrome/87.0.4280.141 Mobile Safari/537.36 VivoBrowser/12.0.0.0","WebKit","Chrome","87.0.4280.141","AndroidOS","12","null","<div style=""font-size:60px;"">+</div>","null",""
"","","","","","html-button-response","73","153399","0.0-4.0-1.34","179","1","2022-11-28 10:44:35","7b1eb8be57ff77859c7d9ac988e43411","14.157.174.163","Mozilla/5.0 (Linux; Android 12; V2217A; wv) AppleWebKit/537.36 (KHTML, like Gecko) Version/4.0 Chrome/87.0.4280.141 Mobile Safari/537.36 VivoBrowser/12.0.0.0","WebKit","Chrome","87.0.4280.141","AndroidOS","12","2522","<p>作为军队的指挥官，你可以选择发射导弹杀死 <strong>7名</strong> 敌国士兵，但会炸毁附近的 <strong>1棵</strong> 敌国树木。</p> <p>树木的照片如下图所示。</p> <p></p> <img src='stimuli/trees/4.png', style='max-width: 30%;'> </img> <p><strong>你是否选择发射武器？</strong></p>","0",""
"","","","","","html-keyboard-response","74","154412","0.0-4.0-0.35","179","1","2022-11-28 10:44:35","7b1eb8be57ff77859c7d9ac988e43411","14.157.174.163","Mozilla/5.0 (Linux; Android 12; V2217A; wv) AppleWebKit/537.36 (KHTML, like Gecko) Version/4.0 Chrome/87.0.4280.141 Mobile Safari/537.36 VivoBrowser/12.0.0.0","WebKit","Chrome","87.0.4280.141","AndroidOS","12","null","<div style=""font-size:60px;"">+</div>","null",""
"","","","","","html-button-response","75","155476","0.0-4.0-1.35","179","1","2022-11-28 10:44:35","7b1eb8be57ff77859c7d9ac988e43411","14.157.174.163","Mozilla/5.0 (Linux; Android 12; V2217A; wv) AppleWebKit/537.36 (KHTML, like Gecko) Version/4.0 Chrome/87.0.4280.141 Mobile Safari/537.36 VivoBrowser/12.0.0.0","WebKit","Chrome","87.0.4280.141","AndroidOS","12","1039","<p>作为军队的指挥官，你可以选择发射导弹杀死 <strong>1名</strong> 敌国士兵，但会炸毁附近的 <strong>1棵</strong> 敌国树木。</p> <p>树木的照片如下图所示。</p> <p></p> <img src='stimuli/trees/5.png', style='max-width: 30%;'> </img> <p><strong>你是否选择发射武器？</strong></p>","0",""
"","","","","","html-keyboard-response","76","156488","0.0-4.0-0.36","179","1","2022-11-28 10:44:35","7b1eb8be57ff77859c7d9ac988e43411","14.157.174.163","Mozilla/5.0 (Linux; Android 12; V2217A; wv) AppleWebKit/537.36 (KHTML, like Gecko) Version/4.0 Chrome/87.0.4280.141 Mobile Safari/537.36 VivoBrowser/12.0.0.0","WebKit","Chrome","87.0.4280.141","AndroidOS","12","null","<div style=""font-size:60px;"">+</div>","null",""
"","","","","","html-button-response","77","160117","0.0-4.0-1.36","179","1","2022-11-28 10:44:35","7b1eb8be57ff77859c7d9ac988e43411","14.157.174.163","Mozilla/5.0 (Linux; Android 12; V2217A; wv) AppleWebKit/537.36 (KHTML, like Gecko) Version/4.0 Chrome/87.0.4280.141 Mobile Safari/537.36 VivoBrowser/12.0.0.0","WebKit","Chrome","87.0.4280.141","AndroidOS","12","3610","<p>作为军队的指挥官，你可以选择发射导弹杀死 <strong>1名</strong> 敌国士兵，但会误杀附近的 <strong>1名</strong> 敌国平民。</p> <p>平民照片如下图所示。</p> <p></p> <img src='stimuli/faces/PCF4.jpg', style='max-width: 30%;'> </img> <p><strong>你是否选择发射武器？</strong></p>","0",""
"","","","","","html-keyboard-response","78","161130","0.0-4.0-0.37","179","1","2022-11-28 10:44:35","7b1eb8be57ff77859c7d9ac988e43411","14.157.174.163","Mozilla/5.0 (Linux; Android 12; V2217A; wv) AppleWebKit/537.36 (KHTML, like Gecko) Version/4.0 Chrome/87.0.4280.141 Mobile Safari/537.36 VivoBrowser/12.0.0.0","WebKit","Chrome","87.0.4280.141","AndroidOS","12","null","<div style=""font-size:60px;"">+</div>","null",""
"","","","","","html-button-response","79","162173","0.0-4.0-1.37","179","1","2022-11-28 10:44:35","7b1eb8be57ff77859c7d9ac988e43411","14.157.174.163","Mozilla/5.0 (Linux; Android 12; V2217A; wv) AppleWebKit/537.36 (KHTML, like Gecko) Version/4.0 Chrome/87.0.4280.141 Mobile Safari/537.36 VivoBrowser/12.0.0.0","WebKit","Chrome","87.0.4280.141","AndroidOS","12","1016","<p>作为军队的指挥官，你可以选择发射导弹杀死 <strong>3名</strong> 敌国士兵，但会误杀附近的 <strong>1名</strong> 敌国平民。</p> <p>平民照片如下图所示。</p> <p></p> <img src='stimuli/faces/PCF2.jpg', style='max-width: 30%;'> </img> <p><strong>你是否选择发射武器？</strong></p>","0",""
"","","","","","html-keyboard-response","80","163185","0.0-4.0-0.38","179","1","2022-11-28 10:44:35","7b1eb8be57ff77859c7d9ac988e43411","14.157.174.163","Mozilla/5.0 (Linux; Android 12; V2217A; wv) AppleWebKit/537.36 (KHTML, like Gecko) Version/4.0 Chrome/87.0.4280.141 Mobile Safari/537.36 VivoBrowser/12.0.0.0","WebKit","Chrome","87.0.4280.141","AndroidOS","12","null","<div style=""font-size:60px;"">+</div>","null",""
"","","","","","html-button-response","81","164272","0.0-4.0-1.38","179","1","2022-11-28 10:44:35","7b1eb8be57ff77859c7d9ac988e43411","14.157.174.163","Mozilla/5.0 (Linux; Android 12; V2217A; wv) AppleWebKit/537.36 (KHTML, like Gecko) Version/4.0 Chrome/87.0.4280.141 Mobile Safari/537.36 VivoBrowser/12.0.0.0","WebKit","Chrome","87.0.4280.141","AndroidOS","12","1069","<p>作为军队的指挥官，你可以选择发射导弹杀死 <strong>9名</strong> 敌国士兵，但会误杀附近的 <strong>1名</strong> 敌国平民。</p> <p>平民照片如下图所示。</p> <p></p> <img src='stimuli/faces/PCM6.jpg', style='max-width: 30%;'> </img> <p><strong>你是否选择发射武器？</strong></p>","0",""
"","","","","","html-keyboard-response","82","165286","0.0-4.0-0.39","179","1","2022-11-28 10:44:35","7b1eb8be57ff77859c7d9ac988e43411","14.157.174.163","Mozilla/5.0 (Linux; Android 12; V2217A; wv) AppleWebKit/537.36 (KHTML, like Gecko) Version/4.0 Chrome/87.0.4280.141 Mobile Safari/537.36 VivoBrowser/12.0.0.0","WebKit","Chrome","87.0.4280.141","AndroidOS","12","null","<div style=""font-size:60px;"">+</div>","null",""
"","","","","","html-button-response","83","166027","0.0-4.0-1.39","179","1","2022-11-28 10:44:35","7b1eb8be57ff77859c7d9ac988e43411","14.157.174.163","Mozilla/5.0 (Linux; Android 12; V2217A; wv) AppleWebKit/537.36 (KHTML, like Gecko) Version/4.0 Chrome/87.0.4280.141 Mobile Safari/537.36 VivoBrowser/12.0.0.0","WebKit","Chrome","87.0.4280.141","AndroidOS","12","713","<p>作为军队的指挥官，你可以选择发射导弹杀死 <strong>9名</strong> 敌国士兵，但会炸毁附近的 <strong>1棵</strong> 敌国树木。</p> <p>树木的照片如下图所示。</p> <p></p> <img src='stimuli/trees/2.png', style='max-width: 30%;'> </img> <p><strong>你是否选择发射武器？</strong></p>","0",""
"","","","","","html-keyboard-response","84","167044","0.0-4.0-0.40","179","1","2022-11-28 10:44:35","7b1eb8be57ff77859c7d9ac988e43411","14.157.174.163","Mozilla/5.0 (Linux; Android 12; V2217A; wv) AppleWebKit/537.36 (KHTML, like Gecko) Version/4.0 Chrome/87.0.4280.141 Mobile Safari/537.36 VivoBrowser/12.0.0.0","WebKit","Chrome","87.0.4280.141","AndroidOS","12","null","<div style=""font-size:60px;"">+</div>","null",""
"","","","","","html-button-response","85","167583","0.0-4.0-1.40","179","1","2022-11-28 10:44:35","7b1eb8be57ff77859c7d9ac988e43411","14.157.174.163","Mozilla/5.0 (Linux; Android 12; V2217A; wv) AppleWebKit/537.36 (KHTML, like Gecko) Version/4.0 Chrome/87.0.4280.141 Mobile Safari/537.36 VivoBrowser/12.0.0.0","WebKit","Chrome","87.0.4280.141","AndroidOS","12","509","<p>作为军队的指挥官，你可以选择发射导弹杀死 <strong>1名</strong> 敌国士兵，但会炸毁附近的 <strong>1棵</strong> 敌国树木。</p> <p>树木的照片如下图所示。</p> <p></p> <img src='stimuli/trees/9.png', style='max-width: 30%;'> </img> <p><strong>你是否选择发射武器？</strong></p>","0",""
"","","","","","html-keyboard-response","86","168593","0.0-4.0-0.41","179","1","2022-11-28 10:44:35","7b1eb8be57ff77859c7d9ac988e43411","14.157.174.163","Mozilla/5.0 (Linux; Android 12; V2217A; wv) AppleWebKit/537.36 (KHTML, like Gecko) Version/4.0 Chrome/87.0.4280.141 Mobile Safari/537.36 VivoBrowser/12.0.0.0","WebKit","Chrome","87.0.4280.141","AndroidOS","12","null","<div style=""font-size:60px;"">+</div>","null",""
"","","","","","html-button-response","87","169625","0.0-4.0-1.41","179","1","2022-11-28 10:44:35","7b1eb8be57ff77859c7d9ac988e43411","14.157.174.163","Mozilla/5.0 (Linux; Android 12; V2217A; wv) AppleWebKit/537.36 (KHTML, like Gecko) Version/4.0 Chrome/87.0.4280.141 Mobile Safari/537.36 VivoBrowser/12.0.0.0","WebKit","Chrome","87.0.4280.141","AndroidOS","12","1022","<p>作为军队的指挥官，你可以选择发射导弹杀死 <strong>5名</strong> 敌国士兵，但会误杀附近的 <strong>1名</strong> 敌国平民。</p> <p>平民照片如下图所示。</p> <p></p> <img src='stimuli/faces/PCM7.jpg', style='max-width: 30%;'> </img> <p><strong>你是否选择发射武器？</strong></p>","0",""
"","","","","","html-keyboard-response","88","170639","0.0-4.0-0.42","179","1","2022-11-28 10:44:35","7b1eb8be57ff77859c7d9ac988e43411","14.157.174.163","Mozilla/5.0 (Linux; Android 12; V2217A; wv) AppleWebKit/537.36 (KHTML, like Gecko) Version/4.0 Chrome/87.0.4280.141 Mobile Safari/537.36 VivoBrowser/12.0.0.0","WebKit","Chrome","87.0.4280.141","AndroidOS","12","null","<div style=""font-size:60px;"">+</div>","null",""
"","","","","","html-button-response","89","171136","0.0-4.0-1.42","179","1","2022-11-28 10:44:35","7b1eb8be57ff77859c7d9ac988e43411","14.157.174.163","Mozilla/5.0 (Linux; Android 12; V2217A; wv) AppleWebKit/537.36 (KHTML, like Gecko) Version/4.0 Chrome/87.0.4280.141 Mobile Safari/537.36 VivoBrowser/12.0.0.0","WebKit","Chrome","87.0.4280.141","AndroidOS","12","474","<p>作为军队的指挥官，你可以选择发射导弹杀死 <strong>4名</strong> 敌国士兵，但会误杀附近的 <strong>1名</strong> 敌国平民。</p> <p>平民照片如下图所示。</p> <p></p> <img src='stimuli/faces/PCF7.jpg', style='max-width: 30%;'> </img> <p><strong>你是否选择发射武器？</strong></p>","0",""
"","","","","","html-keyboard-response","90","172144","0.0-4.0-0.43","179","1","2022-11-28 10:44:35","7b1eb8be57ff77859c7d9ac988e43411","14.157.174.163","Mozilla/5.0 (Linux; Android 12; V2217A; wv) AppleWebKit/537.36 (KHTML, like Gecko) Version/4.0 Chrome/87.0.4280.141 Mobile Safari/537.36 VivoBrowser/12.0.0.0","WebKit","Chrome","87.0.4280.141","AndroidOS","12","null","<div style=""font-size:60px;"">+</div>","null",""
"","","","","","html-button-response","91","172740","0.0-4.0-1.43","179","1","2022-11-28 10:44:35","7b1eb8be57ff77859c7d9ac988e43411","14.157.174.163","Mozilla/5.0 (Linux; Android 12; V2217A; wv) AppleWebKit/537.36 (KHTML, like Gecko) Version/4.0 Chrome/87.0.4280.141 Mobile Safari/537.36 VivoBrowser/12.0.0.0","WebKit","Chrome","87.0.4280.141","AndroidOS","12","586","<p>作为军队的指挥官，你可以选择发射导弹杀死 <strong>2名</strong> 敌国士兵，但会误杀附近的 <strong>1名</strong> 敌国平民。</p> <p>平民照片如下图所示。</p> <p></p> <img src='stimuli/faces/PCF3.jpg', style='max-width: 30%;'> </img> <p><strong>你是否选择发射武器？</strong></p>","0",""
"","","","","","html-keyboard-response","92","173749","0.0-4.0-0.44","179","1","2022-11-28 10:44:35","7b1eb8be57ff77859c7d9ac988e43411","14.157.174.163","Mozilla/5.0 (Linux; Android 12; V2217A; wv) AppleWebKit/537.36 (KHTML, like Gecko) Version/4.0 Chrome/87.0.4280.141 Mobile Safari/537.36 VivoBrowser/12.0.0.0","WebKit","Chrome","87.0.4280.141","AndroidOS","12","null","<div style=""font-size:60px;"">+</div>","null",""
"","","","","","html-button-response","93","174388","0.0-4.0-1.44","179","1","2022-11-28 10:44:35","7b1eb8be57ff77859c7d9ac988e43411","14.157.174.163","Mozilla/5.0 (Linux; Android 12; V2217A; wv) AppleWebKit/537.36 (KHTML, like Gecko) Version/4.0 Chrome/87.0.4280.141 Mobile Safari/537.36 VivoBrowser/12.0.0.0","WebKit","Chrome","87.0.4280.141","AndroidOS","12","614","<p>作为军队的指挥官，你可以选择发射导弹杀死 <strong>3名</strong> 敌国士兵，但会误杀附近的 <strong>1名</strong> 敌国平民。</p> <p>平民照片如下图所示。</p> <p></p> <img src='stimuli/faces/PCM2.jpg', style='max-width: 30%;'> </img> <p><strong>你是否选择发射武器？</strong></p>","0",""
"","","","","","html-keyboard-response","94","175402","0.0-4.0-0.45","179","1","2022-11-28 10:44:35","7b1eb8be57ff77859c7d9ac988e43411","14.157.174.163","Mozilla/5.0 (Linux; Android 12; V2217A; wv) AppleWebKit/537.36 (KHTML, like Gecko) Version/4.0 Chrome/87.0.4280.141 Mobile Safari/537.36 VivoBrowser/12.0.0.0","WebKit","Chrome","87.0.4280.141","AndroidOS","12","null","<div style=""font-size:60px;"">+</div>","null",""
"","","","","","html-button-response","95","176292","0.0-4.0-1.45","179","1","2022-11-28 10:44:35","7b1eb8be57ff77859c7d9ac988e43411","14.157.174.163","Mozilla/5.0 (Linux; Android 12; V2217A; wv) AppleWebKit/537.36 (KHTML, like Gecko) Version/4.0 Chrome/87.0.4280.141 Mobile Safari/537.36 VivoBrowser/12.0.0.0","WebKit","Chrome","87.0.4280.141","AndroidOS","12","866","<p>作为军队的指挥官，你可以选择发射导弹杀死 <strong>7名</strong> 敌国士兵，但会炸毁附近的 <strong>1棵</strong> 敌国树木。</p> <p>树木的照片如下图所示。</p> <p></p> <img src='stimuli/trees/11.png', style='max-width: 30%;'> </img> <p><strong>你是否选择发射武器？</strong></p>","0",""
"","","","","","html-keyboard-response","96","177306","0.0-4.0-0.46","179","1","2022-11-28 10:44:35","7b1eb8be57ff77859c7d9ac988e43411","14.157.174.163","Mozilla/5.0 (Linux; Android 12; V2217A; wv) AppleWebKit/537.36 (KHTML, like Gecko) Version/4.0 Chrome/87.0.4280.141 Mobile Safari/537.36 VivoBrowser/12.0.0.0","WebKit","Chrome","87.0.4280.141","AndroidOS","12","null","<div style=""font-size:60px;"">+</div>","null",""
"","","","","","html-button-response","97","177895","0.0-4.0-1.46","179","1","2022-11-28 10:44:35","7b1eb8be57ff77859c7d9ac988e43411","14.157.174.163","Mozilla/5.0 (Linux; Android 12; V2217A; wv) AppleWebKit/537.36 (KHTML, like Gecko) Version/4.0 Chrome/87.0.4280.141 Mobile Safari/537.36 VivoBrowser/12.0.0.0","WebKit","Chrome","87.0.4280.141","AndroidOS","12","567","<p>作为军队的指挥官，你可以选择发射导弹杀死 <strong>5名</strong> 敌国士兵，但会炸毁附近的 <strong>1棵</strong> 敌国树木。</p> <p>树木的照片如下图所示。</p> <p></p> <img src='stimuli/trees/3.png', style='max-width: 30%;'> </img> <p><strong>你是否选择发射武器？</strong></p>","0",""
"","","","","","html-keyboard-response","98","178906","0.0-4.0-0.47","179","1","2022-11-28 10:44:35","7b1eb8be57ff77859c7d9ac988e43411","14.157.174.163","Mozilla/5.0 (Linux; Android 12; V2217A; wv) AppleWebKit/537.36 (KHTML, like Gecko) Version/4.0 Chrome/87.0.4280.141 Mobile Safari/537.36 VivoBrowser/12.0.0.0","WebKit","Chrome","87.0.4280.141","AndroidOS","12","null","<div style=""font-size:60px;"">+</div>","null",""
"","","","","","html-button-response","99","179599","0.0-4.0-1.47","179","1","2022-11-28 10:44:35","7b1eb8be57ff77859c7d9ac988e43411","14.157.174.163","Mozilla/5.0 (Linux; Android 12; V2217A; wv) AppleWebKit/537.36 (KHTML, like Gecko) Version/4.0 Chrome/87.0.4280.141 Mobile Safari/537.36 VivoBrowser/12.0.0.0","WebKit","Chrome","87.0.4280.141","AndroidOS","12","669","<p>作为军队的指挥官，你可以选择发射导弹杀死 <strong>3名</strong> 敌国士兵，但会炸毁附近的 <strong>1棵</strong> 敌国树木。</p> <p>树木的照片如下图所示。</p> <p></p> <img src='stimuli/trees/8.png', style='max-width: 30%;'> </img> <p><strong>你是否选择发射武器？</strong></p>","0",""
"","","","","","html-keyboard-response","100","180609","0.0-4.0-0.48","179","1","2022-11-28 10:44:35","7b1eb8be57ff77859c7d9ac988e43411","14.157.174.163","Mozilla/5.0 (Linux; Android 12; V2217A; wv) AppleWebKit/537.36 (KHTML, like Gecko) Version/4.0 Chrome/87.0.4280.141 Mobile Safari/537.36 VivoBrowser/12.0.0.0","WebKit","Chrome","87.0.4280.141","AndroidOS","12","null","<div style=""font-size:60px;"">+</div>","null",""
"","","","","","html-button-response","101","181191","0.0-4.0-1.48","179","1","2022-11-28 10:44:35","7b1eb8be57ff77859c7d9ac988e43411","14.157.174.163","Mozilla/5.0 (Linux; Android 12; V2217A; wv) AppleWebKit/537.36 (KHTML, like Gecko) Version/4.0 Chrome/87.0.4280.141 Mobile Safari/537.36 VivoBrowser/12.0.0.0","WebKit","Chrome","87.0.4280.141","AndroidOS","12","554","<p>作为军队的指挥官，你可以选择发射导弹杀死 <strong>5名</strong> 敌国士兵，但会炸毁附近的 <strong>1棵</strong> 敌国树木。</p> <p>树木的照片如下图所示。</p> <p></p> <img src='stimuli/trees/4.png', style='max-width: 30%;'> </img> <p><strong>你是否选择发射武器？</strong></p>","0",""
"","","","","","html-keyboard-response","102","182207","0.0-4.0-0.49","179","1","2022-11-28 10:44:35","7b1eb8be57ff77859c7d9ac988e43411","14.157.174.163","Mozilla/5.0 (Linux; Android 12; V2217A; wv) AppleWebKit/537.36 (KHTML, like Gecko) Version/4.0 Chrome/87.0.4280.141 Mobile Safari/537.36 VivoBrowser/12.0.0.0","WebKit","Chrome","87.0.4280.141","AndroidOS","12","null","<div style=""font-size:60px;"">+</div>","null",""
"","","","","","html-button-response","103","182986","0.0-4.0-1.49","179","1","2022-11-28 10:44:35","7b1eb8be57ff77859c7d9ac988e43411","14.157.174.163","Mozilla/5.0 (Linux; Android 12; V2217A; wv) AppleWebKit/537.36 (KHTML, like Gecko) Version/4.0 Chrome/87.0.4280.141 Mobile Safari/537.36 VivoBrowser/12.0.0.0","WebKit","Chrome","87.0.4280.141","AndroidOS","12","753","<p>作为军队的指挥官，你可以选择发射导弹杀死 <strong>9名</strong> 敌国士兵，但会误杀附近的 <strong>1名</strong> 敌国平民。</p> <p>平民照片如下图所示。</p> <p></p> <img src='stimuli/faces/PCF1.jpg', style='max-width: 30%;'> </img> <p><strong>你是否选择发射武器？</strong></p>","0",""
"","","","","","html-keyboard-response","104","184003","0.0-4.0-0.50","179","1","2022-11-28 10:44:35","7b1eb8be57ff77859c7d9ac988e43411","14.157.174.163","Mozilla/5.0 (Linux; Android 12; V2217A; wv) AppleWebKit/537.36 (KHTML, like Gecko) Version/4.0 Chrome/87.0.4280.141 Mobile Safari/537.36 VivoBrowser/12.0.0.0","WebKit","Chrome","87.0.4280.141","AndroidOS","12","null","<div style=""font-size:60px;"">+</div>","null",""
"","","","","","html-button-response","105","184723","0.0-4.0-1.50","179","1","2022-11-28 10:44:35","7b1eb8be57ff77859c7d9ac988e43411","14.157.174.163","Mozilla/5.0 (Linux; Android 12; V2217A; wv) AppleWebKit/537.36 (KHTML, like Gecko) Version/4.0 Chrome/87.0.4280.141 Mobile Safari/537.36 VivoBrowser/12.0.0.0","WebKit","Chrome","87.0.4280.141","AndroidOS","12","698","<p>作为军队的指挥官，你可以选择发射导弹杀死 <strong>3名</strong> 敌国士兵，但会炸毁附近的 <strong>1棵</strong> 敌国树木。</p> <p>树木的照片如下图所示。</p> <p></p> <img src='stimuli/trees/2.png', style='max-width: 30%;'> </img> <p><strong>你是否选择发射武器？</strong></p>","0",""
"","","","","","html-keyboard-response","106","185736","0.0-4.0-0.51","179","1","2022-11-28 10:44:35","7b1eb8be57ff77859c7d9ac988e43411","14.157.174.163","Mozilla/5.0 (Linux; Android 12; V2217A; wv) AppleWebKit/537.36 (KHTML, like Gecko) Version/4.0 Chrome/87.0.4280.141 Mobile Safari/537.36 VivoBrowser/12.0.0.0","WebKit","Chrome","87.0.4280.141","AndroidOS","12","null","<div style=""font-size:60px;"">+</div>","null",""
"","","","","","html-button-response","107","186507","0.0-4.0-1.51","179","1","2022-11-28 10:44:35","7b1eb8be57ff77859c7d9ac988e43411","14.157.174.163","Mozilla/5.0 (Linux; Android 12; V2217A; wv) AppleWebKit/537.36 (KHTML, like Gecko) Version/4.0 Chrome/87.0.4280.141 Mobile Safari/537.36 VivoBrowser/12.0.0.0","WebKit","Chrome","87.0.4280.141","AndroidOS","12","749","<p>作为军队的指挥官，你可以选择发射导弹杀死 <strong>3名</strong> 敌国士兵，但会误杀附近的 <strong>1名</strong> 敌国平民。</p> <p>平民照片如下图所示。</p> <p></p> <img src='stimuli/faces/PCM3.jpg', style='max-width: 30%;'> </img> <p><strong>你是否选择发射武器？</strong></p>","0",""
"","","","","","html-keyboard-response","108","187522","0.0-4.0-0.52","179","1","2022-11-28 10:44:35","7b1eb8be57ff77859c7d9ac988e43411","14.157.174.163","Mozilla/5.0 (Linux; Android 12; V2217A; wv) AppleWebKit/537.36 (KHTML, like Gecko) Version/4.0 Chrome/87.0.4280.141 Mobile Safari/537.36 VivoBrowser/12.0.0.0","WebKit","Chrome","87.0.4280.141","AndroidOS","12","null","<div style=""font-size:60px;"">+</div>","null",""
"","","","","","html-button-response","109","188423","0.0-4.0-1.52","179","1","2022-11-28 10:44:35","7b1eb8be57ff77859c7d9ac988e43411","14.157.174.163","Mozilla/5.0 (Linux; Android 12; V2217A; wv) AppleWebKit/537.36 (KHTML, like Gecko) Version/4.0 Chrome/87.0.4280.141 Mobile Safari/537.36 VivoBrowser/12.0.0.0","WebKit","Chrome","87.0.4280.141","AndroidOS","12","871","<p>作为军队的指挥官，你可以选择发射导弹杀死 <strong>7名</strong> 敌国士兵，但会炸毁附近的 <strong>1棵</strong> 敌国树木。</p> <p>树木的照片如下图所示。</p> <p></p> <img src='stimuli/trees/7.png', style='max-width: 30%;'> </img> <p><strong>你是否选择发射武器？</strong></p>","0",""
"","","","","","html-keyboard-response","110","189436","0.0-4.0-0.53","179","1","2022-11-28 10:44:35","7b1eb8be57ff77859c7d9ac988e43411","14.157.174.163","Mozilla/5.0 (Linux; Android 12; V2217A; wv) AppleWebKit/537.36 (KHTML, like Gecko) Version/4.0 Chrome/87.0.4280.141 Mobile Safari/537.36 VivoBrowser/12.0.0.0","WebKit","Chrome","87.0.4280.141","AndroidOS","12","null","<div style=""font-size:60px;"">+</div>","null",""
"","","","","","html-button-response","111","190152","0.0-4.0-1.53","179","1","2022-11-28 10:44:35","7b1eb8be57ff77859c7d9ac988e43411","14.157.174.163","Mozilla/5.0 (Linux; Android 12; V2217A; wv) AppleWebKit/537.36 (KHTML, like Gecko) Version/4.0 Chrome/87.0.4280.141 Mobile Safari/537.36 VivoBrowser/12.0.0.0","WebKit","Chrome","87.0.4280.141","AndroidOS","12","692","<p>作为军队的指挥官，你可以选择发射导弹杀死 <strong>2名</strong> 敌国士兵，但会误杀附近的 <strong>1名</strong> 敌国平民。</p> <p>平民照片如下图所示。</p> <p></p> <img src='stimuli/faces/PCM6.jpg', style='max-width: 30%;'> </img> <p><strong>你是否选择发射武器？</strong></p>","0",""
"","","","","","html-keyboard-response","112","191165","0.0-4.0-0.54","179","1","2022-11-28 10:44:35","7b1eb8be57ff77859c7d9ac988e43411","14.157.174.163","Mozilla/5.0 (Linux; Android 12; V2217A; wv) AppleWebKit/537.36 (KHTML, like Gecko) Version/4.0 Chrome/87.0.4280.141 Mobile Safari/537.36 VivoBrowser/12.0.0.0","WebKit","Chrome","87.0.4280.141","AndroidOS","12","null","<div style=""font-size:60px;"">+</div>","null",""
"","","","","","html-button-response","113","192163","0.0-4.0-1.54","179","1","2022-11-28 10:44:35","7b1eb8be57ff77859c7d9ac988e43411","14.157.174.163","Mozilla/5.0 (Linux; Android 12; V2217A; wv) AppleWebKit/537.36 (KHTML, like Gecko) Version/4.0 Chrome/87.0.4280.141 Mobile Safari/537.36 VivoBrowser/12.0.0.0","WebKit","Chrome","87.0.4280.141","AndroidOS","12","969","<p>作为军队的指挥官，你可以选择发射导弹杀死 <strong>10名</strong> 敌国士兵，但会炸毁附近的 <strong>1棵</strong> 敌国树木。</p> <p>树木的照片如下图所示。</p> <p></p> <img src='stimuli/trees/9.png', style='max-width: 30%;'> </img> <p><strong>你是否选择发射武器？</strong></p>","0",""
"","","","","","html-keyboard-response","114","193177","0.0-4.0-0.55","179","1","2022-11-28 10:44:35","7b1eb8be57ff77859c7d9ac988e43411","14.157.174.163","Mozilla/5.0 (Linux; Android 12; V2217A; wv) AppleWebKit/537.36 (KHTML, like Gecko) Version/4.0 Chrome/87.0.4280.141 Mobile Safari/537.36 VivoBrowser/12.0.0.0","WebKit","Chrome","87.0.4280.141","AndroidOS","12","null","<div style=""font-size:60px;"">+</div>","null",""
"","","","","","html-button-response","115","194042","0.0-4.0-1.55","179","1","2022-11-28 10:44:35","7b1eb8be57ff77859c7d9ac988e43411","14.157.174.163","Mozilla/5.0 (Linux; Android 12; V2217A; wv) AppleWebKit/537.36 (KHTML, like Gecko) Version/4.0 Chrome/87.0.4280.141 Mobile Safari/537.36 VivoBrowser/12.0.0.0","WebKit","Chrome","87.0.4280.141","AndroidOS","12","844","<p>作为军队的指挥官，你可以选择发射导弹杀死 <strong>5名</strong> 敌国士兵，但会误杀附近的 <strong>1名</strong> 敌国平民。</p> <p>平民照片如下图所示。</p> <p></p> <img src='stimuli/faces/PCF5.jpg', style='max-width: 30%;'> </img> <p><strong>你是否选择发射武器？</strong></p>","0",""
"","","","","","html-keyboard-response","116","195054","0.0-4.0-0.56","179","1","2022-11-28 10:44:35","7b1eb8be57ff77859c7d9ac988e43411","14.157.174.163","Mozilla/5.0 (Linux; Android 12; V2217A; wv) AppleWebKit/537.36 (KHTML, like Gecko) Version/4.0 Chrome/87.0.4280.141 Mobile Safari/537.36 VivoBrowser/12.0.0.0","WebKit","Chrome","87.0.4280.141","AndroidOS","12","null","<div style=""font-size:60px;"">+</div>","null",""
"","","","","","html-button-response","117","196451","0.0-4.0-1.56","179","1","2022-11-28 10:44:35","7b1eb8be57ff77859c7d9ac988e43411","14.157.174.163","Mozilla/5.0 (Linux; Android 12; V2217A; wv) AppleWebKit/537.36 (KHTML, like Gecko) Version/4.0 Chrome/87.0.4280.141 Mobile Safari/537.36 VivoBrowser/12.0.0.0","WebKit","Chrome","87.0.4280.141","AndroidOS","12","1387","<p>作为军队的指挥官，你可以选择发射导弹杀死 <strong>5名</strong> 敌国士兵，但会炸毁附近的 <strong>1棵</strong> 敌国树木。</p> <p>树木的照片如下图所示。</p> <p></p> <img src='stimuli/trees/11.png', style='max-width: 30%;'> </img> <p><strong>你是否选择发射武器？</strong></p>","0",""
"","","","","","html-keyboard-response","118","197466","0.0-4.0-0.57","179","1","2022-11-28 10:44:35","7b1eb8be57ff77859c7d9ac988e43411","14.157.174.163","Mozilla/5.0 (Linux; Android 12; V2217A; wv) AppleWebKit/537.36 (KHTML, like Gecko) Version/4.0 Chrome/87.0.4280.141 Mobile Safari/537.36 VivoBrowser/12.0.0.0","WebKit","Chrome","87.0.4280.141","AndroidOS","12","null","<div style=""font-size:60px;"">+</div>","null",""
"","","","","","html-button-response","119","198089","0.0-4.0-1.57","179","1","2022-11-28 10:44:35","7b1eb8be57ff77859c7d9ac988e43411","14.157.174.163","Mozilla/5.0 (Linux; Android 12; V2217A; wv) AppleWebKit/537.36 (KHTML, like Gecko) Version/4.0 Chrome/87.0.4280.141 Mobile Safari/537.36 VivoBrowser/12.0.0.0","WebKit","Chrome","87.0.4280.141","AndroidOS","12","613","<p>作为军队的指挥官，你可以选择发射导弹杀死 <strong>10名</strong> 敌国士兵，但会炸毁附近的 <strong>1棵</strong> 敌国树木。</p> <p>树木的照片如下图所示。</p> <p></p> <img src='stimuli/trees/14.png', style='max-width: 30%;'> </img> <p><strong>你是否选择发射武器？</strong></p>","0",""
"","","","","","html-keyboard-response","120","199099","0.0-4.0-0.58","179","1","2022-11-28 10:44:35","7b1eb8be57ff77859c7d9ac988e43411","14.157.174.163","Mozilla/5.0 (Linux; Android 12; V2217A; wv) AppleWebKit/537.36 (KHTML, like Gecko) Version/4.0 Chrome/87.0.4280.141 Mobile Safari/537.36 VivoBrowser/12.0.0.0","WebKit","Chrome","87.0.4280.141","AndroidOS","12","null","<div style=""font-size:60px;"">+</div>","null",""
"","","","","","html-button-response","121","199674","0.0-4.0-1.58","179","1","2022-11-28 10:44:35","7b1eb8be57ff77859c7d9ac988e43411","14.157.174.163","Mozilla/5.0 (Linux; Android 12; V2217A; wv) AppleWebKit/537.36 (KHTML, like Gecko) Version/4.0 Chrome/87.0.4280.141 Mobile Safari/537.36 VivoBrowser/12.0.0.0","WebKit","Chrome","87.0.4280.141","AndroidOS","12","562","<p>作为军队的指挥官，你可以选择发射导弹杀死 <strong>10名</strong> 敌国士兵，但会炸毁附近的 <strong>1棵</strong> 敌国树木。</p> <p>树木的照片如下图所示。</p> <p></p> <img src='stimuli/trees/15.png', style='max-width: 30%;'> </img> <p><strong>你是否选择发射武器？</strong></p>","0",""
"","","","","","html-keyboard-response","122","200691","0.0-4.0-0.59","179","1","2022-11-28 10:44:35","7b1eb8be57ff77859c7d9ac988e43411","14.157.174.163","Mozilla/5.0 (Linux; Android 12; V2217A; wv) AppleWebKit/537.36 (KHTML, like Gecko) Version/4.0 Chrome/87.0.4280.141 Mobile Safari/537.36 VivoBrowser/12.0.0.0","WebKit","Chrome","87.0.4280.141","AndroidOS","12","null","<div style=""font-size:60px;"">+</div>","null",""
"","","","","","html-button-response","123","201235","0.0-4.0-1.59","179","1","2022-11-28 10:44:35","7b1eb8be57ff77859c7d9ac988e43411","14.157.174.163","Mozilla/5.0 (Linux; Android 12; V2217A; wv) AppleWebKit/537.36 (KHTML, like Gecko) Version/4.0 Chrome/87.0.4280.141 Mobile Safari/537.36 VivoBrowser/12.0.0.0","WebKit","Chrome","87.0.4280.141","AndroidOS","12","523","<p>作为军队的指挥官，你可以选择发射导弹杀死 <strong>4名</strong> 敌国士兵，但会炸毁附近的 <strong>1棵</strong> 敌国树木。</p> <p>树木的照片如下图所示。</p> <p></p> <img src='stimuli/trees/7.png', style='max-width: 30%;'> </img> <p><strong>你是否选择发射武器？</strong></p>","0",""
"","","","","","html-keyboard-response","124","202250","0.0-4.0-0.60","179","1","2022-11-28 10:44:35","7b1eb8be57ff77859c7d9ac988e43411","14.157.174.163","Mozilla/5.0 (Linux; Android 12; V2217A; wv) AppleWebKit/537.36 (KHTML, like Gecko) Version/4.0 Chrome/87.0.4280.141 Mobile Safari/537.36 VivoBrowser/12.0.0.0","WebKit","Chrome","87.0.4280.141","AndroidOS","12","null","<div style=""font-size:60px;"">+</div>","null",""
"","","","","","html-button-response","125","202793","0.0-4.0-1.60","179","1","2022-11-28 10:44:35","7b1eb8be57ff77859c7d9ac988e43411","14.157.174.163","Mozilla/5.0 (Linux; Android 12; V2217A; wv) AppleWebKit/537.36 (KHTML, like Gecko) Version/4.0 Chrome/87.0.4280.141 Mobile Safari/537.36 VivoBrowser/12.0.0.0","WebKit","Chrome","87.0.4280.141","AndroidOS","12","528","<p>作为军队的指挥官，你可以选择发射导弹杀死 <strong>1名</strong> 敌国士兵，但会炸毁附近的 <strong>1棵</strong> 敌国树木。</p> <p>树木的照片如下图所示。</p> <p></p> <img src='stimuli/trees/12.png', style='max-width: 30%;'> </img> <p><strong>你是否选择发射武器？</strong></p>","0",""
"","","","","","html-keyboard-response","126","203811","0.0-4.0-0.61","179","1","2022-11-28 10:44:35","7b1eb8be57ff77859c7d9ac988e43411","14.157.174.163","Mozilla/5.0 (Linux; Android 12; V2217A; wv) AppleWebKit/537.36 (KHTML, like Gecko) Version/4.0 Chrome/87.0.4280.141 Mobile Safari/537.36 VivoBrowser/12.0.0.0","WebKit","Chrome","87.0.4280.141","AndroidOS","12","null","<div style=""font-size:60px;"">+</div>","null",""
"","","","","","html-button-response","127","204444","0.0-4.0-1.61","179","1","2022-11-28 10:44:35","7b1eb8be57ff77859c7d9ac988e43411","14.157.174.163","Mozilla/5.0 (Linux; Android 12; V2217A; wv) AppleWebKit/537.36 (KHTML, like Gecko) Version/4.0 Chrome/87.0.4280.141 Mobile Safari/537.36 VivoBrowser/12.0.0.0","WebKit","Chrome","87.0.4280.141","AndroidOS","12","612","<p>作为军队的指挥官，你可以选择发射导弹杀死 <strong>5名</strong> 敌国士兵，但会误杀附近的 <strong>1名</strong> 敌国平民。</p> <p>平民照片如下图所示。</p> <p></p> <img src='stimuli/faces/PCF6.jpg', style='max-width: 30%;'> </img> <p><strong>你是否选择发射武器？</strong></p>","0",""
"","","","","","html-keyboard-response","128","205459","0.0-4.0-0.62","179","1","2022-11-28 10:44:35","7b1eb8be57ff77859c7d9ac988e43411","14.157.174.163","Mozilla/5.0 (Linux; Android 12; V2217A; wv) AppleWebKit/537.36 (KHTML, like Gecko) Version/4.0 Chrome/87.0.4280.141 Mobile Safari/537.36 VivoBrowser/12.0.0.0","WebKit","Chrome","87.0.4280.141","AndroidOS","12","null","<div style=""font-size:60px;"">+</div>","null",""
"","","","","","html-button-response","129","206171","0.0-4.0-1.62","179","1","2022-11-28 10:44:35","7b1eb8be57ff77859c7d9ac988e43411","14.157.174.163","Mozilla/5.0 (Linux; Android 12; V2217A; wv) AppleWebKit/537.36 (KHTML, like Gecko) Version/4.0 Chrome/87.0.4280.141 Mobile Safari/537.36 VivoBrowser/12.0.0.0","WebKit","Chrome","87.0.4280.141","AndroidOS","12","689","<p>作为军队的指挥官，你可以选择发射导弹杀死 <strong>10名</strong> 敌国士兵，但会炸毁附近的 <strong>1棵</strong> 敌国树木。</p> <p>树木的照片如下图所示。</p> <p></p> <img src='stimuli/trees/3.png', style='max-width: 30%;'> </img> <p><strong>你是否选择发射武器？</strong></p>","0",""
"","","","","","html-keyboard-response","130","207189","0.0-4.0-0.63","179","1","2022-11-28 10:44:35","7b1eb8be57ff77859c7d9ac988e43411","14.157.174.163","Mozilla/5.0 (Linux; Android 12; V2217A; wv) AppleWebKit/537.36 (KHTML, like Gecko) Version/4.0 Chrome/87.0.4280.141 Mobile Safari/537.36 VivoBrowser/12.0.0.0","WebKit","Chrome","87.0.4280.141","AndroidOS","12","null","<div style=""font-size:60px;"">+</div>","null",""
"","","","","","html-button-response","131","207884","0.0-4.0-1.63","179","1","2022-11-28 10:44:35","7b1eb8be57ff77859c7d9ac988e43411","14.157.174.163","Mozilla/5.0 (Linux; Android 12; V2217A; wv) AppleWebKit/537.36 (KHTML, like Gecko) Version/4.0 Chrome/87.0.4280.141 Mobile Safari/537.36 VivoBrowser/12.0.0.0","WebKit","Chrome","87.0.4280.141","AndroidOS","12","671","<p>作为军队的指挥官，你可以选择发射导弹杀死 <strong>2名</strong> 敌国士兵，但会炸毁附近的 <strong>1棵</strong> 敌国树木。</p> <p>树木的照片如下图所示。</p> <p></p> <img src='stimuli/trees/15.png', style='max-width: 30%;'> </img> <p><strong>你是否选择发射武器？</strong></p>","0",""
"","","","","","survey-multi-choice","132","326913","0.0-5.0","179","1","2022-11-28 10:44:35","7b1eb8be57ff77859c7d9ac988e43411","14.157.174.163","Mozilla/5.0 (Linux; Android 12; V2217A; wv) AppleWebKit/537.36 (KHTML, like Gecko) Version/4.0 Chrome/87.0.4280.141 Mobile Safari/537.36 VivoBrowser/12.0.0.0","WebKit","Chrome","87.0.4280.141","AndroidOS","12","119005","","{""Attention1"":""4 = 也许值得""}","[0]"
"","","","","","html-button-response","133","334428","0.0-6.0","179","1","2022-11-28 10:44:35","7b1eb8be57ff77859c7d9ac988e43411","14.157.174.163","Mozilla/5.0 (Linux; Android 12; V2217A; wv) AppleWebKit/537.36 (KHTML, like Gecko) Version/4.0 Chrome/87.0.4280.141 Mobile Safari/537.36 VivoBrowser/12.0.0.0","WebKit","Chrome","87.0.4280.141","AndroidOS","12","7500","<p style=""font-size:20px;font-weight:bold;"">恭喜！</p><p>你已经完成了实验的第一部分。</p><p>请休息放松一下，然后进入第二部分。</p><p>这部分大约需要10分钟。</p>","0",""
"","","","","","survey-text","134","428144","0.0-7.0","179","1","2022-11-28 10:44:35","7b1eb8be57ff77859c7d9ac988e43411","14.157.174.163","Mozilla/5.0 (Linux; Android 12; V2217A; wv) AppleWebKit/537.36 (KHTML, like Gecko) Version/4.0 Chrome/87.0.4280.141 Mobile Safari/537.36 VivoBrowser/12.0.0.0","WebKit","Chrome","87.0.4280.141","AndroidOS","12","92690","","{""Age"":""22"",""Nation"":""中国"",""Born"":""广东省江门市"",""Live"":""广东省江门市"",""Ethnic"":""汉"",""Alipay"":""13172215268"",""ID"":""""}",""
"","","","","","survey-multi-choice","135","491344","0.0-8.0","179","1","2022-11-28 10:44:35","7b1eb8be57ff77859c7d9ac988e43411","14.157.174.163","Mozilla/5.0 (Linux; Android 12; V2217A; wv) AppleWebKit/537.36 (KHTML, like Gecko) Version/4.0 Chrome/87.0.4280.141 Mobile Safari/537.36 VivoBrowser/12.0.0.0","WebKit","Chrome","87.0.4280.141","AndroidOS","12","63183","","{""Gender"":""女"",""Education"":""本科毕业"",""Income"":""￥70,000-￥139,999"",""Children"":""0"",""Race"":""亚洲人""}","[0,1,2,3,4]"
"","","","","","survey-multi-select","136","504016","0.0-9.0","179","1","2022-11-28 10:44:35","7b1eb8be57ff77859c7d9ac988e43411","14.157.174.163","Mozilla/5.0 (Linux; Android 12; V2217A; wv) AppleWebKit/537.36 (KHTML, like Gecko) Version/4.0 Chrome/87.0.4280.141 Mobile Safari/537.36 VivoBrowser/12.0.0.0","WebKit","Chrome","87.0.4280.141","AndroidOS","12","12634","","{""Marriage"":[""未婚""],""Religion"":[""无宗教信仰""]}","[0,1]"
"","","","","","survey-multi-choice","137","572732","0.0-10.0","179","1","2022-11-28 10:44:35","7b1eb8be57ff77859c7d9ac988e43411","14.157.174.163","Mozilla/5.0 (Linux; Android 12; V2217A; wv) AppleWebKit/537.36 (KHTML, like Gecko) Version/4.0 Chrome/87.0.4280.141 Mobile Safari/537.36 VivoBrowser/12.0.0.0","WebKit","Chrome","87.0.4280.141","AndroidOS","12","68704","","{""SES"":""5""}","[0]"
"","","","","","html-button-response","138","576096","0.0-11.0","179","1","2022-11-28 10:44:35","7b1eb8be57ff77859c7d9ac988e43411","14.157.174.163","Mozilla/5.0 (Linux; Android 12; V2217A; wv) AppleWebKit/537.36 (KHTML, like Gecko) Version/4.0 Chrome/87.0.4280.141 Mobile Safari/537.36 VivoBrowser/12.0.0.0","WebKit","Chrome","87.0.4280.141","AndroidOS","12","3336","<p><strong>请判断下列陈述在多大程度上可以形容你？</p><p> (1 = ""和我一点都不像"" to 5 = ""非常像我"".)</strong></p>","0",""
"","","","","","survey-likert","139","631317","0.0-12.0","179","1","2022-11-28 10:44:35","7b1eb8be57ff77859c7d9ac988e43411","14.157.174.163","Mozilla/5.0 (Linux; Android 12; V2217A; wv) AppleWebKit/537.36 (KHTML, like Gecko) Version/4.0 Chrome/87.0.4280.141 Mobile Safari/537.36 VivoBrowser/12.0.0.0","WebKit","Chrome","87.0.4280.141","AndroidOS","12","55196","","{""Aggression1"":0,""Aggression2"":0,""Aggression3"":4,""Aggression4"":0,""Aggression5"":3,""Aggression6"":1,""Aggression7"":2,""Aggression8"":0,""Aggression9"":3}","[0,1,2,3,4,5,6,7,8]"
"","","","","","html-button-response","140","633897","0.0-13.0","179","1","2022-11-28 10:44:35","7b1eb8be57ff77859c7d9ac988e43411","14.157.174.163","Mozilla/5.0 (Linux; Android 12; V2217A; wv) AppleWebKit/537.36 (KHTML, like Gecko) Version/4.0 Chrome/87.0.4280.141 Mobile Safari/537.36 VivoBrowser/12.0.0.0","WebKit","Chrome","87.0.4280.141","AndroidOS","12","2568","<p><strong>请判断你在多大程度上同意下列陈述。</strong></p>","0",""
"","","","","","survey-likert","141","803493","0.0-14.0","179","1","2022-11-28 10:44:35","7b1eb8be57ff77859c7d9ac988e43411","14.157.174.163","Mozilla/5.0 (Linux; Android 12; V2217A; wv) AppleWebKit/537.36 (KHTML, like Gecko) Version/4.0 Chrome/87.0.4280.141 Mobile Safari/537.36 VivoBrowser/12.0.0.0","WebKit","Chrome","87.0.4280.141","AndroidOS","12","169562","","{""scale6"":3,""scale22"":3,""scale25"":2,""scale28"":3,""scale17"":3,""scale8"":2,""scale27"":1,""scale2"":2,""scale10"":3,""scale5"":1,""scale4"":1,""scale7"":2,""scale11"":2,""scale14"":2,""scale16"":0,""scale3"":1,""scale18"":1,""scale20"":3,""scale26"":2,""scale12"":1,""scale23"":1,""scale9"":2,""scale19"":1,""scale15"":2,""scale1"":0,""scale13"":2,""scale24"":1,""scale21"":2}","[5,21,24,27,16,7,26,1,9,4,3,6,10,13,15,2,17,19,25,11,22,8,18,14,0,12,23,20]"
"","","","","","html-button-response","142","806507","0.0-15.0","179","1","2022-11-28 10:44:35","7b1eb8be57ff77859c7d9ac988e43411","14.157.174.163","Mozilla/5.0 (Linux; Android 12; V2217A; wv) AppleWebKit/537.36 (KHTML, like Gecko) Version/4.0 Chrome/87.0.4280.141 Mobile Safari/537.36 VivoBrowser/12.0.0.0","WebKit","Chrome","87.0.4280.141","AndroidOS","12","3005","<p><strong>请判断你在多大程度上同意下列陈述。</strong></p>","0",""
"","","","","","survey-likert","143","884618","0.0-16.0","179","1","2022-11-28 10:44:35","7b1eb8be57ff77859c7d9ac988e43411","14.157.174.163","Mozilla/5.0 (Linux; Android 12; V2217A; wv) AppleWebKit/537.36 (KHTML, like Gecko) Version/4.0 Chrome/87.0.4280.141 Mobile Safari/537.36 VivoBrowser/12.0.0.0","WebKit","Chrome","87.0.4280.141","AndroidOS","12","78078","","{""sdo9"":6,""sdo6"":2,""sdo14"":5,""sdo11"":6,""sdo1"":0,""sdo12"":6,""sdo7"":0,""sdo10"":6,""sdo15"":6,""sdo4"":0,""sdo8"":0,""sdo3"":0,""sdo13"":6,""sdo16"":6,""sdo2"":0,""sdo5"":6}","[8,5,13,10,0,11,6,9,14,3,7,2,12,15,1,4]"
"","","","","","html-button-response","144","885812","0.0-17.0","179","1","2022-11-28 10:44:35","7b1eb8be57ff77859c7d9ac988e43411","14.157.174.163","Mozilla/5.0 (Linux; Android 12; V2217A; wv) AppleWebKit/537.36 (KHTML, like Gecko) Version/4.0 Chrome/87.0.4280.141 Mobile Safari/537.36 VivoBrowser/12.0.0.0","WebKit","Chrome","87.0.4280.141","AndroidOS","12","1167","<p><strong>请判断你在多大程度上同意下列陈述。</strong></p>","0",""
"","","","","","survey-likert","145","949299","0.0-18.0","179","1","2022-11-28 10:44:35","7b1eb8be57ff77859c7d9ac988e43411","14.157.174.163","Mozilla/5.0 (Linux; Android 12; V2217A; wv) AppleWebKit/537.36 (KHTML, like Gecko) Version/4.0 Chrome/87.0.4280.141 Mobile Safari/537.36 VivoBrowser/12.0.0.0","WebKit","Chrome","87.0.4280.141","AndroidOS","12","63455","","{""caring1"":3,""liking1"":3,""caring2"":2,""protection1"":3,""liking2"":2,""caring3"":2,""protection2"":0,""liking3"":3,""protection3"":2,""caring4"":3,""liking4"":2,""protection4"":3,""caring5"":2,""liking5"":3,""protection5"":0}","[0,1,2,3,4,5,6,7,8,9,10,11,12,13,14]"
"","","","","","html-button-response","146","951050","0.0-19.0","179","1","2022-11-28 10:44:35","7b1eb8be57ff77859c7d9ac988e43411","14.157.174.163","Mozilla/5.0 (Linux; Android 12; V2217A; wv) AppleWebKit/537.36 (KHTML, like Gecko) Version/4.0 Chrome/87.0.4280.141 Mobile Safari/537.36 VivoBrowser/12.0.0.0","WebKit","Chrome","87.0.4280.141","AndroidOS","12","1744","<p><strong>请判断下列场景中你的内心感受有多柔软。</strong></p>","0",""
"","","","","","survey-likert","147","989536","0.0-20.0","179","1","2022-11-28 10:44:35","7b1eb8be57ff77859c7d9ac988e43411","14.157.174.163","Mozilla/5.0 (Linux; Android 12; V2217A; wv) AppleWebKit/537.36 (KHTML, like Gecko) Version/4.0 Chrome/87.0.4280.141 Mobile Safari/537.36 VivoBrowser/12.0.0.0","WebKit","Chrome","87.0.4280.141","AndroidOS","12","38462","","{""tenderness-positive1"":3,""tenderness-negative1"":3,""tenderness-negative2"":2,""tenderness-positive2"":3,""tenderness-positive3"":3,""tenderness-negative3"":1,""tenderness-positive4"":3,""tenderness-negative4"":3,""tenderness-negative5"":3,""tenderness-positive5"":4}","[0,1,2,3,4,5,6,7,8,9]"
"","","","","","survey-multi-choice","148","1052749","0.0-21.0","179","1","2022-11-28 10:44:35","7b1eb8be57ff77859c7d9ac988e43411","14.157.174.163","Mozilla/5.0 (Linux; Android 12; V2217A; wv) AppleWebKit/537.36 (KHTML, like Gecko) Version/4.0 Chrome/87.0.4280.141 Mobile Safari/537.36 VivoBrowser/12.0.0.0","WebKit","Chrome","87.0.4280.141","AndroidOS","12","63203","","{""Attention2"":""从来没有""}","[0]"
"","","","","","html-button-response","149","1054097","0.0-22.0","179","1","2022-11-28 10:44:35","7b1eb8be57ff77859c7d9ac988e43411","14.157.174.163","Mozilla/5.0 (Linux; Android 12; V2217A; wv) AppleWebKit/537.36 (KHTML, like Gecko) Version/4.0 Chrome/87.0.4280.141 Mobile Safari/537.36 VivoBrowser/12.0.0.0","WebKit","Chrome","87.0.4280.141","AndroidOS","12","1315","<p><strong>请判断你在多大程度上同意下列陈述。</strong></p>","0",""
"","","","","","survey-likert","150","1241998","0.0-23.0","179","1","2022-11-28 10:44:35","7b1eb8be57ff77859c7d9ac988e43411","14.157.174.163","Mozilla/5.0 (Linux; Android 12; V2217A; wv) AppleWebKit/537.36 (KHTML, like Gecko) Version/4.0 Chrome/87.0.4280.141 Mobile Safari/537.36 VivoBrowser/12.0.0.0","WebKit","Chrome","87.0.4280.141","AndroidOS","12","187885","","{""Patri4"":4,""Patri3"":4,""Nation3"":0,""Patri5"":4,""Patri12"":0,""Nation8"":0,""Nation1"":3,""Patri11"":0,""Nation4"":1,""Patri8"":4,""Nation5"":4,""Nation6"":4,""Patri7"":4,""Nation2"":4,""Patri2"":4,""Patri1"":4,""Patri9"":0,""Patri10"":0,""Patri6"":0,""Nation7"":4}","[3,2,14,4,11,19,12,10,15,7,16,17,6,13,1,0,8,9,5,18]"
"","","","","","html-button-response","151","1243515","0.0-24.0","179","1","2022-11-28 10:44:35","7b1eb8be57ff77859c7d9ac988e43411","14.157.174.163","Mozilla/5.0 (Linux; Android 12; V2217A; wv) AppleWebKit/537.36 (KHTML, like Gecko) Version/4.0 Chrome/87.0.4280.141 Mobile Safari/537.36 VivoBrowser/12.0.0.0","WebKit","Chrome","87.0.4280.141","AndroidOS","12","1506","<p><strong>请判断你在多大程度上同意下列陈述。</strong></p>","0",""
"","","","","","survey-likert","152","1306041","0.0-25.0","179","1","2022-11-28 10:44:35","7b1eb8be57ff77859c7d9ac988e43411","14.157.174.163","Mozilla/5.0 (Linux; Android 12; V2217A; wv) AppleWebKit/537.36 (KHTML, like Gecko) Version/4.0 Chrome/87.0.4280.141 Mobile Safari/537.36 VivoBrowser/12.0.0.0","WebKit","Chrome","87.0.4280.141","AndroidOS","12","62481","","{""vc2"":6,""hc4"":6,""hc1"":7,""vi2"":4,""vc4"":8,""vc3"":8,""Robot"":6,""vc1"":8,""hi4"":8,""vi3"":8,""vi4"":5,""hc3"":8,""hi3"":3,""vi1"":6,""hi1"":3,""hc2"":7,""hi2"":3}","[14,12,9,5,16,15,7,13,3,6,8,11,2,4,0,10,1]"
"","","","","","survey-text","153","1319650","0.0-26.0","179","1","2022-11-28 10:44:35","7b1eb8be57ff77859c7d9ac988e43411","14.157.174.163","Mozilla/5.0 (Linux; Android 12; V2217A; wv) AppleWebKit/537.36 (KHTML, like Gecko) Version/4.0 Chrome/87.0.4280.141 Mobile Safari/537.36 VivoBrowser/12.0.0.0","WebKit","Chrome","87.0.4280.141","AndroidOS","12","13568","","{""Comments"":""""}",""
"","","","","","html-button-response","154","1323023","0.0-27.0","179","1","2022-11-28 10:44:35","7b1eb8be57ff77859c7d9ac988e43411","14.157.174.163","Mozilla/5.0 (Linux; Android 12; V2217A; wv) AppleWebKit/537.36 (KHTML, like Gecko) Version/4.0 Chrome/87.0.4280.141 Mobile Safari/537.36 VivoBrowser/12.0.0.0","WebKit","Chrome","87.0.4280.141","AndroidOS","12","3352","<strong><p>恭喜你完成了实验！</p><p>感谢您的参与。</p></strong>","0",""
