"success","timeout","failed_images","failed_audio","failed_video","trial_type","trial_index","time_elapsed","internal_node_id","run_id","condition","recorded_at","source_code_version","ip","user_agent","device","browser","browser_version","platform","platform_version","rt","stimulus","response","question_order"
"true","false","[]","[]","[]","preload","0","7480","0.0-0.0","175","1","2022-11-28 09:30:40","7b1eb8be57ff77859c7d9ac988e43411","61.158.184.234","Mozilla/5.0 (Windows NT 10.0; Win64; x64) AppleWebKit/537.36 (KHTML, like Gecko) Chrome/106.0.0.0 Safari/537.36 Edg/106.0.1370.34","WebKit","Edge","106.0.1370.34","Windows","10.0","","","",""
"true","","","","","fullscreen","1","9945","0.0-1.0","175","1","2022-11-28 09:30:40","7b1eb8be57ff77859c7d9ac988e43411","61.158.184.234","Mozilla/5.0 (Windows NT 10.0; Win64; x64) AppleWebKit/537.36 (KHTML, like Gecko) Chrome/106.0.0.0 Safari/537.36 Edg/106.0.1370.34","WebKit","Edge","106.0.1370.34","Windows","10.0","","","",""
"","","","","","html-button-response","2","25203","0.0-2.0","175","1","2022-11-28 09:30:40","7b1eb8be57ff77859c7d9ac988e43411","61.158.184.234","Mozilla/5.0 (Windows NT 10.0; Win64; x64) AppleWebKit/537.36 (KHTML, like Gecko) Chrome/106.0.0.0 Safari/537.36 Edg/106.0.1370.34","WebKit","Edge","106.0.1370.34","Windows","10.0","15257","<p style=""font-size:20px;font-weight:bold;"">实验知情同意书</p><p style=""text-align:left;""><strong>实验名称：</strong>社会冲突研究</p><p style=""text-align:left;""><strong>主要研究者：</strong>韩晓春副教授（北京师范大学心理学部）</p><p style=""text-align:left;""><strong>联系方式：</strong>发送邮件至xiaochun.han@bnu.edu.cn</p><p style=""text-align:left;""><strong>研究目的：</strong>研究旨在了解人类面对群体冲突时的决策方式，以及相关的心理学特质。实验调查大约需要20分钟。</p><p style=""text-align:left;""><strong>实验流程：</strong>实验包含两部分。第一部分呈现一系列群体冲突场景，请你决定如何对这些冲突进行反应，大约需要10分钟完成。第二部分包含一系列人口统计学信息收集和心理学问卷，大约需要10分钟完成。</p><p style=""text-align:left;""><strong>参加及退出规则：</strong>参加本实验完全取决于您的个人意愿。在参与过程中，您可以随时退出，并且不用承担任何后果。</p><p style=""text-align:left;""><strong>隐私：</strong>本实验完全匿名进行，不会收集您的姓名或其他能够识别您身份的信息。实验中收集的作答仅用作科学研究使用，可能会在学术期刊/书籍上发表，或者用于教学，您的数据未来可能会和其他研究者或实验室分享，但您的个人身份不会被识别。</p><p style=""text-align:left;""><strong>实验报酬：</strong>实验完成后，您将获得15元人民币报酬，以感谢您的时间和努力。调查问卷中包含几道题目用以测验您作答时的认真度。只有完成全部实验，并且正确回答认真度测验的被试才能获得实验报酬。实验报酬将通过支付宝转账发放。</p><p style=""text-align:left;font-size:20px;""><strong>如果您同意以上实验知情同意书的内容，请点击'同意并且开始实验'按钮；否则请关闭浏览器界面，退出实验。</strong></p>","0",""
"","","","","","html-button-response","3","39659","0.0-3.0","175","1","2022-11-28 09:30:40","7b1eb8be57ff77859c7d9ac988e43411","61.158.184.234","Mozilla/5.0 (Windows NT 10.0; Win64; x64) AppleWebKit/537.36 (KHTML, like Gecko) Chrome/106.0.0.0 Safari/537.36 Edg/106.0.1370.34","WebKit","Edge","106.0.1370.34","Windows","10.0","14455","<p ><strong>实验任务一：</strong></p><p>请想象你的国家与另一个国家发生了军事冲突。</p><p>你是国家军队的指挥官，你将如何在冲突中进行决策。</p><p>具体来说，作为军队指挥官，请你决定是否发射导弹进行打击。</p><p>接下来，你会面对一系列场景，请仔细阅读每个场景，然后进行决策。</p><p>这部分实验任务大约需要10分钟。</p><p><strong>实验过程中，请集中注意力。</strong></p>","0",""
"","","","","","html-keyboard-response","4","40670","0.0-4.0-0.0","175","1","2022-11-28 09:30:40","7b1eb8be57ff77859c7d9ac988e43411","61.158.184.234","Mozilla/5.0 (Windows NT 10.0; Win64; x64) AppleWebKit/537.36 (KHTML, like Gecko) Chrome/106.0.0.0 Safari/537.36 Edg/106.0.1370.34","WebKit","Edge","106.0.1370.34","Windows","10.0","null","<div style=""font-size:60px;"">+</div>","null",""
"","","","","","html-button-response","5","45757","0.0-4.0-1.0","175","1","2022-11-28 09:30:40","7b1eb8be57ff77859c7d9ac988e43411","61.158.184.234","Mozilla/5.0 (Windows NT 10.0; Win64; x64) AppleWebKit/537.36 (KHTML, like Gecko) Chrome/106.0.0.0 Safari/537.36 Edg/106.0.1370.34","WebKit","Edge","106.0.1370.34","Windows","10.0","5084","<p>作为军队的指挥官，你可以选择发射导弹杀死 <strong>6名</strong> 敌国士兵，但会误杀附近的 <strong>1名</strong> 敌国平民。</p> <p>平民照片如下图所示。</p> <p></p> <img src='stimuli/faces/PCF7.jpg', style='max-width: 30%;'> </img> <p><strong>你是否选择发射武器？</strong></p>","0",""
"","","","","","html-keyboard-response","6","46770","0.0-4.0-0.1","175","1","2022-11-28 09:30:40","7b1eb8be57ff77859c7d9ac988e43411","61.158.184.234","Mozilla/5.0 (Windows NT 10.0; Win64; x64) AppleWebKit/537.36 (KHTML, like Gecko) Chrome/106.0.0.0 Safari/537.36 Edg/106.0.1370.34","WebKit","Edge","106.0.1370.34","Windows","10.0","null","<div style=""font-size:60px;"">+</div>","null",""
"","","","","","html-button-response","7","55675","0.0-4.0-1.1","175","1","2022-11-28 09:30:40","7b1eb8be57ff77859c7d9ac988e43411","61.158.184.234","Mozilla/5.0 (Windows NT 10.0; Win64; x64) AppleWebKit/537.36 (KHTML, like Gecko) Chrome/106.0.0.0 Safari/537.36 Edg/106.0.1370.34","WebKit","Edge","106.0.1370.34","Windows","10.0","8904","<p>作为军队的指挥官，你可以选择发射导弹杀死 <strong>3名</strong> 敌国士兵，但会误杀附近的 <strong>1名</strong> 敌国平民。</p> <p>平民照片如下图所示。</p> <p></p> <img src='stimuli/faces/PCF5.jpg', style='max-width: 30%;'> </img> <p><strong>你是否选择发射武器？</strong></p>","0",""
"","","","","","html-keyboard-response","8","56691","0.0-4.0-0.2","175","1","2022-11-28 09:30:40","7b1eb8be57ff77859c7d9ac988e43411","61.158.184.234","Mozilla/5.0 (Windows NT 10.0; Win64; x64) AppleWebKit/537.36 (KHTML, like Gecko) Chrome/106.0.0.0 Safari/537.36 Edg/106.0.1370.34","WebKit","Edge","106.0.1370.34","Windows","10.0","null","<div style=""font-size:60px;"">+</div>","null",""
"","","","","","html-button-response","9","61579","0.0-4.0-1.2","175","1","2022-11-28 09:30:40","7b1eb8be57ff77859c7d9ac988e43411","61.158.184.234","Mozilla/5.0 (Windows NT 10.0; Win64; x64) AppleWebKit/537.36 (KHTML, like Gecko) Chrome/106.0.0.0 Safari/537.36 Edg/106.0.1370.34","WebKit","Edge","106.0.1370.34","Windows","10.0","4887","<p>作为军队的指挥官，你可以选择发射导弹杀死 <strong>8名</strong> 敌国士兵，但会炸毁附近的 <strong>1棵</strong> 敌国树木。</p> <p>树木的照片如下图所示。</p> <p></p> <img src='stimuli/trees/10.png', style='max-width: 30%;'> </img> <p><strong>你是否选择发射武器？</strong></p>","0",""
"","","","","","html-keyboard-response","10","62589","0.0-4.0-0.3","175","1","2022-11-28 09:30:40","7b1eb8be57ff77859c7d9ac988e43411","61.158.184.234","Mozilla/5.0 (Windows NT 10.0; Win64; x64) AppleWebKit/537.36 (KHTML, like Gecko) Chrome/106.0.0.0 Safari/537.36 Edg/106.0.1370.34","WebKit","Edge","106.0.1370.34","Windows","10.0","null","<div style=""font-size:60px;"">+</div>","null",""
"","","","","","html-button-response","11","66884","0.0-4.0-1.3","175","1","2022-11-28 09:30:40","7b1eb8be57ff77859c7d9ac988e43411","61.158.184.234","Mozilla/5.0 (Windows NT 10.0; Win64; x64) AppleWebKit/537.36 (KHTML, like Gecko) Chrome/106.0.0.0 Safari/537.36 Edg/106.0.1370.34","WebKit","Edge","106.0.1370.34","Windows","10.0","4294","<p>作为军队的指挥官，你可以选择发射导弹杀死 <strong>5名</strong> 敌国士兵，但会误杀附近的 <strong>1名</strong> 敌国平民。</p> <p>平民照片如下图所示。</p> <p></p> <img src='stimuli/faces/PCM8.jpg', style='max-width: 30%;'> </img> <p><strong>你是否选择发射武器？</strong></p>","0",""
"","","","","","html-keyboard-response","12","67898","0.0-4.0-0.4","175","1","2022-11-28 09:30:40","7b1eb8be57ff77859c7d9ac988e43411","61.158.184.234","Mozilla/5.0 (Windows NT 10.0; Win64; x64) AppleWebKit/537.36 (KHTML, like Gecko) Chrome/106.0.0.0 Safari/537.36 Edg/106.0.1370.34","WebKit","Edge","106.0.1370.34","Windows","10.0","null","<div style=""font-size:60px;"">+</div>","null",""
"","","","","","html-button-response","13","70459","0.0-4.0-1.4","175","1","2022-11-28 09:30:40","7b1eb8be57ff77859c7d9ac988e43411","61.158.184.234","Mozilla/5.0 (Windows NT 10.0; Win64; x64) AppleWebKit/537.36 (KHTML, like Gecko) Chrome/106.0.0.0 Safari/537.36 Edg/106.0.1370.34","WebKit","Edge","106.0.1370.34","Windows","10.0","2561","<p>作为军队的指挥官，你可以选择发射导弹杀死 <strong>3名</strong> 敌国士兵，但会炸毁附近的 <strong>1棵</strong> 敌国树木。</p> <p>树木的照片如下图所示。</p> <p></p> <img src='stimuli/trees/6.png', style='max-width: 30%;'> </img> <p><strong>你是否选择发射武器？</strong></p>","0",""
"","","","","","html-keyboard-response","14","71461","0.0-4.0-0.5","175","1","2022-11-28 09:30:40","7b1eb8be57ff77859c7d9ac988e43411","61.158.184.234","Mozilla/5.0 (Windows NT 10.0; Win64; x64) AppleWebKit/537.36 (KHTML, like Gecko) Chrome/106.0.0.0 Safari/537.36 Edg/106.0.1370.34","WebKit","Edge","106.0.1370.34","Windows","10.0","null","<div style=""font-size:60px;"">+</div>","null",""
"","","","","","html-button-response","15","77204","0.0-4.0-1.5","175","1","2022-11-28 09:30:40","7b1eb8be57ff77859c7d9ac988e43411","61.158.184.234","Mozilla/5.0 (Windows NT 10.0; Win64; x64) AppleWebKit/537.36 (KHTML, like Gecko) Chrome/106.0.0.0 Safari/537.36 Edg/106.0.1370.34","WebKit","Edge","106.0.1370.34","Windows","10.0","5742","<p>作为军队的指挥官，你可以选择发射导弹杀死 <strong>2名</strong> 敌国士兵，但会炸毁附近的 <strong>1棵</strong> 敌国树木。</p> <p>树木的照片如下图所示。</p> <p></p> <img src='stimuli/trees/8.png', style='max-width: 30%;'> </img> <p><strong>你是否选择发射武器？</strong></p>","0",""
"","","","","","html-keyboard-response","16","78215","0.0-4.0-0.6","175","1","2022-11-28 09:30:40","7b1eb8be57ff77859c7d9ac988e43411","61.158.184.234","Mozilla/5.0 (Windows NT 10.0; Win64; x64) AppleWebKit/537.36 (KHTML, like Gecko) Chrome/106.0.0.0 Safari/537.36 Edg/106.0.1370.34","WebKit","Edge","106.0.1370.34","Windows","10.0","null","<div style=""font-size:60px;"">+</div>","null",""
"","","","","","html-button-response","17","82043","0.0-4.0-1.6","175","1","2022-11-28 09:30:40","7b1eb8be57ff77859c7d9ac988e43411","61.158.184.234","Mozilla/5.0 (Windows NT 10.0; Win64; x64) AppleWebKit/537.36 (KHTML, like Gecko) Chrome/106.0.0.0 Safari/537.36 Edg/106.0.1370.34","WebKit","Edge","106.0.1370.34","Windows","10.0","3827","<p>作为军队的指挥官，你可以选择发射导弹杀死 <strong>10名</strong> 敌国士兵，但会误杀附近的 <strong>1名</strong> 敌国平民。</p> <p>平民照片如下图所示。</p> <p></p> <img src='stimuli/faces/PCF6.jpg', style='max-width: 30%;'> </img> <p><strong>你是否选择发射武器？</strong></p>","0",""
"","","","","","html-keyboard-response","18","83045","0.0-4.0-0.7","175","1","2022-11-28 09:30:40","7b1eb8be57ff77859c7d9ac988e43411","61.158.184.234","Mozilla/5.0 (Windows NT 10.0; Win64; x64) AppleWebKit/537.36 (KHTML, like Gecko) Chrome/106.0.0.0 Safari/537.36 Edg/106.0.1370.34","WebKit","Edge","106.0.1370.34","Windows","10.0","null","<div style=""font-size:60px;"">+</div>","null",""
"","","","","","html-button-response","19","91348","0.0-4.0-1.7","175","1","2022-11-28 09:30:40","7b1eb8be57ff77859c7d9ac988e43411","61.158.184.234","Mozilla/5.0 (Windows NT 10.0; Win64; x64) AppleWebKit/537.36 (KHTML, like Gecko) Chrome/106.0.0.0 Safari/537.36 Edg/106.0.1370.34","WebKit","Edge","106.0.1370.34","Windows","10.0","8302","<p>作为军队的指挥官，你可以选择发射导弹杀死 <strong>3名</strong> 敌国士兵，但会误杀附近的 <strong>1名</strong> 敌国平民。</p> <p>平民照片如下图所示。</p> <p></p> <img src='stimuli/faces/PCM6.jpg', style='max-width: 30%;'> </img> <p><strong>你是否选择发射武器？</strong></p>","1",""
"","","","","","html-keyboard-response","20","92362","0.0-4.0-0.8","175","1","2022-11-28 09:30:40","7b1eb8be57ff77859c7d9ac988e43411","61.158.184.234","Mozilla/5.0 (Windows NT 10.0; Win64; x64) AppleWebKit/537.36 (KHTML, like Gecko) Chrome/106.0.0.0 Safari/537.36 Edg/106.0.1370.34","WebKit","Edge","106.0.1370.34","Windows","10.0","null","<div style=""font-size:60px;"">+</div>","null",""
"","","","","","html-button-response","21","106788","0.0-4.0-1.8","175","1","2022-11-28 09:30:40","7b1eb8be57ff77859c7d9ac988e43411","61.158.184.234","Mozilla/5.0 (Windows NT 10.0; Win64; x64) AppleWebKit/537.36 (KHTML, like Gecko) Chrome/106.0.0.0 Safari/537.36 Edg/106.0.1370.34","WebKit","Edge","106.0.1370.34","Windows","10.0","14425","<p>作为军队的指挥官，你可以选择发射导弹杀死 <strong>4名</strong> 敌国士兵，但会误杀附近的 <strong>1名</strong> 敌国平民。</p> <p>平民照片如下图所示。</p> <p></p> <img src='stimuli/faces/PCF1.jpg', style='max-width: 30%;'> </img> <p><strong>你是否选择发射武器？</strong></p>","1",""
"","","","","","html-keyboard-response","22","107790","0.0-4.0-0.9","175","1","2022-11-28 09:30:40","7b1eb8be57ff77859c7d9ac988e43411","61.158.184.234","Mozilla/5.0 (Windows NT 10.0; Win64; x64) AppleWebKit/537.36 (KHTML, like Gecko) Chrome/106.0.0.0 Safari/537.36 Edg/106.0.1370.34","WebKit","Edge","106.0.1370.34","Windows","10.0","null","<div style=""font-size:60px;"">+</div>","null",""
"","","","","","html-button-response","23","111364","0.0-4.0-1.9","175","1","2022-11-28 09:30:40","7b1eb8be57ff77859c7d9ac988e43411","61.158.184.234","Mozilla/5.0 (Windows NT 10.0; Win64; x64) AppleWebKit/537.36 (KHTML, like Gecko) Chrome/106.0.0.0 Safari/537.36 Edg/106.0.1370.34","WebKit","Edge","106.0.1370.34","Windows","10.0","3573","<p>作为军队的指挥官，你可以选择发射导弹杀死 <strong>7名</strong> 敌国士兵，但会误杀附近的 <strong>1名</strong> 敌国平民。</p> <p>平民照片如下图所示。</p> <p></p> <img src='stimuli/faces/PCM1.jpg', style='max-width: 30%;'> </img> <p><strong>你是否选择发射武器？</strong></p>","0",""
"","","","","","html-keyboard-response","24","112375","0.0-4.0-0.10","175","1","2022-11-28 09:30:40","7b1eb8be57ff77859c7d9ac988e43411","61.158.184.234","Mozilla/5.0 (Windows NT 10.0; Win64; x64) AppleWebKit/537.36 (KHTML, like Gecko) Chrome/106.0.0.0 Safari/537.36 Edg/106.0.1370.34","WebKit","Edge","106.0.1370.34","Windows","10.0","null","<div style=""font-size:60px;"">+</div>","null",""
"","","","","","html-button-response","25","116707","0.0-4.0-1.10","175","1","2022-11-28 09:30:40","7b1eb8be57ff77859c7d9ac988e43411","61.158.184.234","Mozilla/5.0 (Windows NT 10.0; Win64; x64) AppleWebKit/537.36 (KHTML, like Gecko) Chrome/106.0.0.0 Safari/537.36 Edg/106.0.1370.34","WebKit","Edge","106.0.1370.34","Windows","10.0","4331","<p>作为军队的指挥官，你可以选择发射导弹杀死 <strong>8名</strong> 敌国士兵，但会误杀附近的 <strong>1名</strong> 敌国平民。</p> <p>平民照片如下图所示。</p> <p></p> <img src='stimuli/faces/PCF1.jpg', style='max-width: 30%;'> </img> <p><strong>你是否选择发射武器？</strong></p>","0",""
"","","","","","html-keyboard-response","26","117712","0.0-4.0-0.11","175","1","2022-11-28 09:30:40","7b1eb8be57ff77859c7d9ac988e43411","61.158.184.234","Mozilla/5.0 (Windows NT 10.0; Win64; x64) AppleWebKit/537.36 (KHTML, like Gecko) Chrome/106.0.0.0 Safari/537.36 Edg/106.0.1370.34","WebKit","Edge","106.0.1370.34","Windows","10.0","null","<div style=""font-size:60px;"">+</div>","null",""
"","","","","","html-button-response","27","120755","0.0-4.0-1.11","175","1","2022-11-28 09:30:40","7b1eb8be57ff77859c7d9ac988e43411","61.158.184.234","Mozilla/5.0 (Windows NT 10.0; Win64; x64) AppleWebKit/537.36 (KHTML, like Gecko) Chrome/106.0.0.0 Safari/537.36 Edg/106.0.1370.34","WebKit","Edge","106.0.1370.34","Windows","10.0","3042","<p>作为军队的指挥官，你可以选择发射导弹杀死 <strong>8名</strong> 敌国士兵，但会误杀附近的 <strong>1名</strong> 敌国平民。</p> <p>平民照片如下图所示。</p> <p></p> <img src='stimuli/faces/PCF2.jpg', style='max-width: 30%;'> </img> <p><strong>你是否选择发射武器？</strong></p>","0",""
"","","","","","html-keyboard-response","28","121764","0.0-4.0-0.12","175","1","2022-11-28 09:30:40","7b1eb8be57ff77859c7d9ac988e43411","61.158.184.234","Mozilla/5.0 (Windows NT 10.0; Win64; x64) AppleWebKit/537.36 (KHTML, like Gecko) Chrome/106.0.0.0 Safari/537.36 Edg/106.0.1370.34","WebKit","Edge","106.0.1370.34","Windows","10.0","null","<div style=""font-size:60px;"">+</div>","null",""
"","","","","","html-button-response","29","125179","0.0-4.0-1.12","175","1","2022-11-28 09:30:40","7b1eb8be57ff77859c7d9ac988e43411","61.158.184.234","Mozilla/5.0 (Windows NT 10.0; Win64; x64) AppleWebKit/537.36 (KHTML, like Gecko) Chrome/106.0.0.0 Safari/537.36 Edg/106.0.1370.34","WebKit","Edge","106.0.1370.34","Windows","10.0","3414","<p>作为军队的指挥官，你可以选择发射导弹杀死 <strong>9名</strong> 敌国士兵，但会炸毁附近的 <strong>1棵</strong> 敌国树木。</p> <p>树木的照片如下图所示。</p> <p></p> <img src='stimuli/trees/5.png', style='max-width: 30%;'> </img> <p><strong>你是否选择发射武器？</strong></p>","0",""
"","","","","","html-keyboard-response","30","126187","0.0-4.0-0.13","175","1","2022-11-28 09:30:40","7b1eb8be57ff77859c7d9ac988e43411","61.158.184.234","Mozilla/5.0 (Windows NT 10.0; Win64; x64) AppleWebKit/537.36 (KHTML, like Gecko) Chrome/106.0.0.0 Safari/537.36 Edg/106.0.1370.34","WebKit","Edge","106.0.1370.34","Windows","10.0","null","<div style=""font-size:60px;"">+</div>","null",""
"","","","","","html-button-response","31","143547","0.0-4.0-1.13","175","1","2022-11-28 09:30:40","7b1eb8be57ff77859c7d9ac988e43411","61.158.184.234","Mozilla/5.0 (Windows NT 10.0; Win64; x64) AppleWebKit/537.36 (KHTML, like Gecko) Chrome/106.0.0.0 Safari/537.36 Edg/106.0.1370.34","WebKit","Edge","106.0.1370.34","Windows","10.0","17359","<p>作为军队的指挥官，你可以选择发射导弹杀死 <strong>1名</strong> 敌国士兵，但会炸毁附近的 <strong>1棵</strong> 敌国树木。</p> <p>树木的照片如下图所示。</p> <p></p> <img src='stimuli/trees/2.png', style='max-width: 30%;'> </img> <p><strong>你是否选择发射武器？</strong></p>","1",""
"","","","","","html-keyboard-response","32","144560","0.0-4.0-0.14","175","1","2022-11-28 09:30:40","7b1eb8be57ff77859c7d9ac988e43411","61.158.184.234","Mozilla/5.0 (Windows NT 10.0; Win64; x64) AppleWebKit/537.36 (KHTML, like Gecko) Chrome/106.0.0.0 Safari/537.36 Edg/106.0.1370.34","WebKit","Edge","106.0.1370.34","Windows","10.0","null","<div style=""font-size:60px;"">+</div>","null",""
"","","","","","html-button-response","33","147187","0.0-4.0-1.14","175","1","2022-11-28 09:30:40","7b1eb8be57ff77859c7d9ac988e43411","61.158.184.234","Mozilla/5.0 (Windows NT 10.0; Win64; x64) AppleWebKit/537.36 (KHTML, like Gecko) Chrome/106.0.0.0 Safari/537.36 Edg/106.0.1370.34","WebKit","Edge","106.0.1370.34","Windows","10.0","2626","<p>作为军队的指挥官，你可以选择发射导弹杀死 <strong>9名</strong> 敌国士兵，但会误杀附近的 <strong>1名</strong> 敌国平民。</p> <p>平民照片如下图所示。</p> <p></p> <img src='stimuli/faces/PCM8.jpg', style='max-width: 30%;'> </img> <p><strong>你是否选择发射武器？</strong></p>","0",""
"","","","","","html-keyboard-response","34","148200","0.0-4.0-0.15","175","1","2022-11-28 09:30:40","7b1eb8be57ff77859c7d9ac988e43411","61.158.184.234","Mozilla/5.0 (Windows NT 10.0; Win64; x64) AppleWebKit/537.36 (KHTML, like Gecko) Chrome/106.0.0.0 Safari/537.36 Edg/106.0.1370.34","WebKit","Edge","106.0.1370.34","Windows","10.0","null","<div style=""font-size:60px;"">+</div>","null",""
"","","","","","html-button-response","35","151091","0.0-4.0-1.15","175","1","2022-11-28 09:30:40","7b1eb8be57ff77859c7d9ac988e43411","61.158.184.234","Mozilla/5.0 (Windows NT 10.0; Win64; x64) AppleWebKit/537.36 (KHTML, like Gecko) Chrome/106.0.0.0 Safari/537.36 Edg/106.0.1370.34","WebKit","Edge","106.0.1370.34","Windows","10.0","2890","<p>作为军队的指挥官，你可以选择发射导弹杀死 <strong>5名</strong> 敌国士兵，但会炸毁附近的 <strong>1棵</strong> 敌国树木。</p> <p>树木的照片如下图所示。</p> <p></p> <img src='stimuli/trees/11.png', style='max-width: 30%;'> </img> <p><strong>你是否选择发射武器？</strong></p>","1",""
"","","","","","html-keyboard-response","36","152108","0.0-4.0-0.16","175","1","2022-11-28 09:30:40","7b1eb8be57ff77859c7d9ac988e43411","61.158.184.234","Mozilla/5.0 (Windows NT 10.0; Win64; x64) AppleWebKit/537.36 (KHTML, like Gecko) Chrome/106.0.0.0 Safari/537.36 Edg/106.0.1370.34","WebKit","Edge","106.0.1370.34","Windows","10.0","null","<div style=""font-size:60px;"">+</div>","null",""
"","","","","","html-button-response","37","154571","0.0-4.0-1.16","175","1","2022-11-28 09:30:40","7b1eb8be57ff77859c7d9ac988e43411","61.158.184.234","Mozilla/5.0 (Windows NT 10.0; Win64; x64) AppleWebKit/537.36 (KHTML, like Gecko) Chrome/106.0.0.0 Safari/537.36 Edg/106.0.1370.34","WebKit","Edge","106.0.1370.34","Windows","10.0","2462","<p>作为军队的指挥官，你可以选择发射导弹杀死 <strong>2名</strong> 敌国士兵，但会误杀附近的 <strong>1名</strong> 敌国平民。</p> <p>平民照片如下图所示。</p> <p></p> <img src='stimuli/faces/PCF8.jpg', style='max-width: 30%;'> </img> <p><strong>你是否选择发射武器？</strong></p>","1",""
"","","","","","html-keyboard-response","38","155577","0.0-4.0-0.17","175","1","2022-11-28 09:30:40","7b1eb8be57ff77859c7d9ac988e43411","61.158.184.234","Mozilla/5.0 (Windows NT 10.0; Win64; x64) AppleWebKit/537.36 (KHTML, like Gecko) Chrome/106.0.0.0 Safari/537.36 Edg/106.0.1370.34","WebKit","Edge","106.0.1370.34","Windows","10.0","null","<div style=""font-size:60px;"">+</div>","null",""
"","","","","","html-button-response","39","160379","0.0-4.0-1.17","175","1","2022-11-28 09:30:40","7b1eb8be57ff77859c7d9ac988e43411","61.158.184.234","Mozilla/5.0 (Windows NT 10.0; Win64; x64) AppleWebKit/537.36 (KHTML, like Gecko) Chrome/106.0.0.0 Safari/537.36 Edg/106.0.1370.34","WebKit","Edge","106.0.1370.34","Windows","10.0","4801","<p>作为军队的指挥官，你可以选择发射导弹杀死 <strong>3名</strong> 敌国士兵，但会炸毁附近的 <strong>1棵</strong> 敌国树木。</p> <p>树木的照片如下图所示。</p> <p></p> <img src='stimuli/trees/4.png', style='max-width: 30%;'> </img> <p><strong>你是否选择发射武器？</strong></p>","0",""
"","","","","","html-keyboard-response","40","161393","0.0-4.0-0.18","175","1","2022-11-28 09:30:40","7b1eb8be57ff77859c7d9ac988e43411","61.158.184.234","Mozilla/5.0 (Windows NT 10.0; Win64; x64) AppleWebKit/537.36 (KHTML, like Gecko) Chrome/106.0.0.0 Safari/537.36 Edg/106.0.1370.34","WebKit","Edge","106.0.1370.34","Windows","10.0","null","<div style=""font-size:60px;"">+</div>","null",""
"","","","","","html-button-response","41","163811","0.0-4.0-1.18","175","1","2022-11-28 09:30:40","7b1eb8be57ff77859c7d9ac988e43411","61.158.184.234","Mozilla/5.0 (Windows NT 10.0; Win64; x64) AppleWebKit/537.36 (KHTML, like Gecko) Chrome/106.0.0.0 Safari/537.36 Edg/106.0.1370.34","WebKit","Edge","106.0.1370.34","Windows","10.0","2417","<p>作为军队的指挥官，你可以选择发射导弹杀死 <strong>7名</strong> 敌国士兵，但会炸毁附近的 <strong>1棵</strong> 敌国树木。</p> <p>树木的照片如下图所示。</p> <p></p> <img src='stimuli/trees/16.png', style='max-width: 30%;'> </img> <p><strong>你是否选择发射武器？</strong></p>","0",""
"","","","","","html-keyboard-response","42","164822","0.0-4.0-0.19","175","1","2022-11-28 09:30:40","7b1eb8be57ff77859c7d9ac988e43411","61.158.184.234","Mozilla/5.0 (Windows NT 10.0; Win64; x64) AppleWebKit/537.36 (KHTML, like Gecko) Chrome/106.0.0.0 Safari/537.36 Edg/106.0.1370.34","WebKit","Edge","106.0.1370.34","Windows","10.0","null","<div style=""font-size:60px;"">+</div>","null",""
"","","","","","html-button-response","43","168771","0.0-4.0-1.19","175","1","2022-11-28 09:30:40","7b1eb8be57ff77859c7d9ac988e43411","61.158.184.234","Mozilla/5.0 (Windows NT 10.0; Win64; x64) AppleWebKit/537.36 (KHTML, like Gecko) Chrome/106.0.0.0 Safari/537.36 Edg/106.0.1370.34","WebKit","Edge","106.0.1370.34","Windows","10.0","3948","<p>作为军队的指挥官，你可以选择发射导弹杀死 <strong>3名</strong> 敌国士兵，但会误杀附近的 <strong>1名</strong> 敌国平民。</p> <p>平民照片如下图所示。</p> <p></p> <img src='stimuli/faces/PCM7.jpg', style='max-width: 30%;'> </img> <p><strong>你是否选择发射武器？</strong></p>","0",""
"","","","","","html-keyboard-response","44","169774","0.0-4.0-0.20","175","1","2022-11-28 09:30:40","7b1eb8be57ff77859c7d9ac988e43411","61.158.184.234","Mozilla/5.0 (Windows NT 10.0; Win64; x64) AppleWebKit/537.36 (KHTML, like Gecko) Chrome/106.0.0.0 Safari/537.36 Edg/106.0.1370.34","WebKit","Edge","106.0.1370.34","Windows","10.0","null","<div style=""font-size:60px;"">+</div>","null",""
"","","","","","html-button-response","45","172075","0.0-4.0-1.20","175","1","2022-11-28 09:30:40","7b1eb8be57ff77859c7d9ac988e43411","61.158.184.234","Mozilla/5.0 (Windows NT 10.0; Win64; x64) AppleWebKit/537.36 (KHTML, like Gecko) Chrome/106.0.0.0 Safari/537.36 Edg/106.0.1370.34","WebKit","Edge","106.0.1370.34","Windows","10.0","2299","<p>作为军队的指挥官，你可以选择发射导弹杀死 <strong>3名</strong> 敌国士兵，但会炸毁附近的 <strong>1棵</strong> 敌国树木。</p> <p>树木的照片如下图所示。</p> <p></p> <img src='stimuli/trees/16.png', style='max-width: 30%;'> </img> <p><strong>你是否选择发射武器？</strong></p>","0",""
"","","","","","html-keyboard-response","46","173091","0.0-4.0-0.21","175","1","2022-11-28 09:30:40","7b1eb8be57ff77859c7d9ac988e43411","61.158.184.234","Mozilla/5.0 (Windows NT 10.0; Win64; x64) AppleWebKit/537.36 (KHTML, like Gecko) Chrome/106.0.0.0 Safari/537.36 Edg/106.0.1370.34","WebKit","Edge","106.0.1370.34","Windows","10.0","null","<div style=""font-size:60px;"">+</div>","null",""
"","","","","","html-button-response","47","178939","0.0-4.0-1.21","175","1","2022-11-28 09:30:40","7b1eb8be57ff77859c7d9ac988e43411","61.158.184.234","Mozilla/5.0 (Windows NT 10.0; Win64; x64) AppleWebKit/537.36 (KHTML, like Gecko) Chrome/106.0.0.0 Safari/537.36 Edg/106.0.1370.34","WebKit","Edge","106.0.1370.34","Windows","10.0","5847","<p>作为军队的指挥官，你可以选择发射导弹杀死 <strong>6名</strong> 敌国士兵，但会炸毁附近的 <strong>1棵</strong> 敌国树木。</p> <p>树木的照片如下图所示。</p> <p></p> <img src='stimuli/trees/13.png', style='max-width: 30%;'> </img> <p><strong>你是否选择发射武器？</strong></p>","0",""
"","","","","","html-keyboard-response","48","179955","0.0-4.0-0.22","175","1","2022-11-28 09:30:40","7b1eb8be57ff77859c7d9ac988e43411","61.158.184.234","Mozilla/5.0 (Windows NT 10.0; Win64; x64) AppleWebKit/537.36 (KHTML, like Gecko) Chrome/106.0.0.0 Safari/537.36 Edg/106.0.1370.34","WebKit","Edge","106.0.1370.34","Windows","10.0","null","<div style=""font-size:60px;"">+</div>","null",""
"","","","","","html-button-response","49","196131","0.0-4.0-1.22","175","1","2022-11-28 09:30:40","7b1eb8be57ff77859c7d9ac988e43411","61.158.184.234","Mozilla/5.0 (Windows NT 10.0; Win64; x64) AppleWebKit/537.36 (KHTML, like Gecko) Chrome/106.0.0.0 Safari/537.36 Edg/106.0.1370.34","WebKit","Edge","106.0.1370.34","Windows","10.0","16174","<p>作为军队的指挥官，你可以选择发射导弹杀死 <strong>4名</strong> 敌国士兵，但会误杀附近的 <strong>1名</strong> 敌国平民。</p> <p>平民照片如下图所示。</p> <p></p> <img src='stimuli/faces/PCF3.jpg', style='max-width: 30%;'> </img> <p><strong>你是否选择发射武器？</strong></p>","1",""
"","","","","","html-keyboard-response","50","197134","0.0-4.0-0.23","175","1","2022-11-28 09:30:40","7b1eb8be57ff77859c7d9ac988e43411","61.158.184.234","Mozilla/5.0 (Windows NT 10.0; Win64; x64) AppleWebKit/537.36 (KHTML, like Gecko) Chrome/106.0.0.0 Safari/537.36 Edg/106.0.1370.34","WebKit","Edge","106.0.1370.34","Windows","10.0","null","<div style=""font-size:60px;"">+</div>","null",""
"","","","","","html-button-response","51","199963","0.0-4.0-1.23","175","1","2022-11-28 09:30:40","7b1eb8be57ff77859c7d9ac988e43411","61.158.184.234","Mozilla/5.0 (Windows NT 10.0; Win64; x64) AppleWebKit/537.36 (KHTML, like Gecko) Chrome/106.0.0.0 Safari/537.36 Edg/106.0.1370.34","WebKit","Edge","106.0.1370.34","Windows","10.0","2828","<p>作为军队的指挥官，你可以选择发射导弹杀死 <strong>8名</strong> 敌国士兵，但会炸毁附近的 <strong>1棵</strong> 敌国树木。</p> <p>树木的照片如下图所示。</p> <p></p> <img src='stimuli/trees/9.png', style='max-width: 30%;'> </img> <p><strong>你是否选择发射武器？</strong></p>","0",""
"","","","","","html-keyboard-response","52","200977","0.0-4.0-0.24","175","1","2022-11-28 09:30:40","7b1eb8be57ff77859c7d9ac988e43411","61.158.184.234","Mozilla/5.0 (Windows NT 10.0; Win64; x64) AppleWebKit/537.36 (KHTML, like Gecko) Chrome/106.0.0.0 Safari/537.36 Edg/106.0.1370.34","WebKit","Edge","106.0.1370.34","Windows","10.0","null","<div style=""font-size:60px;"">+</div>","null",""
"","","","","","html-button-response","53","203283","0.0-4.0-1.24","175","1","2022-11-28 09:30:40","7b1eb8be57ff77859c7d9ac988e43411","61.158.184.234","Mozilla/5.0 (Windows NT 10.0; Win64; x64) AppleWebKit/537.36 (KHTML, like Gecko) Chrome/106.0.0.0 Safari/537.36 Edg/106.0.1370.34","WebKit","Edge","106.0.1370.34","Windows","10.0","2304","<p>作为军队的指挥官，你可以选择发射导弹杀死 <strong>1名</strong> 敌国士兵，但会误杀附近的 <strong>1名</strong> 敌国平民。</p> <p>平民照片如下图所示。</p> <p></p> <img src='stimuli/faces/PCM4.jpg', style='max-width: 30%;'> </img> <p><strong>你是否选择发射武器？</strong></p>","1",""
"","","","","","html-keyboard-response","54","204299","0.0-4.0-0.25","175","1","2022-11-28 09:30:40","7b1eb8be57ff77859c7d9ac988e43411","61.158.184.234","Mozilla/5.0 (Windows NT 10.0; Win64; x64) AppleWebKit/537.36 (KHTML, like Gecko) Chrome/106.0.0.0 Safari/537.36 Edg/106.0.1370.34","WebKit","Edge","106.0.1370.34","Windows","10.0","null","<div style=""font-size:60px;"">+</div>","null",""
"","","","","","html-button-response","55","206595","0.0-4.0-1.25","175","1","2022-11-28 09:30:40","7b1eb8be57ff77859c7d9ac988e43411","61.158.184.234","Mozilla/5.0 (Windows NT 10.0; Win64; x64) AppleWebKit/537.36 (KHTML, like Gecko) Chrome/106.0.0.0 Safari/537.36 Edg/106.0.1370.34","WebKit","Edge","106.0.1370.34","Windows","10.0","2294","<p>作为军队的指挥官，你可以选择发射导弹杀死 <strong>10名</strong> 敌国士兵，但会误杀附近的 <strong>1名</strong> 敌国平民。</p> <p>平民照片如下图所示。</p> <p></p> <img src='stimuli/faces/PCM6.jpg', style='max-width: 30%;'> </img> <p><strong>你是否选择发射武器？</strong></p>","0",""
"","","","","","html-keyboard-response","56","207609","0.0-4.0-0.26","175","1","2022-11-28 09:30:40","7b1eb8be57ff77859c7d9ac988e43411","61.158.184.234","Mozilla/5.0 (Windows NT 10.0; Win64; x64) AppleWebKit/537.36 (KHTML, like Gecko) Chrome/106.0.0.0 Safari/537.36 Edg/106.0.1370.34","WebKit","Edge","106.0.1370.34","Windows","10.0","null","<div style=""font-size:60px;"">+</div>","null",""
"","","","","","html-button-response","57","209043","0.0-4.0-1.26","175","1","2022-11-28 09:30:40","7b1eb8be57ff77859c7d9ac988e43411","61.158.184.234","Mozilla/5.0 (Windows NT 10.0; Win64; x64) AppleWebKit/537.36 (KHTML, like Gecko) Chrome/106.0.0.0 Safari/537.36 Edg/106.0.1370.34","WebKit","Edge","106.0.1370.34","Windows","10.0","1433","<p>作为军队的指挥官，你可以选择发射导弹杀死 <strong>10名</strong> 敌国士兵，但会误杀附近的 <strong>1名</strong> 敌国平民。</p> <p>平民照片如下图所示。</p> <p></p> <img src='stimuli/faces/PCF8.jpg', style='max-width: 30%;'> </img> <p><strong>你是否选择发射武器？</strong></p>","0",""
"","","","","","html-keyboard-response","58","210052","0.0-4.0-0.27","175","1","2022-11-28 09:30:40","7b1eb8be57ff77859c7d9ac988e43411","61.158.184.234","Mozilla/5.0 (Windows NT 10.0; Win64; x64) AppleWebKit/537.36 (KHTML, like Gecko) Chrome/106.0.0.0 Safari/537.36 Edg/106.0.1370.34","WebKit","Edge","106.0.1370.34","Windows","10.0","null","<div style=""font-size:60px;"">+</div>","null",""
"","","","","","html-button-response","59","213131","0.0-4.0-1.27","175","1","2022-11-28 09:30:40","7b1eb8be57ff77859c7d9ac988e43411","61.158.184.234","Mozilla/5.0 (Windows NT 10.0; Win64; x64) AppleWebKit/537.36 (KHTML, like Gecko) Chrome/106.0.0.0 Safari/537.36 Edg/106.0.1370.34","WebKit","Edge","106.0.1370.34","Windows","10.0","3078","<p>作为军队的指挥官，你可以选择发射导弹杀死 <strong>5名</strong> 敌国士兵，但会误杀附近的 <strong>1名</strong> 敌国平民。</p> <p>平民照片如下图所示。</p> <p></p> <img src='stimuli/faces/PCM5.jpg', style='max-width: 30%;'> </img> <p><strong>你是否选择发射武器？</strong></p>","0",""
"","","","","","html-keyboard-response","60","214134","0.0-4.0-0.28","175","1","2022-11-28 09:30:40","7b1eb8be57ff77859c7d9ac988e43411","61.158.184.234","Mozilla/5.0 (Windows NT 10.0; Win64; x64) AppleWebKit/537.36 (KHTML, like Gecko) Chrome/106.0.0.0 Safari/537.36 Edg/106.0.1370.34","WebKit","Edge","106.0.1370.34","Windows","10.0","null","<div style=""font-size:60px;"">+</div>","null",""
"","","","","","html-button-response","61","215235","0.0-4.0-1.28","175","1","2022-11-28 09:30:40","7b1eb8be57ff77859c7d9ac988e43411","61.158.184.234","Mozilla/5.0 (Windows NT 10.0; Win64; x64) AppleWebKit/537.36 (KHTML, like Gecko) Chrome/106.0.0.0 Safari/537.36 Edg/106.0.1370.34","WebKit","Edge","106.0.1370.34","Windows","10.0","1099","<p>作为军队的指挥官，你可以选择发射导弹杀死 <strong>6名</strong> 敌国士兵，但会炸毁附近的 <strong>1棵</strong> 敌国树木。</p> <p>树木的照片如下图所示。</p> <p></p> <img src='stimuli/trees/8.png', style='max-width: 30%;'> </img> <p><strong>你是否选择发射武器？</strong></p>","0",""
"","","","","","html-keyboard-response","62","216251","0.0-4.0-0.29","175","1","2022-11-28 09:30:40","7b1eb8be57ff77859c7d9ac988e43411","61.158.184.234","Mozilla/5.0 (Windows NT 10.0; Win64; x64) AppleWebKit/537.36 (KHTML, like Gecko) Chrome/106.0.0.0 Safari/537.36 Edg/106.0.1370.34","WebKit","Edge","106.0.1370.34","Windows","10.0","null","<div style=""font-size:60px;"">+</div>","null",""
"","","","","","html-button-response","63","219147","0.0-4.0-1.29","175","1","2022-11-28 09:30:40","7b1eb8be57ff77859c7d9ac988e43411","61.158.184.234","Mozilla/5.0 (Windows NT 10.0; Win64; x64) AppleWebKit/537.36 (KHTML, like Gecko) Chrome/106.0.0.0 Safari/537.36 Edg/106.0.1370.34","WebKit","Edge","106.0.1370.34","Windows","10.0","2895","<p>作为军队的指挥官，你可以选择发射导弹杀死 <strong>9名</strong> 敌国士兵，但会误杀附近的 <strong>1名</strong> 敌国平民。</p> <p>平民照片如下图所示。</p> <p></p> <img src='stimuli/faces/PCF5.jpg', style='max-width: 30%;'> </img> <p><strong>你是否选择发射武器？</strong></p>","0",""
"","","","","","html-keyboard-response","64","220153","0.0-4.0-0.30","175","1","2022-11-28 09:30:40","7b1eb8be57ff77859c7d9ac988e43411","61.158.184.234","Mozilla/5.0 (Windows NT 10.0; Win64; x64) AppleWebKit/537.36 (KHTML, like Gecko) Chrome/106.0.0.0 Safari/537.36 Edg/106.0.1370.34","WebKit","Edge","106.0.1370.34","Windows","10.0","null","<div style=""font-size:60px;"">+</div>","null",""
"","","","","","html-button-response","65","221619","0.0-4.0-1.30","175","1","2022-11-28 09:30:40","7b1eb8be57ff77859c7d9ac988e43411","61.158.184.234","Mozilla/5.0 (Windows NT 10.0; Win64; x64) AppleWebKit/537.36 (KHTML, like Gecko) Chrome/106.0.0.0 Safari/537.36 Edg/106.0.1370.34","WebKit","Edge","106.0.1370.34","Windows","10.0","1464","<p>作为军队的指挥官，你可以选择发射导弹杀死 <strong>9名</strong> 敌国士兵，但会炸毁附近的 <strong>1棵</strong> 敌国树木。</p> <p>树木的照片如下图所示。</p> <p></p> <img src='stimuli/trees/14.png', style='max-width: 30%;'> </img> <p><strong>你是否选择发射武器？</strong></p>","0",""
"","","","","","html-keyboard-response","66","222625","0.0-4.0-0.31","175","1","2022-11-28 09:30:40","7b1eb8be57ff77859c7d9ac988e43411","61.158.184.234","Mozilla/5.0 (Windows NT 10.0; Win64; x64) AppleWebKit/537.36 (KHTML, like Gecko) Chrome/106.0.0.0 Safari/537.36 Edg/106.0.1370.34","WebKit","Edge","106.0.1370.34","Windows","10.0","null","<div style=""font-size:60px;"">+</div>","null",""
"","","","","","html-button-response","67","244579","0.0-4.0-1.31","175","1","2022-11-28 09:30:40","7b1eb8be57ff77859c7d9ac988e43411","61.158.184.234","Mozilla/5.0 (Windows NT 10.0; Win64; x64) AppleWebKit/537.36 (KHTML, like Gecko) Chrome/106.0.0.0 Safari/537.36 Edg/106.0.1370.34","WebKit","Edge","106.0.1370.34","Windows","10.0","21953","<p>作为军队的指挥官，你可以选择发射导弹杀死 <strong>5名</strong> 敌国士兵，但会炸毁附近的 <strong>1棵</strong> 敌国树木。</p> <p>树木的照片如下图所示。</p> <p></p> <img src='stimuli/trees/13.png', style='max-width: 30%;'> </img> <p><strong>你是否选择发射武器？</strong></p>","0",""
"","","","","","html-keyboard-response","68","245584","0.0-4.0-0.32","175","1","2022-11-28 09:30:40","7b1eb8be57ff77859c7d9ac988e43411","61.158.184.234","Mozilla/5.0 (Windows NT 10.0; Win64; x64) AppleWebKit/537.36 (KHTML, like Gecko) Chrome/106.0.0.0 Safari/537.36 Edg/106.0.1370.34","WebKit","Edge","106.0.1370.34","Windows","10.0","null","<div style=""font-size:60px;"">+</div>","null",""
"","","","","","html-button-response","69","247597","0.0-4.0-1.32","175","1","2022-11-28 09:30:40","7b1eb8be57ff77859c7d9ac988e43411","61.158.184.234","Mozilla/5.0 (Windows NT 10.0; Win64; x64) AppleWebKit/537.36 (KHTML, like Gecko) Chrome/106.0.0.0 Safari/537.36 Edg/106.0.1370.34","WebKit","Edge","106.0.1370.34","Windows","10.0","2010","<p>作为军队的指挥官，你可以选择发射导弹杀死 <strong>5名</strong> 敌国士兵，但会误杀附近的 <strong>1名</strong> 敌国平民。</p> <p>平民照片如下图所示。</p> <p></p> <img src='stimuli/faces/PCM3.jpg', style='max-width: 30%;'> </img> <p><strong>你是否选择发射武器？</strong></p>","0",""
"","","","","","html-keyboard-response","70","248604","0.0-4.0-0.33","175","1","2022-11-28 09:30:40","7b1eb8be57ff77859c7d9ac988e43411","61.158.184.234","Mozilla/5.0 (Windows NT 10.0; Win64; x64) AppleWebKit/537.36 (KHTML, like Gecko) Chrome/106.0.0.0 Safari/537.36 Edg/106.0.1370.34","WebKit","Edge","106.0.1370.34","Windows","10.0","null","<div style=""font-size:60px;"">+</div>","null",""
"","","","","","html-button-response","71","249579","0.0-4.0-1.33","175","1","2022-11-28 09:30:40","7b1eb8be57ff77859c7d9ac988e43411","61.158.184.234","Mozilla/5.0 (Windows NT 10.0; Win64; x64) AppleWebKit/537.36 (KHTML, like Gecko) Chrome/106.0.0.0 Safari/537.36 Edg/106.0.1370.34","WebKit","Edge","106.0.1370.34","Windows","10.0","974","<p>作为军队的指挥官，你可以选择发射导弹杀死 <strong>6名</strong> 敌国士兵，但会炸毁附近的 <strong>1棵</strong> 敌国树木。</p> <p>树木的照片如下图所示。</p> <p></p> <img src='stimuli/trees/3.png', style='max-width: 30%;'> </img> <p><strong>你是否选择发射武器？</strong></p>","0",""
"","","","","","html-keyboard-response","72","250592","0.0-4.0-0.34","175","1","2022-11-28 09:30:40","7b1eb8be57ff77859c7d9ac988e43411","61.158.184.234","Mozilla/5.0 (Windows NT 10.0; Win64; x64) AppleWebKit/537.36 (KHTML, like Gecko) Chrome/106.0.0.0 Safari/537.36 Edg/106.0.1370.34","WebKit","Edge","106.0.1370.34","Windows","10.0","null","<div style=""font-size:60px;"">+</div>","null",""
"","","","","","html-button-response","73","252707","0.0-4.0-1.34","175","1","2022-11-28 09:30:40","7b1eb8be57ff77859c7d9ac988e43411","61.158.184.234","Mozilla/5.0 (Windows NT 10.0; Win64; x64) AppleWebKit/537.36 (KHTML, like Gecko) Chrome/106.0.0.0 Safari/537.36 Edg/106.0.1370.34","WebKit","Edge","106.0.1370.34","Windows","10.0","2113","<p>作为军队的指挥官，你可以选择发射导弹杀死 <strong>1名</strong> 敌国士兵，但会炸毁附近的 <strong>1棵</strong> 敌国树木。</p> <p>树木的照片如下图所示。</p> <p></p> <img src='stimuli/trees/15.png', style='max-width: 30%;'> </img> <p><strong>你是否选择发射武器？</strong></p>","1",""
"","","","","","html-keyboard-response","74","253715","0.0-4.0-0.35","175","1","2022-11-28 09:30:40","7b1eb8be57ff77859c7d9ac988e43411","61.158.184.234","Mozilla/5.0 (Windows NT 10.0; Win64; x64) AppleWebKit/537.36 (KHTML, like Gecko) Chrome/106.0.0.0 Safari/537.36 Edg/106.0.1370.34","WebKit","Edge","106.0.1370.34","Windows","10.0","null","<div style=""font-size:60px;"">+</div>","null",""
"","","","","","html-button-response","75","255723","0.0-4.0-1.35","175","1","2022-11-28 09:30:40","7b1eb8be57ff77859c7d9ac988e43411","61.158.184.234","Mozilla/5.0 (Windows NT 10.0; Win64; x64) AppleWebKit/537.36 (KHTML, like Gecko) Chrome/106.0.0.0 Safari/537.36 Edg/106.0.1370.34","WebKit","Edge","106.0.1370.34","Windows","10.0","2006","<p>作为军队的指挥官，你可以选择发射导弹杀死 <strong>2名</strong> 敌国士兵，但会炸毁附近的 <strong>1棵</strong> 敌国树木。</p> <p>树木的照片如下图所示。</p> <p></p> <img src='stimuli/trees/7.png', style='max-width: 30%;'> </img> <p><strong>你是否选择发射武器？</strong></p>","1",""
"","","","","","html-keyboard-response","76","256730","0.0-4.0-0.36","175","1","2022-11-28 09:30:40","7b1eb8be57ff77859c7d9ac988e43411","61.158.184.234","Mozilla/5.0 (Windows NT 10.0; Win64; x64) AppleWebKit/537.36 (KHTML, like Gecko) Chrome/106.0.0.0 Safari/537.36 Edg/106.0.1370.34","WebKit","Edge","106.0.1370.34","Windows","10.0","null","<div style=""font-size:60px;"">+</div>","null",""
"","","","","","html-button-response","77","259075","0.0-4.0-1.36","175","1","2022-11-28 09:30:40","7b1eb8be57ff77859c7d9ac988e43411","61.158.184.234","Mozilla/5.0 (Windows NT 10.0; Win64; x64) AppleWebKit/537.36 (KHTML, like Gecko) Chrome/106.0.0.0 Safari/537.36 Edg/106.0.1370.34","WebKit","Edge","106.0.1370.34","Windows","10.0","2343","<p>作为军队的指挥官，你可以选择发射导弹杀死 <strong>6名</strong> 敌国士兵，但会误杀附近的 <strong>1名</strong> 敌国平民。</p> <p>平民照片如下图所示。</p> <p></p> <img src='stimuli/faces/PCM7.jpg', style='max-width: 30%;'> </img> <p><strong>你是否选择发射武器？</strong></p>","0",""
"","","","","","html-keyboard-response","78","260089","0.0-4.0-0.37","175","1","2022-11-28 09:30:40","7b1eb8be57ff77859c7d9ac988e43411","61.158.184.234","Mozilla/5.0 (Windows NT 10.0; Win64; x64) AppleWebKit/537.36 (KHTML, like Gecko) Chrome/106.0.0.0 Safari/537.36 Edg/106.0.1370.34","WebKit","Edge","106.0.1370.34","Windows","10.0","null","<div style=""font-size:60px;"">+</div>","null",""
"","","","","","html-button-response","79","261723","0.0-4.0-1.37","175","1","2022-11-28 09:30:40","7b1eb8be57ff77859c7d9ac988e43411","61.158.184.234","Mozilla/5.0 (Windows NT 10.0; Win64; x64) AppleWebKit/537.36 (KHTML, like Gecko) Chrome/106.0.0.0 Safari/537.36 Edg/106.0.1370.34","WebKit","Edge","106.0.1370.34","Windows","10.0","1632","<p>作为军队的指挥官，你可以选择发射导弹杀死 <strong>8名</strong> 敌国士兵，但会误杀附近的 <strong>1名</strong> 敌国平民。</p> <p>平民照片如下图所示。</p> <p></p> <img src='stimuli/faces/PCF3.jpg', style='max-width: 30%;'> </img> <p><strong>你是否选择发射武器？</strong></p>","0",""
"","","","","","html-keyboard-response","80","262734","0.0-4.0-0.38","175","1","2022-11-28 09:30:40","7b1eb8be57ff77859c7d9ac988e43411","61.158.184.234","Mozilla/5.0 (Windows NT 10.0; Win64; x64) AppleWebKit/537.36 (KHTML, like Gecko) Chrome/106.0.0.0 Safari/537.36 Edg/106.0.1370.34","WebKit","Edge","106.0.1370.34","Windows","10.0","null","<div style=""font-size:60px;"">+</div>","null",""
"","","","","","html-button-response","81","265518","0.0-4.0-1.38","175","1","2022-11-28 09:30:40","7b1eb8be57ff77859c7d9ac988e43411","61.158.184.234","Mozilla/5.0 (Windows NT 10.0; Win64; x64) AppleWebKit/537.36 (KHTML, like Gecko) Chrome/106.0.0.0 Safari/537.36 Edg/106.0.1370.34","WebKit","Edge","106.0.1370.34","Windows","10.0","2781","<p>作为军队的指挥官，你可以选择发射导弹杀死 <strong>4名</strong> 敌国士兵，但会误杀附近的 <strong>1名</strong> 敌国平民。</p> <p>平民照片如下图所示。</p> <p></p> <img src='stimuli/faces/PCM2.jpg', style='max-width: 30%;'> </img> <p><strong>你是否选择发射武器？</strong></p>","0",""
"","","","","","html-keyboard-response","82","266521","0.0-4.0-0.39","175","1","2022-11-28 09:30:40","7b1eb8be57ff77859c7d9ac988e43411","61.158.184.234","Mozilla/5.0 (Windows NT 10.0; Win64; x64) AppleWebKit/537.36 (KHTML, like Gecko) Chrome/106.0.0.0 Safari/537.36 Edg/106.0.1370.34","WebKit","Edge","106.0.1370.34","Windows","10.0","null","<div style=""font-size:60px;"">+</div>","null",""
"","","","","","html-button-response","83","267603","0.0-4.0-1.39","175","1","2022-11-28 09:30:40","7b1eb8be57ff77859c7d9ac988e43411","61.158.184.234","Mozilla/5.0 (Windows NT 10.0; Win64; x64) AppleWebKit/537.36 (KHTML, like Gecko) Chrome/106.0.0.0 Safari/537.36 Edg/106.0.1370.34","WebKit","Edge","106.0.1370.34","Windows","10.0","1080","<p>作为军队的指挥官，你可以选择发射导弹杀死 <strong>7名</strong> 敌国士兵，但会误杀附近的 <strong>1名</strong> 敌国平民。</p> <p>平民照片如下图所示。</p> <p></p> <img src='stimuli/faces/PCM4.jpg', style='max-width: 30%;'> </img> <p><strong>你是否选择发射武器？</strong></p>","0",""
"","","","","","html-keyboard-response","84","268620","0.0-4.0-0.40","175","1","2022-11-28 09:30:40","7b1eb8be57ff77859c7d9ac988e43411","61.158.184.234","Mozilla/5.0 (Windows NT 10.0; Win64; x64) AppleWebKit/537.36 (KHTML, like Gecko) Chrome/106.0.0.0 Safari/537.36 Edg/106.0.1370.34","WebKit","Edge","106.0.1370.34","Windows","10.0","null","<div style=""font-size:60px;"">+</div>","null",""
"","","","","","html-button-response","85","269579","0.0-4.0-1.40","175","1","2022-11-28 09:30:40","7b1eb8be57ff77859c7d9ac988e43411","61.158.184.234","Mozilla/5.0 (Windows NT 10.0; Win64; x64) AppleWebKit/537.36 (KHTML, like Gecko) Chrome/106.0.0.0 Safari/537.36 Edg/106.0.1370.34","WebKit","Edge","106.0.1370.34","Windows","10.0","957","<p>作为军队的指挥官，你可以选择发射导弹杀死 <strong>8名</strong> 敌国士兵，但会误杀附近的 <strong>1名</strong> 敌国平民。</p> <p>平民照片如下图所示。</p> <p></p> <img src='stimuli/faces/PCM5.jpg', style='max-width: 30%;'> </img> <p><strong>你是否选择发射武器？</strong></p>","0",""
"","","","","","html-keyboard-response","86","270589","0.0-4.0-0.41","175","1","2022-11-28 09:30:40","7b1eb8be57ff77859c7d9ac988e43411","61.158.184.234","Mozilla/5.0 (Windows NT 10.0; Win64; x64) AppleWebKit/537.36 (KHTML, like Gecko) Chrome/106.0.0.0 Safari/537.36 Edg/106.0.1370.34","WebKit","Edge","106.0.1370.34","Windows","10.0","null","<div style=""font-size:60px;"">+</div>","null",""
"","","","","","html-button-response","87","271892","0.0-4.0-1.41","175","1","2022-11-28 09:30:40","7b1eb8be57ff77859c7d9ac988e43411","61.158.184.234","Mozilla/5.0 (Windows NT 10.0; Win64; x64) AppleWebKit/537.36 (KHTML, like Gecko) Chrome/106.0.0.0 Safari/537.36 Edg/106.0.1370.34","WebKit","Edge","106.0.1370.34","Windows","10.0","1301","<p>作为军队的指挥官，你可以选择发射导弹杀死 <strong>7名</strong> 敌国士兵，但会炸毁附近的 <strong>1棵</strong> 敌国树木。</p> <p>树木的照片如下图所示。</p> <p></p> <img src='stimuli/trees/12.png', style='max-width: 30%;'> </img> <p><strong>你是否选择发射武器？</strong></p>","0",""
"","","","","","html-keyboard-response","88","272904","0.0-4.0-0.42","175","1","2022-11-28 09:30:40","7b1eb8be57ff77859c7d9ac988e43411","61.158.184.234","Mozilla/5.0 (Windows NT 10.0; Win64; x64) AppleWebKit/537.36 (KHTML, like Gecko) Chrome/106.0.0.0 Safari/537.36 Edg/106.0.1370.34","WebKit","Edge","106.0.1370.34","Windows","10.0","null","<div style=""font-size:60px;"">+</div>","null",""
"","","","","","html-button-response","89","275019","0.0-4.0-1.42","175","1","2022-11-28 09:30:40","7b1eb8be57ff77859c7d9ac988e43411","61.158.184.234","Mozilla/5.0 (Windows NT 10.0; Win64; x64) AppleWebKit/537.36 (KHTML, like Gecko) Chrome/106.0.0.0 Safari/537.36 Edg/106.0.1370.34","WebKit","Edge","106.0.1370.34","Windows","10.0","2114","<p>作为军队的指挥官，你可以选择发射导弹杀死 <strong>9名</strong> 敌国士兵，但会炸毁附近的 <strong>1棵</strong> 敌国树木。</p> <p>树木的照片如下图所示。</p> <p></p> <img src='stimuli/trees/15.png', style='max-width: 30%;'> </img> <p><strong>你是否选择发射武器？</strong></p>","0",""
"","","","","","html-keyboard-response","90","276025","0.0-4.0-0.43","175","1","2022-11-28 09:30:40","7b1eb8be57ff77859c7d9ac988e43411","61.158.184.234","Mozilla/5.0 (Windows NT 10.0; Win64; x64) AppleWebKit/537.36 (KHTML, like Gecko) Chrome/106.0.0.0 Safari/537.36 Edg/106.0.1370.34","WebKit","Edge","106.0.1370.34","Windows","10.0","null","<div style=""font-size:60px;"">+</div>","null",""
"","","","","","html-button-response","91","278027","0.0-4.0-1.43","175","1","2022-11-28 09:30:40","7b1eb8be57ff77859c7d9ac988e43411","61.158.184.234","Mozilla/5.0 (Windows NT 10.0; Win64; x64) AppleWebKit/537.36 (KHTML, like Gecko) Chrome/106.0.0.0 Safari/537.36 Edg/106.0.1370.34","WebKit","Edge","106.0.1370.34","Windows","10.0","2000","<p>作为军队的指挥官，你可以选择发射导弹杀死 <strong>2名</strong> 敌国士兵，但会炸毁附近的 <strong>1棵</strong> 敌国树木。</p> <p>树木的照片如下图所示。</p> <p></p> <img src='stimuli/trees/3.png', style='max-width: 30%;'> </img> <p><strong>你是否选择发射武器？</strong></p>","1",""
"","","","","","html-keyboard-response","92","279033","0.0-4.0-0.44","175","1","2022-11-28 09:30:40","7b1eb8be57ff77859c7d9ac988e43411","61.158.184.234","Mozilla/5.0 (Windows NT 10.0; Win64; x64) AppleWebKit/537.36 (KHTML, like Gecko) Chrome/106.0.0.0 Safari/537.36 Edg/106.0.1370.34","WebKit","Edge","106.0.1370.34","Windows","10.0","null","<div style=""font-size:60px;"">+</div>","null",""
"","","","","","html-button-response","93","281755","0.0-4.0-1.44","175","1","2022-11-28 09:30:40","7b1eb8be57ff77859c7d9ac988e43411","61.158.184.234","Mozilla/5.0 (Windows NT 10.0; Win64; x64) AppleWebKit/537.36 (KHTML, like Gecko) Chrome/106.0.0.0 Safari/537.36 Edg/106.0.1370.34","WebKit","Edge","106.0.1370.34","Windows","10.0","2721","<p>作为军队的指挥官，你可以选择发射导弹杀死 <strong>2名</strong> 敌国士兵，但会误杀附近的 <strong>1名</strong> 敌国平民。</p> <p>平民照片如下图所示。</p> <p></p> <img src='stimuli/faces/PCF7.jpg', style='max-width: 30%;'> </img> <p><strong>你是否选择发射武器？</strong></p>","1",""
"","","","","","html-keyboard-response","94","282766","0.0-4.0-0.45","175","1","2022-11-28 09:30:40","7b1eb8be57ff77859c7d9ac988e43411","61.158.184.234","Mozilla/5.0 (Windows NT 10.0; Win64; x64) AppleWebKit/537.36 (KHTML, like Gecko) Chrome/106.0.0.0 Safari/537.36 Edg/106.0.1370.34","WebKit","Edge","106.0.1370.34","Windows","10.0","null","<div style=""font-size:60px;"">+</div>","null",""
"","","","","","html-button-response","95","285083","0.0-4.0-1.45","175","1","2022-11-28 09:30:40","7b1eb8be57ff77859c7d9ac988e43411","61.158.184.234","Mozilla/5.0 (Windows NT 10.0; Win64; x64) AppleWebKit/537.36 (KHTML, like Gecko) Chrome/106.0.0.0 Safari/537.36 Edg/106.0.1370.34","WebKit","Edge","106.0.1370.34","Windows","10.0","2315","<p>作为军队的指挥官，你可以选择发射导弹杀死 <strong>2名</strong> 敌国士兵，但会误杀附近的 <strong>1名</strong> 敌国平民。</p> <p>平民照片如下图所示。</p> <p></p> <img src='stimuli/faces/PCF2.jpg', style='max-width: 30%;'> </img> <p><strong>你是否选择发射武器？</strong></p>","0",""
"","","","","","html-keyboard-response","96","286096","0.0-4.0-0.46","175","1","2022-11-28 09:30:40","7b1eb8be57ff77859c7d9ac988e43411","61.158.184.234","Mozilla/5.0 (Windows NT 10.0; Win64; x64) AppleWebKit/537.36 (KHTML, like Gecko) Chrome/106.0.0.0 Safari/537.36 Edg/106.0.1370.34","WebKit","Edge","106.0.1370.34","Windows","10.0","null","<div style=""font-size:60px;"">+</div>","null",""
"","","","","","html-button-response","97","288628","0.0-4.0-1.46","175","1","2022-11-28 09:30:40","7b1eb8be57ff77859c7d9ac988e43411","61.158.184.234","Mozilla/5.0 (Windows NT 10.0; Win64; x64) AppleWebKit/537.36 (KHTML, like Gecko) Chrome/106.0.0.0 Safari/537.36 Edg/106.0.1370.34","WebKit","Edge","106.0.1370.34","Windows","10.0","2529","<p>作为军队的指挥官，你可以选择发射导弹杀死 <strong>3名</strong> 敌国士兵，但会误杀附近的 <strong>1名</strong> 敌国平民。</p> <p>平民照片如下图所示。</p> <p></p> <img src='stimuli/faces/PCF4.jpg', style='max-width: 30%;'> </img> <p><strong>你是否选择发射武器？</strong></p>","1",""
"","","","","","html-keyboard-response","98","289644","0.0-4.0-0.47","175","1","2022-11-28 09:30:40","7b1eb8be57ff77859c7d9ac988e43411","61.158.184.234","Mozilla/5.0 (Windows NT 10.0; Win64; x64) AppleWebKit/537.36 (KHTML, like Gecko) Chrome/106.0.0.0 Safari/537.36 Edg/106.0.1370.34","WebKit","Edge","106.0.1370.34","Windows","10.0","null","<div style=""font-size:60px;"">+</div>","null",""
"","","","","","html-button-response","99","291379","0.0-4.0-1.47","175","1","2022-11-28 09:30:40","7b1eb8be57ff77859c7d9ac988e43411","61.158.184.234","Mozilla/5.0 (Windows NT 10.0; Win64; x64) AppleWebKit/537.36 (KHTML, like Gecko) Chrome/106.0.0.0 Safari/537.36 Edg/106.0.1370.34","WebKit","Edge","106.0.1370.34","Windows","10.0","1733","<p>作为军队的指挥官，你可以选择发射导弹杀死 <strong>10名</strong> 敌国士兵，但会炸毁附近的 <strong>1棵</strong> 敌国树木。</p> <p>树木的照片如下图所示。</p> <p></p> <img src='stimuli/trees/7.png', style='max-width: 30%;'> </img> <p><strong>你是否选择发射武器？</strong></p>","0",""
"","","","","","html-keyboard-response","100","292388","0.0-4.0-0.48","175","1","2022-11-28 09:30:40","7b1eb8be57ff77859c7d9ac988e43411","61.158.184.234","Mozilla/5.0 (Windows NT 10.0; Win64; x64) AppleWebKit/537.36 (KHTML, like Gecko) Chrome/106.0.0.0 Safari/537.36 Edg/106.0.1370.34","WebKit","Edge","106.0.1370.34","Windows","10.0","null","<div style=""font-size:60px;"">+</div>","null",""
"","","","","","html-button-response","101","294916","0.0-4.0-1.48","175","1","2022-11-28 09:30:40","7b1eb8be57ff77859c7d9ac988e43411","61.158.184.234","Mozilla/5.0 (Windows NT 10.0; Win64; x64) AppleWebKit/537.36 (KHTML, like Gecko) Chrome/106.0.0.0 Safari/537.36 Edg/106.0.1370.34","WebKit","Edge","106.0.1370.34","Windows","10.0","2525","<p>作为军队的指挥官，你可以选择发射导弹杀死 <strong>8名</strong> 敌国士兵，但会误杀附近的 <strong>1名</strong> 敌国平民。</p> <p>平民照片如下图所示。</p> <p></p> <img src='stimuli/faces/PCM2.jpg', style='max-width: 30%;'> </img> <p><strong>你是否选择发射武器？</strong></p>","0",""
"","","","","","html-keyboard-response","102","295926","0.0-4.0-0.49","175","1","2022-11-28 09:30:40","7b1eb8be57ff77859c7d9ac988e43411","61.158.184.234","Mozilla/5.0 (Windows NT 10.0; Win64; x64) AppleWebKit/537.36 (KHTML, like Gecko) Chrome/106.0.0.0 Safari/537.36 Edg/106.0.1370.34","WebKit","Edge","106.0.1370.34","Windows","10.0","null","<div style=""font-size:60px;"">+</div>","null",""
"","","","","","html-button-response","103","300236","0.0-4.0-1.49","175","1","2022-11-28 09:30:40","7b1eb8be57ff77859c7d9ac988e43411","61.158.184.234","Mozilla/5.0 (Windows NT 10.0; Win64; x64) AppleWebKit/537.36 (KHTML, like Gecko) Chrome/106.0.0.0 Safari/537.36 Edg/106.0.1370.34","WebKit","Edge","106.0.1370.34","Windows","10.0","4307","<p>作为军队的指挥官，你可以选择发射导弹杀死 <strong>7名</strong> 敌国士兵，但会炸毁附近的 <strong>1棵</strong> 敌国树木。</p> <p>树木的照片如下图所示。</p> <p></p> <img src='stimuli/trees/1.png', style='max-width: 30%;'> </img> <p><strong>你是否选择发射武器？</strong></p>","1",""
"","","","","","html-keyboard-response","104","301242","0.0-4.0-0.50","175","1","2022-11-28 09:30:40","7b1eb8be57ff77859c7d9ac988e43411","61.158.184.234","Mozilla/5.0 (Windows NT 10.0; Win64; x64) AppleWebKit/537.36 (KHTML, like Gecko) Chrome/106.0.0.0 Safari/537.36 Edg/106.0.1370.34","WebKit","Edge","106.0.1370.34","Windows","10.0","null","<div style=""font-size:60px;"">+</div>","null",""
"","","","","","html-button-response","105","304044","0.0-4.0-1.50","175","1","2022-11-28 09:30:40","7b1eb8be57ff77859c7d9ac988e43411","61.158.184.234","Mozilla/5.0 (Windows NT 10.0; Win64; x64) AppleWebKit/537.36 (KHTML, like Gecko) Chrome/106.0.0.0 Safari/537.36 Edg/106.0.1370.34","WebKit","Edge","106.0.1370.34","Windows","10.0","2799","<p>作为军队的指挥官，你可以选择发射导弹杀死 <strong>6名</strong> 敌国士兵，但会误杀附近的 <strong>1名</strong> 敌国平民。</p> <p>平民照片如下图所示。</p> <p></p> <img src='stimuli/faces/PCM3.jpg', style='max-width: 30%;'> </img> <p><strong>你是否选择发射武器？</strong></p>","0",""
"","","","","","html-keyboard-response","106","305055","0.0-4.0-0.51","175","1","2022-11-28 09:30:40","7b1eb8be57ff77859c7d9ac988e43411","61.158.184.234","Mozilla/5.0 (Windows NT 10.0; Win64; x64) AppleWebKit/537.36 (KHTML, like Gecko) Chrome/106.0.0.0 Safari/537.36 Edg/106.0.1370.34","WebKit","Edge","106.0.1370.34","Windows","10.0","null","<div style=""font-size:60px;"">+</div>","null",""
"","","","","","html-button-response","107","307003","0.0-4.0-1.51","175","1","2022-11-28 09:30:40","7b1eb8be57ff77859c7d9ac988e43411","61.158.184.234","Mozilla/5.0 (Windows NT 10.0; Win64; x64) AppleWebKit/537.36 (KHTML, like Gecko) Chrome/106.0.0.0 Safari/537.36 Edg/106.0.1370.34","WebKit","Edge","106.0.1370.34","Windows","10.0","1946","<p>作为军队的指挥官，你可以选择发射导弹杀死 <strong>4名</strong> 敌国士兵，但会炸毁附近的 <strong>1棵</strong> 敌国树木。</p> <p>树木的照片如下图所示。</p> <p></p> <img src='stimuli/trees/12.png', style='max-width: 30%;'> </img> <p><strong>你是否选择发射武器？</strong></p>","0",""
"","","","","","html-keyboard-response","108","308008","0.0-4.0-0.52","175","1","2022-11-28 09:30:40","7b1eb8be57ff77859c7d9ac988e43411","61.158.184.234","Mozilla/5.0 (Windows NT 10.0; Win64; x64) AppleWebKit/537.36 (KHTML, like Gecko) Chrome/106.0.0.0 Safari/537.36 Edg/106.0.1370.34","WebKit","Edge","106.0.1370.34","Windows","10.0","null","<div style=""font-size:60px;"">+</div>","null",""
"","","","","","html-button-response","109","309827","0.0-4.0-1.52","175","1","2022-11-28 09:30:40","7b1eb8be57ff77859c7d9ac988e43411","61.158.184.234","Mozilla/5.0 (Windows NT 10.0; Win64; x64) AppleWebKit/537.36 (KHTML, like Gecko) Chrome/106.0.0.0 Safari/537.36 Edg/106.0.1370.34","WebKit","Edge","106.0.1370.34","Windows","10.0","1817","<p>作为军队的指挥官，你可以选择发射导弹杀死 <strong>2名</strong> 敌国士兵，但会炸毁附近的 <strong>1棵</strong> 敌国树木。</p> <p>树木的照片如下图所示。</p> <p></p> <img src='stimuli/trees/10.png', style='max-width: 30%;'> </img> <p><strong>你是否选择发射武器？</strong></p>","1",""
"","","","","","html-keyboard-response","110","310837","0.0-4.0-0.53","175","1","2022-11-28 09:30:40","7b1eb8be57ff77859c7d9ac988e43411","61.158.184.234","Mozilla/5.0 (Windows NT 10.0; Win64; x64) AppleWebKit/537.36 (KHTML, like Gecko) Chrome/106.0.0.0 Safari/537.36 Edg/106.0.1370.34","WebKit","Edge","106.0.1370.34","Windows","10.0","null","<div style=""font-size:60px;"">+</div>","null",""
"","","","","","html-button-response","111","321444","0.0-4.0-1.53","175","1","2022-11-28 09:30:40","7b1eb8be57ff77859c7d9ac988e43411","61.158.184.234","Mozilla/5.0 (Windows NT 10.0; Win64; x64) AppleWebKit/537.36 (KHTML, like Gecko) Chrome/106.0.0.0 Safari/537.36 Edg/106.0.1370.34","WebKit","Edge","106.0.1370.34","Windows","10.0","10605","<p>作为军队的指挥官，你可以选择发射导弹杀死 <strong>3名</strong> 敌国士兵，但会炸毁附近的 <strong>1棵</strong> 敌国树木。</p> <p>树木的照片如下图所示。</p> <p></p> <img src='stimuli/trees/1.png', style='max-width: 30%;'> </img> <p><strong>你是否选择发射武器？</strong></p>","1",""
"","","","","","html-keyboard-response","112","322446","0.0-4.0-0.54","175","1","2022-11-28 09:30:40","7b1eb8be57ff77859c7d9ac988e43411","61.158.184.234","Mozilla/5.0 (Windows NT 10.0; Win64; x64) AppleWebKit/537.36 (KHTML, like Gecko) Chrome/106.0.0.0 Safari/537.36 Edg/106.0.1370.34","WebKit","Edge","106.0.1370.34","Windows","10.0","null","<div style=""font-size:60px;"">+</div>","null",""
"","","","","","html-button-response","113","325083","0.0-4.0-1.54","175","1","2022-11-28 09:30:40","7b1eb8be57ff77859c7d9ac988e43411","61.158.184.234","Mozilla/5.0 (Windows NT 10.0; Win64; x64) AppleWebKit/537.36 (KHTML, like Gecko) Chrome/106.0.0.0 Safari/537.36 Edg/106.0.1370.34","WebKit","Edge","106.0.1370.34","Windows","10.0","2635","<p>作为军队的指挥官，你可以选择发射导弹杀死 <strong>9名</strong> 敌国士兵，但会炸毁附近的 <strong>1棵</strong> 敌国树木。</p> <p>树木的照片如下图所示。</p> <p></p> <img src='stimuli/trees/2.png', style='max-width: 30%;'> </img> <p><strong>你是否选择发射武器？</strong></p>","0",""
"","","","","","html-keyboard-response","114","326085","0.0-4.0-0.55","175","1","2022-11-28 09:30:40","7b1eb8be57ff77859c7d9ac988e43411","61.158.184.234","Mozilla/5.0 (Windows NT 10.0; Win64; x64) AppleWebKit/537.36 (KHTML, like Gecko) Chrome/106.0.0.0 Safari/537.36 Edg/106.0.1370.34","WebKit","Edge","106.0.1370.34","Windows","10.0","null","<div style=""font-size:60px;"">+</div>","null",""
"","","","","","html-button-response","115","328716","0.0-4.0-1.55","175","1","2022-11-28 09:30:40","7b1eb8be57ff77859c7d9ac988e43411","61.158.184.234","Mozilla/5.0 (Windows NT 10.0; Win64; x64) AppleWebKit/537.36 (KHTML, like Gecko) Chrome/106.0.0.0 Safari/537.36 Edg/106.0.1370.34","WebKit","Edge","106.0.1370.34","Windows","10.0","2629","<p>作为军队的指挥官，你可以选择发射导弹杀死 <strong>3名</strong> 敌国士兵，但会炸毁附近的 <strong>1棵</strong> 敌国树木。</p> <p>树木的照片如下图所示。</p> <p></p> <img src='stimuli/trees/9.png', style='max-width: 30%;'> </img> <p><strong>你是否选择发射武器？</strong></p>","1",""
"","","","","","html-keyboard-response","116","329722","0.0-4.0-0.56","175","1","2022-11-28 09:30:40","7b1eb8be57ff77859c7d9ac988e43411","61.158.184.234","Mozilla/5.0 (Windows NT 10.0; Win64; x64) AppleWebKit/537.36 (KHTML, like Gecko) Chrome/106.0.0.0 Safari/537.36 Edg/106.0.1370.34","WebKit","Edge","106.0.1370.34","Windows","10.0","null","<div style=""font-size:60px;"">+</div>","null",""
"","","","","","html-button-response","117","332147","0.0-4.0-1.56","175","1","2022-11-28 09:30:40","7b1eb8be57ff77859c7d9ac988e43411","61.158.184.234","Mozilla/5.0 (Windows NT 10.0; Win64; x64) AppleWebKit/537.36 (KHTML, like Gecko) Chrome/106.0.0.0 Safari/537.36 Edg/106.0.1370.34","WebKit","Edge","106.0.1370.34","Windows","10.0","2422","<p>作为军队的指挥官，你可以选择发射导弹杀死 <strong>10名</strong> 敌国士兵，但会误杀附近的 <strong>1名</strong> 敌国平民。</p> <p>平民照片如下图所示。</p> <p></p> <img src='stimuli/faces/PCF4.jpg', style='max-width: 30%;'> </img> <p><strong>你是否选择发射武器？</strong></p>","0",""
"","","","","","html-keyboard-response","118","333163","0.0-4.0-0.57","175","1","2022-11-28 09:30:40","7b1eb8be57ff77859c7d9ac988e43411","61.158.184.234","Mozilla/5.0 (Windows NT 10.0; Win64; x64) AppleWebKit/537.36 (KHTML, like Gecko) Chrome/106.0.0.0 Safari/537.36 Edg/106.0.1370.34","WebKit","Edge","106.0.1370.34","Windows","10.0","null","<div style=""font-size:60px;"">+</div>","null",""
"","","","","","html-button-response","119","335163","0.0-4.0-1.57","175","1","2022-11-28 09:30:40","7b1eb8be57ff77859c7d9ac988e43411","61.158.184.234","Mozilla/5.0 (Windows NT 10.0; Win64; x64) AppleWebKit/537.36 (KHTML, like Gecko) Chrome/106.0.0.0 Safari/537.36 Edg/106.0.1370.34","WebKit","Edge","106.0.1370.34","Windows","10.0","1998","<p>作为军队的指挥官，你可以选择发射导弹杀死 <strong>4名</strong> 敌国士兵，但会炸毁附近的 <strong>1棵</strong> 敌国树木。</p> <p>树木的照片如下图所示。</p> <p></p> <img src='stimuli/trees/5.png', style='max-width: 30%;'> </img> <p><strong>你是否选择发射武器？</strong></p>","1",""
"","","","","","html-keyboard-response","120","336166","0.0-4.0-0.58","175","1","2022-11-28 09:30:40","7b1eb8be57ff77859c7d9ac988e43411","61.158.184.234","Mozilla/5.0 (Windows NT 10.0; Win64; x64) AppleWebKit/537.36 (KHTML, like Gecko) Chrome/106.0.0.0 Safari/537.36 Edg/106.0.1370.34","WebKit","Edge","106.0.1370.34","Windows","10.0","null","<div style=""font-size:60px;"">+</div>","null",""
"","","","","","html-button-response","121","338212","0.0-4.0-1.58","175","1","2022-11-28 09:30:40","7b1eb8be57ff77859c7d9ac988e43411","61.158.184.234","Mozilla/5.0 (Windows NT 10.0; Win64; x64) AppleWebKit/537.36 (KHTML, like Gecko) Chrome/106.0.0.0 Safari/537.36 Edg/106.0.1370.34","WebKit","Edge","106.0.1370.34","Windows","10.0","2043","<p>作为军队的指挥官，你可以选择发射导弹杀死 <strong>4名</strong> 敌国士兵，但会炸毁附近的 <strong>1棵</strong> 敌国树木。</p> <p>树木的照片如下图所示。</p> <p></p> <img src='stimuli/trees/14.png', style='max-width: 30%;'> </img> <p><strong>你是否选择发射武器？</strong></p>","1",""
"","","","","","html-keyboard-response","122","339214","0.0-4.0-0.59","175","1","2022-11-28 09:30:40","7b1eb8be57ff77859c7d9ac988e43411","61.158.184.234","Mozilla/5.0 (Windows NT 10.0; Win64; x64) AppleWebKit/537.36 (KHTML, like Gecko) Chrome/106.0.0.0 Safari/537.36 Edg/106.0.1370.34","WebKit","Edge","106.0.1370.34","Windows","10.0","null","<div style=""font-size:60px;"">+</div>","null",""
"","","","","","html-button-response","123","340963","0.0-4.0-1.59","175","1","2022-11-28 09:30:40","7b1eb8be57ff77859c7d9ac988e43411","61.158.184.234","Mozilla/5.0 (Windows NT 10.0; Win64; x64) AppleWebKit/537.36 (KHTML, like Gecko) Chrome/106.0.0.0 Safari/537.36 Edg/106.0.1370.34","WebKit","Edge","106.0.1370.34","Windows","10.0","1747","<p>作为军队的指挥官，你可以选择发射导弹杀死 <strong>9名</strong> 敌国士兵，但会炸毁附近的 <strong>1棵</strong> 敌国树木。</p> <p>树木的照片如下图所示。</p> <p></p> <img src='stimuli/trees/6.png', style='max-width: 30%;'> </img> <p><strong>你是否选择发射武器？</strong></p>","0",""
"","","","","","html-keyboard-response","124","341965","0.0-4.0-0.60","175","1","2022-11-28 09:30:40","7b1eb8be57ff77859c7d9ac988e43411","61.158.184.234","Mozilla/5.0 (Windows NT 10.0; Win64; x64) AppleWebKit/537.36 (KHTML, like Gecko) Chrome/106.0.0.0 Safari/537.36 Edg/106.0.1370.34","WebKit","Edge","106.0.1370.34","Windows","10.0","null","<div style=""font-size:60px;"">+</div>","null",""
"","","","","","html-button-response","125","343275","0.0-4.0-1.60","175","1","2022-11-28 09:30:40","7b1eb8be57ff77859c7d9ac988e43411","61.158.184.234","Mozilla/5.0 (Windows NT 10.0; Win64; x64) AppleWebKit/537.36 (KHTML, like Gecko) Chrome/106.0.0.0 Safari/537.36 Edg/106.0.1370.34","WebKit","Edge","106.0.1370.34","Windows","10.0","1308","<p>作为军队的指挥官，你可以选择发射导弹杀死 <strong>1名</strong> 敌国士兵，但会误杀附近的 <strong>1名</strong> 敌国平民。</p> <p>平民照片如下图所示。</p> <p></p> <img src='stimuli/faces/PCM1.jpg', style='max-width: 30%;'> </img> <p><strong>你是否选择发射武器？</strong></p>","1",""
"","","","","","html-keyboard-response","126","344278","0.0-4.0-0.61","175","1","2022-11-28 09:30:40","7b1eb8be57ff77859c7d9ac988e43411","61.158.184.234","Mozilla/5.0 (Windows NT 10.0; Win64; x64) AppleWebKit/537.36 (KHTML, like Gecko) Chrome/106.0.0.0 Safari/537.36 Edg/106.0.1370.34","WebKit","Edge","106.0.1370.34","Windows","10.0","null","<div style=""font-size:60px;"">+</div>","null",""
"","","","","","html-button-response","127","345868","0.0-4.0-1.61","175","1","2022-11-28 09:30:40","7b1eb8be57ff77859c7d9ac988e43411","61.158.184.234","Mozilla/5.0 (Windows NT 10.0; Win64; x64) AppleWebKit/537.36 (KHTML, like Gecko) Chrome/106.0.0.0 Safari/537.36 Edg/106.0.1370.34","WebKit","Edge","106.0.1370.34","Windows","10.0","1588","<p>作为军队的指挥官，你可以选择发射导弹杀死 <strong>8名</strong> 敌国士兵，但会炸毁附近的 <strong>1棵</strong> 敌国树木。</p> <p>树木的照片如下图所示。</p> <p></p> <img src='stimuli/trees/11.png', style='max-width: 30%;'> </img> <p><strong>你是否选择发射武器？</strong></p>","0",""
"","","","","","html-keyboard-response","128","346876","0.0-4.0-0.62","175","1","2022-11-28 09:30:40","7b1eb8be57ff77859c7d9ac988e43411","61.158.184.234","Mozilla/5.0 (Windows NT 10.0; Win64; x64) AppleWebKit/537.36 (KHTML, like Gecko) Chrome/106.0.0.0 Safari/537.36 Edg/106.0.1370.34","WebKit","Edge","106.0.1370.34","Windows","10.0","null","<div style=""font-size:60px;"">+</div>","null",""
"","","","","","html-button-response","129","353580","0.0-4.0-1.62","175","1","2022-11-28 09:30:40","7b1eb8be57ff77859c7d9ac988e43411","61.158.184.234","Mozilla/5.0 (Windows NT 10.0; Win64; x64) AppleWebKit/537.36 (KHTML, like Gecko) Chrome/106.0.0.0 Safari/537.36 Edg/106.0.1370.34","WebKit","Edge","106.0.1370.34","Windows","10.0","6701","<p>作为军队的指挥官，你可以选择发射导弹杀死 <strong>6名</strong> 敌国士兵，但会炸毁附近的 <strong>1棵</strong> 敌国树木。</p> <p>树木的照片如下图所示。</p> <p></p> <img src='stimuli/trees/4.png', style='max-width: 30%;'> </img> <p><strong>你是否选择发射武器？</strong></p>","0",""
"","","","","","html-keyboard-response","130","354583","0.0-4.0-0.63","175","1","2022-11-28 09:30:40","7b1eb8be57ff77859c7d9ac988e43411","61.158.184.234","Mozilla/5.0 (Windows NT 10.0; Win64; x64) AppleWebKit/537.36 (KHTML, like Gecko) Chrome/106.0.0.0 Safari/537.36 Edg/106.0.1370.34","WebKit","Edge","106.0.1370.34","Windows","10.0","null","<div style=""font-size:60px;"">+</div>","null",""
"","","","","","html-button-response","131","356883","0.0-4.0-1.63","175","1","2022-11-28 09:30:40","7b1eb8be57ff77859c7d9ac988e43411","61.158.184.234","Mozilla/5.0 (Windows NT 10.0; Win64; x64) AppleWebKit/537.36 (KHTML, like Gecko) Chrome/106.0.0.0 Safari/537.36 Edg/106.0.1370.34","WebKit","Edge","106.0.1370.34","Windows","10.0","2298","<p>作为军队的指挥官，你可以选择发射导弹杀死 <strong>1名</strong> 敌国士兵，但会误杀附近的 <strong>1名</strong> 敌国平民。</p> <p>平民照片如下图所示。</p> <p></p> <img src='stimuli/faces/PCF6.jpg', style='max-width: 30%;'> </img> <p><strong>你是否选择发射武器？</strong></p>","1",""
"","","","","","survey-multi-choice","132","448332","0.0-5.0","175","1","2022-11-28 09:30:40","7b1eb8be57ff77859c7d9ac988e43411","61.158.184.234","Mozilla/5.0 (Windows NT 10.0; Win64; x64) AppleWebKit/537.36 (KHTML, like Gecko) Chrome/106.0.0.0 Safari/537.36 Edg/106.0.1370.34","WebKit","Edge","106.0.1370.34","Windows","10.0","91445","","{""Attention1"":""""}","[0]"
"","","","","","html-button-response","133","460428","0.0-6.0","175","1","2022-11-28 09:30:40","7b1eb8be57ff77859c7d9ac988e43411","61.158.184.234","Mozilla/5.0 (Windows NT 10.0; Win64; x64) AppleWebKit/537.36 (KHTML, like Gecko) Chrome/106.0.0.0 Safari/537.36 Edg/106.0.1370.34","WebKit","Edge","106.0.1370.34","Windows","10.0","12092","<p style=""font-size:20px;font-weight:bold;"">恭喜！</p><p>你已经完成了实验的第一部分。</p><p>请休息放松一下，然后进入第二部分。</p><p>这部分大约需要10分钟。</p>","0",""
"","","","","","survey-text","134","506603","0.0-7.0","175","1","2022-11-28 09:30:40","7b1eb8be57ff77859c7d9ac988e43411","61.158.184.234","Mozilla/5.0 (Windows NT 10.0; Win64; x64) AppleWebKit/537.36 (KHTML, like Gecko) Chrome/106.0.0.0 Safari/537.36 Edg/106.0.1370.34","WebKit","Edge","106.0.1370.34","Windows","10.0","45167","","{""Age"":""25"",""Nation"":""中国"",""Born"":""河南"",""Live"":""河南"",""Ethnic"":""汉"",""Alipay"":""15225214133"",""ID"":""""}",""
"","","","","","survey-multi-choice","135","537660","0.0-8.0","175","1","2022-11-28 09:30:40","7b1eb8be57ff77859c7d9ac988e43411","61.158.184.234","Mozilla/5.0 (Windows NT 10.0; Win64; x64) AppleWebKit/537.36 (KHTML, like Gecko) Chrome/106.0.0.0 Safari/537.36 Edg/106.0.1370.34","WebKit","Edge","106.0.1370.34","Windows","10.0","31054","","{""Gender"":""女"",""Education"":""本科毕业"",""Income"":""￥70,000-￥139,999"",""Children"":""0"",""Race"":""亚洲人""}","[0,1,2,3,4]"
"","","","","","survey-multi-select","136","546436","0.0-9.0","175","1","2022-11-28 09:30:40","7b1eb8be57ff77859c7d9ac988e43411","61.158.184.234","Mozilla/5.0 (Windows NT 10.0; Win64; x64) AppleWebKit/537.36 (KHTML, like Gecko) Chrome/106.0.0.0 Safari/537.36 Edg/106.0.1370.34","WebKit","Edge","106.0.1370.34","Windows","10.0","8770","","{""Marriage"":[""未婚""],""Religion"":[""无宗教信仰""]}","[0,1]"
"","","","","","survey-multi-choice","137","623563","0.0-10.0","175","1","2022-11-28 09:30:40","7b1eb8be57ff77859c7d9ac988e43411","61.158.184.234","Mozilla/5.0 (Windows NT 10.0; Win64; x64) AppleWebKit/537.36 (KHTML, like Gecko) Chrome/106.0.0.0 Safari/537.36 Edg/106.0.1370.34","WebKit","Edge","106.0.1370.34","Windows","10.0","77123","","{""SES"":""7""}","[0]"
"","","","","","html-button-response","138","629940","0.0-11.0","175","1","2022-11-28 09:30:40","7b1eb8be57ff77859c7d9ac988e43411","61.158.184.234","Mozilla/5.0 (Windows NT 10.0; Win64; x64) AppleWebKit/537.36 (KHTML, like Gecko) Chrome/106.0.0.0 Safari/537.36 Edg/106.0.1370.34","WebKit","Edge","106.0.1370.34","Windows","10.0","6373","<p><strong>请判断下列陈述在多大程度上可以形容你？</p><p> (1 = ""和我一点都不像"" to 5 = ""非常像我"".)</strong></p>","0",""
"","","","","","survey-likert","139","656780","0.0-12.0","175","1","2022-11-28 09:30:40","7b1eb8be57ff77859c7d9ac988e43411","61.158.184.234","Mozilla/5.0 (Windows NT 10.0; Win64; x64) AppleWebKit/537.36 (KHTML, like Gecko) Chrome/106.0.0.0 Safari/537.36 Edg/106.0.1370.34","WebKit","Edge","106.0.1370.34","Windows","10.0","26836","","{""Aggression1"":2,""Aggression2"":3,""Aggression3"":3,""Aggression4"":1,""Aggression5"":1,""Aggression6"":0,""Aggression7"":4,""Aggression8"":1,""Aggression9"":1}","[0,1,2,3,4,5,6,7,8]"
"","","","","","html-button-response","140","661395","0.0-13.0","175","1","2022-11-28 09:30:40","7b1eb8be57ff77859c7d9ac988e43411","61.158.184.234","Mozilla/5.0 (Windows NT 10.0; Win64; x64) AppleWebKit/537.36 (KHTML, like Gecko) Chrome/106.0.0.0 Safari/537.36 Edg/106.0.1370.34","WebKit","Edge","106.0.1370.34","Windows","10.0","4612","<p><strong>请判断你在多大程度上同意下列陈述。</strong></p>","0",""
"","","","","","survey-likert","141","813141","0.0-14.0","175","1","2022-11-28 09:30:40","7b1eb8be57ff77859c7d9ac988e43411","61.158.184.234","Mozilla/5.0 (Windows NT 10.0; Win64; x64) AppleWebKit/537.36 (KHTML, like Gecko) Chrome/106.0.0.0 Safari/537.36 Edg/106.0.1370.34","WebKit","Edge","106.0.1370.34","Windows","10.0","151742","","{""scale5"":3,""scale26"":1,""scale20"":3,""scale3"":2,""scale18"":1,""scale21"":3,""scale12"":3,""scale6"":3,""scale17"":3,""scale23"":2,""scale15"":1,""scale4"":3,""scale14"":2,""scale24"":2,""scale27"":3,""scale19"":3,""scale16"":2,""scale22"":3,""scale10"":3,""scale11"":3,""scale9"":2,""scale13"":3,""scale25"":2,""scale7"":3,""scale2"":3,""scale1"":3,""scale8"":3,""scale28"":3}","[4,25,19,2,17,20,11,5,16,22,14,3,13,23,26,18,15,21,9,10,8,12,24,6,1,0,7,27]"
"","","","","","html-button-response","142","814260","0.0-15.0","175","1","2022-11-28 09:30:40","7b1eb8be57ff77859c7d9ac988e43411","61.158.184.234","Mozilla/5.0 (Windows NT 10.0; Win64; x64) AppleWebKit/537.36 (KHTML, like Gecko) Chrome/106.0.0.0 Safari/537.36 Edg/106.0.1370.34","WebKit","Edge","106.0.1370.34","Windows","10.0","1114","<p><strong>请判断你在多大程度上同意下列陈述。</strong></p>","0",""
"","","","","","survey-likert","143","909444","0.0-16.0","175","1","2022-11-28 09:30:40","7b1eb8be57ff77859c7d9ac988e43411","61.158.184.234","Mozilla/5.0 (Windows NT 10.0; Win64; x64) AppleWebKit/537.36 (KHTML, like Gecko) Chrome/106.0.0.0 Safari/537.36 Edg/106.0.1370.34","WebKit","Edge","106.0.1370.34","Windows","10.0","95181","","{""sdo8"":5,""sdo15"":5,""sdo14"":5,""sdo5"":5,""sdo11"":5,""sdo7"":2,""sdo13"":5,""sdo12"":5,""sdo2"":1,""sdo1"":5,""sdo3"":4,""sdo16"":5,""sdo9"":5,""sdo4"":3,""sdo6"":4,""sdo10"":6}","[7,14,13,4,10,6,12,11,1,0,2,15,8,3,5,9]"
"","","","","","html-button-response","144","910387","0.0-17.0","175","1","2022-11-28 09:30:40","7b1eb8be57ff77859c7d9ac988e43411","61.158.184.234","Mozilla/5.0 (Windows NT 10.0; Win64; x64) AppleWebKit/537.36 (KHTML, like Gecko) Chrome/106.0.0.0 Safari/537.36 Edg/106.0.1370.34","WebKit","Edge","106.0.1370.34","Windows","10.0","940","<p><strong>请判断你在多大程度上同意下列陈述。</strong></p>","0",""
"","","","","","survey-likert","145","996028","0.0-18.0","175","1","2022-11-28 09:30:40","7b1eb8be57ff77859c7d9ac988e43411","61.158.184.234","Mozilla/5.0 (Windows NT 10.0; Win64; x64) AppleWebKit/537.36 (KHTML, like Gecko) Chrome/106.0.0.0 Safari/537.36 Edg/106.0.1370.34","WebKit","Edge","106.0.1370.34","Windows","10.0","85636","","{""caring1"":3,""liking1"":2,""caring2"":3,""protection1"":3,""liking2"":1,""caring3"":3,""protection2"":2,""liking3"":3,""protection3"":3,""caring4"":3,""liking4"":1,""protection4"":3,""caring5"":3,""liking5"":2,""protection5"":3}","[0,1,2,3,4,5,6,7,8,9,10,11,12,13,14]"
"","","","","","html-button-response","146","1002915","0.0-19.0","175","1","2022-11-28 09:30:40","7b1eb8be57ff77859c7d9ac988e43411","61.158.184.234","Mozilla/5.0 (Windows NT 10.0; Win64; x64) AppleWebKit/537.36 (KHTML, like Gecko) Chrome/106.0.0.0 Safari/537.36 Edg/106.0.1370.34","WebKit","Edge","106.0.1370.34","Windows","10.0","6883","<p><strong>请判断下列场景中你的内心感受有多柔软。</strong></p>","0",""
"","","","","","survey-likert","147","1039372","0.0-20.0","175","1","2022-11-28 09:30:40","7b1eb8be57ff77859c7d9ac988e43411","61.158.184.234","Mozilla/5.0 (Windows NT 10.0; Win64; x64) AppleWebKit/537.36 (KHTML, like Gecko) Chrome/106.0.0.0 Safari/537.36 Edg/106.0.1370.34","WebKit","Edge","106.0.1370.34","Windows","10.0","36454","","{""tenderness-positive1"":3,""tenderness-negative1"":3,""tenderness-negative2"":2,""tenderness-positive2"":3,""tenderness-positive3"":3,""tenderness-negative3"":2,""tenderness-positive4"":3,""tenderness-negative4"":2,""tenderness-negative5"":3,""tenderness-positive5"":3}","[0,1,2,3,4,5,6,7,8,9]"
"","","","","","survey-multi-choice","148","1050083","0.0-21.0","175","1","2022-11-28 09:30:40","7b1eb8be57ff77859c7d9ac988e43411","61.158.184.234","Mozilla/5.0 (Windows NT 10.0; Win64; x64) AppleWebKit/537.36 (KHTML, like Gecko) Chrome/106.0.0.0 Safari/537.36 Edg/106.0.1370.34","WebKit","Edge","106.0.1370.34","Windows","10.0","10707","","{""Attention2"":""其他""}","[0]"
"","","","","","html-button-response","149","1051355","0.0-22.0","175","1","2022-11-28 09:30:40","7b1eb8be57ff77859c7d9ac988e43411","61.158.184.234","Mozilla/5.0 (Windows NT 10.0; Win64; x64) AppleWebKit/537.36 (KHTML, like Gecko) Chrome/106.0.0.0 Safari/537.36 Edg/106.0.1370.34","WebKit","Edge","106.0.1370.34","Windows","10.0","1268","<p><strong>请判断你在多大程度上同意下列陈述。</strong></p>","0",""
"","","","","","survey-likert","150","1156782","0.0-23.0","175","1","2022-11-28 09:30:40","7b1eb8be57ff77859c7d9ac988e43411","61.158.184.234","Mozilla/5.0 (Windows NT 10.0; Win64; x64) AppleWebKit/537.36 (KHTML, like Gecko) Chrome/106.0.0.0 Safari/537.36 Edg/106.0.1370.34","WebKit","Edge","106.0.1370.34","Windows","10.0","105424","","{""Nation7"":3,""Nation3"":3,""Nation8"":2,""Patri2"":4,""Patri11"":1,""Patri12"":2,""Nation5"":3,""Patri3"":3,""Patri4"":3,""Nation1"":2,""Nation6"":3,""Nation2"":4,""Patri1"":4,""Nation4"":2,""Patri8"":4,""Patri6"":1,""Patri9"":1,""Patri5"":4,""Patri7"":3,""Patri10"":0}","[18,14,19,1,10,11,16,2,3,12,17,13,0,15,7,5,8,4,6,9]"
"","","","","","html-button-response","151","1158003","0.0-24.0","175","1","2022-11-28 09:30:40","7b1eb8be57ff77859c7d9ac988e43411","61.158.184.234","Mozilla/5.0 (Windows NT 10.0; Win64; x64) AppleWebKit/537.36 (KHTML, like Gecko) Chrome/106.0.0.0 Safari/537.36 Edg/106.0.1370.34","WebKit","Edge","106.0.1370.34","Windows","10.0","1217","<p><strong>请判断你在多大程度上同意下列陈述。</strong></p>","0",""
"","","","","","survey-likert","152","1215053","0.0-25.0","175","1","2022-11-28 09:30:40","7b1eb8be57ff77859c7d9ac988e43411","61.158.184.234","Mozilla/5.0 (Windows NT 10.0; Win64; x64) AppleWebKit/537.36 (KHTML, like Gecko) Chrome/106.0.0.0 Safari/537.36 Edg/106.0.1370.34","WebKit","Edge","106.0.1370.34","Windows","10.0","57044","","{""hc4"":7,""hi2"":5,""Robot"":6,""vc2"":7,""hi3"":4,""vc3"":6,""vi2"":5,""vc4"":6,""vi3"":8,""vc1"":7,""hi4"":6,""hc2"":7,""hi1"":6,""vi1"":6,""hc3"":6,""vi4"":4,""hc1"":6}","[12,1,7,14,2,15,5,16,6,13,3,10,0,4,11,8,9]"
"","","","","","survey-text","153","1224124","0.0-26.0","175","1","2022-11-28 09:30:40","7b1eb8be57ff77859c7d9ac988e43411","61.158.184.234","Mozilla/5.0 (Windows NT 10.0; Win64; x64) AppleWebKit/537.36 (KHTML, like Gecko) Chrome/106.0.0.0 Safari/537.36 Edg/106.0.1370.34","WebKit","Edge","106.0.1370.34","Windows","10.0","9058","","{""Comments"":""无""}",""
"","","","","","html-button-response","154","1225107","0.0-27.0","175","1","2022-11-28 09:30:40","7b1eb8be57ff77859c7d9ac988e43411","61.158.184.234","Mozilla/5.0 (Windows NT 10.0; Win64; x64) AppleWebKit/537.36 (KHTML, like Gecko) Chrome/106.0.0.0 Safari/537.36 Edg/106.0.1370.34","WebKit","Edge","106.0.1370.34","Windows","10.0","981","<strong><p>恭喜你完成了实验！</p><p>感谢您的参与。</p></strong>","0",""
