"success","timeout","failed_images","failed_audio","failed_video","trial_type","trial_index","time_elapsed","internal_node_id","run_id","condition","recorded_at","source_code_version","ip","user_agent","device","browser","browser_version","platform","platform_version","rt","stimulus","response","question_order"
"true","false","[]","[]","[]","preload","0","1297","0.0-0.0","201","1","2022-11-29 02:34:46","7b1eb8be57ff77859c7d9ac988e43411","182.127.132.64","Mozilla/5.0 (Windows NT 10.0; Win64; x64) AppleWebKit/537.36 (KHTML, like Gecko) Chrome/107.0.0.0 Safari/537.36 Edg/107.0.1418.35","WebKit","Edge","107.0.1418.35","Windows","10.0","","","",""
"true","","","","","fullscreen","1","24732","0.0-1.0","201","1","2022-11-29 02:34:46","7b1eb8be57ff77859c7d9ac988e43411","182.127.132.64","Mozilla/5.0 (Windows NT 10.0; Win64; x64) AppleWebKit/537.36 (KHTML, like Gecko) Chrome/107.0.0.0 Safari/537.36 Edg/107.0.1418.35","WebKit","Edge","107.0.1418.35","Windows","10.0","","","",""
"","","","","","html-button-response","2","27230","0.0-2.0","201","1","2022-11-29 02:34:46","7b1eb8be57ff77859c7d9ac988e43411","182.127.132.64","Mozilla/5.0 (Windows NT 10.0; Win64; x64) AppleWebKit/537.36 (KHTML, like Gecko) Chrome/107.0.0.0 Safari/537.36 Edg/107.0.1418.35","WebKit","Edge","107.0.1418.35","Windows","10.0","2497","<p style=""font-size:20px;font-weight:bold;"">实验知情同意书</p><p style=""text-align:left;""><strong>实验名称：</strong>社会冲突研究</p><p style=""text-align:left;""><strong>主要研究者：</strong>韩晓春副教授（北京师范大学心理学部）</p><p style=""text-align:left;""><strong>联系方式：</strong>发送邮件至xiaochun.han@bnu.edu.cn</p><p style=""text-align:left;""><strong>研究目的：</strong>研究旨在了解人类面对群体冲突时的决策方式，以及相关的心理学特质。实验调查大约需要20分钟。</p><p style=""text-align:left;""><strong>实验流程：</strong>实验包含两部分。第一部分呈现一系列群体冲突场景，请你决定如何对这些冲突进行反应，大约需要10分钟完成。第二部分包含一系列人口统计学信息收集和心理学问卷，大约需要10分钟完成。</p><p style=""text-align:left;""><strong>参加及退出规则：</strong>参加本实验完全取决于您的个人意愿。在参与过程中，您可以随时退出，并且不用承担任何后果。</p><p style=""text-align:left;""><strong>隐私：</strong>本实验完全匿名进行，不会收集您的姓名或其他能够识别您身份的信息。实验中收集的作答仅用作科学研究使用，可能会在学术期刊/书籍上发表，或者用于教学，您的数据未来可能会和其他研究者或实验室分享，但您的个人身份不会被识别。</p><p style=""text-align:left;""><strong>实验报酬：</strong>实验完成后，您将获得15元人民币报酬，以感谢您的时间和努力。调查问卷中包含几道题目用以测验您作答时的认真度。只有完成全部实验，并且正确回答认真度测验的被试才能获得实验报酬。实验报酬将通过支付宝转账发放。</p><p style=""text-align:left;font-size:20px;""><strong>如果您同意以上实验知情同意书的内容，请点击'同意并且开始实验'按钮；否则请关闭浏览器界面，退出实验。</strong></p>","0",""
"","","","","","html-button-response","3","33966","0.0-3.0","201","1","2022-11-29 02:34:46","7b1eb8be57ff77859c7d9ac988e43411","182.127.132.64","Mozilla/5.0 (Windows NT 10.0; Win64; x64) AppleWebKit/537.36 (KHTML, like Gecko) Chrome/107.0.0.0 Safari/537.36 Edg/107.0.1418.35","WebKit","Edge","107.0.1418.35","Windows","10.0","6735","<p ><strong>实验任务一：</strong></p><p>请想象你的国家与另一个国家发生了军事冲突。</p><p>你是国家军队的指挥官，你将如何在冲突中进行决策。</p><p>具体来说，作为军队指挥官，请你决定是否发射导弹进行打击。</p><p>接下来，你会面对一系列场景，请仔细阅读每个场景，然后进行决策。</p><p>这部分实验任务大约需要10分钟。</p><p><strong>实验过程中，请集中注意力。</strong></p>","0",""
"","","","","","html-keyboard-response","4","34971","0.0-4.0-0.0","201","1","2022-11-29 02:34:46","7b1eb8be57ff77859c7d9ac988e43411","182.127.132.64","Mozilla/5.0 (Windows NT 10.0; Win64; x64) AppleWebKit/537.36 (KHTML, like Gecko) Chrome/107.0.0.0 Safari/537.36 Edg/107.0.1418.35","WebKit","Edge","107.0.1418.35","Windows","10.0","null","<div style=""font-size:60px;"">+</div>","null",""
"","","","","","html-button-response","5","39168","0.0-4.0-1.0","201","1","2022-11-29 02:34:46","7b1eb8be57ff77859c7d9ac988e43411","182.127.132.64","Mozilla/5.0 (Windows NT 10.0; Win64; x64) AppleWebKit/537.36 (KHTML, like Gecko) Chrome/107.0.0.0 Safari/537.36 Edg/107.0.1418.35","WebKit","Edge","107.0.1418.35","Windows","10.0","4196","<p>作为军队的指挥官，你可以选择发射导弹杀死 <strong>10名</strong> 敌国士兵，但会炸毁附近的 <strong>1棵</strong> 敌国树木。</p> <p>树木的照片如下图所示。</p> <p></p> <img src='stimuli/trees/16.png', style='max-width: 30%;'> </img> <p><strong>你是否选择发射武器？</strong></p>","0",""
"","","","","","html-keyboard-response","6","40172","0.0-4.0-0.1","201","1","2022-11-29 02:34:46","7b1eb8be57ff77859c7d9ac988e43411","182.127.132.64","Mozilla/5.0 (Windows NT 10.0; Win64; x64) AppleWebKit/537.36 (KHTML, like Gecko) Chrome/107.0.0.0 Safari/537.36 Edg/107.0.1418.35","WebKit","Edge","107.0.1418.35","Windows","10.0","null","<div style=""font-size:60px;"">+</div>","null",""
"","","","","","html-button-response","7","42925","0.0-4.0-1.1","201","1","2022-11-29 02:34:46","7b1eb8be57ff77859c7d9ac988e43411","182.127.132.64","Mozilla/5.0 (Windows NT 10.0; Win64; x64) AppleWebKit/537.36 (KHTML, like Gecko) Chrome/107.0.0.0 Safari/537.36 Edg/107.0.1418.35","WebKit","Edge","107.0.1418.35","Windows","10.0","2752","<p>作为军队的指挥官，你可以选择发射导弹杀死 <strong>7名</strong> 敌国士兵，但会炸毁附近的 <strong>1棵</strong> 敌国树木。</p> <p>树木的照片如下图所示。</p> <p></p> <img src='stimuli/trees/7.png', style='max-width: 30%;'> </img> <p><strong>你是否选择发射武器？</strong></p>","0",""
"","","","","","html-keyboard-response","8","43932","0.0-4.0-0.2","201","1","2022-11-29 02:34:46","7b1eb8be57ff77859c7d9ac988e43411","182.127.132.64","Mozilla/5.0 (Windows NT 10.0; Win64; x64) AppleWebKit/537.36 (KHTML, like Gecko) Chrome/107.0.0.0 Safari/537.36 Edg/107.0.1418.35","WebKit","Edge","107.0.1418.35","Windows","10.0","null","<div style=""font-size:60px;"">+</div>","null",""
"","","","","","html-button-response","9","45323","0.0-4.0-1.2","201","1","2022-11-29 02:34:46","7b1eb8be57ff77859c7d9ac988e43411","182.127.132.64","Mozilla/5.0 (Windows NT 10.0; Win64; x64) AppleWebKit/537.36 (KHTML, like Gecko) Chrome/107.0.0.0 Safari/537.36 Edg/107.0.1418.35","WebKit","Edge","107.0.1418.35","Windows","10.0","1390","<p>作为军队的指挥官，你可以选择发射导弹杀死 <strong>9名</strong> 敌国士兵，但会炸毁附近的 <strong>1棵</strong> 敌国树木。</p> <p>树木的照片如下图所示。</p> <p></p> <img src='stimuli/trees/15.png', style='max-width: 30%;'> </img> <p><strong>你是否选择发射武器？</strong></p>","0",""
"","","","","","html-keyboard-response","10","46339","0.0-4.0-0.3","201","1","2022-11-29 02:34:46","7b1eb8be57ff77859c7d9ac988e43411","182.127.132.64","Mozilla/5.0 (Windows NT 10.0; Win64; x64) AppleWebKit/537.36 (KHTML, like Gecko) Chrome/107.0.0.0 Safari/537.36 Edg/107.0.1418.35","WebKit","Edge","107.0.1418.35","Windows","10.0","null","<div style=""font-size:60px;"">+</div>","null",""
"","","","","","html-button-response","11","50754","0.0-4.0-1.3","201","1","2022-11-29 02:34:46","7b1eb8be57ff77859c7d9ac988e43411","182.127.132.64","Mozilla/5.0 (Windows NT 10.0; Win64; x64) AppleWebKit/537.36 (KHTML, like Gecko) Chrome/107.0.0.0 Safari/537.36 Edg/107.0.1418.35","WebKit","Edge","107.0.1418.35","Windows","10.0","4414","<p>作为军队的指挥官，你可以选择发射导弹杀死 <strong>1名</strong> 敌国士兵，但会误杀附近的 <strong>1名</strong> 敌国平民。</p> <p>平民照片如下图所示。</p> <p></p> <img src='stimuli/faces/PCM3.jpg', style='max-width: 30%;'> </img> <p><strong>你是否选择发射武器？</strong></p>","1",""
"","","","","","html-keyboard-response","12","51774","0.0-4.0-0.4","201","1","2022-11-29 02:34:46","7b1eb8be57ff77859c7d9ac988e43411","182.127.132.64","Mozilla/5.0 (Windows NT 10.0; Win64; x64) AppleWebKit/537.36 (KHTML, like Gecko) Chrome/107.0.0.0 Safari/537.36 Edg/107.0.1418.35","WebKit","Edge","107.0.1418.35","Windows","10.0","null","<div style=""font-size:60px;"">+</div>","null",""
"","","","","","html-button-response","13","53396","0.0-4.0-1.4","201","1","2022-11-29 02:34:46","7b1eb8be57ff77859c7d9ac988e43411","182.127.132.64","Mozilla/5.0 (Windows NT 10.0; Win64; x64) AppleWebKit/537.36 (KHTML, like Gecko) Chrome/107.0.0.0 Safari/537.36 Edg/107.0.1418.35","WebKit","Edge","107.0.1418.35","Windows","10.0","1621","<p>作为军队的指挥官，你可以选择发射导弹杀死 <strong>8名</strong> 敌国士兵，但会炸毁附近的 <strong>1棵</strong> 敌国树木。</p> <p>树木的照片如下图所示。</p> <p></p> <img src='stimuli/trees/6.png', style='max-width: 30%;'> </img> <p><strong>你是否选择发射武器？</strong></p>","0",""
"","","","","","html-keyboard-response","14","54402","0.0-4.0-0.5","201","1","2022-11-29 02:34:46","7b1eb8be57ff77859c7d9ac988e43411","182.127.132.64","Mozilla/5.0 (Windows NT 10.0; Win64; x64) AppleWebKit/537.36 (KHTML, like Gecko) Chrome/107.0.0.0 Safari/537.36 Edg/107.0.1418.35","WebKit","Edge","107.0.1418.35","Windows","10.0","null","<div style=""font-size:60px;"">+</div>","null",""
"","","","","","html-button-response","15","56584","0.0-4.0-1.5","201","1","2022-11-29 02:34:46","7b1eb8be57ff77859c7d9ac988e43411","182.127.132.64","Mozilla/5.0 (Windows NT 10.0; Win64; x64) AppleWebKit/537.36 (KHTML, like Gecko) Chrome/107.0.0.0 Safari/537.36 Edg/107.0.1418.35","WebKit","Edge","107.0.1418.35","Windows","10.0","2181","<p>作为军队的指挥官，你可以选择发射导弹杀死 <strong>1名</strong> 敌国士兵，但会误杀附近的 <strong>1名</strong> 敌国平民。</p> <p>平民照片如下图所示。</p> <p></p> <img src='stimuli/faces/PCM8.jpg', style='max-width: 30%;'> </img> <p><strong>你是否选择发射武器？</strong></p>","1",""
"","","","","","html-keyboard-response","16","57587","0.0-4.0-0.6","201","1","2022-11-29 02:34:46","7b1eb8be57ff77859c7d9ac988e43411","182.127.132.64","Mozilla/5.0 (Windows NT 10.0; Win64; x64) AppleWebKit/537.36 (KHTML, like Gecko) Chrome/107.0.0.0 Safari/537.36 Edg/107.0.1418.35","WebKit","Edge","107.0.1418.35","Windows","10.0","null","<div style=""font-size:60px;"">+</div>","null",""
"","","","","","html-button-response","17","59161","0.0-4.0-1.6","201","1","2022-11-29 02:34:46","7b1eb8be57ff77859c7d9ac988e43411","182.127.132.64","Mozilla/5.0 (Windows NT 10.0; Win64; x64) AppleWebKit/537.36 (KHTML, like Gecko) Chrome/107.0.0.0 Safari/537.36 Edg/107.0.1418.35","WebKit","Edge","107.0.1418.35","Windows","10.0","1572","<p>作为军队的指挥官，你可以选择发射导弹杀死 <strong>6名</strong> 敌国士兵，但会炸毁附近的 <strong>1棵</strong> 敌国树木。</p> <p>树木的照片如下图所示。</p> <p></p> <img src='stimuli/trees/10.png', style='max-width: 30%;'> </img> <p><strong>你是否选择发射武器？</strong></p>","0",""
"","","","","","html-keyboard-response","18","60164","0.0-4.0-0.7","201","1","2022-11-29 02:34:46","7b1eb8be57ff77859c7d9ac988e43411","182.127.132.64","Mozilla/5.0 (Windows NT 10.0; Win64; x64) AppleWebKit/537.36 (KHTML, like Gecko) Chrome/107.0.0.0 Safari/537.36 Edg/107.0.1418.35","WebKit","Edge","107.0.1418.35","Windows","10.0","null","<div style=""font-size:60px;"">+</div>","null",""
"","","","","","html-button-response","19","62638","0.0-4.0-1.7","201","1","2022-11-29 02:34:46","7b1eb8be57ff77859c7d9ac988e43411","182.127.132.64","Mozilla/5.0 (Windows NT 10.0; Win64; x64) AppleWebKit/537.36 (KHTML, like Gecko) Chrome/107.0.0.0 Safari/537.36 Edg/107.0.1418.35","WebKit","Edge","107.0.1418.35","Windows","10.0","2472","<p>作为军队的指挥官，你可以选择发射导弹杀死 <strong>8名</strong> 敌国士兵，但会误杀附近的 <strong>1名</strong> 敌国平民。</p> <p>平民照片如下图所示。</p> <p></p> <img src='stimuli/faces/PCF1.jpg', style='max-width: 30%;'> </img> <p><strong>你是否选择发射武器？</strong></p>","0",""
"","","","","","html-keyboard-response","20","63657","0.0-4.0-0.8","201","1","2022-11-29 02:34:46","7b1eb8be57ff77859c7d9ac988e43411","182.127.132.64","Mozilla/5.0 (Windows NT 10.0; Win64; x64) AppleWebKit/537.36 (KHTML, like Gecko) Chrome/107.0.0.0 Safari/537.36 Edg/107.0.1418.35","WebKit","Edge","107.0.1418.35","Windows","10.0","null","<div style=""font-size:60px;"">+</div>","null",""
"","","","","","html-button-response","21","65190","0.0-4.0-1.8","201","1","2022-11-29 02:34:46","7b1eb8be57ff77859c7d9ac988e43411","182.127.132.64","Mozilla/5.0 (Windows NT 10.0; Win64; x64) AppleWebKit/537.36 (KHTML, like Gecko) Chrome/107.0.0.0 Safari/537.36 Edg/107.0.1418.35","WebKit","Edge","107.0.1418.35","Windows","10.0","1532","<p>作为军队的指挥官，你可以选择发射导弹杀死 <strong>6名</strong> 敌国士兵，但会误杀附近的 <strong>1名</strong> 敌国平民。</p> <p>平民照片如下图所示。</p> <p></p> <img src='stimuli/faces/PCF7.jpg', style='max-width: 30%;'> </img> <p><strong>你是否选择发射武器？</strong></p>","1",""
"","","","","","html-keyboard-response","22","66203","0.0-4.0-0.9","201","1","2022-11-29 02:34:46","7b1eb8be57ff77859c7d9ac988e43411","182.127.132.64","Mozilla/5.0 (Windows NT 10.0; Win64; x64) AppleWebKit/537.36 (KHTML, like Gecko) Chrome/107.0.0.0 Safari/537.36 Edg/107.0.1418.35","WebKit","Edge","107.0.1418.35","Windows","10.0","null","<div style=""font-size:60px;"">+</div>","null",""
"","","","","","html-button-response","23","69241","0.0-4.0-1.9","201","1","2022-11-29 02:34:46","7b1eb8be57ff77859c7d9ac988e43411","182.127.132.64","Mozilla/5.0 (Windows NT 10.0; Win64; x64) AppleWebKit/537.36 (KHTML, like Gecko) Chrome/107.0.0.0 Safari/537.36 Edg/107.0.1418.35","WebKit","Edge","107.0.1418.35","Windows","10.0","3036","<p>作为军队的指挥官，你可以选择发射导弹杀死 <strong>1名</strong> 敌国士兵，但会炸毁附近的 <strong>1棵</strong> 敌国树木。</p> <p>树木的照片如下图所示。</p> <p></p> <img src='stimuli/trees/1.png', style='max-width: 30%;'> </img> <p><strong>你是否选择发射武器？</strong></p>","1",""
"","","","","","html-keyboard-response","24","70247","0.0-4.0-0.10","201","1","2022-11-29 02:34:46","7b1eb8be57ff77859c7d9ac988e43411","182.127.132.64","Mozilla/5.0 (Windows NT 10.0; Win64; x64) AppleWebKit/537.36 (KHTML, like Gecko) Chrome/107.0.0.0 Safari/537.36 Edg/107.0.1418.35","WebKit","Edge","107.0.1418.35","Windows","10.0","null","<div style=""font-size:60px;"">+</div>","null",""
"","","","","","html-button-response","25","71765","0.0-4.0-1.10","201","1","2022-11-29 02:34:46","7b1eb8be57ff77859c7d9ac988e43411","182.127.132.64","Mozilla/5.0 (Windows NT 10.0; Win64; x64) AppleWebKit/537.36 (KHTML, like Gecko) Chrome/107.0.0.0 Safari/537.36 Edg/107.0.1418.35","WebKit","Edge","107.0.1418.35","Windows","10.0","1516","<p>作为军队的指挥官，你可以选择发射导弹杀死 <strong>10名</strong> 敌国士兵，但会炸毁附近的 <strong>1棵</strong> 敌国树木。</p> <p>树木的照片如下图所示。</p> <p></p> <img src='stimuli/trees/11.png', style='max-width: 30%;'> </img> <p><strong>你是否选择发射武器？</strong></p>","0",""
"","","","","","html-keyboard-response","26","72771","0.0-4.0-0.11","201","1","2022-11-29 02:34:46","7b1eb8be57ff77859c7d9ac988e43411","182.127.132.64","Mozilla/5.0 (Windows NT 10.0; Win64; x64) AppleWebKit/537.36 (KHTML, like Gecko) Chrome/107.0.0.0 Safari/537.36 Edg/107.0.1418.35","WebKit","Edge","107.0.1418.35","Windows","10.0","null","<div style=""font-size:60px;"">+</div>","null",""
"","","","","","html-button-response","27","77166","0.0-4.0-1.11","201","1","2022-11-29 02:34:46","7b1eb8be57ff77859c7d9ac988e43411","182.127.132.64","Mozilla/5.0 (Windows NT 10.0; Win64; x64) AppleWebKit/537.36 (KHTML, like Gecko) Chrome/107.0.0.0 Safari/537.36 Edg/107.0.1418.35","WebKit","Edge","107.0.1418.35","Windows","10.0","4393","<p>作为军队的指挥官，你可以选择发射导弹杀死 <strong>8名</strong> 敌国士兵，但会误杀附近的 <strong>1名</strong> 敌国平民。</p> <p>平民照片如下图所示。</p> <p></p> <img src='stimuli/faces/PCM5.jpg', style='max-width: 30%;'> </img> <p><strong>你是否选择发射武器？</strong></p>","1",""
"","","","","","html-keyboard-response","28","78172","0.0-4.0-0.12","201","1","2022-11-29 02:34:46","7b1eb8be57ff77859c7d9ac988e43411","182.127.132.64","Mozilla/5.0 (Windows NT 10.0; Win64; x64) AppleWebKit/537.36 (KHTML, like Gecko) Chrome/107.0.0.0 Safari/537.36 Edg/107.0.1418.35","WebKit","Edge","107.0.1418.35","Windows","10.0","null","<div style=""font-size:60px;"">+</div>","null",""
"","","","","","html-button-response","29","79238","0.0-4.0-1.12","201","1","2022-11-29 02:34:46","7b1eb8be57ff77859c7d9ac988e43411","182.127.132.64","Mozilla/5.0 (Windows NT 10.0; Win64; x64) AppleWebKit/537.36 (KHTML, like Gecko) Chrome/107.0.0.0 Safari/537.36 Edg/107.0.1418.35","WebKit","Edge","107.0.1418.35","Windows","10.0","1064","<p>作为军队的指挥官，你可以选择发射导弹杀死 <strong>1名</strong> 敌国士兵，但会误杀附近的 <strong>1名</strong> 敌国平民。</p> <p>平民照片如下图所示。</p> <p></p> <img src='stimuli/faces/PCM2.jpg', style='max-width: 30%;'> </img> <p><strong>你是否选择发射武器？</strong></p>","1",""
"","","","","","html-keyboard-response","30","80244","0.0-4.0-0.13","201","1","2022-11-29 02:34:46","7b1eb8be57ff77859c7d9ac988e43411","182.127.132.64","Mozilla/5.0 (Windows NT 10.0; Win64; x64) AppleWebKit/537.36 (KHTML, like Gecko) Chrome/107.0.0.0 Safari/537.36 Edg/107.0.1418.35","WebKit","Edge","107.0.1418.35","Windows","10.0","null","<div style=""font-size:60px;"">+</div>","null",""
"","","","","","html-button-response","31","81671","0.0-4.0-1.13","201","1","2022-11-29 02:34:46","7b1eb8be57ff77859c7d9ac988e43411","182.127.132.64","Mozilla/5.0 (Windows NT 10.0; Win64; x64) AppleWebKit/537.36 (KHTML, like Gecko) Chrome/107.0.0.0 Safari/537.36 Edg/107.0.1418.35","WebKit","Edge","107.0.1418.35","Windows","10.0","1425","<p>作为军队的指挥官，你可以选择发射导弹杀死 <strong>10名</strong> 敌国士兵，但会误杀附近的 <strong>1名</strong> 敌国平民。</p> <p>平民照片如下图所示。</p> <p></p> <img src='stimuli/faces/PCM2.jpg', style='max-width: 30%;'> </img> <p><strong>你是否选择发射武器？</strong></p>","0",""
"","","","","","html-keyboard-response","32","82676","0.0-4.0-0.14","201","1","2022-11-29 02:34:46","7b1eb8be57ff77859c7d9ac988e43411","182.127.132.64","Mozilla/5.0 (Windows NT 10.0; Win64; x64) AppleWebKit/537.36 (KHTML, like Gecko) Chrome/107.0.0.0 Safari/537.36 Edg/107.0.1418.35","WebKit","Edge","107.0.1418.35","Windows","10.0","null","<div style=""font-size:60px;"">+</div>","null",""
"","","","","","html-button-response","33","84056","0.0-4.0-1.14","201","1","2022-11-29 02:34:46","7b1eb8be57ff77859c7d9ac988e43411","182.127.132.64","Mozilla/5.0 (Windows NT 10.0; Win64; x64) AppleWebKit/537.36 (KHTML, like Gecko) Chrome/107.0.0.0 Safari/537.36 Edg/107.0.1418.35","WebKit","Edge","107.0.1418.35","Windows","10.0","1379","<p>作为军队的指挥官，你可以选择发射导弹杀死 <strong>8名</strong> 敌国士兵，但会炸毁附近的 <strong>1棵</strong> 敌国树木。</p> <p>树木的照片如下图所示。</p> <p></p> <img src='stimuli/trees/12.png', style='max-width: 30%;'> </img> <p><strong>你是否选择发射武器？</strong></p>","0",""
"","","","","","html-keyboard-response","34","85059","0.0-4.0-0.15","201","1","2022-11-29 02:34:46","7b1eb8be57ff77859c7d9ac988e43411","182.127.132.64","Mozilla/5.0 (Windows NT 10.0; Win64; x64) AppleWebKit/537.36 (KHTML, like Gecko) Chrome/107.0.0.0 Safari/537.36 Edg/107.0.1418.35","WebKit","Edge","107.0.1418.35","Windows","10.0","null","<div style=""font-size:60px;"">+</div>","null",""
"","","","","","html-button-response","35","86770","0.0-4.0-1.15","201","1","2022-11-29 02:34:46","7b1eb8be57ff77859c7d9ac988e43411","182.127.132.64","Mozilla/5.0 (Windows NT 10.0; Win64; x64) AppleWebKit/537.36 (KHTML, like Gecko) Chrome/107.0.0.0 Safari/537.36 Edg/107.0.1418.35","WebKit","Edge","107.0.1418.35","Windows","10.0","1709","<p>作为军队的指挥官，你可以选择发射导弹杀死 <strong>1名</strong> 敌国士兵，但会炸毁附近的 <strong>1棵</strong> 敌国树木。</p> <p>树木的照片如下图所示。</p> <p></p> <img src='stimuli/trees/5.png', style='max-width: 30%;'> </img> <p><strong>你是否选择发射武器？</strong></p>","1",""
"","","","","","html-keyboard-response","36","87779","0.0-4.0-0.16","201","1","2022-11-29 02:34:46","7b1eb8be57ff77859c7d9ac988e43411","182.127.132.64","Mozilla/5.0 (Windows NT 10.0; Win64; x64) AppleWebKit/537.36 (KHTML, like Gecko) Chrome/107.0.0.0 Safari/537.36 Edg/107.0.1418.35","WebKit","Edge","107.0.1418.35","Windows","10.0","null","<div style=""font-size:60px;"">+</div>","null",""
"","","","","","html-button-response","37","89744","0.0-4.0-1.16","201","1","2022-11-29 02:34:46","7b1eb8be57ff77859c7d9ac988e43411","182.127.132.64","Mozilla/5.0 (Windows NT 10.0; Win64; x64) AppleWebKit/537.36 (KHTML, like Gecko) Chrome/107.0.0.0 Safari/537.36 Edg/107.0.1418.35","WebKit","Edge","107.0.1418.35","Windows","10.0","1963","<p>作为军队的指挥官，你可以选择发射导弹杀死 <strong>1名</strong> 敌国士兵，但会炸毁附近的 <strong>1棵</strong> 敌国树木。</p> <p>树木的照片如下图所示。</p> <p></p> <img src='stimuli/trees/15.png', style='max-width: 30%;'> </img> <p><strong>你是否选择发射武器？</strong></p>","1",""
"","","","","","html-keyboard-response","38","90754","0.0-4.0-0.17","201","1","2022-11-29 02:34:46","7b1eb8be57ff77859c7d9ac988e43411","182.127.132.64","Mozilla/5.0 (Windows NT 10.0; Win64; x64) AppleWebKit/537.36 (KHTML, like Gecko) Chrome/107.0.0.0 Safari/537.36 Edg/107.0.1418.35","WebKit","Edge","107.0.1418.35","Windows","10.0","null","<div style=""font-size:60px;"">+</div>","null",""
"","","","","","html-button-response","39","92106","0.0-4.0-1.17","201","1","2022-11-29 02:34:46","7b1eb8be57ff77859c7d9ac988e43411","182.127.132.64","Mozilla/5.0 (Windows NT 10.0; Win64; x64) AppleWebKit/537.36 (KHTML, like Gecko) Chrome/107.0.0.0 Safari/537.36 Edg/107.0.1418.35","WebKit","Edge","107.0.1418.35","Windows","10.0","1351","<p>作为军队的指挥官，你可以选择发射导弹杀死 <strong>2名</strong> 敌国士兵，但会误杀附近的 <strong>1名</strong> 敌国平民。</p> <p>平民照片如下图所示。</p> <p></p> <img src='stimuli/faces/PCM4.jpg', style='max-width: 30%;'> </img> <p><strong>你是否选择发射武器？</strong></p>","1",""
"","","","","","html-keyboard-response","40","93130","0.0-4.0-0.18","201","1","2022-11-29 02:34:46","7b1eb8be57ff77859c7d9ac988e43411","182.127.132.64","Mozilla/5.0 (Windows NT 10.0; Win64; x64) AppleWebKit/537.36 (KHTML, like Gecko) Chrome/107.0.0.0 Safari/537.36 Edg/107.0.1418.35","WebKit","Edge","107.0.1418.35","Windows","10.0","null","<div style=""font-size:60px;"">+</div>","null",""
"","","","","","html-button-response","41","94170","0.0-4.0-1.18","201","1","2022-11-29 02:34:46","7b1eb8be57ff77859c7d9ac988e43411","182.127.132.64","Mozilla/5.0 (Windows NT 10.0; Win64; x64) AppleWebKit/537.36 (KHTML, like Gecko) Chrome/107.0.0.0 Safari/537.36 Edg/107.0.1418.35","WebKit","Edge","107.0.1418.35","Windows","10.0","1039","<p>作为军队的指挥官，你可以选择发射导弹杀死 <strong>2名</strong> 敌国士兵，但会误杀附近的 <strong>1名</strong> 敌国平民。</p> <p>平民照片如下图所示。</p> <p></p> <img src='stimuli/faces/PCF5.jpg', style='max-width: 30%;'> </img> <p><strong>你是否选择发射武器？</strong></p>","1",""
"","","","","","html-keyboard-response","42","95194","0.0-4.0-0.19","201","1","2022-11-29 02:34:46","7b1eb8be57ff77859c7d9ac988e43411","182.127.132.64","Mozilla/5.0 (Windows NT 10.0; Win64; x64) AppleWebKit/537.36 (KHTML, like Gecko) Chrome/107.0.0.0 Safari/537.36 Edg/107.0.1418.35","WebKit","Edge","107.0.1418.35","Windows","10.0","null","<div style=""font-size:60px;"">+</div>","null",""
"","","","","","html-button-response","43","97243","0.0-4.0-1.19","201","1","2022-11-29 02:34:46","7b1eb8be57ff77859c7d9ac988e43411","182.127.132.64","Mozilla/5.0 (Windows NT 10.0; Win64; x64) AppleWebKit/537.36 (KHTML, like Gecko) Chrome/107.0.0.0 Safari/537.36 Edg/107.0.1418.35","WebKit","Edge","107.0.1418.35","Windows","10.0","2047","<p>作为军队的指挥官，你可以选择发射导弹杀死 <strong>8名</strong> 敌国士兵，但会炸毁附近的 <strong>1棵</strong> 敌国树木。</p> <p>树木的照片如下图所示。</p> <p></p> <img src='stimuli/trees/1.png', style='max-width: 30%;'> </img> <p><strong>你是否选择发射武器？</strong></p>","0",""
"","","","","","html-keyboard-response","44","98266","0.0-4.0-0.20","201","1","2022-11-29 02:34:46","7b1eb8be57ff77859c7d9ac988e43411","182.127.132.64","Mozilla/5.0 (Windows NT 10.0; Win64; x64) AppleWebKit/537.36 (KHTML, like Gecko) Chrome/107.0.0.0 Safari/537.36 Edg/107.0.1418.35","WebKit","Edge","107.0.1418.35","Windows","10.0","null","<div style=""font-size:60px;"">+</div>","null",""
"","","","","","html-button-response","45","99488","0.0-4.0-1.20","201","1","2022-11-29 02:34:46","7b1eb8be57ff77859c7d9ac988e43411","182.127.132.64","Mozilla/5.0 (Windows NT 10.0; Win64; x64) AppleWebKit/537.36 (KHTML, like Gecko) Chrome/107.0.0.0 Safari/537.36 Edg/107.0.1418.35","WebKit","Edge","107.0.1418.35","Windows","10.0","1221","<p>作为军队的指挥官，你可以选择发射导弹杀死 <strong>3名</strong> 敌国士兵，但会炸毁附近的 <strong>1棵</strong> 敌国树木。</p> <p>树木的照片如下图所示。</p> <p></p> <img src='stimuli/trees/11.png', style='max-width: 30%;'> </img> <p><strong>你是否选择发射武器？</strong></p>","1",""
"","","","","","html-keyboard-response","46","100491","0.0-4.0-0.21","201","1","2022-11-29 02:34:46","7b1eb8be57ff77859c7d9ac988e43411","182.127.132.64","Mozilla/5.0 (Windows NT 10.0; Win64; x64) AppleWebKit/537.36 (KHTML, like Gecko) Chrome/107.0.0.0 Safari/537.36 Edg/107.0.1418.35","WebKit","Edge","107.0.1418.35","Windows","10.0","null","<div style=""font-size:60px;"">+</div>","null",""
"","","","","","html-button-response","47","102136","0.0-4.0-1.21","201","1","2022-11-29 02:34:46","7b1eb8be57ff77859c7d9ac988e43411","182.127.132.64","Mozilla/5.0 (Windows NT 10.0; Win64; x64) AppleWebKit/537.36 (KHTML, like Gecko) Chrome/107.0.0.0 Safari/537.36 Edg/107.0.1418.35","WebKit","Edge","107.0.1418.35","Windows","10.0","1644","<p>作为军队的指挥官，你可以选择发射导弹杀死 <strong>9名</strong> 敌国士兵，但会误杀附近的 <strong>1名</strong> 敌国平民。</p> <p>平民照片如下图所示。</p> <p></p> <img src='stimuli/faces/PCM8.jpg', style='max-width: 30%;'> </img> <p><strong>你是否选择发射武器？</strong></p>","1",""
"","","","","","html-keyboard-response","48","103140","0.0-4.0-0.22","201","1","2022-11-29 02:34:46","7b1eb8be57ff77859c7d9ac988e43411","182.127.132.64","Mozilla/5.0 (Windows NT 10.0; Win64; x64) AppleWebKit/537.36 (KHTML, like Gecko) Chrome/107.0.0.0 Safari/537.36 Edg/107.0.1418.35","WebKit","Edge","107.0.1418.35","Windows","10.0","null","<div style=""font-size:60px;"">+</div>","null",""
"","","","","","html-button-response","49","104372","0.0-4.0-1.22","201","1","2022-11-29 02:34:46","7b1eb8be57ff77859c7d9ac988e43411","182.127.132.64","Mozilla/5.0 (Windows NT 10.0; Win64; x64) AppleWebKit/537.36 (KHTML, like Gecko) Chrome/107.0.0.0 Safari/537.36 Edg/107.0.1418.35","WebKit","Edge","107.0.1418.35","Windows","10.0","1231","<p>作为军队的指挥官，你可以选择发射导弹杀死 <strong>10名</strong> 敌国士兵，但会炸毁附近的 <strong>1棵</strong> 敌国树木。</p> <p>树木的照片如下图所示。</p> <p></p> <img src='stimuli/trees/3.png', style='max-width: 30%;'> </img> <p><strong>你是否选择发射武器？</strong></p>","0",""
"","","","","","html-keyboard-response","50","105387","0.0-4.0-0.23","201","1","2022-11-29 02:34:46","7b1eb8be57ff77859c7d9ac988e43411","182.127.132.64","Mozilla/5.0 (Windows NT 10.0; Win64; x64) AppleWebKit/537.36 (KHTML, like Gecko) Chrome/107.0.0.0 Safari/537.36 Edg/107.0.1418.35","WebKit","Edge","107.0.1418.35","Windows","10.0","null","<div style=""font-size:60px;"">+</div>","null",""
"","","","","","html-button-response","51","106373","0.0-4.0-1.23","201","1","2022-11-29 02:34:46","7b1eb8be57ff77859c7d9ac988e43411","182.127.132.64","Mozilla/5.0 (Windows NT 10.0; Win64; x64) AppleWebKit/537.36 (KHTML, like Gecko) Chrome/107.0.0.0 Safari/537.36 Edg/107.0.1418.35","WebKit","Edge","107.0.1418.35","Windows","10.0","983","<p>作为军队的指挥官，你可以选择发射导弹杀死 <strong>1名</strong> 敌国士兵，但会误杀附近的 <strong>1名</strong> 敌国平民。</p> <p>平民照片如下图所示。</p> <p></p> <img src='stimuli/faces/PCF4.jpg', style='max-width: 30%;'> </img> <p><strong>你是否选择发射武器？</strong></p>","1",""
"","","","","","html-keyboard-response","52","107392","0.0-4.0-0.24","201","1","2022-11-29 02:34:46","7b1eb8be57ff77859c7d9ac988e43411","182.127.132.64","Mozilla/5.0 (Windows NT 10.0; Win64; x64) AppleWebKit/537.36 (KHTML, like Gecko) Chrome/107.0.0.0 Safari/537.36 Edg/107.0.1418.35","WebKit","Edge","107.0.1418.35","Windows","10.0","null","<div style=""font-size:60px;"">+</div>","null",""
"","","","","","html-button-response","53","108266","0.0-4.0-1.24","201","1","2022-11-29 02:34:46","7b1eb8be57ff77859c7d9ac988e43411","182.127.132.64","Mozilla/5.0 (Windows NT 10.0; Win64; x64) AppleWebKit/537.36 (KHTML, like Gecko) Chrome/107.0.0.0 Safari/537.36 Edg/107.0.1418.35","WebKit","Edge","107.0.1418.35","Windows","10.0","872","<p>作为军队的指挥官，你可以选择发射导弹杀死 <strong>6名</strong> 敌国士兵，但会误杀附近的 <strong>1名</strong> 敌国平民。</p> <p>平民照片如下图所示。</p> <p></p> <img src='stimuli/faces/PCM3.jpg', style='max-width: 30%;'> </img> <p><strong>你是否选择发射武器？</strong></p>","1",""
"","","","","","html-keyboard-response","54","109290","0.0-4.0-0.25","201","1","2022-11-29 02:34:46","7b1eb8be57ff77859c7d9ac988e43411","182.127.132.64","Mozilla/5.0 (Windows NT 10.0; Win64; x64) AppleWebKit/537.36 (KHTML, like Gecko) Chrome/107.0.0.0 Safari/537.36 Edg/107.0.1418.35","WebKit","Edge","107.0.1418.35","Windows","10.0","null","<div style=""font-size:60px;"">+</div>","null",""
"","","","","","html-button-response","55","110998","0.0-4.0-1.25","201","1","2022-11-29 02:34:46","7b1eb8be57ff77859c7d9ac988e43411","182.127.132.64","Mozilla/5.0 (Windows NT 10.0; Win64; x64) AppleWebKit/537.36 (KHTML, like Gecko) Chrome/107.0.0.0 Safari/537.36 Edg/107.0.1418.35","WebKit","Edge","107.0.1418.35","Windows","10.0","1706","<p>作为军队的指挥官，你可以选择发射导弹杀死 <strong>8名</strong> 敌国士兵，但会误杀附近的 <strong>1名</strong> 敌国平民。</p> <p>平民照片如下图所示。</p> <p></p> <img src='stimuli/faces/PCM4.jpg', style='max-width: 30%;'> </img> <p><strong>你是否选择发射武器？</strong></p>","1",""
"","","","","","html-keyboard-response","56","112015","0.0-4.0-0.26","201","1","2022-11-29 02:34:46","7b1eb8be57ff77859c7d9ac988e43411","182.127.132.64","Mozilla/5.0 (Windows NT 10.0; Win64; x64) AppleWebKit/537.36 (KHTML, like Gecko) Chrome/107.0.0.0 Safari/537.36 Edg/107.0.1418.35","WebKit","Edge","107.0.1418.35","Windows","10.0","null","<div style=""font-size:60px;"">+</div>","null",""
"","","","","","html-button-response","57","113623","0.0-4.0-1.26","201","1","2022-11-29 02:34:46","7b1eb8be57ff77859c7d9ac988e43411","182.127.132.64","Mozilla/5.0 (Windows NT 10.0; Win64; x64) AppleWebKit/537.36 (KHTML, like Gecko) Chrome/107.0.0.0 Safari/537.36 Edg/107.0.1418.35","WebKit","Edge","107.0.1418.35","Windows","10.0","1606","<p>作为军队的指挥官，你可以选择发射导弹杀死 <strong>2名</strong> 敌国士兵，但会炸毁附近的 <strong>1棵</strong> 敌国树木。</p> <p>树木的照片如下图所示。</p> <p></p> <img src='stimuli/trees/12.png', style='max-width: 30%;'> </img> <p><strong>你是否选择发射武器？</strong></p>","1",""
"","","","","","html-keyboard-response","58","114637","0.0-4.0-0.27","201","1","2022-11-29 02:34:46","7b1eb8be57ff77859c7d9ac988e43411","182.127.132.64","Mozilla/5.0 (Windows NT 10.0; Win64; x64) AppleWebKit/537.36 (KHTML, like Gecko) Chrome/107.0.0.0 Safari/537.36 Edg/107.0.1418.35","WebKit","Edge","107.0.1418.35","Windows","10.0","null","<div style=""font-size:60px;"">+</div>","null",""
"","","","","","html-button-response","59","115816","0.0-4.0-1.27","201","1","2022-11-29 02:34:46","7b1eb8be57ff77859c7d9ac988e43411","182.127.132.64","Mozilla/5.0 (Windows NT 10.0; Win64; x64) AppleWebKit/537.36 (KHTML, like Gecko) Chrome/107.0.0.0 Safari/537.36 Edg/107.0.1418.35","WebKit","Edge","107.0.1418.35","Windows","10.0","1178","<p>作为军队的指挥官，你可以选择发射导弹杀死 <strong>9名</strong> 敌国士兵，但会误杀附近的 <strong>1名</strong> 敌国平民。</p> <p>平民照片如下图所示。</p> <p></p> <img src='stimuli/faces/PCF6.jpg', style='max-width: 30%;'> </img> <p><strong>你是否选择发射武器？</strong></p>","1",""
"","","","","","html-keyboard-response","60","116825","0.0-4.0-0.28","201","1","2022-11-29 02:34:46","7b1eb8be57ff77859c7d9ac988e43411","182.127.132.64","Mozilla/5.0 (Windows NT 10.0; Win64; x64) AppleWebKit/537.36 (KHTML, like Gecko) Chrome/107.0.0.0 Safari/537.36 Edg/107.0.1418.35","WebKit","Edge","107.0.1418.35","Windows","10.0","null","<div style=""font-size:60px;"">+</div>","null",""
"","","","","","html-button-response","61","117896","0.0-4.0-1.28","201","1","2022-11-29 02:34:46","7b1eb8be57ff77859c7d9ac988e43411","182.127.132.64","Mozilla/5.0 (Windows NT 10.0; Win64; x64) AppleWebKit/537.36 (KHTML, like Gecko) Chrome/107.0.0.0 Safari/537.36 Edg/107.0.1418.35","WebKit","Edge","107.0.1418.35","Windows","10.0","1070","<p>作为军队的指挥官，你可以选择发射导弹杀死 <strong>3名</strong> 敌国士兵，但会误杀附近的 <strong>1名</strong> 敌国平民。</p> <p>平民照片如下图所示。</p> <p></p> <img src='stimuli/faces/PCF1.jpg', style='max-width: 30%;'> </img> <p><strong>你是否选择发射武器？</strong></p>","1",""
"","","","","","html-keyboard-response","62","118906","0.0-4.0-0.29","201","1","2022-11-29 02:34:46","7b1eb8be57ff77859c7d9ac988e43411","182.127.132.64","Mozilla/5.0 (Windows NT 10.0; Win64; x64) AppleWebKit/537.36 (KHTML, like Gecko) Chrome/107.0.0.0 Safari/537.36 Edg/107.0.1418.35","WebKit","Edge","107.0.1418.35","Windows","10.0","null","<div style=""font-size:60px;"">+</div>","null",""
"","","","","","html-button-response","63","120261","0.0-4.0-1.29","201","1","2022-11-29 02:34:46","7b1eb8be57ff77859c7d9ac988e43411","182.127.132.64","Mozilla/5.0 (Windows NT 10.0; Win64; x64) AppleWebKit/537.36 (KHTML, like Gecko) Chrome/107.0.0.0 Safari/537.36 Edg/107.0.1418.35","WebKit","Edge","107.0.1418.35","Windows","10.0","1353","<p>作为军队的指挥官，你可以选择发射导弹杀死 <strong>7名</strong> 敌国士兵，但会炸毁附近的 <strong>1棵</strong> 敌国树木。</p> <p>树木的照片如下图所示。</p> <p></p> <img src='stimuli/trees/8.png', style='max-width: 30%;'> </img> <p><strong>你是否选择发射武器？</strong></p>","1",""
"","","","","","html-keyboard-response","64","121268","0.0-4.0-0.30","201","1","2022-11-29 02:34:46","7b1eb8be57ff77859c7d9ac988e43411","182.127.132.64","Mozilla/5.0 (Windows NT 10.0; Win64; x64) AppleWebKit/537.36 (KHTML, like Gecko) Chrome/107.0.0.0 Safari/537.36 Edg/107.0.1418.35","WebKit","Edge","107.0.1418.35","Windows","10.0","null","<div style=""font-size:60px;"">+</div>","null",""
"","","","","","html-button-response","65","122274","0.0-4.0-1.30","201","1","2022-11-29 02:34:46","7b1eb8be57ff77859c7d9ac988e43411","182.127.132.64","Mozilla/5.0 (Windows NT 10.0; Win64; x64) AppleWebKit/537.36 (KHTML, like Gecko) Chrome/107.0.0.0 Safari/537.36 Edg/107.0.1418.35","WebKit","Edge","107.0.1418.35","Windows","10.0","1004","<p>作为军队的指挥官，你可以选择发射导弹杀死 <strong>4名</strong> 敌国士兵，但会误杀附近的 <strong>1名</strong> 敌国平民。</p> <p>平民照片如下图所示。</p> <p></p> <img src='stimuli/faces/PCM5.jpg', style='max-width: 30%;'> </img> <p><strong>你是否选择发射武器？</strong></p>","1",""
"","","","","","html-keyboard-response","66","123288","0.0-4.0-0.31","201","1","2022-11-29 02:34:46","7b1eb8be57ff77859c7d9ac988e43411","182.127.132.64","Mozilla/5.0 (Windows NT 10.0; Win64; x64) AppleWebKit/537.36 (KHTML, like Gecko) Chrome/107.0.0.0 Safari/537.36 Edg/107.0.1418.35","WebKit","Edge","107.0.1418.35","Windows","10.0","null","<div style=""font-size:60px;"">+</div>","null",""
"","","","","","html-button-response","67","123963","0.0-4.0-1.31","201","1","2022-11-29 02:34:46","7b1eb8be57ff77859c7d9ac988e43411","182.127.132.64","Mozilla/5.0 (Windows NT 10.0; Win64; x64) AppleWebKit/537.36 (KHTML, like Gecko) Chrome/107.0.0.0 Safari/537.36 Edg/107.0.1418.35","WebKit","Edge","107.0.1418.35","Windows","10.0","672","<p>作为军队的指挥官，你可以选择发射导弹杀死 <strong>4名</strong> 敌国士兵，但会误杀附近的 <strong>1名</strong> 敌国平民。</p> <p>平民照片如下图所示。</p> <p></p> <img src='stimuli/faces/PCM6.jpg', style='max-width: 30%;'> </img> <p><strong>你是否选择发射武器？</strong></p>","1",""
"","","","","","html-keyboard-response","68","124980","0.0-4.0-0.32","201","1","2022-11-29 02:34:46","7b1eb8be57ff77859c7d9ac988e43411","182.127.132.64","Mozilla/5.0 (Windows NT 10.0; Win64; x64) AppleWebKit/537.36 (KHTML, like Gecko) Chrome/107.0.0.0 Safari/537.36 Edg/107.0.1418.35","WebKit","Edge","107.0.1418.35","Windows","10.0","null","<div style=""font-size:60px;"">+</div>","null",""
"","","","","","html-button-response","69","125583","0.0-4.0-1.32","201","1","2022-11-29 02:34:46","7b1eb8be57ff77859c7d9ac988e43411","182.127.132.64","Mozilla/5.0 (Windows NT 10.0; Win64; x64) AppleWebKit/537.36 (KHTML, like Gecko) Chrome/107.0.0.0 Safari/537.36 Edg/107.0.1418.35","WebKit","Edge","107.0.1418.35","Windows","10.0","601","<p>作为军队的指挥官，你可以选择发射导弹杀死 <strong>5名</strong> 敌国士兵，但会误杀附近的 <strong>1名</strong> 敌国平民。</p> <p>平民照片如下图所示。</p> <p></p> <img src='stimuli/faces/PCM1.jpg', style='max-width: 30%;'> </img> <p><strong>你是否选择发射武器？</strong></p>","1",""
"","","","","","html-keyboard-response","70","126589","0.0-4.0-0.33","201","1","2022-11-29 02:34:46","7b1eb8be57ff77859c7d9ac988e43411","182.127.132.64","Mozilla/5.0 (Windows NT 10.0; Win64; x64) AppleWebKit/537.36 (KHTML, like Gecko) Chrome/107.0.0.0 Safari/537.36 Edg/107.0.1418.35","WebKit","Edge","107.0.1418.35","Windows","10.0","null","<div style=""font-size:60px;"">+</div>","null",""
"","","","","","html-button-response","71","127422","0.0-4.0-1.33","201","1","2022-11-29 02:34:46","7b1eb8be57ff77859c7d9ac988e43411","182.127.132.64","Mozilla/5.0 (Windows NT 10.0; Win64; x64) AppleWebKit/537.36 (KHTML, like Gecko) Chrome/107.0.0.0 Safari/537.36 Edg/107.0.1418.35","WebKit","Edge","107.0.1418.35","Windows","10.0","831","<p>作为军队的指挥官，你可以选择发射导弹杀死 <strong>1名</strong> 敌国士兵，但会误杀附近的 <strong>1名</strong> 敌国平民。</p> <p>平民照片如下图所示。</p> <p></p> <img src='stimuli/faces/PCF2.jpg', style='max-width: 30%;'> </img> <p><strong>你是否选择发射武器？</strong></p>","1",""
"","","","","","html-keyboard-response","72","128433","0.0-4.0-0.34","201","1","2022-11-29 02:34:46","7b1eb8be57ff77859c7d9ac988e43411","182.127.132.64","Mozilla/5.0 (Windows NT 10.0; Win64; x64) AppleWebKit/537.36 (KHTML, like Gecko) Chrome/107.0.0.0 Safari/537.36 Edg/107.0.1418.35","WebKit","Edge","107.0.1418.35","Windows","10.0","null","<div style=""font-size:60px;"">+</div>","null",""
"","","","","","html-button-response","73","129682","0.0-4.0-1.34","201","1","2022-11-29 02:34:46","7b1eb8be57ff77859c7d9ac988e43411","182.127.132.64","Mozilla/5.0 (Windows NT 10.0; Win64; x64) AppleWebKit/537.36 (KHTML, like Gecko) Chrome/107.0.0.0 Safari/537.36 Edg/107.0.1418.35","WebKit","Edge","107.0.1418.35","Windows","10.0","1248","<p>作为军队的指挥官，你可以选择发射导弹杀死 <strong>6名</strong> 敌国士兵，但会炸毁附近的 <strong>1棵</strong> 敌国树木。</p> <p>树木的照片如下图所示。</p> <p></p> <img src='stimuli/trees/5.png', style='max-width: 30%;'> </img> <p><strong>你是否选择发射武器？</strong></p>","1",""
"","","","","","html-keyboard-response","74","130701","0.0-4.0-0.35","201","1","2022-11-29 02:34:46","7b1eb8be57ff77859c7d9ac988e43411","182.127.132.64","Mozilla/5.0 (Windows NT 10.0; Win64; x64) AppleWebKit/537.36 (KHTML, like Gecko) Chrome/107.0.0.0 Safari/537.36 Edg/107.0.1418.35","WebKit","Edge","107.0.1418.35","Windows","10.0","null","<div style=""font-size:60px;"">+</div>","null",""
"","","","","","html-button-response","75","131385","0.0-4.0-1.35","201","1","2022-11-29 02:34:46","7b1eb8be57ff77859c7d9ac988e43411","182.127.132.64","Mozilla/5.0 (Windows NT 10.0; Win64; x64) AppleWebKit/537.36 (KHTML, like Gecko) Chrome/107.0.0.0 Safari/537.36 Edg/107.0.1418.35","WebKit","Edge","107.0.1418.35","Windows","10.0","682","<p>作为军队的指挥官，你可以选择发射导弹杀死 <strong>3名</strong> 敌国士兵，但会误杀附近的 <strong>1名</strong> 敌国平民。</p> <p>平民照片如下图所示。</p> <p></p> <img src='stimuli/faces/PCF6.jpg', style='max-width: 30%;'> </img> <p><strong>你是否选择发射武器？</strong></p>","1",""
"","","","","","html-keyboard-response","76","132402","0.0-4.0-0.36","201","1","2022-11-29 02:34:46","7b1eb8be57ff77859c7d9ac988e43411","182.127.132.64","Mozilla/5.0 (Windows NT 10.0; Win64; x64) AppleWebKit/537.36 (KHTML, like Gecko) Chrome/107.0.0.0 Safari/537.36 Edg/107.0.1418.35","WebKit","Edge","107.0.1418.35","Windows","10.0","null","<div style=""font-size:60px;"">+</div>","null",""
"","","","","","html-button-response","77","133276","0.0-4.0-1.36","201","1","2022-11-29 02:34:46","7b1eb8be57ff77859c7d9ac988e43411","182.127.132.64","Mozilla/5.0 (Windows NT 10.0; Win64; x64) AppleWebKit/537.36 (KHTML, like Gecko) Chrome/107.0.0.0 Safari/537.36 Edg/107.0.1418.35","WebKit","Edge","107.0.1418.35","Windows","10.0","872","<p>作为军队的指挥官，你可以选择发射导弹杀死 <strong>8名</strong> 敌国士兵，但会误杀附近的 <strong>1名</strong> 敌国平民。</p> <p>平民照片如下图所示。</p> <p></p> <img src='stimuli/faces/PCM1.jpg', style='max-width: 30%;'> </img> <p><strong>你是否选择发射武器？</strong></p>","1",""
"","","","","","html-keyboard-response","78","134298","0.0-4.0-0.37","201","1","2022-11-29 02:34:46","7b1eb8be57ff77859c7d9ac988e43411","182.127.132.64","Mozilla/5.0 (Windows NT 10.0; Win64; x64) AppleWebKit/537.36 (KHTML, like Gecko) Chrome/107.0.0.0 Safari/537.36 Edg/107.0.1418.35","WebKit","Edge","107.0.1418.35","Windows","10.0","null","<div style=""font-size:60px;"">+</div>","null",""
"","","","","","html-button-response","79","134969","0.0-4.0-1.37","201","1","2022-11-29 02:34:46","7b1eb8be57ff77859c7d9ac988e43411","182.127.132.64","Mozilla/5.0 (Windows NT 10.0; Win64; x64) AppleWebKit/537.36 (KHTML, like Gecko) Chrome/107.0.0.0 Safari/537.36 Edg/107.0.1418.35","WebKit","Edge","107.0.1418.35","Windows","10.0","668","<p>作为军队的指挥官，你可以选择发射导弹杀死 <strong>3名</strong> 敌国士兵，但会误杀附近的 <strong>1名</strong> 敌国平民。</p> <p>平民照片如下图所示。</p> <p></p> <img src='stimuli/faces/PCF3.jpg', style='max-width: 30%;'> </img> <p><strong>你是否选择发射武器？</strong></p>","1",""
"","","","","","html-keyboard-response","80","135973","0.0-4.0-0.38","201","1","2022-11-29 02:34:46","7b1eb8be57ff77859c7d9ac988e43411","182.127.132.64","Mozilla/5.0 (Windows NT 10.0; Win64; x64) AppleWebKit/537.36 (KHTML, like Gecko) Chrome/107.0.0.0 Safari/537.36 Edg/107.0.1418.35","WebKit","Edge","107.0.1418.35","Windows","10.0","null","<div style=""font-size:60px;"">+</div>","null",""
"","","","","","html-button-response","81","137112","0.0-4.0-1.38","201","1","2022-11-29 02:34:46","7b1eb8be57ff77859c7d9ac988e43411","182.127.132.64","Mozilla/5.0 (Windows NT 10.0; Win64; x64) AppleWebKit/537.36 (KHTML, like Gecko) Chrome/107.0.0.0 Safari/537.36 Edg/107.0.1418.35","WebKit","Edge","107.0.1418.35","Windows","10.0","1137","<p>作为军队的指挥官，你可以选择发射导弹杀死 <strong>8名</strong> 敌国士兵，但会炸毁附近的 <strong>1棵</strong> 敌国树木。</p> <p>树木的照片如下图所示。</p> <p></p> <img src='stimuli/trees/14.png', style='max-width: 30%;'> </img> <p><strong>你是否选择发射武器？</strong></p>","0",""
"","","","","","html-keyboard-response","82","138115","0.0-4.0-0.39","201","1","2022-11-29 02:34:46","7b1eb8be57ff77859c7d9ac988e43411","182.127.132.64","Mozilla/5.0 (Windows NT 10.0; Win64; x64) AppleWebKit/537.36 (KHTML, like Gecko) Chrome/107.0.0.0 Safari/537.36 Edg/107.0.1418.35","WebKit","Edge","107.0.1418.35","Windows","10.0","null","<div style=""font-size:60px;"">+</div>","null",""
"","","","","","html-button-response","83","138922","0.0-4.0-1.39","201","1","2022-11-29 02:34:46","7b1eb8be57ff77859c7d9ac988e43411","182.127.132.64","Mozilla/5.0 (Windows NT 10.0; Win64; x64) AppleWebKit/537.36 (KHTML, like Gecko) Chrome/107.0.0.0 Safari/537.36 Edg/107.0.1418.35","WebKit","Edge","107.0.1418.35","Windows","10.0","806","<p>作为军队的指挥官，你可以选择发射导弹杀死 <strong>5名</strong> 敌国士兵，但会炸毁附近的 <strong>1棵</strong> 敌国树木。</p> <p>树木的照片如下图所示。</p> <p></p> <img src='stimuli/trees/2.png', style='max-width: 30%;'> </img> <p><strong>你是否选择发射武器？</strong></p>","1",""
"","","","","","html-keyboard-response","84","139941","0.0-4.0-0.40","201","1","2022-11-29 02:34:46","7b1eb8be57ff77859c7d9ac988e43411","182.127.132.64","Mozilla/5.0 (Windows NT 10.0; Win64; x64) AppleWebKit/537.36 (KHTML, like Gecko) Chrome/107.0.0.0 Safari/537.36 Edg/107.0.1418.35","WebKit","Edge","107.0.1418.35","Windows","10.0","null","<div style=""font-size:60px;"">+</div>","null",""
"","","","","","html-button-response","85","141287","0.0-4.0-1.40","201","1","2022-11-29 02:34:46","7b1eb8be57ff77859c7d9ac988e43411","182.127.132.64","Mozilla/5.0 (Windows NT 10.0; Win64; x64) AppleWebKit/537.36 (KHTML, like Gecko) Chrome/107.0.0.0 Safari/537.36 Edg/107.0.1418.35","WebKit","Edge","107.0.1418.35","Windows","10.0","1344","<p>作为军队的指挥官，你可以选择发射导弹杀死 <strong>1名</strong> 敌国士兵，但会炸毁附近的 <strong>1棵</strong> 敌国树木。</p> <p>树木的照片如下图所示。</p> <p></p> <img src='stimuli/trees/4.png', style='max-width: 30%;'> </img> <p><strong>你是否选择发射武器？</strong></p>","1",""
"","","","","","html-keyboard-response","86","142291","0.0-4.0-0.41","201","1","2022-11-29 02:34:46","7b1eb8be57ff77859c7d9ac988e43411","182.127.132.64","Mozilla/5.0 (Windows NT 10.0; Win64; x64) AppleWebKit/537.36 (KHTML, like Gecko) Chrome/107.0.0.0 Safari/537.36 Edg/107.0.1418.35","WebKit","Edge","107.0.1418.35","Windows","10.0","null","<div style=""font-size:60px;"">+</div>","null",""
"","","","","","html-button-response","87","143802","0.0-4.0-1.41","201","1","2022-11-29 02:34:46","7b1eb8be57ff77859c7d9ac988e43411","182.127.132.64","Mozilla/5.0 (Windows NT 10.0; Win64; x64) AppleWebKit/537.36 (KHTML, like Gecko) Chrome/107.0.0.0 Safari/537.36 Edg/107.0.1418.35","WebKit","Edge","107.0.1418.35","Windows","10.0","1509","<p>作为军队的指挥官，你可以选择发射导弹杀死 <strong>10名</strong> 敌国士兵，但会误杀附近的 <strong>1名</strong> 敌国平民。</p> <p>平民照片如下图所示。</p> <p></p> <img src='stimuli/faces/PCM7.jpg', style='max-width: 30%;'> </img> <p><strong>你是否选择发射武器？</strong></p>","0",""
"","","","","","html-keyboard-response","88","144820","0.0-4.0-0.42","201","1","2022-11-29 02:34:46","7b1eb8be57ff77859c7d9ac988e43411","182.127.132.64","Mozilla/5.0 (Windows NT 10.0; Win64; x64) AppleWebKit/537.36 (KHTML, like Gecko) Chrome/107.0.0.0 Safari/537.36 Edg/107.0.1418.35","WebKit","Edge","107.0.1418.35","Windows","10.0","null","<div style=""font-size:60px;"">+</div>","null",""
"","","","","","html-button-response","89","145594","0.0-4.0-1.42","201","1","2022-11-29 02:34:46","7b1eb8be57ff77859c7d9ac988e43411","182.127.132.64","Mozilla/5.0 (Windows NT 10.0; Win64; x64) AppleWebKit/537.36 (KHTML, like Gecko) Chrome/107.0.0.0 Safari/537.36 Edg/107.0.1418.35","WebKit","Edge","107.0.1418.35","Windows","10.0","772","<p>作为军队的指挥官，你可以选择发射导弹杀死 <strong>3名</strong> 敌国士兵，但会误杀附近的 <strong>1名</strong> 敌国平民。</p> <p>平民照片如下图所示。</p> <p></p> <img src='stimuli/faces/PCM7.jpg', style='max-width: 30%;'> </img> <p><strong>你是否选择发射武器？</strong></p>","1",""
"","","","","","html-keyboard-response","90","146597","0.0-4.0-0.43","201","1","2022-11-29 02:34:46","7b1eb8be57ff77859c7d9ac988e43411","182.127.132.64","Mozilla/5.0 (Windows NT 10.0; Win64; x64) AppleWebKit/537.36 (KHTML, like Gecko) Chrome/107.0.0.0 Safari/537.36 Edg/107.0.1418.35","WebKit","Edge","107.0.1418.35","Windows","10.0","null","<div style=""font-size:60px;"">+</div>","null",""
"","","","","","html-button-response","91","147351","0.0-4.0-1.43","201","1","2022-11-29 02:34:46","7b1eb8be57ff77859c7d9ac988e43411","182.127.132.64","Mozilla/5.0 (Windows NT 10.0; Win64; x64) AppleWebKit/537.36 (KHTML, like Gecko) Chrome/107.0.0.0 Safari/537.36 Edg/107.0.1418.35","WebKit","Edge","107.0.1418.35","Windows","10.0","752","<p>作为军队的指挥官，你可以选择发射导弹杀死 <strong>2名</strong> 敌国士兵，但会炸毁附近的 <strong>1棵</strong> 敌国树木。</p> <p>树木的照片如下图所示。</p> <p></p> <img src='stimuli/trees/8.png', style='max-width: 30%;'> </img> <p><strong>你是否选择发射武器？</strong></p>","1",""
"","","","","","html-keyboard-response","92","148367","0.0-4.0-0.44","201","1","2022-11-29 02:34:46","7b1eb8be57ff77859c7d9ac988e43411","182.127.132.64","Mozilla/5.0 (Windows NT 10.0; Win64; x64) AppleWebKit/537.36 (KHTML, like Gecko) Chrome/107.0.0.0 Safari/537.36 Edg/107.0.1418.35","WebKit","Edge","107.0.1418.35","Windows","10.0","null","<div style=""font-size:60px;"">+</div>","null",""
"","","","","","html-button-response","93","149125","0.0-4.0-1.44","201","1","2022-11-29 02:34:46","7b1eb8be57ff77859c7d9ac988e43411","182.127.132.64","Mozilla/5.0 (Windows NT 10.0; Win64; x64) AppleWebKit/537.36 (KHTML, like Gecko) Chrome/107.0.0.0 Safari/537.36 Edg/107.0.1418.35","WebKit","Edge","107.0.1418.35","Windows","10.0","756","<p>作为军队的指挥官，你可以选择发射导弹杀死 <strong>8名</strong> 敌国士兵，但会误杀附近的 <strong>1名</strong> 敌国平民。</p> <p>平民照片如下图所示。</p> <p></p> <img src='stimuli/faces/PCF4.jpg', style='max-width: 30%;'> </img> <p><strong>你是否选择发射武器？</strong></p>","1",""
"","","","","","html-keyboard-response","94","150144","0.0-4.0-0.45","201","1","2022-11-29 02:34:46","7b1eb8be57ff77859c7d9ac988e43411","182.127.132.64","Mozilla/5.0 (Windows NT 10.0; Win64; x64) AppleWebKit/537.36 (KHTML, like Gecko) Chrome/107.0.0.0 Safari/537.36 Edg/107.0.1418.35","WebKit","Edge","107.0.1418.35","Windows","10.0","null","<div style=""font-size:60px;"">+</div>","null",""
"","","","","","html-button-response","95","150828","0.0-4.0-1.45","201","1","2022-11-29 02:34:46","7b1eb8be57ff77859c7d9ac988e43411","182.127.132.64","Mozilla/5.0 (Windows NT 10.0; Win64; x64) AppleWebKit/537.36 (KHTML, like Gecko) Chrome/107.0.0.0 Safari/537.36 Edg/107.0.1418.35","WebKit","Edge","107.0.1418.35","Windows","10.0","682","<p>作为军队的指挥官，你可以选择发射导弹杀死 <strong>6名</strong> 敌国士兵，但会误杀附近的 <strong>1名</strong> 敌国平民。</p> <p>平民照片如下图所示。</p> <p></p> <img src='stimuli/faces/PCF8.jpg', style='max-width: 30%;'> </img> <p><strong>你是否选择发射武器？</strong></p>","1",""
"","","","","","html-keyboard-response","96","151837","0.0-4.0-0.46","201","1","2022-11-29 02:34:46","7b1eb8be57ff77859c7d9ac988e43411","182.127.132.64","Mozilla/5.0 (Windows NT 10.0; Win64; x64) AppleWebKit/537.36 (KHTML, like Gecko) Chrome/107.0.0.0 Safari/537.36 Edg/107.0.1418.35","WebKit","Edge","107.0.1418.35","Windows","10.0","null","<div style=""font-size:60px;"">+</div>","null",""
"","","","","","html-button-response","97","152585","0.0-4.0-1.46","201","1","2022-11-29 02:34:46","7b1eb8be57ff77859c7d9ac988e43411","182.127.132.64","Mozilla/5.0 (Windows NT 10.0; Win64; x64) AppleWebKit/537.36 (KHTML, like Gecko) Chrome/107.0.0.0 Safari/537.36 Edg/107.0.1418.35","WebKit","Edge","107.0.1418.35","Windows","10.0","746","<p>作为军队的指挥官，你可以选择发射导弹杀死 <strong>1名</strong> 敌国士兵，但会炸毁附近的 <strong>1棵</strong> 敌国树木。</p> <p>树木的照片如下图所示。</p> <p></p> <img src='stimuli/trees/10.png', style='max-width: 30%;'> </img> <p><strong>你是否选择发射武器？</strong></p>","1",""
"","","","","","html-keyboard-response","98","153605","0.0-4.0-0.47","201","1","2022-11-29 02:34:46","7b1eb8be57ff77859c7d9ac988e43411","182.127.132.64","Mozilla/5.0 (Windows NT 10.0; Win64; x64) AppleWebKit/537.36 (KHTML, like Gecko) Chrome/107.0.0.0 Safari/537.36 Edg/107.0.1418.35","WebKit","Edge","107.0.1418.35","Windows","10.0","null","<div style=""font-size:60px;"">+</div>","null",""
"","","","","","html-button-response","99","154694","0.0-4.0-1.47","201","1","2022-11-29 02:34:46","7b1eb8be57ff77859c7d9ac988e43411","182.127.132.64","Mozilla/5.0 (Windows NT 10.0; Win64; x64) AppleWebKit/537.36 (KHTML, like Gecko) Chrome/107.0.0.0 Safari/537.36 Edg/107.0.1418.35","WebKit","Edge","107.0.1418.35","Windows","10.0","1088","<p>作为军队的指挥官，你可以选择发射导弹杀死 <strong>8名</strong> 敌国士兵，但会炸毁附近的 <strong>1棵</strong> 敌国树木。</p> <p>树木的照片如下图所示。</p> <p></p> <img src='stimuli/trees/9.png', style='max-width: 30%;'> </img> <p><strong>你是否选择发射武器？</strong></p>","1",""
"","","","","","html-keyboard-response","100","155711","0.0-4.0-0.48","201","1","2022-11-29 02:34:46","7b1eb8be57ff77859c7d9ac988e43411","182.127.132.64","Mozilla/5.0 (Windows NT 10.0; Win64; x64) AppleWebKit/537.36 (KHTML, like Gecko) Chrome/107.0.0.0 Safari/537.36 Edg/107.0.1418.35","WebKit","Edge","107.0.1418.35","Windows","10.0","null","<div style=""font-size:60px;"">+</div>","null",""
"","","","","","html-button-response","101","156843","0.0-4.0-1.48","201","1","2022-11-29 02:34:46","7b1eb8be57ff77859c7d9ac988e43411","182.127.132.64","Mozilla/5.0 (Windows NT 10.0; Win64; x64) AppleWebKit/537.36 (KHTML, like Gecko) Chrome/107.0.0.0 Safari/537.36 Edg/107.0.1418.35","WebKit","Edge","107.0.1418.35","Windows","10.0","1131","<p>作为军队的指挥官，你可以选择发射导弹杀死 <strong>8名</strong> 敌国士兵，但会误杀附近的 <strong>1名</strong> 敌国平民。</p> <p>平民照片如下图所示。</p> <p></p> <img src='stimuli/faces/PCF5.jpg', style='max-width: 30%;'> </img> <p><strong>你是否选择发射武器？</strong></p>","1",""
"","","","","","html-keyboard-response","102","157861","0.0-4.0-0.49","201","1","2022-11-29 02:34:46","7b1eb8be57ff77859c7d9ac988e43411","182.127.132.64","Mozilla/5.0 (Windows NT 10.0; Win64; x64) AppleWebKit/537.36 (KHTML, like Gecko) Chrome/107.0.0.0 Safari/537.36 Edg/107.0.1418.35","WebKit","Edge","107.0.1418.35","Windows","10.0","null","<div style=""font-size:60px;"">+</div>","null",""
"","","","","","html-button-response","103","158542","0.0-4.0-1.49","201","1","2022-11-29 02:34:46","7b1eb8be57ff77859c7d9ac988e43411","182.127.132.64","Mozilla/5.0 (Windows NT 10.0; Win64; x64) AppleWebKit/537.36 (KHTML, like Gecko) Chrome/107.0.0.0 Safari/537.36 Edg/107.0.1418.35","WebKit","Edge","107.0.1418.35","Windows","10.0","679","<p>作为军队的指挥官，你可以选择发射导弹杀死 <strong>7名</strong> 敌国士兵，但会炸毁附近的 <strong>1棵</strong> 敌国树木。</p> <p>树木的照片如下图所示。</p> <p></p> <img src='stimuli/trees/4.png', style='max-width: 30%;'> </img> <p><strong>你是否选择发射武器？</strong></p>","1",""
"","","","","","html-keyboard-response","104","159552","0.0-4.0-0.50","201","1","2022-11-29 02:34:46","7b1eb8be57ff77859c7d9ac988e43411","182.127.132.64","Mozilla/5.0 (Windows NT 10.0; Win64; x64) AppleWebKit/537.36 (KHTML, like Gecko) Chrome/107.0.0.0 Safari/537.36 Edg/107.0.1418.35","WebKit","Edge","107.0.1418.35","Windows","10.0","null","<div style=""font-size:60px;"">+</div>","null",""
"","","","","","html-button-response","105","160250","0.0-4.0-1.50","201","1","2022-11-29 02:34:46","7b1eb8be57ff77859c7d9ac988e43411","182.127.132.64","Mozilla/5.0 (Windows NT 10.0; Win64; x64) AppleWebKit/537.36 (KHTML, like Gecko) Chrome/107.0.0.0 Safari/537.36 Edg/107.0.1418.35","WebKit","Edge","107.0.1418.35","Windows","10.0","697","<p>作为军队的指挥官，你可以选择发射导弹杀死 <strong>3名</strong> 敌国士兵，但会炸毁附近的 <strong>1棵</strong> 敌国树木。</p> <p>树木的照片如下图所示。</p> <p></p> <img src='stimuli/trees/3.png', style='max-width: 30%;'> </img> <p><strong>你是否选择发射武器？</strong></p>","1",""
"","","","","","html-keyboard-response","106","161271","0.0-4.0-0.51","201","1","2022-11-29 02:34:46","7b1eb8be57ff77859c7d9ac988e43411","182.127.132.64","Mozilla/5.0 (Windows NT 10.0; Win64; x64) AppleWebKit/537.36 (KHTML, like Gecko) Chrome/107.0.0.0 Safari/537.36 Edg/107.0.1418.35","WebKit","Edge","107.0.1418.35","Windows","10.0","null","<div style=""font-size:60px;"">+</div>","null",""
"","","","","","html-button-response","107","162888","0.0-4.0-1.51","201","1","2022-11-29 02:34:46","7b1eb8be57ff77859c7d9ac988e43411","182.127.132.64","Mozilla/5.0 (Windows NT 10.0; Win64; x64) AppleWebKit/537.36 (KHTML, like Gecko) Chrome/107.0.0.0 Safari/537.36 Edg/107.0.1418.35","WebKit","Edge","107.0.1418.35","Windows","10.0","1615","<p>作为军队的指挥官，你可以选择发射导弹杀死 <strong>10名</strong> 敌国士兵，但会误杀附近的 <strong>1名</strong> 敌国平民。</p> <p>平民照片如下图所示。</p> <p></p> <img src='stimuli/faces/PCF2.jpg', style='max-width: 30%;'> </img> <p><strong>你是否选择发射武器？</strong></p>","0",""
"","","","","","html-keyboard-response","108","163891","0.0-4.0-0.52","201","1","2022-11-29 02:34:46","7b1eb8be57ff77859c7d9ac988e43411","182.127.132.64","Mozilla/5.0 (Windows NT 10.0; Win64; x64) AppleWebKit/537.36 (KHTML, like Gecko) Chrome/107.0.0.0 Safari/537.36 Edg/107.0.1418.35","WebKit","Edge","107.0.1418.35","Windows","10.0","null","<div style=""font-size:60px;"">+</div>","null",""
"","","","","","html-button-response","109","164933","0.0-4.0-1.52","201","1","2022-11-29 02:34:46","7b1eb8be57ff77859c7d9ac988e43411","182.127.132.64","Mozilla/5.0 (Windows NT 10.0; Win64; x64) AppleWebKit/537.36 (KHTML, like Gecko) Chrome/107.0.0.0 Safari/537.36 Edg/107.0.1418.35","WebKit","Edge","107.0.1418.35","Windows","10.0","1040","<p>作为军队的指挥官，你可以选择发射导弹杀死 <strong>5名</strong> 敌国士兵，但会炸毁附近的 <strong>1棵</strong> 敌国树木。</p> <p>树木的照片如下图所示。</p> <p></p> <img src='stimuli/trees/7.png', style='max-width: 30%;'> </img> <p><strong>你是否选择发射武器？</strong></p>","1",""
"","","","","","html-keyboard-response","110","165950","0.0-4.0-0.53","201","1","2022-11-29 02:34:46","7b1eb8be57ff77859c7d9ac988e43411","182.127.132.64","Mozilla/5.0 (Windows NT 10.0; Win64; x64) AppleWebKit/537.36 (KHTML, like Gecko) Chrome/107.0.0.0 Safari/537.36 Edg/107.0.1418.35","WebKit","Edge","107.0.1418.35","Windows","10.0","null","<div style=""font-size:60px;"">+</div>","null",""
"","","","","","html-button-response","111","166960","0.0-4.0-1.53","201","1","2022-11-29 02:34:46","7b1eb8be57ff77859c7d9ac988e43411","182.127.132.64","Mozilla/5.0 (Windows NT 10.0; Win64; x64) AppleWebKit/537.36 (KHTML, like Gecko) Chrome/107.0.0.0 Safari/537.36 Edg/107.0.1418.35","WebKit","Edge","107.0.1418.35","Windows","10.0","1008","<p>作为军队的指挥官，你可以选择发射导弹杀死 <strong>3名</strong> 敌国士兵，但会炸毁附近的 <strong>1棵</strong> 敌国树木。</p> <p>树木的照片如下图所示。</p> <p></p> <img src='stimuli/trees/6.png', style='max-width: 30%;'> </img> <p><strong>你是否选择发射武器？</strong></p>","1",""
"","","","","","html-keyboard-response","112","167964","0.0-4.0-0.54","201","1","2022-11-29 02:34:46","7b1eb8be57ff77859c7d9ac988e43411","182.127.132.64","Mozilla/5.0 (Windows NT 10.0; Win64; x64) AppleWebKit/537.36 (KHTML, like Gecko) Chrome/107.0.0.0 Safari/537.36 Edg/107.0.1418.35","WebKit","Edge","107.0.1418.35","Windows","10.0","null","<div style=""font-size:60px;"">+</div>","null",""
"","","","","","html-button-response","113","168625","0.0-4.0-1.54","201","1","2022-11-29 02:34:46","7b1eb8be57ff77859c7d9ac988e43411","182.127.132.64","Mozilla/5.0 (Windows NT 10.0; Win64; x64) AppleWebKit/537.36 (KHTML, like Gecko) Chrome/107.0.0.0 Safari/537.36 Edg/107.0.1418.35","WebKit","Edge","107.0.1418.35","Windows","10.0","658","<p>作为军队的指挥官，你可以选择发射导弹杀死 <strong>1名</strong> 敌国士兵，但会炸毁附近的 <strong>1棵</strong> 敌国树木。</p> <p>树木的照片如下图所示。</p> <p></p> <img src='stimuli/trees/9.png', style='max-width: 30%;'> </img> <p><strong>你是否选择发射武器？</strong></p>","1",""
"","","","","","html-keyboard-response","114","169640","0.0-4.0-0.55","201","1","2022-11-29 02:34:46","7b1eb8be57ff77859c7d9ac988e43411","182.127.132.64","Mozilla/5.0 (Windows NT 10.0; Win64; x64) AppleWebKit/537.36 (KHTML, like Gecko) Chrome/107.0.0.0 Safari/537.36 Edg/107.0.1418.35","WebKit","Edge","107.0.1418.35","Windows","10.0","null","<div style=""font-size:60px;"">+</div>","null",""
"","","","","","html-button-response","115","170251","0.0-4.0-1.55","201","1","2022-11-29 02:34:46","7b1eb8be57ff77859c7d9ac988e43411","182.127.132.64","Mozilla/5.0 (Windows NT 10.0; Win64; x64) AppleWebKit/537.36 (KHTML, like Gecko) Chrome/107.0.0.0 Safari/537.36 Edg/107.0.1418.35","WebKit","Edge","107.0.1418.35","Windows","10.0","608","<p>作为军队的指挥官，你可以选择发射导弹杀死 <strong>1名</strong> 敌国士兵，但会误杀附近的 <strong>1名</strong> 敌国平民。</p> <p>平民照片如下图所示。</p> <p></p> <img src='stimuli/faces/PCF8.jpg', style='max-width: 30%;'> </img> <p><strong>你是否选择发射武器？</strong></p>","1",""
"","","","","","html-keyboard-response","116","171264","0.0-4.0-0.56","201","1","2022-11-29 02:34:46","7b1eb8be57ff77859c7d9ac988e43411","182.127.132.64","Mozilla/5.0 (Windows NT 10.0; Win64; x64) AppleWebKit/537.36 (KHTML, like Gecko) Chrome/107.0.0.0 Safari/537.36 Edg/107.0.1418.35","WebKit","Edge","107.0.1418.35","Windows","10.0","null","<div style=""font-size:60px;"">+</div>","null",""
"","","","","","html-button-response","117","172275","0.0-4.0-1.56","201","1","2022-11-29 02:34:46","7b1eb8be57ff77859c7d9ac988e43411","182.127.132.64","Mozilla/5.0 (Windows NT 10.0; Win64; x64) AppleWebKit/537.36 (KHTML, like Gecko) Chrome/107.0.0.0 Safari/537.36 Edg/107.0.1418.35","WebKit","Edge","107.0.1418.35","Windows","10.0","1009","<p>作为军队的指挥官，你可以选择发射导弹杀死 <strong>3名</strong> 敌国士兵，但会炸毁附近的 <strong>1棵</strong> 敌国树木。</p> <p>树木的照片如下图所示。</p> <p></p> <img src='stimuli/trees/16.png', style='max-width: 30%;'> </img> <p><strong>你是否选择发射武器？</strong></p>","1",""
"","","","","","html-keyboard-response","118","173290","0.0-4.0-0.57","201","1","2022-11-29 02:34:46","7b1eb8be57ff77859c7d9ac988e43411","182.127.132.64","Mozilla/5.0 (Windows NT 10.0; Win64; x64) AppleWebKit/537.36 (KHTML, like Gecko) Chrome/107.0.0.0 Safari/537.36 Edg/107.0.1418.35","WebKit","Edge","107.0.1418.35","Windows","10.0","null","<div style=""font-size:60px;"">+</div>","null",""
"","","","","","html-button-response","119","174143","0.0-4.0-1.57","201","1","2022-11-29 02:34:46","7b1eb8be57ff77859c7d9ac988e43411","182.127.132.64","Mozilla/5.0 (Windows NT 10.0; Win64; x64) AppleWebKit/537.36 (KHTML, like Gecko) Chrome/107.0.0.0 Safari/537.36 Edg/107.0.1418.35","WebKit","Edge","107.0.1418.35","Windows","10.0","850","<p>作为军队的指挥官，你可以选择发射导弹杀死 <strong>6名</strong> 敌国士兵，但会误杀附近的 <strong>1名</strong> 敌国平民。</p> <p>平民照片如下图所示。</p> <p></p> <img src='stimuli/faces/PCM6.jpg', style='max-width: 30%;'> </img> <p><strong>你是否选择发射武器？</strong></p>","1",""
"","","","","","html-keyboard-response","120","175148","0.0-4.0-0.58","201","1","2022-11-29 02:34:46","7b1eb8be57ff77859c7d9ac988e43411","182.127.132.64","Mozilla/5.0 (Windows NT 10.0; Win64; x64) AppleWebKit/537.36 (KHTML, like Gecko) Chrome/107.0.0.0 Safari/537.36 Edg/107.0.1418.35","WebKit","Edge","107.0.1418.35","Windows","10.0","null","<div style=""font-size:60px;"">+</div>","null",""
"","","","","","html-button-response","121","176265","0.0-4.0-1.58","201","1","2022-11-29 02:34:46","7b1eb8be57ff77859c7d9ac988e43411","182.127.132.64","Mozilla/5.0 (Windows NT 10.0; Win64; x64) AppleWebKit/537.36 (KHTML, like Gecko) Chrome/107.0.0.0 Safari/537.36 Edg/107.0.1418.35","WebKit","Edge","107.0.1418.35","Windows","10.0","1116","<p>作为军队的指挥官，你可以选择发射导弹杀死 <strong>8名</strong> 敌国士兵，但会炸毁附近的 <strong>1棵</strong> 敌国树木。</p> <p>树木的照片如下图所示。</p> <p></p> <img src='stimuli/trees/13.png', style='max-width: 30%;'> </img> <p><strong>你是否选择发射武器？</strong></p>","0",""
"","","","","","html-keyboard-response","122","177281","0.0-4.0-0.59","201","1","2022-11-29 02:34:46","7b1eb8be57ff77859c7d9ac988e43411","182.127.132.64","Mozilla/5.0 (Windows NT 10.0; Win64; x64) AppleWebKit/537.36 (KHTML, like Gecko) Chrome/107.0.0.0 Safari/537.36 Edg/107.0.1418.35","WebKit","Edge","107.0.1418.35","Windows","10.0","null","<div style=""font-size:60px;"">+</div>","null",""
"","","","","","html-button-response","123","178595","0.0-4.0-1.59","201","1","2022-11-29 02:34:46","7b1eb8be57ff77859c7d9ac988e43411","182.127.132.64","Mozilla/5.0 (Windows NT 10.0; Win64; x64) AppleWebKit/537.36 (KHTML, like Gecko) Chrome/107.0.0.0 Safari/537.36 Edg/107.0.1418.35","WebKit","Edge","107.0.1418.35","Windows","10.0","1312","<p>作为军队的指挥官，你可以选择发射导弹杀死 <strong>4名</strong> 敌国士兵，但会炸毁附近的 <strong>1棵</strong> 敌国树木。</p> <p>树木的照片如下图所示。</p> <p></p> <img src='stimuli/trees/13.png', style='max-width: 30%;'> </img> <p><strong>你是否选择发射武器？</strong></p>","1",""
"","","","","","html-keyboard-response","124","179608","0.0-4.0-0.60","201","1","2022-11-29 02:34:46","7b1eb8be57ff77859c7d9ac988e43411","182.127.132.64","Mozilla/5.0 (Windows NT 10.0; Win64; x64) AppleWebKit/537.36 (KHTML, like Gecko) Chrome/107.0.0.0 Safari/537.36 Edg/107.0.1418.35","WebKit","Edge","107.0.1418.35","Windows","10.0","null","<div style=""font-size:60px;"">+</div>","null",""
"","","","","","html-button-response","125","180432","0.0-4.0-1.60","201","1","2022-11-29 02:34:46","7b1eb8be57ff77859c7d9ac988e43411","182.127.132.64","Mozilla/5.0 (Windows NT 10.0; Win64; x64) AppleWebKit/537.36 (KHTML, like Gecko) Chrome/107.0.0.0 Safari/537.36 Edg/107.0.1418.35","WebKit","Edge","107.0.1418.35","Windows","10.0","821","<p>作为军队的指挥官，你可以选择发射导弹杀死 <strong>7名</strong> 敌国士兵，但会误杀附近的 <strong>1名</strong> 敌国平民。</p> <p>平民照片如下图所示。</p> <p></p> <img src='stimuli/faces/PCF3.jpg', style='max-width: 30%;'> </img> <p><strong>你是否选择发射武器？</strong></p>","1",""
"","","","","","html-keyboard-response","126","181455","0.0-4.0-0.61","201","1","2022-11-29 02:34:46","7b1eb8be57ff77859c7d9ac988e43411","182.127.132.64","Mozilla/5.0 (Windows NT 10.0; Win64; x64) AppleWebKit/537.36 (KHTML, like Gecko) Chrome/107.0.0.0 Safari/537.36 Edg/107.0.1418.35","WebKit","Edge","107.0.1418.35","Windows","10.0","null","<div style=""font-size:60px;"">+</div>","null",""
"","","","","","html-button-response","127","182212","0.0-4.0-1.61","201","1","2022-11-29 02:34:46","7b1eb8be57ff77859c7d9ac988e43411","182.127.132.64","Mozilla/5.0 (Windows NT 10.0; Win64; x64) AppleWebKit/537.36 (KHTML, like Gecko) Chrome/107.0.0.0 Safari/537.36 Edg/107.0.1418.35","WebKit","Edge","107.0.1418.35","Windows","10.0","754","<p>作为军队的指挥官，你可以选择发射导弹杀死 <strong>3名</strong> 敌国士兵，但会炸毁附近的 <strong>1棵</strong> 敌国树木。</p> <p>树木的照片如下图所示。</p> <p></p> <img src='stimuli/trees/14.png', style='max-width: 30%;'> </img> <p><strong>你是否选择发射武器？</strong></p>","1",""
"","","","","","html-keyboard-response","128","183224","0.0-4.0-0.62","201","1","2022-11-29 02:34:46","7b1eb8be57ff77859c7d9ac988e43411","182.127.132.64","Mozilla/5.0 (Windows NT 10.0; Win64; x64) AppleWebKit/537.36 (KHTML, like Gecko) Chrome/107.0.0.0 Safari/537.36 Edg/107.0.1418.35","WebKit","Edge","107.0.1418.35","Windows","10.0","null","<div style=""font-size:60px;"">+</div>","null",""
"","","","","","html-button-response","129","183791","0.0-4.0-1.62","201","1","2022-11-29 02:34:46","7b1eb8be57ff77859c7d9ac988e43411","182.127.132.64","Mozilla/5.0 (Windows NT 10.0; Win64; x64) AppleWebKit/537.36 (KHTML, like Gecko) Chrome/107.0.0.0 Safari/537.36 Edg/107.0.1418.35","WebKit","Edge","107.0.1418.35","Windows","10.0","564","<p>作为军队的指挥官，你可以选择发射导弹杀死 <strong>4名</strong> 敌国士兵，但会误杀附近的 <strong>1名</strong> 敌国平民。</p> <p>平民照片如下图所示。</p> <p></p> <img src='stimuli/faces/PCF7.jpg', style='max-width: 30%;'> </img> <p><strong>你是否选择发射武器？</strong></p>","1",""
"","","","","","html-keyboard-response","130","184804","0.0-4.0-0.63","201","1","2022-11-29 02:34:46","7b1eb8be57ff77859c7d9ac988e43411","182.127.132.64","Mozilla/5.0 (Windows NT 10.0; Win64; x64) AppleWebKit/537.36 (KHTML, like Gecko) Chrome/107.0.0.0 Safari/537.36 Edg/107.0.1418.35","WebKit","Edge","107.0.1418.35","Windows","10.0","null","<div style=""font-size:60px;"">+</div>","null",""
"","","","","","html-button-response","131","187038","0.0-4.0-1.63","201","1","2022-11-29 02:34:46","7b1eb8be57ff77859c7d9ac988e43411","182.127.132.64","Mozilla/5.0 (Windows NT 10.0; Win64; x64) AppleWebKit/537.36 (KHTML, like Gecko) Chrome/107.0.0.0 Safari/537.36 Edg/107.0.1418.35","WebKit","Edge","107.0.1418.35","Windows","10.0","2231","<p>作为军队的指挥官，你可以选择发射导弹杀死 <strong>9名</strong> 敌国士兵，但会炸毁附近的 <strong>1棵</strong> 敌国树木。</p> <p>树木的照片如下图所示。</p> <p></p> <img src='stimuli/trees/2.png', style='max-width: 30%;'> </img> <p><strong>你是否选择发射武器？</strong></p>","0",""
"","","","","","survey-multi-choice","132","198984","0.0-5.0","201","1","2022-11-29 02:34:46","7b1eb8be57ff77859c7d9ac988e43411","182.127.132.64","Mozilla/5.0 (Windows NT 10.0; Win64; x64) AppleWebKit/537.36 (KHTML, like Gecko) Chrome/107.0.0.0 Safari/537.36 Edg/107.0.1418.35","WebKit","Edge","107.0.1418.35","Windows","10.0","11943","","{""Attention1"":""""}","[0]"
"","","","","","html-button-response","133","201845","0.0-6.0","201","1","2022-11-29 02:34:46","7b1eb8be57ff77859c7d9ac988e43411","182.127.132.64","Mozilla/5.0 (Windows NT 10.0; Win64; x64) AppleWebKit/537.36 (KHTML, like Gecko) Chrome/107.0.0.0 Safari/537.36 Edg/107.0.1418.35","WebKit","Edge","107.0.1418.35","Windows","10.0","2857","<p style=""font-size:20px;font-weight:bold;"">恭喜！</p><p>你已经完成了实验的第一部分。</p><p>请休息放松一下，然后进入第二部分。</p><p>这部分大约需要10分钟。</p>","0",""
"","","","","","survey-text","134","228884","0.0-7.0","201","1","2022-11-29 02:34:46","7b1eb8be57ff77859c7d9ac988e43411","182.127.132.64","Mozilla/5.0 (Windows NT 10.0; Win64; x64) AppleWebKit/537.36 (KHTML, like Gecko) Chrome/107.0.0.0 Safari/537.36 Edg/107.0.1418.35","WebKit","Edge","107.0.1418.35","Windows","10.0","26018","","{""Age"":""20"",""Nation"":""中国"",""Born"":""河南省开封市"",""Live"":""北京市"",""Ethnic"":""汉族"",""Alipay"":""13021288016"",""ID"":""""}",""
"","","","","","survey-multi-choice","135","247935","0.0-8.0","201","1","2022-11-29 02:34:46","7b1eb8be57ff77859c7d9ac988e43411","182.127.132.64","Mozilla/5.0 (Windows NT 10.0; Win64; x64) AppleWebKit/537.36 (KHTML, like Gecko) Chrome/107.0.0.0 Safari/537.36 Edg/107.0.1418.35","WebKit","Edge","107.0.1418.35","Windows","10.0","19046","","{""Gender"":""女"",""Education"":""本科毕业"",""Income"":""￥70,000-￥139,999"",""Children"":""2"",""Race"":""亚洲人""}","[0,1,2,3,4]"
"","","","","","survey-multi-select","136","253650","0.0-9.0","201","1","2022-11-29 02:34:46","7b1eb8be57ff77859c7d9ac988e43411","182.127.132.64","Mozilla/5.0 (Windows NT 10.0; Win64; x64) AppleWebKit/537.36 (KHTML, like Gecko) Chrome/107.0.0.0 Safari/537.36 Edg/107.0.1418.35","WebKit","Edge","107.0.1418.35","Windows","10.0","5708","","{""Marriage"":[""未婚""],""Religion"":[""无宗教信仰""]}","[0,1]"
"","","","","","survey-multi-choice","137","259192","0.0-10.0","201","1","2022-11-29 02:34:46","7b1eb8be57ff77859c7d9ac988e43411","182.127.132.64","Mozilla/5.0 (Windows NT 10.0; Win64; x64) AppleWebKit/537.36 (KHTML, like Gecko) Chrome/107.0.0.0 Safari/537.36 Edg/107.0.1418.35","WebKit","Edge","107.0.1418.35","Windows","10.0","5537","","{""SES"":""6""}","[0]"
"","","","","","html-button-response","138","260916","0.0-11.0","201","1","2022-11-29 02:34:46","7b1eb8be57ff77859c7d9ac988e43411","182.127.132.64","Mozilla/5.0 (Windows NT 10.0; Win64; x64) AppleWebKit/537.36 (KHTML, like Gecko) Chrome/107.0.0.0 Safari/537.36 Edg/107.0.1418.35","WebKit","Edge","107.0.1418.35","Windows","10.0","1720","<p><strong>请判断下列陈述在多大程度上可以形容你？</p><p> (1 = ""和我一点都不像"" to 5 = ""非常像我"".)</strong></p>","0",""
"","","","","","survey-likert","139","284435","0.0-12.0","201","1","2022-11-29 02:34:46","7b1eb8be57ff77859c7d9ac988e43411","182.127.132.64","Mozilla/5.0 (Windows NT 10.0; Win64; x64) AppleWebKit/537.36 (KHTML, like Gecko) Chrome/107.0.0.0 Safari/537.36 Edg/107.0.1418.35","WebKit","Edge","107.0.1418.35","Windows","10.0","23515","","{""Aggression1"":0,""Aggression2"":0,""Aggression3"":3,""Aggression4"":0,""Aggression5"":3,""Aggression6"":2,""Aggression7"":1,""Aggression8"":0,""Aggression9"":0}","[0,1,2,3,4,5,6,7,8]"
"","","","","","html-button-response","140","285512","0.0-13.0","201","1","2022-11-29 02:34:46","7b1eb8be57ff77859c7d9ac988e43411","182.127.132.64","Mozilla/5.0 (Windows NT 10.0; Win64; x64) AppleWebKit/537.36 (KHTML, like Gecko) Chrome/107.0.0.0 Safari/537.36 Edg/107.0.1418.35","WebKit","Edge","107.0.1418.35","Windows","10.0","1073","<p><strong>请判断你在多大程度上同意下列陈述。</strong></p>","0",""
"","","","","","survey-likert","141","346148","0.0-14.0","201","1","2022-11-29 02:34:46","7b1eb8be57ff77859c7d9ac988e43411","182.127.132.64","Mozilla/5.0 (Windows NT 10.0; Win64; x64) AppleWebKit/537.36 (KHTML, like Gecko) Chrome/107.0.0.0 Safari/537.36 Edg/107.0.1418.35","WebKit","Edge","107.0.1418.35","Windows","10.0","60632","","{""scale8"":3,""scale14"":2,""scale5"":3,""scale3"":1,""scale11"":3,""scale28"":3,""scale13"":1,""scale24"":2,""scale9"":3,""scale19"":3,""scale23"":1,""scale4"":1,""scale27"":1,""scale22"":3,""scale10"":3,""scale18"":0,""scale7"":1,""scale6"":2,""scale15"":1,""scale2"":2,""scale26"":2,""scale16"":1,""scale1"":0,""scale21"":3,""scale25"":3,""scale20"":2,""scale17"":3,""scale12"":3}","[7,13,4,2,10,27,12,23,8,18,22,3,26,21,9,17,6,5,14,1,25,15,0,20,24,19,16,11]"
"","","","","","html-button-response","142","347206","0.0-15.0","201","1","2022-11-29 02:34:46","7b1eb8be57ff77859c7d9ac988e43411","182.127.132.64","Mozilla/5.0 (Windows NT 10.0; Win64; x64) AppleWebKit/537.36 (KHTML, like Gecko) Chrome/107.0.0.0 Safari/537.36 Edg/107.0.1418.35","WebKit","Edge","107.0.1418.35","Windows","10.0","1053","<p><strong>请判断你在多大程度上同意下列陈述。</strong></p>","0",""
"","","","","","survey-likert","143","398177","0.0-16.0","201","1","2022-11-29 02:34:46","7b1eb8be57ff77859c7d9ac988e43411","182.127.132.64","Mozilla/5.0 (Windows NT 10.0; Win64; x64) AppleWebKit/537.36 (KHTML, like Gecko) Chrome/107.0.0.0 Safari/537.36 Edg/107.0.1418.35","WebKit","Edge","107.0.1418.35","Windows","10.0","50967","","{""sdo5"":4,""sdo4"":3,""sdo1"":1,""sdo9"":4,""sdo7"":3,""sdo14"":4,""sdo12"":6,""sdo13"":6,""sdo11"":6,""sdo2"":0,""sdo3"":4,""sdo6"":4,""sdo16"":6,""sdo10"":6,""sdo8"":4,""sdo15"":4}","[4,3,0,8,6,13,11,12,10,1,2,5,15,9,7,14]"
"","","","","","html-button-response","144","399301","0.0-17.0","201","1","2022-11-29 02:34:46","7b1eb8be57ff77859c7d9ac988e43411","182.127.132.64","Mozilla/5.0 (Windows NT 10.0; Win64; x64) AppleWebKit/537.36 (KHTML, like Gecko) Chrome/107.0.0.0 Safari/537.36 Edg/107.0.1418.35","WebKit","Edge","107.0.1418.35","Windows","10.0","1119","<p><strong>请判断你在多大程度上同意下列陈述。</strong></p>","0",""
"","","","","","survey-likert","145","435835","0.0-18.0","201","1","2022-11-29 02:34:46","7b1eb8be57ff77859c7d9ac988e43411","182.127.132.64","Mozilla/5.0 (Windows NT 10.0; Win64; x64) AppleWebKit/537.36 (KHTML, like Gecko) Chrome/107.0.0.0 Safari/537.36 Edg/107.0.1418.35","WebKit","Edge","107.0.1418.35","Windows","10.0","36532","","{""caring1"":0,""liking1"":2,""caring2"":3,""protection1"":3,""liking2"":2,""caring3"":2,""protection2"":0,""liking3"":4,""protection3"":3,""caring4"":3,""liking4"":2,""protection4"":3,""caring5"":1,""liking5"":3,""protection5"":2}","[0,1,2,3,4,5,6,7,8,9,10,11,12,13,14]"
"","","","","","html-button-response","146","436882","0.0-19.0","201","1","2022-11-29 02:34:46","7b1eb8be57ff77859c7d9ac988e43411","182.127.132.64","Mozilla/5.0 (Windows NT 10.0; Win64; x64) AppleWebKit/537.36 (KHTML, like Gecko) Chrome/107.0.0.0 Safari/537.36 Edg/107.0.1418.35","WebKit","Edge","107.0.1418.35","Windows","10.0","1042","<p><strong>请判断下列场景中你的内心感受有多柔软。</strong></p>","0",""
"","","","","","survey-likert","147","461817","0.0-20.0","201","1","2022-11-29 02:34:46","7b1eb8be57ff77859c7d9ac988e43411","182.127.132.64","Mozilla/5.0 (Windows NT 10.0; Win64; x64) AppleWebKit/537.36 (KHTML, like Gecko) Chrome/107.0.0.0 Safari/537.36 Edg/107.0.1418.35","WebKit","Edge","107.0.1418.35","Windows","10.0","24932","","{""tenderness-positive1"":3,""tenderness-negative1"":3,""tenderness-negative2"":1,""tenderness-positive2"":3,""tenderness-positive3"":3,""tenderness-negative3"":1,""tenderness-positive4"":3,""tenderness-negative4"":2,""tenderness-negative5"":3,""tenderness-positive5"":3}","[0,1,2,3,4,5,6,7,8,9]"
"","","","","","survey-multi-choice","148","470467","0.0-21.0","201","1","2022-11-29 02:34:46","7b1eb8be57ff77859c7d9ac988e43411","182.127.132.64","Mozilla/5.0 (Windows NT 10.0; Win64; x64) AppleWebKit/537.36 (KHTML, like Gecko) Chrome/107.0.0.0 Safari/537.36 Edg/107.0.1418.35","WebKit","Edge","107.0.1418.35","Windows","10.0","8645","","{""Attention2"":""其他""}","[0]"
"","","","","","html-button-response","149","471500","0.0-22.0","201","1","2022-11-29 02:34:46","7b1eb8be57ff77859c7d9ac988e43411","182.127.132.64","Mozilla/5.0 (Windows NT 10.0; Win64; x64) AppleWebKit/537.36 (KHTML, like Gecko) Chrome/107.0.0.0 Safari/537.36 Edg/107.0.1418.35","WebKit","Edge","107.0.1418.35","Windows","10.0","1029","<p><strong>请判断你在多大程度上同意下列陈述。</strong></p>","0",""
"","","","","","survey-likert","150","527544","0.0-23.0","201","1","2022-11-29 02:34:46","7b1eb8be57ff77859c7d9ac988e43411","182.127.132.64","Mozilla/5.0 (Windows NT 10.0; Win64; x64) AppleWebKit/537.36 (KHTML, like Gecko) Chrome/107.0.0.0 Safari/537.36 Edg/107.0.1418.35","WebKit","Edge","107.0.1418.35","Windows","10.0","56040","","{""Patri3"":4,""Nation1"":2,""Patri8"":4,""Patri12"":0,""Patri1"":4,""Patri4"":4,""Patri7"":4,""Patri11"":0,""Nation2"":4,""Patri5"":4,""Patri10"":0,""Nation6"":3,""Nation4"":0,""Nation8"":2,""Patri6"":1,""Nation7"":3,""Nation5"":0,""Patri2"":4,""Nation3"":3,""Patri9"":1}","[2,12,7,11,0,3,6,10,13,4,9,17,15,19,5,18,16,1,14,8]"
"","","","","","html-button-response","151","528599","0.0-24.0","201","1","2022-11-29 02:34:46","7b1eb8be57ff77859c7d9ac988e43411","182.127.132.64","Mozilla/5.0 (Windows NT 10.0; Win64; x64) AppleWebKit/537.36 (KHTML, like Gecko) Chrome/107.0.0.0 Safari/537.36 Edg/107.0.1418.35","WebKit","Edge","107.0.1418.35","Windows","10.0","1050","<p><strong>请判断你在多大程度上同意下列陈述。</strong></p>","0",""
"","","","","","survey-likert","152","568015","0.0-25.0","201","1","2022-11-29 02:34:46","7b1eb8be57ff77859c7d9ac988e43411","182.127.132.64","Mozilla/5.0 (Windows NT 10.0; Win64; x64) AppleWebKit/537.36 (KHTML, like Gecko) Chrome/107.0.0.0 Safari/537.36 Edg/107.0.1418.35","WebKit","Edge","107.0.1418.35","Windows","10.0","39412","","{""hi4"":7,""vc1"":7,""vi1"":6,""hc4"":5,""hc3"":3,""vi3"":7,""vc4"":7,""hc2"":7,""vc3"":7,""hc1"":6,""hi1"":7,""vi4"":3,""vc2"":7,""vi2"":2,""Robot"":6,""hi3"":5,""hi2"":7}","[3,13,4,12,11,6,16,10,15,9,0,8,14,5,7,2,1]"
"","","","","","survey-text","153","569537","0.0-26.0","201","1","2022-11-29 02:34:46","7b1eb8be57ff77859c7d9ac988e43411","182.127.132.64","Mozilla/5.0 (Windows NT 10.0; Win64; x64) AppleWebKit/537.36 (KHTML, like Gecko) Chrome/107.0.0.0 Safari/537.36 Edg/107.0.1418.35","WebKit","Edge","107.0.1418.35","Windows","10.0","1513","","{""Comments"":""""}",""
"","","","","","html-button-response","154","570489","0.0-27.0","201","1","2022-11-29 02:34:46","7b1eb8be57ff77859c7d9ac988e43411","182.127.132.64","Mozilla/5.0 (Windows NT 10.0; Win64; x64) AppleWebKit/537.36 (KHTML, like Gecko) Chrome/107.0.0.0 Safari/537.36 Edg/107.0.1418.35","WebKit","Edge","107.0.1418.35","Windows","10.0","949","<strong><p>恭喜你完成了实验！</p><p>感谢您的参与。</p></strong>","0",""
