"success","timeout","failed_images","failed_audio","failed_video","trial_type","trial_index","time_elapsed","internal_node_id","run_id","condition","recorded_at","source_code_version","ip","user_agent","device","browser","browser_version","platform","platform_version","rt","stimulus","response","question_order"
"true","false","[]","[]","[]","preload","0","1889","0.0-0.0","30","1","2022-11-27 09:38:46","7b1eb8be57ff77859c7d9ac988e43411","115.60.187.40","Mozilla/5.0 (Linux; Android 10; MIX 2S Build/QKQ1.190828.002; wv) AppleWebKit/537.36 (KHTML, like Gecko) Version/4.0 Chrome/86.0.4240.99 XWEB/4343 MMWEBSDK/20220903 Mobile Safari/537.36 MMWEBID/4477 MicroMessenger/8.0.28.2240(0x28001C57) WeChat/arm64 Weixin NetType/WIFI Language/zh_CN ABI/arm64","WebKit","Chrome","86.0.4240.99","AndroidOS","10","","","",""
"true","","","","","fullscreen","1","5833","0.0-1.0","30","1","2022-11-27 09:38:46","7b1eb8be57ff77859c7d9ac988e43411","115.60.187.40","Mozilla/5.0 (Linux; Android 10; MIX 2S Build/QKQ1.190828.002; wv) AppleWebKit/537.36 (KHTML, like Gecko) Version/4.0 Chrome/86.0.4240.99 XWEB/4343 MMWEBSDK/20220903 Mobile Safari/537.36 MMWEBID/4477 MicroMessenger/8.0.28.2240(0x28001C57) WeChat/arm64 Weixin NetType/WIFI Language/zh_CN ABI/arm64","WebKit","Chrome","86.0.4240.99","AndroidOS","10","","","",""
"","","","","","html-button-response","2","10150","0.0-2.0","30","1","2022-11-27 09:38:46","7b1eb8be57ff77859c7d9ac988e43411","115.60.187.40","Mozilla/5.0 (Linux; Android 10; MIX 2S Build/QKQ1.190828.002; wv) AppleWebKit/537.36 (KHTML, like Gecko) Version/4.0 Chrome/86.0.4240.99 XWEB/4343 MMWEBSDK/20220903 Mobile Safari/537.36 MMWEBID/4477 MicroMessenger/8.0.28.2240(0x28001C57) WeChat/arm64 Weixin NetType/WIFI Language/zh_CN ABI/arm64","WebKit","Chrome","86.0.4240.99","AndroidOS","10","4295","<p style=""font-size:20px;font-weight:bold;"">实验知情同意书</p><p style=""text-align:left;""><strong>实验名称：</strong>社会冲突研究</p><p style=""text-align:left;""><strong>主要研究者：</strong>韩晓春副教授（北京师范大学心理学部）</p><p style=""text-align:left;""><strong>联系方式：</strong>发送邮件至xiaochun.han@bnu.edu.cn</p><p style=""text-align:left;""><strong>研究目的：</strong>研究旨在了解人类面对群体冲突时的决策方式，以及相关的心理学特质。实验调查大约需要20分钟。</p><p style=""text-align:left;""><strong>实验流程：</strong>实验包含两部分。第一部分呈现一系列群体冲突场景，请你决定如何对这些冲突进行反应，大约需要10分钟完成。第二部分包含一系列人口统计学信息收集和心理学问卷，大约需要10分钟完成。</p><p style=""text-align:left;""><strong>参加及退出规则：</strong>参加本实验完全取决于您的个人意愿。在参与过程中，您可以随时退出，并且不用承担任何后果。</p><p style=""text-align:left;""><strong>隐私：</strong>本实验完全匿名进行，不会收集您的姓名或其他能够识别您身份的信息。实验中收集的作答仅用作科学研究使用，可能会在学术期刊/书籍上发表，或者用于教学，您的数据未来可能会和其他研究者或实验室分享，但您的个人身份不会被识别。</p><p style=""text-align:left;""><strong>实验报酬：</strong>实验完成后，您将获得15元人民币报酬，以感谢您的时间和努力。调查问卷中包含几道题目用以测验您作答时的认真度。只有完成全部实验，并且正确回答认真度测验的被试才能获得实验报酬。实验报酬将通过支付宝转账发放。</p><p style=""text-align:left;font-size:20px;""><strong>如果您同意以上实验知情同意书的内容，请点击'同意并且开始实验'按钮；否则请关闭浏览器界面，退出实验。</strong></p>","0",""
"","","","","","html-button-response","3","20568","0.0-3.0","30","1","2022-11-27 09:38:46","7b1eb8be57ff77859c7d9ac988e43411","115.60.187.40","Mozilla/5.0 (Linux; Android 10; MIX 2S Build/QKQ1.190828.002; wv) AppleWebKit/537.36 (KHTML, like Gecko) Version/4.0 Chrome/86.0.4240.99 XWEB/4343 MMWEBSDK/20220903 Mobile Safari/537.36 MMWEBID/4477 MicroMessenger/8.0.28.2240(0x28001C57) WeChat/arm64 Weixin NetType/WIFI Language/zh_CN ABI/arm64","WebKit","Chrome","86.0.4240.99","AndroidOS","10","10406","<p ><strong>实验任务一：</strong></p><p>请想象你的国家与另一个国家发生了军事冲突。</p><p>你是国家军队的指挥官，你将如何在冲突中进行决策。</p><p>具体来说，作为军队指挥官，请你决定是否发射导弹进行打击。</p><p>接下来，你会面对一系列场景，请仔细阅读每个场景，然后进行决策。</p><p>这部分实验任务大约需要10分钟。</p><p><strong>实验过程中，请集中注意力。</strong></p>","0",""
"","","","","","html-keyboard-response","4","21579","0.0-4.0-0.0","30","1","2022-11-27 09:38:46","7b1eb8be57ff77859c7d9ac988e43411","115.60.187.40","Mozilla/5.0 (Linux; Android 10; MIX 2S Build/QKQ1.190828.002; wv) AppleWebKit/537.36 (KHTML, like Gecko) Version/4.0 Chrome/86.0.4240.99 XWEB/4343 MMWEBSDK/20220903 Mobile Safari/537.36 MMWEBID/4477 MicroMessenger/8.0.28.2240(0x28001C57) WeChat/arm64 Weixin NetType/WIFI Language/zh_CN ABI/arm64","WebKit","Chrome","86.0.4240.99","AndroidOS","10","null","<div style=""font-size:60px;"">+</div>","null",""
"","","","","","html-button-response","5","37131","0.0-4.0-1.0","30","1","2022-11-27 09:38:46","7b1eb8be57ff77859c7d9ac988e43411","115.60.187.40","Mozilla/5.0 (Linux; Android 10; MIX 2S Build/QKQ1.190828.002; wv) AppleWebKit/537.36 (KHTML, like Gecko) Version/4.0 Chrome/86.0.4240.99 XWEB/4343 MMWEBSDK/20220903 Mobile Safari/537.36 MMWEBID/4477 MicroMessenger/8.0.28.2240(0x28001C57) WeChat/arm64 Weixin NetType/WIFI Language/zh_CN ABI/arm64","WebKit","Chrome","86.0.4240.99","AndroidOS","10","15517","<p>作为军队的指挥官，你可以选择发射导弹杀死 <strong>4名</strong> 敌国士兵，但会炸毁附近的 <strong>1棵</strong> 敌国树木。</p> <p>树木的照片如下图所示。</p> <p></p> <img src='stimuli/trees/6.png', style='max-width: 30%;'> </img> <p><strong>你是否选择发射武器？</strong></p>","1",""
"","","","","","html-keyboard-response","6","38148","0.0-4.0-0.1","30","1","2022-11-27 09:38:46","7b1eb8be57ff77859c7d9ac988e43411","115.60.187.40","Mozilla/5.0 (Linux; Android 10; MIX 2S Build/QKQ1.190828.002; wv) AppleWebKit/537.36 (KHTML, like Gecko) Version/4.0 Chrome/86.0.4240.99 XWEB/4343 MMWEBSDK/20220903 Mobile Safari/537.36 MMWEBID/4477 MicroMessenger/8.0.28.2240(0x28001C57) WeChat/arm64 Weixin NetType/WIFI Language/zh_CN ABI/arm64","WebKit","Chrome","86.0.4240.99","AndroidOS","10","null","<div style=""font-size:60px;"">+</div>","null",""
"","","","","","html-button-response","7","45956","0.0-4.0-1.1","30","1","2022-11-27 09:38:46","7b1eb8be57ff77859c7d9ac988e43411","115.60.187.40","Mozilla/5.0 (Linux; Android 10; MIX 2S Build/QKQ1.190828.002; wv) AppleWebKit/537.36 (KHTML, like Gecko) Version/4.0 Chrome/86.0.4240.99 XWEB/4343 MMWEBSDK/20220903 Mobile Safari/537.36 MMWEBID/4477 MicroMessenger/8.0.28.2240(0x28001C57) WeChat/arm64 Weixin NetType/WIFI Language/zh_CN ABI/arm64","WebKit","Chrome","86.0.4240.99","AndroidOS","10","7787","<p>作为军队的指挥官，你可以选择发射导弹杀死 <strong>2名</strong> 敌国士兵，但会误杀附近的 <strong>1名</strong> 敌国平民。</p> <p>平民照片如下图所示。</p> <p></p> <img src='stimuli/faces/PCF4.jpg', style='max-width: 30%;'> </img> <p><strong>你是否选择发射武器？</strong></p>","1",""
"","","","","","html-keyboard-response","8","46966","0.0-4.0-0.2","30","1","2022-11-27 09:38:46","7b1eb8be57ff77859c7d9ac988e43411","115.60.187.40","Mozilla/5.0 (Linux; Android 10; MIX 2S Build/QKQ1.190828.002; wv) AppleWebKit/537.36 (KHTML, like Gecko) Version/4.0 Chrome/86.0.4240.99 XWEB/4343 MMWEBSDK/20220903 Mobile Safari/537.36 MMWEBID/4477 MicroMessenger/8.0.28.2240(0x28001C57) WeChat/arm64 Weixin NetType/WIFI Language/zh_CN ABI/arm64","WebKit","Chrome","86.0.4240.99","AndroidOS","10","null","<div style=""font-size:60px;"">+</div>","null",""
"","","","","","html-button-response","9","58158","0.0-4.0-1.2","30","1","2022-11-27 09:38:46","7b1eb8be57ff77859c7d9ac988e43411","115.60.187.40","Mozilla/5.0 (Linux; Android 10; MIX 2S Build/QKQ1.190828.002; wv) AppleWebKit/537.36 (KHTML, like Gecko) Version/4.0 Chrome/86.0.4240.99 XWEB/4343 MMWEBSDK/20220903 Mobile Safari/537.36 MMWEBID/4477 MicroMessenger/8.0.28.2240(0x28001C57) WeChat/arm64 Weixin NetType/WIFI Language/zh_CN ABI/arm64","WebKit","Chrome","86.0.4240.99","AndroidOS","10","11172","<p>作为军队的指挥官，你可以选择发射导弹杀死 <strong>7名</strong> 敌国士兵，但会炸毁附近的 <strong>1棵</strong> 敌国树木。</p> <p>树木的照片如下图所示。</p> <p></p> <img src='stimuli/trees/4.png', style='max-width: 30%;'> </img> <p><strong>你是否选择发射武器？</strong></p>","0",""
"","","","","","html-keyboard-response","10","59169","0.0-4.0-0.3","30","1","2022-11-27 09:38:46","7b1eb8be57ff77859c7d9ac988e43411","115.60.187.40","Mozilla/5.0 (Linux; Android 10; MIX 2S Build/QKQ1.190828.002; wv) AppleWebKit/537.36 (KHTML, like Gecko) Version/4.0 Chrome/86.0.4240.99 XWEB/4343 MMWEBSDK/20220903 Mobile Safari/537.36 MMWEBID/4477 MicroMessenger/8.0.28.2240(0x28001C57) WeChat/arm64 Weixin NetType/WIFI Language/zh_CN ABI/arm64","WebKit","Chrome","86.0.4240.99","AndroidOS","10","null","<div style=""font-size:60px;"">+</div>","null",""
"","","","","","html-button-response","11","68834","0.0-4.0-1.3","30","1","2022-11-27 09:38:46","7b1eb8be57ff77859c7d9ac988e43411","115.60.187.40","Mozilla/5.0 (Linux; Android 10; MIX 2S Build/QKQ1.190828.002; wv) AppleWebKit/537.36 (KHTML, like Gecko) Version/4.0 Chrome/86.0.4240.99 XWEB/4343 MMWEBSDK/20220903 Mobile Safari/537.36 MMWEBID/4477 MicroMessenger/8.0.28.2240(0x28001C57) WeChat/arm64 Weixin NetType/WIFI Language/zh_CN ABI/arm64","WebKit","Chrome","86.0.4240.99","AndroidOS","10","9636","<p>作为军队的指挥官，你可以选择发射导弹杀死 <strong>2名</strong> 敌国士兵，但会误杀附近的 <strong>1名</strong> 敌国平民。</p> <p>平民照片如下图所示。</p> <p></p> <img src='stimuli/faces/PCF7.jpg', style='max-width: 30%;'> </img> <p><strong>你是否选择发射武器？</strong></p>","1",""
"","","","","","html-keyboard-response","12","69843","0.0-4.0-0.4","30","1","2022-11-27 09:38:46","7b1eb8be57ff77859c7d9ac988e43411","115.60.187.40","Mozilla/5.0 (Linux; Android 10; MIX 2S Build/QKQ1.190828.002; wv) AppleWebKit/537.36 (KHTML, like Gecko) Version/4.0 Chrome/86.0.4240.99 XWEB/4343 MMWEBSDK/20220903 Mobile Safari/537.36 MMWEBID/4477 MicroMessenger/8.0.28.2240(0x28001C57) WeChat/arm64 Weixin NetType/WIFI Language/zh_CN ABI/arm64","WebKit","Chrome","86.0.4240.99","AndroidOS","10","null","<div style=""font-size:60px;"">+</div>","null",""
"","","","","","html-button-response","13","77498","0.0-4.0-1.4","30","1","2022-11-27 09:38:46","7b1eb8be57ff77859c7d9ac988e43411","115.60.187.40","Mozilla/5.0 (Linux; Android 10; MIX 2S Build/QKQ1.190828.002; wv) AppleWebKit/537.36 (KHTML, like Gecko) Version/4.0 Chrome/86.0.4240.99 XWEB/4343 MMWEBSDK/20220903 Mobile Safari/537.36 MMWEBID/4477 MicroMessenger/8.0.28.2240(0x28001C57) WeChat/arm64 Weixin NetType/WIFI Language/zh_CN ABI/arm64","WebKit","Chrome","86.0.4240.99","AndroidOS","10","7633","<p>作为军队的指挥官，你可以选择发射导弹杀死 <strong>5名</strong> 敌国士兵，但会误杀附近的 <strong>1名</strong> 敌国平民。</p> <p>平民照片如下图所示。</p> <p></p> <img src='stimuli/faces/PCF2.jpg', style='max-width: 30%;'> </img> <p><strong>你是否选择发射武器？</strong></p>","1",""
"","","","","","html-keyboard-response","14","78528","0.0-4.0-0.5","30","1","2022-11-27 09:38:46","7b1eb8be57ff77859c7d9ac988e43411","115.60.187.40","Mozilla/5.0 (Linux; Android 10; MIX 2S Build/QKQ1.190828.002; wv) AppleWebKit/537.36 (KHTML, like Gecko) Version/4.0 Chrome/86.0.4240.99 XWEB/4343 MMWEBSDK/20220903 Mobile Safari/537.36 MMWEBID/4477 MicroMessenger/8.0.28.2240(0x28001C57) WeChat/arm64 Weixin NetType/WIFI Language/zh_CN ABI/arm64","WebKit","Chrome","86.0.4240.99","AndroidOS","10","null","<div style=""font-size:60px;"">+</div>","null",""
"","","","","","html-button-response","15","85167","0.0-4.0-1.5","30","1","2022-11-27 09:38:46","7b1eb8be57ff77859c7d9ac988e43411","115.60.187.40","Mozilla/5.0 (Linux; Android 10; MIX 2S Build/QKQ1.190828.002; wv) AppleWebKit/537.36 (KHTML, like Gecko) Version/4.0 Chrome/86.0.4240.99 XWEB/4343 MMWEBSDK/20220903 Mobile Safari/537.36 MMWEBID/4477 MicroMessenger/8.0.28.2240(0x28001C57) WeChat/arm64 Weixin NetType/WIFI Language/zh_CN ABI/arm64","WebKit","Chrome","86.0.4240.99","AndroidOS","10","6620","<p>作为军队的指挥官，你可以选择发射导弹杀死 <strong>10名</strong> 敌国士兵，但会误杀附近的 <strong>1名</strong> 敌国平民。</p> <p>平民照片如下图所示。</p> <p></p> <img src='stimuli/faces/PCM5.jpg', style='max-width: 30%;'> </img> <p><strong>你是否选择发射武器？</strong></p>","1",""
"","","","","","html-keyboard-response","16","86176","0.0-4.0-0.6","30","1","2022-11-27 09:38:46","7b1eb8be57ff77859c7d9ac988e43411","115.60.187.40","Mozilla/5.0 (Linux; Android 10; MIX 2S Build/QKQ1.190828.002; wv) AppleWebKit/537.36 (KHTML, like Gecko) Version/4.0 Chrome/86.0.4240.99 XWEB/4343 MMWEBSDK/20220903 Mobile Safari/537.36 MMWEBID/4477 MicroMessenger/8.0.28.2240(0x28001C57) WeChat/arm64 Weixin NetType/WIFI Language/zh_CN ABI/arm64","WebKit","Chrome","86.0.4240.99","AndroidOS","10","null","<div style=""font-size:60px;"">+</div>","null",""
"","","","","","html-button-response","17","93230","0.0-4.0-1.6","30","1","2022-11-27 09:38:46","7b1eb8be57ff77859c7d9ac988e43411","115.60.187.40","Mozilla/5.0 (Linux; Android 10; MIX 2S Build/QKQ1.190828.002; wv) AppleWebKit/537.36 (KHTML, like Gecko) Version/4.0 Chrome/86.0.4240.99 XWEB/4343 MMWEBSDK/20220903 Mobile Safari/537.36 MMWEBID/4477 MicroMessenger/8.0.28.2240(0x28001C57) WeChat/arm64 Weixin NetType/WIFI Language/zh_CN ABI/arm64","WebKit","Chrome","86.0.4240.99","AndroidOS","10","7036","<p>作为军队的指挥官，你可以选择发射导弹杀死 <strong>2名</strong> 敌国士兵，但会误杀附近的 <strong>1名</strong> 敌国平民。</p> <p>平民照片如下图所示。</p> <p></p> <img src='stimuli/faces/PCF6.jpg', style='max-width: 30%;'> </img> <p><strong>你是否选择发射武器？</strong></p>","1",""
"","","","","","html-keyboard-response","18","94240","0.0-4.0-0.7","30","1","2022-11-27 09:38:46","7b1eb8be57ff77859c7d9ac988e43411","115.60.187.40","Mozilla/5.0 (Linux; Android 10; MIX 2S Build/QKQ1.190828.002; wv) AppleWebKit/537.36 (KHTML, like Gecko) Version/4.0 Chrome/86.0.4240.99 XWEB/4343 MMWEBSDK/20220903 Mobile Safari/537.36 MMWEBID/4477 MicroMessenger/8.0.28.2240(0x28001C57) WeChat/arm64 Weixin NetType/WIFI Language/zh_CN ABI/arm64","WebKit","Chrome","86.0.4240.99","AndroidOS","10","null","<div style=""font-size:60px;"">+</div>","null",""
"","","","","","html-button-response","19","98839","0.0-4.0-1.7","30","1","2022-11-27 09:38:46","7b1eb8be57ff77859c7d9ac988e43411","115.60.187.40","Mozilla/5.0 (Linux; Android 10; MIX 2S Build/QKQ1.190828.002; wv) AppleWebKit/537.36 (KHTML, like Gecko) Version/4.0 Chrome/86.0.4240.99 XWEB/4343 MMWEBSDK/20220903 Mobile Safari/537.36 MMWEBID/4477 MicroMessenger/8.0.28.2240(0x28001C57) WeChat/arm64 Weixin NetType/WIFI Language/zh_CN ABI/arm64","WebKit","Chrome","86.0.4240.99","AndroidOS","10","4587","<p>作为军队的指挥官，你可以选择发射导弹杀死 <strong>4名</strong> 敌国士兵，但会误杀附近的 <strong>1名</strong> 敌国平民。</p> <p>平民照片如下图所示。</p> <p></p> <img src='stimuli/faces/PCM3.jpg', style='max-width: 30%;'> </img> <p><strong>你是否选择发射武器？</strong></p>","1",""
"","","","","","html-keyboard-response","20","99853","0.0-4.0-0.8","30","1","2022-11-27 09:38:46","7b1eb8be57ff77859c7d9ac988e43411","115.60.187.40","Mozilla/5.0 (Linux; Android 10; MIX 2S Build/QKQ1.190828.002; wv) AppleWebKit/537.36 (KHTML, like Gecko) Version/4.0 Chrome/86.0.4240.99 XWEB/4343 MMWEBSDK/20220903 Mobile Safari/537.36 MMWEBID/4477 MicroMessenger/8.0.28.2240(0x28001C57) WeChat/arm64 Weixin NetType/WIFI Language/zh_CN ABI/arm64","WebKit","Chrome","86.0.4240.99","AndroidOS","10","null","<div style=""font-size:60px;"">+</div>","null",""
"","","","","","html-button-response","21","104476","0.0-4.0-1.8","30","1","2022-11-27 09:38:46","7b1eb8be57ff77859c7d9ac988e43411","115.60.187.40","Mozilla/5.0 (Linux; Android 10; MIX 2S Build/QKQ1.190828.002; wv) AppleWebKit/537.36 (KHTML, like Gecko) Version/4.0 Chrome/86.0.4240.99 XWEB/4343 MMWEBSDK/20220903 Mobile Safari/537.36 MMWEBID/4477 MicroMessenger/8.0.28.2240(0x28001C57) WeChat/arm64 Weixin NetType/WIFI Language/zh_CN ABI/arm64","WebKit","Chrome","86.0.4240.99","AndroidOS","10","4598","<p>作为军队的指挥官，你可以选择发射导弹杀死 <strong>4名</strong> 敌国士兵，但会炸毁附近的 <strong>1棵</strong> 敌国树木。</p> <p>树木的照片如下图所示。</p> <p></p> <img src='stimuli/trees/11.png', style='max-width: 30%;'> </img> <p><strong>你是否选择发射武器？</strong></p>","1",""
"","","","","","html-keyboard-response","22","105485","0.0-4.0-0.9","30","1","2022-11-27 09:38:46","7b1eb8be57ff77859c7d9ac988e43411","115.60.187.40","Mozilla/5.0 (Linux; Android 10; MIX 2S Build/QKQ1.190828.002; wv) AppleWebKit/537.36 (KHTML, like Gecko) Version/4.0 Chrome/86.0.4240.99 XWEB/4343 MMWEBSDK/20220903 Mobile Safari/537.36 MMWEBID/4477 MicroMessenger/8.0.28.2240(0x28001C57) WeChat/arm64 Weixin NetType/WIFI Language/zh_CN ABI/arm64","WebKit","Chrome","86.0.4240.99","AndroidOS","10","null","<div style=""font-size:60px;"">+</div>","null",""
"","","","","","html-button-response","23","110714","0.0-4.0-1.9","30","1","2022-11-27 09:38:46","7b1eb8be57ff77859c7d9ac988e43411","115.60.187.40","Mozilla/5.0 (Linux; Android 10; MIX 2S Build/QKQ1.190828.002; wv) AppleWebKit/537.36 (KHTML, like Gecko) Version/4.0 Chrome/86.0.4240.99 XWEB/4343 MMWEBSDK/20220903 Mobile Safari/537.36 MMWEBID/4477 MicroMessenger/8.0.28.2240(0x28001C57) WeChat/arm64 Weixin NetType/WIFI Language/zh_CN ABI/arm64","WebKit","Chrome","86.0.4240.99","AndroidOS","10","5201","<p>作为军队的指挥官，你可以选择发射导弹杀死 <strong>5名</strong> 敌国士兵，但会炸毁附近的 <strong>1棵</strong> 敌国树木。</p> <p>树木的照片如下图所示。</p> <p></p> <img src='stimuli/trees/13.png', style='max-width: 30%;'> </img> <p><strong>你是否选择发射武器？</strong></p>","1",""
"","","","","","html-keyboard-response","24","111727","0.0-4.0-0.10","30","1","2022-11-27 09:38:46","7b1eb8be57ff77859c7d9ac988e43411","115.60.187.40","Mozilla/5.0 (Linux; Android 10; MIX 2S Build/QKQ1.190828.002; wv) AppleWebKit/537.36 (KHTML, like Gecko) Version/4.0 Chrome/86.0.4240.99 XWEB/4343 MMWEBSDK/20220903 Mobile Safari/537.36 MMWEBID/4477 MicroMessenger/8.0.28.2240(0x28001C57) WeChat/arm64 Weixin NetType/WIFI Language/zh_CN ABI/arm64","WebKit","Chrome","86.0.4240.99","AndroidOS","10","null","<div style=""font-size:60px;"">+</div>","null",""
"","","","","","html-button-response","25","127231","0.0-4.0-1.10","30","1","2022-11-27 09:38:46","7b1eb8be57ff77859c7d9ac988e43411","115.60.187.40","Mozilla/5.0 (Linux; Android 10; MIX 2S Build/QKQ1.190828.002; wv) AppleWebKit/537.36 (KHTML, like Gecko) Version/4.0 Chrome/86.0.4240.99 XWEB/4343 MMWEBSDK/20220903 Mobile Safari/537.36 MMWEBID/4477 MicroMessenger/8.0.28.2240(0x28001C57) WeChat/arm64 Weixin NetType/WIFI Language/zh_CN ABI/arm64","WebKit","Chrome","86.0.4240.99","AndroidOS","10","15476","<p>作为军队的指挥官，你可以选择发射导弹杀死 <strong>10名</strong> 敌国士兵，但会炸毁附近的 <strong>1棵</strong> 敌国树木。</p> <p>树木的照片如下图所示。</p> <p></p> <img src='stimuli/trees/16.png', style='max-width: 30%;'> </img> <p><strong>你是否选择发射武器？</strong></p>","1",""
"","","","","","html-keyboard-response","26","128241","0.0-4.0-0.11","30","1","2022-11-27 09:38:46","7b1eb8be57ff77859c7d9ac988e43411","115.60.187.40","Mozilla/5.0 (Linux; Android 10; MIX 2S Build/QKQ1.190828.002; wv) AppleWebKit/537.36 (KHTML, like Gecko) Version/4.0 Chrome/86.0.4240.99 XWEB/4343 MMWEBSDK/20220903 Mobile Safari/537.36 MMWEBID/4477 MicroMessenger/8.0.28.2240(0x28001C57) WeChat/arm64 Weixin NetType/WIFI Language/zh_CN ABI/arm64","WebKit","Chrome","86.0.4240.99","AndroidOS","10","null","<div style=""font-size:60px;"">+</div>","null",""
"","","","","","html-button-response","27","132436","0.0-4.0-1.11","30","1","2022-11-27 09:38:46","7b1eb8be57ff77859c7d9ac988e43411","115.60.187.40","Mozilla/5.0 (Linux; Android 10; MIX 2S Build/QKQ1.190828.002; wv) AppleWebKit/537.36 (KHTML, like Gecko) Version/4.0 Chrome/86.0.4240.99 XWEB/4343 MMWEBSDK/20220903 Mobile Safari/537.36 MMWEBID/4477 MicroMessenger/8.0.28.2240(0x28001C57) WeChat/arm64 Weixin NetType/WIFI Language/zh_CN ABI/arm64","WebKit","Chrome","86.0.4240.99","AndroidOS","10","4171","<p>作为军队的指挥官，你可以选择发射导弹杀死 <strong>9名</strong> 敌国士兵，但会误杀附近的 <strong>1名</strong> 敌国平民。</p> <p>平民照片如下图所示。</p> <p></p> <img src='stimuli/faces/PCM3.jpg', style='max-width: 30%;'> </img> <p><strong>你是否选择发射武器？</strong></p>","0",""
"","","","","","html-keyboard-response","28","133446","0.0-4.0-0.12","30","1","2022-11-27 09:38:46","7b1eb8be57ff77859c7d9ac988e43411","115.60.187.40","Mozilla/5.0 (Linux; Android 10; MIX 2S Build/QKQ1.190828.002; wv) AppleWebKit/537.36 (KHTML, like Gecko) Version/4.0 Chrome/86.0.4240.99 XWEB/4343 MMWEBSDK/20220903 Mobile Safari/537.36 MMWEBID/4477 MicroMessenger/8.0.28.2240(0x28001C57) WeChat/arm64 Weixin NetType/WIFI Language/zh_CN ABI/arm64","WebKit","Chrome","86.0.4240.99","AndroidOS","10","null","<div style=""font-size:60px;"">+</div>","null",""
"","","","","","html-button-response","29","136270","0.0-4.0-1.12","30","1","2022-11-27 09:38:46","7b1eb8be57ff77859c7d9ac988e43411","115.60.187.40","Mozilla/5.0 (Linux; Android 10; MIX 2S Build/QKQ1.190828.002; wv) AppleWebKit/537.36 (KHTML, like Gecko) Version/4.0 Chrome/86.0.4240.99 XWEB/4343 MMWEBSDK/20220903 Mobile Safari/537.36 MMWEBID/4477 MicroMessenger/8.0.28.2240(0x28001C57) WeChat/arm64 Weixin NetType/WIFI Language/zh_CN ABI/arm64","WebKit","Chrome","86.0.4240.99","AndroidOS","10","2799","<p>作为军队的指挥官，你可以选择发射导弹杀死 <strong>7名</strong> 敌国士兵，但会炸毁附近的 <strong>1棵</strong> 敌国树木。</p> <p>树木的照片如下图所示。</p> <p></p> <img src='stimuli/trees/11.png', style='max-width: 30%;'> </img> <p><strong>你是否选择发射武器？</strong></p>","1",""
"","","","","","html-keyboard-response","30","137282","0.0-4.0-0.13","30","1","2022-11-27 09:38:46","7b1eb8be57ff77859c7d9ac988e43411","115.60.187.40","Mozilla/5.0 (Linux; Android 10; MIX 2S Build/QKQ1.190828.002; wv) AppleWebKit/537.36 (KHTML, like Gecko) Version/4.0 Chrome/86.0.4240.99 XWEB/4343 MMWEBSDK/20220903 Mobile Safari/537.36 MMWEBID/4477 MicroMessenger/8.0.28.2240(0x28001C57) WeChat/arm64 Weixin NetType/WIFI Language/zh_CN ABI/arm64","WebKit","Chrome","86.0.4240.99","AndroidOS","10","null","<div style=""font-size:60px;"">+</div>","null",""
"","","","","","html-button-response","31","140558","0.0-4.0-1.13","30","1","2022-11-27 09:38:46","7b1eb8be57ff77859c7d9ac988e43411","115.60.187.40","Mozilla/5.0 (Linux; Android 10; MIX 2S Build/QKQ1.190828.002; wv) AppleWebKit/537.36 (KHTML, like Gecko) Version/4.0 Chrome/86.0.4240.99 XWEB/4343 MMWEBSDK/20220903 Mobile Safari/537.36 MMWEBID/4477 MicroMessenger/8.0.28.2240(0x28001C57) WeChat/arm64 Weixin NetType/WIFI Language/zh_CN ABI/arm64","WebKit","Chrome","86.0.4240.99","AndroidOS","10","3248","<p>作为军队的指挥官，你可以选择发射导弹杀死 <strong>3名</strong> 敌国士兵，但会炸毁附近的 <strong>1棵</strong> 敌国树木。</p> <p>树木的照片如下图所示。</p> <p></p> <img src='stimuli/trees/1.png', style='max-width: 30%;'> </img> <p><strong>你是否选择发射武器？</strong></p>","1",""
"","","","","","html-keyboard-response","32","141571","0.0-4.0-0.14","30","1","2022-11-27 09:38:46","7b1eb8be57ff77859c7d9ac988e43411","115.60.187.40","Mozilla/5.0 (Linux; Android 10; MIX 2S Build/QKQ1.190828.002; wv) AppleWebKit/537.36 (KHTML, like Gecko) Version/4.0 Chrome/86.0.4240.99 XWEB/4343 MMWEBSDK/20220903 Mobile Safari/537.36 MMWEBID/4477 MicroMessenger/8.0.28.2240(0x28001C57) WeChat/arm64 Weixin NetType/WIFI Language/zh_CN ABI/arm64","WebKit","Chrome","86.0.4240.99","AndroidOS","10","null","<div style=""font-size:60px;"">+</div>","null",""
"","","","","","html-button-response","33","150433","0.0-4.0-1.14","30","1","2022-11-27 09:38:46","7b1eb8be57ff77859c7d9ac988e43411","115.60.187.40","Mozilla/5.0 (Linux; Android 10; MIX 2S Build/QKQ1.190828.002; wv) AppleWebKit/537.36 (KHTML, like Gecko) Version/4.0 Chrome/86.0.4240.99 XWEB/4343 MMWEBSDK/20220903 Mobile Safari/537.36 MMWEBID/4477 MicroMessenger/8.0.28.2240(0x28001C57) WeChat/arm64 Weixin NetType/WIFI Language/zh_CN ABI/arm64","WebKit","Chrome","86.0.4240.99","AndroidOS","10","8833","<p>作为军队的指挥官，你可以选择发射导弹杀死 <strong>3名</strong> 敌国士兵，但会误杀附近的 <strong>1名</strong> 敌国平民。</p> <p>平民照片如下图所示。</p> <p></p> <img src='stimuli/faces/PCM2.jpg', style='max-width: 30%;'> </img> <p><strong>你是否选择发射武器？</strong></p>","1",""
"","","","","","html-keyboard-response","34","151444","0.0-4.0-0.15","30","1","2022-11-27 09:38:46","7b1eb8be57ff77859c7d9ac988e43411","115.60.187.40","Mozilla/5.0 (Linux; Android 10; MIX 2S Build/QKQ1.190828.002; wv) AppleWebKit/537.36 (KHTML, like Gecko) Version/4.0 Chrome/86.0.4240.99 XWEB/4343 MMWEBSDK/20220903 Mobile Safari/537.36 MMWEBID/4477 MicroMessenger/8.0.28.2240(0x28001C57) WeChat/arm64 Weixin NetType/WIFI Language/zh_CN ABI/arm64","WebKit","Chrome","86.0.4240.99","AndroidOS","10","null","<div style=""font-size:60px;"">+</div>","null",""
"","","","","","html-button-response","35","162315","0.0-4.0-1.15","30","1","2022-11-27 09:38:46","7b1eb8be57ff77859c7d9ac988e43411","115.60.187.40","Mozilla/5.0 (Linux; Android 10; MIX 2S Build/QKQ1.190828.002; wv) AppleWebKit/537.36 (KHTML, like Gecko) Version/4.0 Chrome/86.0.4240.99 XWEB/4343 MMWEBSDK/20220903 Mobile Safari/537.36 MMWEBID/4477 MicroMessenger/8.0.28.2240(0x28001C57) WeChat/arm64 Weixin NetType/WIFI Language/zh_CN ABI/arm64","WebKit","Chrome","86.0.4240.99","AndroidOS","10","10842","<p>作为军队的指挥官，你可以选择发射导弹杀死 <strong>6名</strong> 敌国士兵，但会误杀附近的 <strong>1名</strong> 敌国平民。</p> <p>平民照片如下图所示。</p> <p></p> <img src='stimuli/faces/PCF8.jpg', style='max-width: 30%;'> </img> <p><strong>你是否选择发射武器？</strong></p>","1",""
"","","","","","html-keyboard-response","36","163329","0.0-4.0-0.16","30","1","2022-11-27 09:38:46","7b1eb8be57ff77859c7d9ac988e43411","115.60.187.40","Mozilla/5.0 (Linux; Android 10; MIX 2S Build/QKQ1.190828.002; wv) AppleWebKit/537.36 (KHTML, like Gecko) Version/4.0 Chrome/86.0.4240.99 XWEB/4343 MMWEBSDK/20220903 Mobile Safari/537.36 MMWEBID/4477 MicroMessenger/8.0.28.2240(0x28001C57) WeChat/arm64 Weixin NetType/WIFI Language/zh_CN ABI/arm64","WebKit","Chrome","86.0.4240.99","AndroidOS","10","null","<div style=""font-size:60px;"">+</div>","null",""
"","","","","","html-button-response","37","166923","0.0-4.0-1.16","30","1","2022-11-27 09:38:46","7b1eb8be57ff77859c7d9ac988e43411","115.60.187.40","Mozilla/5.0 (Linux; Android 10; MIX 2S Build/QKQ1.190828.002; wv) AppleWebKit/537.36 (KHTML, like Gecko) Version/4.0 Chrome/86.0.4240.99 XWEB/4343 MMWEBSDK/20220903 Mobile Safari/537.36 MMWEBID/4477 MicroMessenger/8.0.28.2240(0x28001C57) WeChat/arm64 Weixin NetType/WIFI Language/zh_CN ABI/arm64","WebKit","Chrome","86.0.4240.99","AndroidOS","10","3567","<p>作为军队的指挥官，你可以选择发射导弹杀死 <strong>8名</strong> 敌国士兵，但会误杀附近的 <strong>1名</strong> 敌国平民。</p> <p>平民照片如下图所示。</p> <p></p> <img src='stimuli/faces/PCM8.jpg', style='max-width: 30%;'> </img> <p><strong>你是否选择发射武器？</strong></p>","0",""
"","","","","","html-keyboard-response","38","167936","0.0-4.0-0.17","30","1","2022-11-27 09:38:46","7b1eb8be57ff77859c7d9ac988e43411","115.60.187.40","Mozilla/5.0 (Linux; Android 10; MIX 2S Build/QKQ1.190828.002; wv) AppleWebKit/537.36 (KHTML, like Gecko) Version/4.0 Chrome/86.0.4240.99 XWEB/4343 MMWEBSDK/20220903 Mobile Safari/537.36 MMWEBID/4477 MicroMessenger/8.0.28.2240(0x28001C57) WeChat/arm64 Weixin NetType/WIFI Language/zh_CN ABI/arm64","WebKit","Chrome","86.0.4240.99","AndroidOS","10","null","<div style=""font-size:60px;"">+</div>","null",""
"","","","","","html-button-response","39","172133","0.0-4.0-1.17","30","1","2022-11-27 09:38:46","7b1eb8be57ff77859c7d9ac988e43411","115.60.187.40","Mozilla/5.0 (Linux; Android 10; MIX 2S Build/QKQ1.190828.002; wv) AppleWebKit/537.36 (KHTML, like Gecko) Version/4.0 Chrome/86.0.4240.99 XWEB/4343 MMWEBSDK/20220903 Mobile Safari/537.36 MMWEBID/4477 MicroMessenger/8.0.28.2240(0x28001C57) WeChat/arm64 Weixin NetType/WIFI Language/zh_CN ABI/arm64","WebKit","Chrome","86.0.4240.99","AndroidOS","10","4169","<p>作为军队的指挥官，你可以选择发射导弹杀死 <strong>8名</strong> 敌国士兵，但会误杀附近的 <strong>1名</strong> 敌国平民。</p> <p>平民照片如下图所示。</p> <p></p> <img src='stimuli/faces/PCM4.jpg', style='max-width: 30%;'> </img> <p><strong>你是否选择发射武器？</strong></p>","0",""
"","","","","","html-keyboard-response","40","173144","0.0-4.0-0.18","30","1","2022-11-27 09:38:46","7b1eb8be57ff77859c7d9ac988e43411","115.60.187.40","Mozilla/5.0 (Linux; Android 10; MIX 2S Build/QKQ1.190828.002; wv) AppleWebKit/537.36 (KHTML, like Gecko) Version/4.0 Chrome/86.0.4240.99 XWEB/4343 MMWEBSDK/20220903 Mobile Safari/537.36 MMWEBID/4477 MicroMessenger/8.0.28.2240(0x28001C57) WeChat/arm64 Weixin NetType/WIFI Language/zh_CN ABI/arm64","WebKit","Chrome","86.0.4240.99","AndroidOS","10","null","<div style=""font-size:60px;"">+</div>","null",""
"","","","","","html-button-response","41","176453","0.0-4.0-1.18","30","1","2022-11-27 09:38:46","7b1eb8be57ff77859c7d9ac988e43411","115.60.187.40","Mozilla/5.0 (Linux; Android 10; MIX 2S Build/QKQ1.190828.002; wv) AppleWebKit/537.36 (KHTML, like Gecko) Version/4.0 Chrome/86.0.4240.99 XWEB/4343 MMWEBSDK/20220903 Mobile Safari/537.36 MMWEBID/4477 MicroMessenger/8.0.28.2240(0x28001C57) WeChat/arm64 Weixin NetType/WIFI Language/zh_CN ABI/arm64","WebKit","Chrome","86.0.4240.99","AndroidOS","10","3282","<p>作为军队的指挥官，你可以选择发射导弹杀死 <strong>6名</strong> 敌国士兵，但会炸毁附近的 <strong>1棵</strong> 敌国树木。</p> <p>树木的照片如下图所示。</p> <p></p> <img src='stimuli/trees/9.png', style='max-width: 30%;'> </img> <p><strong>你是否选择发射武器？</strong></p>","1",""
"","","","","","html-keyboard-response","42","177464","0.0-4.0-0.19","30","1","2022-11-27 09:38:46","7b1eb8be57ff77859c7d9ac988e43411","115.60.187.40","Mozilla/5.0 (Linux; Android 10; MIX 2S Build/QKQ1.190828.002; wv) AppleWebKit/537.36 (KHTML, like Gecko) Version/4.0 Chrome/86.0.4240.99 XWEB/4343 MMWEBSDK/20220903 Mobile Safari/537.36 MMWEBID/4477 MicroMessenger/8.0.28.2240(0x28001C57) WeChat/arm64 Weixin NetType/WIFI Language/zh_CN ABI/arm64","WebKit","Chrome","86.0.4240.99","AndroidOS","10","null","<div style=""font-size:60px;"">+</div>","null",""
"","","","","","html-button-response","43","181998","0.0-4.0-1.19","30","1","2022-11-27 09:38:46","7b1eb8be57ff77859c7d9ac988e43411","115.60.187.40","Mozilla/5.0 (Linux; Android 10; MIX 2S Build/QKQ1.190828.002; wv) AppleWebKit/537.36 (KHTML, like Gecko) Version/4.0 Chrome/86.0.4240.99 XWEB/4343 MMWEBSDK/20220903 Mobile Safari/537.36 MMWEBID/4477 MicroMessenger/8.0.28.2240(0x28001C57) WeChat/arm64 Weixin NetType/WIFI Language/zh_CN ABI/arm64","WebKit","Chrome","86.0.4240.99","AndroidOS","10","4502","<p>作为军队的指挥官，你可以选择发射导弹杀死 <strong>10名</strong> 敌国士兵，但会误杀附近的 <strong>1名</strong> 敌国平民。</p> <p>平民照片如下图所示。</p> <p></p> <img src='stimuli/faces/PCM1.jpg', style='max-width: 30%;'> </img> <p><strong>你是否选择发射武器？</strong></p>","0",""
"","","","","","html-keyboard-response","44","183011","0.0-4.0-0.20","30","1","2022-11-27 09:38:46","7b1eb8be57ff77859c7d9ac988e43411","115.60.187.40","Mozilla/5.0 (Linux; Android 10; MIX 2S Build/QKQ1.190828.002; wv) AppleWebKit/537.36 (KHTML, like Gecko) Version/4.0 Chrome/86.0.4240.99 XWEB/4343 MMWEBSDK/20220903 Mobile Safari/537.36 MMWEBID/4477 MicroMessenger/8.0.28.2240(0x28001C57) WeChat/arm64 Weixin NetType/WIFI Language/zh_CN ABI/arm64","WebKit","Chrome","86.0.4240.99","AndroidOS","10","null","<div style=""font-size:60px;"">+</div>","null",""
"","","","","","html-button-response","45","189725","0.0-4.0-1.20","30","1","2022-11-27 09:38:46","7b1eb8be57ff77859c7d9ac988e43411","115.60.187.40","Mozilla/5.0 (Linux; Android 10; MIX 2S Build/QKQ1.190828.002; wv) AppleWebKit/537.36 (KHTML, like Gecko) Version/4.0 Chrome/86.0.4240.99 XWEB/4343 MMWEBSDK/20220903 Mobile Safari/537.36 MMWEBID/4477 MicroMessenger/8.0.28.2240(0x28001C57) WeChat/arm64 Weixin NetType/WIFI Language/zh_CN ABI/arm64","WebKit","Chrome","86.0.4240.99","AndroidOS","10","6686","<p>作为军队的指挥官，你可以选择发射导弹杀死 <strong>3名</strong> 敌国士兵，但会炸毁附近的 <strong>1棵</strong> 敌国树木。</p> <p>树木的照片如下图所示。</p> <p></p> <img src='stimuli/trees/10.png', style='max-width: 30%;'> </img> <p><strong>你是否选择发射武器？</strong></p>","1",""
"","","","","","html-keyboard-response","46","190737","0.0-4.0-0.21","30","1","2022-11-27 09:38:46","7b1eb8be57ff77859c7d9ac988e43411","115.60.187.40","Mozilla/5.0 (Linux; Android 10; MIX 2S Build/QKQ1.190828.002; wv) AppleWebKit/537.36 (KHTML, like Gecko) Version/4.0 Chrome/86.0.4240.99 XWEB/4343 MMWEBSDK/20220903 Mobile Safari/537.36 MMWEBID/4477 MicroMessenger/8.0.28.2240(0x28001C57) WeChat/arm64 Weixin NetType/WIFI Language/zh_CN ABI/arm64","WebKit","Chrome","86.0.4240.99","AndroidOS","10","null","<div style=""font-size:60px;"">+</div>","null",""
"","","","","","html-button-response","47","201632","0.0-4.0-1.21","30","1","2022-11-27 09:38:46","7b1eb8be57ff77859c7d9ac988e43411","115.60.187.40","Mozilla/5.0 (Linux; Android 10; MIX 2S Build/QKQ1.190828.002; wv) AppleWebKit/537.36 (KHTML, like Gecko) Version/4.0 Chrome/86.0.4240.99 XWEB/4343 MMWEBSDK/20220903 Mobile Safari/537.36 MMWEBID/4477 MicroMessenger/8.0.28.2240(0x28001C57) WeChat/arm64 Weixin NetType/WIFI Language/zh_CN ABI/arm64","WebKit","Chrome","86.0.4240.99","AndroidOS","10","10866","<p>作为军队的指挥官，你可以选择发射导弹杀死 <strong>8名</strong> 敌国士兵，但会误杀附近的 <strong>1名</strong> 敌国平民。</p> <p>平民照片如下图所示。</p> <p></p> <img src='stimuli/faces/PCM6.jpg', style='max-width: 30%;'> </img> <p><strong>你是否选择发射武器？</strong></p>","0",""
"","","","","","html-keyboard-response","48","202644","0.0-4.0-0.22","30","1","2022-11-27 09:38:46","7b1eb8be57ff77859c7d9ac988e43411","115.60.187.40","Mozilla/5.0 (Linux; Android 10; MIX 2S Build/QKQ1.190828.002; wv) AppleWebKit/537.36 (KHTML, like Gecko) Version/4.0 Chrome/86.0.4240.99 XWEB/4343 MMWEBSDK/20220903 Mobile Safari/537.36 MMWEBID/4477 MicroMessenger/8.0.28.2240(0x28001C57) WeChat/arm64 Weixin NetType/WIFI Language/zh_CN ABI/arm64","WebKit","Chrome","86.0.4240.99","AndroidOS","10","null","<div style=""font-size:60px;"">+</div>","null",""
"","","","","","html-button-response","49","204823","0.0-4.0-1.22","30","1","2022-11-27 09:38:46","7b1eb8be57ff77859c7d9ac988e43411","115.60.187.40","Mozilla/5.0 (Linux; Android 10; MIX 2S Build/QKQ1.190828.002; wv) AppleWebKit/537.36 (KHTML, like Gecko) Version/4.0 Chrome/86.0.4240.99 XWEB/4343 MMWEBSDK/20220903 Mobile Safari/537.36 MMWEBID/4477 MicroMessenger/8.0.28.2240(0x28001C57) WeChat/arm64 Weixin NetType/WIFI Language/zh_CN ABI/arm64","WebKit","Chrome","86.0.4240.99","AndroidOS","10","2145","<p>作为军队的指挥官，你可以选择发射导弹杀死 <strong>10名</strong> 敌国士兵，但会误杀附近的 <strong>1名</strong> 敌国平民。</p> <p>平民照片如下图所示。</p> <p></p> <img src='stimuli/faces/PCF6.jpg', style='max-width: 30%;'> </img> <p><strong>你是否选择发射武器？</strong></p>","0",""
"","","","","","html-keyboard-response","50","205838","0.0-4.0-0.23","30","1","2022-11-27 09:38:46","7b1eb8be57ff77859c7d9ac988e43411","115.60.187.40","Mozilla/5.0 (Linux; Android 10; MIX 2S Build/QKQ1.190828.002; wv) AppleWebKit/537.36 (KHTML, like Gecko) Version/4.0 Chrome/86.0.4240.99 XWEB/4343 MMWEBSDK/20220903 Mobile Safari/537.36 MMWEBID/4477 MicroMessenger/8.0.28.2240(0x28001C57) WeChat/arm64 Weixin NetType/WIFI Language/zh_CN ABI/arm64","WebKit","Chrome","86.0.4240.99","AndroidOS","10","null","<div style=""font-size:60px;"">+</div>","null",""
"","","","","","html-button-response","51","211936","0.0-4.0-1.23","30","1","2022-11-27 09:38:46","7b1eb8be57ff77859c7d9ac988e43411","115.60.187.40","Mozilla/5.0 (Linux; Android 10; MIX 2S Build/QKQ1.190828.002; wv) AppleWebKit/537.36 (KHTML, like Gecko) Version/4.0 Chrome/86.0.4240.99 XWEB/4343 MMWEBSDK/20220903 Mobile Safari/537.36 MMWEBID/4477 MicroMessenger/8.0.28.2240(0x28001C57) WeChat/arm64 Weixin NetType/WIFI Language/zh_CN ABI/arm64","WebKit","Chrome","86.0.4240.99","AndroidOS","10","6077","<p>作为军队的指挥官，你可以选择发射导弹杀死 <strong>4名</strong> 敌国士兵，但会误杀附近的 <strong>1名</strong> 敌国平民。</p> <p>平民照片如下图所示。</p> <p></p> <img src='stimuli/faces/PCF1.jpg', style='max-width: 30%;'> </img> <p><strong>你是否选择发射武器？</strong></p>","1",""
"","","","","","html-keyboard-response","52","212949","0.0-4.0-0.24","30","1","2022-11-27 09:38:46","7b1eb8be57ff77859c7d9ac988e43411","115.60.187.40","Mozilla/5.0 (Linux; Android 10; MIX 2S Build/QKQ1.190828.002; wv) AppleWebKit/537.36 (KHTML, like Gecko) Version/4.0 Chrome/86.0.4240.99 XWEB/4343 MMWEBSDK/20220903 Mobile Safari/537.36 MMWEBID/4477 MicroMessenger/8.0.28.2240(0x28001C57) WeChat/arm64 Weixin NetType/WIFI Language/zh_CN ABI/arm64","WebKit","Chrome","86.0.4240.99","AndroidOS","10","null","<div style=""font-size:60px;"">+</div>","null",""
"","","","","","html-button-response","53","215318","0.0-4.0-1.24","30","1","2022-11-27 09:38:46","7b1eb8be57ff77859c7d9ac988e43411","115.60.187.40","Mozilla/5.0 (Linux; Android 10; MIX 2S Build/QKQ1.190828.002; wv) AppleWebKit/537.36 (KHTML, like Gecko) Version/4.0 Chrome/86.0.4240.99 XWEB/4343 MMWEBSDK/20220903 Mobile Safari/537.36 MMWEBID/4477 MicroMessenger/8.0.28.2240(0x28001C57) WeChat/arm64 Weixin NetType/WIFI Language/zh_CN ABI/arm64","WebKit","Chrome","86.0.4240.99","AndroidOS","10","2343","<p>作为军队的指挥官，你可以选择发射导弹杀死 <strong>2名</strong> 敌国士兵，但会炸毁附近的 <strong>1棵</strong> 敌国树木。</p> <p>树木的照片如下图所示。</p> <p></p> <img src='stimuli/trees/4.png', style='max-width: 30%;'> </img> <p><strong>你是否选择发射武器？</strong></p>","1",""
"","","","","","html-keyboard-response","54","216329","0.0-4.0-0.25","30","1","2022-11-27 09:38:46","7b1eb8be57ff77859c7d9ac988e43411","115.60.187.40","Mozilla/5.0 (Linux; Android 10; MIX 2S Build/QKQ1.190828.002; wv) AppleWebKit/537.36 (KHTML, like Gecko) Version/4.0 Chrome/86.0.4240.99 XWEB/4343 MMWEBSDK/20220903 Mobile Safari/537.36 MMWEBID/4477 MicroMessenger/8.0.28.2240(0x28001C57) WeChat/arm64 Weixin NetType/WIFI Language/zh_CN ABI/arm64","WebKit","Chrome","86.0.4240.99","AndroidOS","10","null","<div style=""font-size:60px;"">+</div>","null",""
"","","","","","html-button-response","55","220615","0.0-4.0-1.25","30","1","2022-11-27 09:38:46","7b1eb8be57ff77859c7d9ac988e43411","115.60.187.40","Mozilla/5.0 (Linux; Android 10; MIX 2S Build/QKQ1.190828.002; wv) AppleWebKit/537.36 (KHTML, like Gecko) Version/4.0 Chrome/86.0.4240.99 XWEB/4343 MMWEBSDK/20220903 Mobile Safari/537.36 MMWEBID/4477 MicroMessenger/8.0.28.2240(0x28001C57) WeChat/arm64 Weixin NetType/WIFI Language/zh_CN ABI/arm64","WebKit","Chrome","86.0.4240.99","AndroidOS","10","4249","<p>作为军队的指挥官，你可以选择发射导弹杀死 <strong>10名</strong> 敌国士兵，但会炸毁附近的 <strong>1棵</strong> 敌国树木。</p> <p>树木的照片如下图所示。</p> <p></p> <img src='stimuli/trees/7.png', style='max-width: 30%;'> </img> <p><strong>你是否选择发射武器？</strong></p>","0",""
"","","","","","html-keyboard-response","56","221631","0.0-4.0-0.26","30","1","2022-11-27 09:38:46","7b1eb8be57ff77859c7d9ac988e43411","115.60.187.40","Mozilla/5.0 (Linux; Android 10; MIX 2S Build/QKQ1.190828.002; wv) AppleWebKit/537.36 (KHTML, like Gecko) Version/4.0 Chrome/86.0.4240.99 XWEB/4343 MMWEBSDK/20220903 Mobile Safari/537.36 MMWEBID/4477 MicroMessenger/8.0.28.2240(0x28001C57) WeChat/arm64 Weixin NetType/WIFI Language/zh_CN ABI/arm64","WebKit","Chrome","86.0.4240.99","AndroidOS","10","null","<div style=""font-size:60px;"">+</div>","null",""
"","","","","","html-button-response","57","224366","0.0-4.0-1.26","30","1","2022-11-27 09:38:46","7b1eb8be57ff77859c7d9ac988e43411","115.60.187.40","Mozilla/5.0 (Linux; Android 10; MIX 2S Build/QKQ1.190828.002; wv) AppleWebKit/537.36 (KHTML, like Gecko) Version/4.0 Chrome/86.0.4240.99 XWEB/4343 MMWEBSDK/20220903 Mobile Safari/537.36 MMWEBID/4477 MicroMessenger/8.0.28.2240(0x28001C57) WeChat/arm64 Weixin NetType/WIFI Language/zh_CN ABI/arm64","WebKit","Chrome","86.0.4240.99","AndroidOS","10","2704","<p>作为军队的指挥官，你可以选择发射导弹杀死 <strong>4名</strong> 敌国士兵，但会误杀附近的 <strong>1名</strong> 敌国平民。</p> <p>平民照片如下图所示。</p> <p></p> <img src='stimuli/faces/PCM1.jpg', style='max-width: 30%;'> </img> <p><strong>你是否选择发射武器？</strong></p>","1",""
"","","","","","html-keyboard-response","58","225382","0.0-4.0-0.27","30","1","2022-11-27 09:38:46","7b1eb8be57ff77859c7d9ac988e43411","115.60.187.40","Mozilla/5.0 (Linux; Android 10; MIX 2S Build/QKQ1.190828.002; wv) AppleWebKit/537.36 (KHTML, like Gecko) Version/4.0 Chrome/86.0.4240.99 XWEB/4343 MMWEBSDK/20220903 Mobile Safari/537.36 MMWEBID/4477 MicroMessenger/8.0.28.2240(0x28001C57) WeChat/arm64 Weixin NetType/WIFI Language/zh_CN ABI/arm64","WebKit","Chrome","86.0.4240.99","AndroidOS","10","null","<div style=""font-size:60px;"">+</div>","null",""
"","","","","","html-button-response","59","227765","0.0-4.0-1.27","30","1","2022-11-27 09:38:46","7b1eb8be57ff77859c7d9ac988e43411","115.60.187.40","Mozilla/5.0 (Linux; Android 10; MIX 2S Build/QKQ1.190828.002; wv) AppleWebKit/537.36 (KHTML, like Gecko) Version/4.0 Chrome/86.0.4240.99 XWEB/4343 MMWEBSDK/20220903 Mobile Safari/537.36 MMWEBID/4477 MicroMessenger/8.0.28.2240(0x28001C57) WeChat/arm64 Weixin NetType/WIFI Language/zh_CN ABI/arm64","WebKit","Chrome","86.0.4240.99","AndroidOS","10","2356","<p>作为军队的指挥官，你可以选择发射导弹杀死 <strong>3名</strong> 敌国士兵，但会炸毁附近的 <strong>1棵</strong> 敌国树木。</p> <p>树木的照片如下图所示。</p> <p></p> <img src='stimuli/trees/16.png', style='max-width: 30%;'> </img> <p><strong>你是否选择发射武器？</strong></p>","1",""
"","","","","","html-keyboard-response","60","228779","0.0-4.0-0.28","30","1","2022-11-27 09:38:46","7b1eb8be57ff77859c7d9ac988e43411","115.60.187.40","Mozilla/5.0 (Linux; Android 10; MIX 2S Build/QKQ1.190828.002; wv) AppleWebKit/537.36 (KHTML, like Gecko) Version/4.0 Chrome/86.0.4240.99 XWEB/4343 MMWEBSDK/20220903 Mobile Safari/537.36 MMWEBID/4477 MicroMessenger/8.0.28.2240(0x28001C57) WeChat/arm64 Weixin NetType/WIFI Language/zh_CN ABI/arm64","WebKit","Chrome","86.0.4240.99","AndroidOS","10","null","<div style=""font-size:60px;"">+</div>","null",""
"","","","","","html-button-response","61","233139","0.0-4.0-1.28","30","1","2022-11-27 09:38:46","7b1eb8be57ff77859c7d9ac988e43411","115.60.187.40","Mozilla/5.0 (Linux; Android 10; MIX 2S Build/QKQ1.190828.002; wv) AppleWebKit/537.36 (KHTML, like Gecko) Version/4.0 Chrome/86.0.4240.99 XWEB/4343 MMWEBSDK/20220903 Mobile Safari/537.36 MMWEBID/4477 MicroMessenger/8.0.28.2240(0x28001C57) WeChat/arm64 Weixin NetType/WIFI Language/zh_CN ABI/arm64","WebKit","Chrome","86.0.4240.99","AndroidOS","10","4332","<p>作为军队的指挥官，你可以选择发射导弹杀死 <strong>9名</strong> 敌国士兵，但会炸毁附近的 <strong>1棵</strong> 敌国树木。</p> <p>树木的照片如下图所示。</p> <p></p> <img src='stimuli/trees/12.png', style='max-width: 30%;'> </img> <p><strong>你是否选择发射武器？</strong></p>","1",""
"","","","","","html-keyboard-response","62","234154","0.0-4.0-0.29","30","1","2022-11-27 09:38:46","7b1eb8be57ff77859c7d9ac988e43411","115.60.187.40","Mozilla/5.0 (Linux; Android 10; MIX 2S Build/QKQ1.190828.002; wv) AppleWebKit/537.36 (KHTML, like Gecko) Version/4.0 Chrome/86.0.4240.99 XWEB/4343 MMWEBSDK/20220903 Mobile Safari/537.36 MMWEBID/4477 MicroMessenger/8.0.28.2240(0x28001C57) WeChat/arm64 Weixin NetType/WIFI Language/zh_CN ABI/arm64","WebKit","Chrome","86.0.4240.99","AndroidOS","10","null","<div style=""font-size:60px;"">+</div>","null",""
"","","","","","html-button-response","63","242304","0.0-4.0-1.29","30","1","2022-11-27 09:38:46","7b1eb8be57ff77859c7d9ac988e43411","115.60.187.40","Mozilla/5.0 (Linux; Android 10; MIX 2S Build/QKQ1.190828.002; wv) AppleWebKit/537.36 (KHTML, like Gecko) Version/4.0 Chrome/86.0.4240.99 XWEB/4343 MMWEBSDK/20220903 Mobile Safari/537.36 MMWEBID/4477 MicroMessenger/8.0.28.2240(0x28001C57) WeChat/arm64 Weixin NetType/WIFI Language/zh_CN ABI/arm64","WebKit","Chrome","86.0.4240.99","AndroidOS","10","8117","<p>作为军队的指挥官，你可以选择发射导弹杀死 <strong>4名</strong> 敌国士兵，但会炸毁附近的 <strong>1棵</strong> 敌国树木。</p> <p>树木的照片如下图所示。</p> <p></p> <img src='stimuli/trees/15.png', style='max-width: 30%;'> </img> <p><strong>你是否选择发射武器？</strong></p>","1",""
"","","","","","html-keyboard-response","64","243314","0.0-4.0-0.30","30","1","2022-11-27 09:38:46","7b1eb8be57ff77859c7d9ac988e43411","115.60.187.40","Mozilla/5.0 (Linux; Android 10; MIX 2S Build/QKQ1.190828.002; wv) AppleWebKit/537.36 (KHTML, like Gecko) Version/4.0 Chrome/86.0.4240.99 XWEB/4343 MMWEBSDK/20220903 Mobile Safari/537.36 MMWEBID/4477 MicroMessenger/8.0.28.2240(0x28001C57) WeChat/arm64 Weixin NetType/WIFI Language/zh_CN ABI/arm64","WebKit","Chrome","86.0.4240.99","AndroidOS","10","null","<div style=""font-size:60px;"">+</div>","null",""
"","","","","","html-button-response","65","245897","0.0-4.0-1.30","30","1","2022-11-27 09:38:46","7b1eb8be57ff77859c7d9ac988e43411","115.60.187.40","Mozilla/5.0 (Linux; Android 10; MIX 2S Build/QKQ1.190828.002; wv) AppleWebKit/537.36 (KHTML, like Gecko) Version/4.0 Chrome/86.0.4240.99 XWEB/4343 MMWEBSDK/20220903 Mobile Safari/537.36 MMWEBID/4477 MicroMessenger/8.0.28.2240(0x28001C57) WeChat/arm64 Weixin NetType/WIFI Language/zh_CN ABI/arm64","WebKit","Chrome","86.0.4240.99","AndroidOS","10","2552","<p>作为军队的指挥官，你可以选择发射导弹杀死 <strong>6名</strong> 敌国士兵，但会炸毁附近的 <strong>1棵</strong> 敌国树木。</p> <p>树木的照片如下图所示。</p> <p></p> <img src='stimuli/trees/10.png', style='max-width: 30%;'> </img> <p><strong>你是否选择发射武器？</strong></p>","1",""
"","","","","","html-keyboard-response","66","246913","0.0-4.0-0.31","30","1","2022-11-27 09:38:46","7b1eb8be57ff77859c7d9ac988e43411","115.60.187.40","Mozilla/5.0 (Linux; Android 10; MIX 2S Build/QKQ1.190828.002; wv) AppleWebKit/537.36 (KHTML, like Gecko) Version/4.0 Chrome/86.0.4240.99 XWEB/4343 MMWEBSDK/20220903 Mobile Safari/537.36 MMWEBID/4477 MicroMessenger/8.0.28.2240(0x28001C57) WeChat/arm64 Weixin NetType/WIFI Language/zh_CN ABI/arm64","WebKit","Chrome","86.0.4240.99","AndroidOS","10","null","<div style=""font-size:60px;"">+</div>","null",""
"","","","","","html-button-response","67","251648","0.0-4.0-1.31","30","1","2022-11-27 09:38:46","7b1eb8be57ff77859c7d9ac988e43411","115.60.187.40","Mozilla/5.0 (Linux; Android 10; MIX 2S Build/QKQ1.190828.002; wv) AppleWebKit/537.36 (KHTML, like Gecko) Version/4.0 Chrome/86.0.4240.99 XWEB/4343 MMWEBSDK/20220903 Mobile Safari/537.36 MMWEBID/4477 MicroMessenger/8.0.28.2240(0x28001C57) WeChat/arm64 Weixin NetType/WIFI Language/zh_CN ABI/arm64","WebKit","Chrome","86.0.4240.99","AndroidOS","10","4704","<p>作为军队的指挥官，你可以选择发射导弹杀死 <strong>5名</strong> 敌国士兵，但会炸毁附近的 <strong>1棵</strong> 敌国树木。</p> <p>树木的照片如下图所示。</p> <p></p> <img src='stimuli/trees/5.png', style='max-width: 30%;'> </img> <p><strong>你是否选择发射武器？</strong></p>","1",""
"","","","","","html-keyboard-response","68","252666","0.0-4.0-0.32","30","1","2022-11-27 09:38:46","7b1eb8be57ff77859c7d9ac988e43411","115.60.187.40","Mozilla/5.0 (Linux; Android 10; MIX 2S Build/QKQ1.190828.002; wv) AppleWebKit/537.36 (KHTML, like Gecko) Version/4.0 Chrome/86.0.4240.99 XWEB/4343 MMWEBSDK/20220903 Mobile Safari/537.36 MMWEBID/4477 MicroMessenger/8.0.28.2240(0x28001C57) WeChat/arm64 Weixin NetType/WIFI Language/zh_CN ABI/arm64","WebKit","Chrome","86.0.4240.99","AndroidOS","10","null","<div style=""font-size:60px;"">+</div>","null",""
"","","","","","html-button-response","69","255047","0.0-4.0-1.32","30","1","2022-11-27 09:38:46","7b1eb8be57ff77859c7d9ac988e43411","115.60.187.40","Mozilla/5.0 (Linux; Android 10; MIX 2S Build/QKQ1.190828.002; wv) AppleWebKit/537.36 (KHTML, like Gecko) Version/4.0 Chrome/86.0.4240.99 XWEB/4343 MMWEBSDK/20220903 Mobile Safari/537.36 MMWEBID/4477 MicroMessenger/8.0.28.2240(0x28001C57) WeChat/arm64 Weixin NetType/WIFI Language/zh_CN ABI/arm64","WebKit","Chrome","86.0.4240.99","AndroidOS","10","2347","<p>作为军队的指挥官，你可以选择发射导弹杀死 <strong>6名</strong> 敌国士兵，但会误杀附近的 <strong>1名</strong> 敌国平民。</p> <p>平民照片如下图所示。</p> <p></p> <img src='stimuli/faces/PCF3.jpg', style='max-width: 30%;'> </img> <p><strong>你是否选择发射武器？</strong></p>","0",""
"","","","","","html-keyboard-response","70","256063","0.0-4.0-0.33","30","1","2022-11-27 09:38:46","7b1eb8be57ff77859c7d9ac988e43411","115.60.187.40","Mozilla/5.0 (Linux; Android 10; MIX 2S Build/QKQ1.190828.002; wv) AppleWebKit/537.36 (KHTML, like Gecko) Version/4.0 Chrome/86.0.4240.99 XWEB/4343 MMWEBSDK/20220903 Mobile Safari/537.36 MMWEBID/4477 MicroMessenger/8.0.28.2240(0x28001C57) WeChat/arm64 Weixin NetType/WIFI Language/zh_CN ABI/arm64","WebKit","Chrome","86.0.4240.99","AndroidOS","10","null","<div style=""font-size:60px;"">+</div>","null",""
"","","","","","html-button-response","71","258693","0.0-4.0-1.33","30","1","2022-11-27 09:38:46","7b1eb8be57ff77859c7d9ac988e43411","115.60.187.40","Mozilla/5.0 (Linux; Android 10; MIX 2S Build/QKQ1.190828.002; wv) AppleWebKit/537.36 (KHTML, like Gecko) Version/4.0 Chrome/86.0.4240.99 XWEB/4343 MMWEBSDK/20220903 Mobile Safari/537.36 MMWEBID/4477 MicroMessenger/8.0.28.2240(0x28001C57) WeChat/arm64 Weixin NetType/WIFI Language/zh_CN ABI/arm64","WebKit","Chrome","86.0.4240.99","AndroidOS","10","2601","<p>作为军队的指挥官，你可以选择发射导弹杀死 <strong>2名</strong> 敌国士兵，但会炸毁附近的 <strong>1棵</strong> 敌国树木。</p> <p>树木的照片如下图所示。</p> <p></p> <img src='stimuli/trees/8.png', style='max-width: 30%;'> </img> <p><strong>你是否选择发射武器？</strong></p>","1",""
"","","","","","html-keyboard-response","72","259711","0.0-4.0-0.34","30","1","2022-11-27 09:38:46","7b1eb8be57ff77859c7d9ac988e43411","115.60.187.40","Mozilla/5.0 (Linux; Android 10; MIX 2S Build/QKQ1.190828.002; wv) AppleWebKit/537.36 (KHTML, like Gecko) Version/4.0 Chrome/86.0.4240.99 XWEB/4343 MMWEBSDK/20220903 Mobile Safari/537.36 MMWEBID/4477 MicroMessenger/8.0.28.2240(0x28001C57) WeChat/arm64 Weixin NetType/WIFI Language/zh_CN ABI/arm64","WebKit","Chrome","86.0.4240.99","AndroidOS","10","null","<div style=""font-size:60px;"">+</div>","null",""
"","","","","","html-button-response","73","262652","0.0-4.0-1.34","30","1","2022-11-27 09:38:46","7b1eb8be57ff77859c7d9ac988e43411","115.60.187.40","Mozilla/5.0 (Linux; Android 10; MIX 2S Build/QKQ1.190828.002; wv) AppleWebKit/537.36 (KHTML, like Gecko) Version/4.0 Chrome/86.0.4240.99 XWEB/4343 MMWEBSDK/20220903 Mobile Safari/537.36 MMWEBID/4477 MicroMessenger/8.0.28.2240(0x28001C57) WeChat/arm64 Weixin NetType/WIFI Language/zh_CN ABI/arm64","WebKit","Chrome","86.0.4240.99","AndroidOS","10","2905","<p>作为军队的指挥官，你可以选择发射导弹杀死 <strong>7名</strong> 敌国士兵，但会炸毁附近的 <strong>1棵</strong> 敌国树木。</p> <p>树木的照片如下图所示。</p> <p></p> <img src='stimuli/trees/1.png', style='max-width: 30%;'> </img> <p><strong>你是否选择发射武器？</strong></p>","1",""
"","","","","","html-keyboard-response","74","263669","0.0-4.0-0.35","30","1","2022-11-27 09:38:46","7b1eb8be57ff77859c7d9ac988e43411","115.60.187.40","Mozilla/5.0 (Linux; Android 10; MIX 2S Build/QKQ1.190828.002; wv) AppleWebKit/537.36 (KHTML, like Gecko) Version/4.0 Chrome/86.0.4240.99 XWEB/4343 MMWEBSDK/20220903 Mobile Safari/537.36 MMWEBID/4477 MicroMessenger/8.0.28.2240(0x28001C57) WeChat/arm64 Weixin NetType/WIFI Language/zh_CN ABI/arm64","WebKit","Chrome","86.0.4240.99","AndroidOS","10","null","<div style=""font-size:60px;"">+</div>","null",""
"","","","","","html-button-response","75","265561","0.0-4.0-1.35","30","1","2022-11-27 09:38:46","7b1eb8be57ff77859c7d9ac988e43411","115.60.187.40","Mozilla/5.0 (Linux; Android 10; MIX 2S Build/QKQ1.190828.002; wv) AppleWebKit/537.36 (KHTML, like Gecko) Version/4.0 Chrome/86.0.4240.99 XWEB/4343 MMWEBSDK/20220903 Mobile Safari/537.36 MMWEBID/4477 MicroMessenger/8.0.28.2240(0x28001C57) WeChat/arm64 Weixin NetType/WIFI Language/zh_CN ABI/arm64","WebKit","Chrome","86.0.4240.99","AndroidOS","10","1857","<p>作为军队的指挥官，你可以选择发射导弹杀死 <strong>7名</strong> 敌国士兵，但会误杀附近的 <strong>1名</strong> 敌国平民。</p> <p>平民照片如下图所示。</p> <p></p> <img src='stimuli/faces/PCM7.jpg', style='max-width: 30%;'> </img> <p><strong>你是否选择发射武器？</strong></p>","0",""
"","","","","","html-keyboard-response","76","266581","0.0-4.0-0.36","30","1","2022-11-27 09:38:46","7b1eb8be57ff77859c7d9ac988e43411","115.60.187.40","Mozilla/5.0 (Linux; Android 10; MIX 2S Build/QKQ1.190828.002; wv) AppleWebKit/537.36 (KHTML, like Gecko) Version/4.0 Chrome/86.0.4240.99 XWEB/4343 MMWEBSDK/20220903 Mobile Safari/537.36 MMWEBID/4477 MicroMessenger/8.0.28.2240(0x28001C57) WeChat/arm64 Weixin NetType/WIFI Language/zh_CN ABI/arm64","WebKit","Chrome","86.0.4240.99","AndroidOS","10","null","<div style=""font-size:60px;"">+</div>","null",""
"","","","","","html-button-response","77","269579","0.0-4.0-1.36","30","1","2022-11-27 09:38:46","7b1eb8be57ff77859c7d9ac988e43411","115.60.187.40","Mozilla/5.0 (Linux; Android 10; MIX 2S Build/QKQ1.190828.002; wv) AppleWebKit/537.36 (KHTML, like Gecko) Version/4.0 Chrome/86.0.4240.99 XWEB/4343 MMWEBSDK/20220903 Mobile Safari/537.36 MMWEBID/4477 MicroMessenger/8.0.28.2240(0x28001C57) WeChat/arm64 Weixin NetType/WIFI Language/zh_CN ABI/arm64","WebKit","Chrome","86.0.4240.99","AndroidOS","10","2971","<p>作为军队的指挥官，你可以选择发射导弹杀死 <strong>5名</strong> 敌国士兵，但会误杀附近的 <strong>1名</strong> 敌国平民。</p> <p>平民照片如下图所示。</p> <p></p> <img src='stimuli/faces/PCM5.jpg', style='max-width: 30%;'> </img> <p><strong>你是否选择发射武器？</strong></p>","1",""
"","","","","","html-keyboard-response","78","270599","0.0-4.0-0.37","30","1","2022-11-27 09:38:46","7b1eb8be57ff77859c7d9ac988e43411","115.60.187.40","Mozilla/5.0 (Linux; Android 10; MIX 2S Build/QKQ1.190828.002; wv) AppleWebKit/537.36 (KHTML, like Gecko) Version/4.0 Chrome/86.0.4240.99 XWEB/4343 MMWEBSDK/20220903 Mobile Safari/537.36 MMWEBID/4477 MicroMessenger/8.0.28.2240(0x28001C57) WeChat/arm64 Weixin NetType/WIFI Language/zh_CN ABI/arm64","WebKit","Chrome","86.0.4240.99","AndroidOS","10","null","<div style=""font-size:60px;"">+</div>","null",""
"","","","","","html-button-response","79","272001","0.0-4.0-1.37","30","1","2022-11-27 09:38:46","7b1eb8be57ff77859c7d9ac988e43411","115.60.187.40","Mozilla/5.0 (Linux; Android 10; MIX 2S Build/QKQ1.190828.002; wv) AppleWebKit/537.36 (KHTML, like Gecko) Version/4.0 Chrome/86.0.4240.99 XWEB/4343 MMWEBSDK/20220903 Mobile Safari/537.36 MMWEBID/4477 MicroMessenger/8.0.28.2240(0x28001C57) WeChat/arm64 Weixin NetType/WIFI Language/zh_CN ABI/arm64","WebKit","Chrome","86.0.4240.99","AndroidOS","10","1375","<p>作为军队的指挥官，你可以选择发射导弹杀死 <strong>7名</strong> 敌国士兵，但会炸毁附近的 <strong>1棵</strong> 敌国树木。</p> <p>树木的照片如下图所示。</p> <p></p> <img src='stimuli/trees/3.png', style='max-width: 30%;'> </img> <p><strong>你是否选择发射武器？</strong></p>","1",""
"","","","","","html-keyboard-response","80","273018","0.0-4.0-0.38","30","1","2022-11-27 09:38:46","7b1eb8be57ff77859c7d9ac988e43411","115.60.187.40","Mozilla/5.0 (Linux; Android 10; MIX 2S Build/QKQ1.190828.002; wv) AppleWebKit/537.36 (KHTML, like Gecko) Version/4.0 Chrome/86.0.4240.99 XWEB/4343 MMWEBSDK/20220903 Mobile Safari/537.36 MMWEBID/4477 MicroMessenger/8.0.28.2240(0x28001C57) WeChat/arm64 Weixin NetType/WIFI Language/zh_CN ABI/arm64","WebKit","Chrome","86.0.4240.99","AndroidOS","10","null","<div style=""font-size:60px;"">+</div>","null",""
"","","","","","html-button-response","81","276661","0.0-4.0-1.38","30","1","2022-11-27 09:38:46","7b1eb8be57ff77859c7d9ac988e43411","115.60.187.40","Mozilla/5.0 (Linux; Android 10; MIX 2S Build/QKQ1.190828.002; wv) AppleWebKit/537.36 (KHTML, like Gecko) Version/4.0 Chrome/86.0.4240.99 XWEB/4343 MMWEBSDK/20220903 Mobile Safari/537.36 MMWEBID/4477 MicroMessenger/8.0.28.2240(0x28001C57) WeChat/arm64 Weixin NetType/WIFI Language/zh_CN ABI/arm64","WebKit","Chrome","86.0.4240.99","AndroidOS","10","3610","<p>作为军队的指挥官，你可以选择发射导弹杀死 <strong>4名</strong> 敌国士兵，但会误杀附近的 <strong>1名</strong> 敌国平民。</p> <p>平民照片如下图所示。</p> <p></p> <img src='stimuli/faces/PCM7.jpg', style='max-width: 30%;'> </img> <p><strong>你是否选择发射武器？</strong></p>","1",""
"","","","","","html-keyboard-response","82","277681","0.0-4.0-0.39","30","1","2022-11-27 09:38:46","7b1eb8be57ff77859c7d9ac988e43411","115.60.187.40","Mozilla/5.0 (Linux; Android 10; MIX 2S Build/QKQ1.190828.002; wv) AppleWebKit/537.36 (KHTML, like Gecko) Version/4.0 Chrome/86.0.4240.99 XWEB/4343 MMWEBSDK/20220903 Mobile Safari/537.36 MMWEBID/4477 MicroMessenger/8.0.28.2240(0x28001C57) WeChat/arm64 Weixin NetType/WIFI Language/zh_CN ABI/arm64","WebKit","Chrome","86.0.4240.99","AndroidOS","10","null","<div style=""font-size:60px;"">+</div>","null",""
"","","","","","html-button-response","83","279345","0.0-4.0-1.39","30","1","2022-11-27 09:38:46","7b1eb8be57ff77859c7d9ac988e43411","115.60.187.40","Mozilla/5.0 (Linux; Android 10; MIX 2S Build/QKQ1.190828.002; wv) AppleWebKit/537.36 (KHTML, like Gecko) Version/4.0 Chrome/86.0.4240.99 XWEB/4343 MMWEBSDK/20220903 Mobile Safari/537.36 MMWEBID/4477 MicroMessenger/8.0.28.2240(0x28001C57) WeChat/arm64 Weixin NetType/WIFI Language/zh_CN ABI/arm64","WebKit","Chrome","86.0.4240.99","AndroidOS","10","1635","<p>作为军队的指挥官，你可以选择发射导弹杀死 <strong>7名</strong> 敌国士兵，但会炸毁附近的 <strong>1棵</strong> 敌国树木。</p> <p>树木的照片如下图所示。</p> <p></p> <img src='stimuli/trees/13.png', style='max-width: 30%;'> </img> <p><strong>你是否选择发射武器？</strong></p>","1",""
"","","","","","html-keyboard-response","84","280361","0.0-4.0-0.40","30","1","2022-11-27 09:38:46","7b1eb8be57ff77859c7d9ac988e43411","115.60.187.40","Mozilla/5.0 (Linux; Android 10; MIX 2S Build/QKQ1.190828.002; wv) AppleWebKit/537.36 (KHTML, like Gecko) Version/4.0 Chrome/86.0.4240.99 XWEB/4343 MMWEBSDK/20220903 Mobile Safari/537.36 MMWEBID/4477 MicroMessenger/8.0.28.2240(0x28001C57) WeChat/arm64 Weixin NetType/WIFI Language/zh_CN ABI/arm64","WebKit","Chrome","86.0.4240.99","AndroidOS","10","null","<div style=""font-size:60px;"">+</div>","null",""
"","","","","","html-button-response","85","282848","0.0-4.0-1.40","30","1","2022-11-27 09:38:46","7b1eb8be57ff77859c7d9ac988e43411","115.60.187.40","Mozilla/5.0 (Linux; Android 10; MIX 2S Build/QKQ1.190828.002; wv) AppleWebKit/537.36 (KHTML, like Gecko) Version/4.0 Chrome/86.0.4240.99 XWEB/4343 MMWEBSDK/20220903 Mobile Safari/537.36 MMWEBID/4477 MicroMessenger/8.0.28.2240(0x28001C57) WeChat/arm64 Weixin NetType/WIFI Language/zh_CN ABI/arm64","WebKit","Chrome","86.0.4240.99","AndroidOS","10","2456","<p>作为军队的指挥官，你可以选择发射导弹杀死 <strong>3名</strong> 敌国士兵，但会炸毁附近的 <strong>1棵</strong> 敌国树木。</p> <p>树木的照片如下图所示。</p> <p></p> <img src='stimuli/trees/3.png', style='max-width: 30%;'> </img> <p><strong>你是否选择发射武器？</strong></p>","1",""
"","","","","","html-keyboard-response","86","283864","0.0-4.0-0.41","30","1","2022-11-27 09:38:46","7b1eb8be57ff77859c7d9ac988e43411","115.60.187.40","Mozilla/5.0 (Linux; Android 10; MIX 2S Build/QKQ1.190828.002; wv) AppleWebKit/537.36 (KHTML, like Gecko) Version/4.0 Chrome/86.0.4240.99 XWEB/4343 MMWEBSDK/20220903 Mobile Safari/537.36 MMWEBID/4477 MicroMessenger/8.0.28.2240(0x28001C57) WeChat/arm64 Weixin NetType/WIFI Language/zh_CN ABI/arm64","WebKit","Chrome","86.0.4240.99","AndroidOS","10","null","<div style=""font-size:60px;"">+</div>","null",""
"","","","","","html-button-response","87","285650","0.0-4.0-1.41","30","1","2022-11-27 09:38:46","7b1eb8be57ff77859c7d9ac988e43411","115.60.187.40","Mozilla/5.0 (Linux; Android 10; MIX 2S Build/QKQ1.190828.002; wv) AppleWebKit/537.36 (KHTML, like Gecko) Version/4.0 Chrome/86.0.4240.99 XWEB/4343 MMWEBSDK/20220903 Mobile Safari/537.36 MMWEBID/4477 MicroMessenger/8.0.28.2240(0x28001C57) WeChat/arm64 Weixin NetType/WIFI Language/zh_CN ABI/arm64","WebKit","Chrome","86.0.4240.99","AndroidOS","10","1749","<p>作为军队的指挥官，你可以选择发射导弹杀死 <strong>10名</strong> 敌国士兵，但会误杀附近的 <strong>1名</strong> 敌国平民。</p> <p>平民照片如下图所示。</p> <p></p> <img src='stimuli/faces/PCF1.jpg', style='max-width: 30%;'> </img> <p><strong>你是否选择发射武器？</strong></p>","0",""
"","","","","","html-keyboard-response","88","286672","0.0-4.0-0.42","30","1","2022-11-27 09:38:46","7b1eb8be57ff77859c7d9ac988e43411","115.60.187.40","Mozilla/5.0 (Linux; Android 10; MIX 2S Build/QKQ1.190828.002; wv) AppleWebKit/537.36 (KHTML, like Gecko) Version/4.0 Chrome/86.0.4240.99 XWEB/4343 MMWEBSDK/20220903 Mobile Safari/537.36 MMWEBID/4477 MicroMessenger/8.0.28.2240(0x28001C57) WeChat/arm64 Weixin NetType/WIFI Language/zh_CN ABI/arm64","WebKit","Chrome","86.0.4240.99","AndroidOS","10","null","<div style=""font-size:60px;"">+</div>","null",""
"","","","","","html-button-response","89","290489","0.0-4.0-1.42","30","1","2022-11-27 09:38:46","7b1eb8be57ff77859c7d9ac988e43411","115.60.187.40","Mozilla/5.0 (Linux; Android 10; MIX 2S Build/QKQ1.190828.002; wv) AppleWebKit/537.36 (KHTML, like Gecko) Version/4.0 Chrome/86.0.4240.99 XWEB/4343 MMWEBSDK/20220903 Mobile Safari/537.36 MMWEBID/4477 MicroMessenger/8.0.28.2240(0x28001C57) WeChat/arm64 Weixin NetType/WIFI Language/zh_CN ABI/arm64","WebKit","Chrome","86.0.4240.99","AndroidOS","10","3782","<p>作为军队的指挥官，你可以选择发射导弹杀死 <strong>4名</strong> 敌国士兵，但会炸毁附近的 <strong>1棵</strong> 敌国树木。</p> <p>树木的照片如下图所示。</p> <p></p> <img src='stimuli/trees/2.png', style='max-width: 30%;'> </img> <p><strong>你是否选择发射武器？</strong></p>","1",""
"","","","","","html-keyboard-response","90","291506","0.0-4.0-0.43","30","1","2022-11-27 09:38:46","7b1eb8be57ff77859c7d9ac988e43411","115.60.187.40","Mozilla/5.0 (Linux; Android 10; MIX 2S Build/QKQ1.190828.002; wv) AppleWebKit/537.36 (KHTML, like Gecko) Version/4.0 Chrome/86.0.4240.99 XWEB/4343 MMWEBSDK/20220903 Mobile Safari/537.36 MMWEBID/4477 MicroMessenger/8.0.28.2240(0x28001C57) WeChat/arm64 Weixin NetType/WIFI Language/zh_CN ABI/arm64","WebKit","Chrome","86.0.4240.99","AndroidOS","10","null","<div style=""font-size:60px;"">+</div>","null",""
"","","","","","html-button-response","91","293328","0.0-4.0-1.43","30","1","2022-11-27 09:38:46","7b1eb8be57ff77859c7d9ac988e43411","115.60.187.40","Mozilla/5.0 (Linux; Android 10; MIX 2S Build/QKQ1.190828.002; wv) AppleWebKit/537.36 (KHTML, like Gecko) Version/4.0 Chrome/86.0.4240.99 XWEB/4343 MMWEBSDK/20220903 Mobile Safari/537.36 MMWEBID/4477 MicroMessenger/8.0.28.2240(0x28001C57) WeChat/arm64 Weixin NetType/WIFI Language/zh_CN ABI/arm64","WebKit","Chrome","86.0.4240.99","AndroidOS","10","1783","<p>作为军队的指挥官，你可以选择发射导弹杀死 <strong>3名</strong> 敌国士兵，但会误杀附近的 <strong>1名</strong> 敌国平民。</p> <p>平民照片如下图所示。</p> <p></p> <img src='stimuli/faces/PCM8.jpg', style='max-width: 30%;'> </img> <p><strong>你是否选择发射武器？</strong></p>","1",""
"","","","","","html-keyboard-response","92","294350","0.0-4.0-0.44","30","1","2022-11-27 09:38:46","7b1eb8be57ff77859c7d9ac988e43411","115.60.187.40","Mozilla/5.0 (Linux; Android 10; MIX 2S Build/QKQ1.190828.002; wv) AppleWebKit/537.36 (KHTML, like Gecko) Version/4.0 Chrome/86.0.4240.99 XWEB/4343 MMWEBSDK/20220903 Mobile Safari/537.36 MMWEBID/4477 MicroMessenger/8.0.28.2240(0x28001C57) WeChat/arm64 Weixin NetType/WIFI Language/zh_CN ABI/arm64","WebKit","Chrome","86.0.4240.99","AndroidOS","10","null","<div style=""font-size:60px;"">+</div>","null",""
"","","","","","html-button-response","93","297214","0.0-4.0-1.44","30","1","2022-11-27 09:38:46","7b1eb8be57ff77859c7d9ac988e43411","115.60.187.40","Mozilla/5.0 (Linux; Android 10; MIX 2S Build/QKQ1.190828.002; wv) AppleWebKit/537.36 (KHTML, like Gecko) Version/4.0 Chrome/86.0.4240.99 XWEB/4343 MMWEBSDK/20220903 Mobile Safari/537.36 MMWEBID/4477 MicroMessenger/8.0.28.2240(0x28001C57) WeChat/arm64 Weixin NetType/WIFI Language/zh_CN ABI/arm64","WebKit","Chrome","86.0.4240.99","AndroidOS","10","2829","<p>作为军队的指挥官，你可以选择发射导弹杀死 <strong>3名</strong> 敌国士兵，但会误杀附近的 <strong>1名</strong> 敌国平民。</p> <p>平民照片如下图所示。</p> <p></p> <img src='stimuli/faces/PCF3.jpg', style='max-width: 30%;'> </img> <p><strong>你是否选择发射武器？</strong></p>","1",""
"","","","","","html-keyboard-response","94","298234","0.0-4.0-0.45","30","1","2022-11-27 09:38:46","7b1eb8be57ff77859c7d9ac988e43411","115.60.187.40","Mozilla/5.0 (Linux; Android 10; MIX 2S Build/QKQ1.190828.002; wv) AppleWebKit/537.36 (KHTML, like Gecko) Version/4.0 Chrome/86.0.4240.99 XWEB/4343 MMWEBSDK/20220903 Mobile Safari/537.36 MMWEBID/4477 MicroMessenger/8.0.28.2240(0x28001C57) WeChat/arm64 Weixin NetType/WIFI Language/zh_CN ABI/arm64","WebKit","Chrome","86.0.4240.99","AndroidOS","10","null","<div style=""font-size:60px;"">+</div>","null",""
"","","","","","html-button-response","95","300690","0.0-4.0-1.45","30","1","2022-11-27 09:38:46","7b1eb8be57ff77859c7d9ac988e43411","115.60.187.40","Mozilla/5.0 (Linux; Android 10; MIX 2S Build/QKQ1.190828.002; wv) AppleWebKit/537.36 (KHTML, like Gecko) Version/4.0 Chrome/86.0.4240.99 XWEB/4343 MMWEBSDK/20220903 Mobile Safari/537.36 MMWEBID/4477 MicroMessenger/8.0.28.2240(0x28001C57) WeChat/arm64 Weixin NetType/WIFI Language/zh_CN ABI/arm64","WebKit","Chrome","86.0.4240.99","AndroidOS","10","2423","<p>作为军队的指挥官，你可以选择发射导弹杀死 <strong>6名</strong> 敌国士兵，但会误杀附近的 <strong>1名</strong> 敌国平民。</p> <p>平民照片如下图所示。</p> <p></p> <img src='stimuli/faces/PCF7.jpg', style='max-width: 30%;'> </img> <p><strong>你是否选择发射武器？</strong></p>","1",""
"","","","","","html-keyboard-response","96","301712","0.0-4.0-0.46","30","1","2022-11-27 09:38:46","7b1eb8be57ff77859c7d9ac988e43411","115.60.187.40","Mozilla/5.0 (Linux; Android 10; MIX 2S Build/QKQ1.190828.002; wv) AppleWebKit/537.36 (KHTML, like Gecko) Version/4.0 Chrome/86.0.4240.99 XWEB/4343 MMWEBSDK/20220903 Mobile Safari/537.36 MMWEBID/4477 MicroMessenger/8.0.28.2240(0x28001C57) WeChat/arm64 Weixin NetType/WIFI Language/zh_CN ABI/arm64","WebKit","Chrome","86.0.4240.99","AndroidOS","10","null","<div style=""font-size:60px;"">+</div>","null",""
"","","","","","html-button-response","97","304006","0.0-4.0-1.46","30","1","2022-11-27 09:38:46","7b1eb8be57ff77859c7d9ac988e43411","115.60.187.40","Mozilla/5.0 (Linux; Android 10; MIX 2S Build/QKQ1.190828.002; wv) AppleWebKit/537.36 (KHTML, like Gecko) Version/4.0 Chrome/86.0.4240.99 XWEB/4343 MMWEBSDK/20220903 Mobile Safari/537.36 MMWEBID/4477 MicroMessenger/8.0.28.2240(0x28001C57) WeChat/arm64 Weixin NetType/WIFI Language/zh_CN ABI/arm64","WebKit","Chrome","86.0.4240.99","AndroidOS","10","2256","<p>作为军队的指挥官，你可以选择发射导弹杀死 <strong>2名</strong> 敌国士兵，但会误杀附近的 <strong>1名</strong> 敌国平民。</p> <p>平民照片如下图所示。</p> <p></p> <img src='stimuli/faces/PCM4.jpg', style='max-width: 30%;'> </img> <p><strong>你是否选择发射武器？</strong></p>","1",""
"","","","","","html-keyboard-response","98","305027","0.0-4.0-0.47","30","1","2022-11-27 09:38:46","7b1eb8be57ff77859c7d9ac988e43411","115.60.187.40","Mozilla/5.0 (Linux; Android 10; MIX 2S Build/QKQ1.190828.002; wv) AppleWebKit/537.36 (KHTML, like Gecko) Version/4.0 Chrome/86.0.4240.99 XWEB/4343 MMWEBSDK/20220903 Mobile Safari/537.36 MMWEBID/4477 MicroMessenger/8.0.28.2240(0x28001C57) WeChat/arm64 Weixin NetType/WIFI Language/zh_CN ABI/arm64","WebKit","Chrome","86.0.4240.99","AndroidOS","10","null","<div style=""font-size:60px;"">+</div>","null",""
"","","","","","html-button-response","99","308091","0.0-4.0-1.47","30","1","2022-11-27 09:38:46","7b1eb8be57ff77859c7d9ac988e43411","115.60.187.40","Mozilla/5.0 (Linux; Android 10; MIX 2S Build/QKQ1.190828.002; wv) AppleWebKit/537.36 (KHTML, like Gecko) Version/4.0 Chrome/86.0.4240.99 XWEB/4343 MMWEBSDK/20220903 Mobile Safari/537.36 MMWEBID/4477 MicroMessenger/8.0.28.2240(0x28001C57) WeChat/arm64 Weixin NetType/WIFI Language/zh_CN ABI/arm64","WebKit","Chrome","86.0.4240.99","AndroidOS","10","3034","<p>作为军队的指挥官，你可以选择发射导弹杀死 <strong>6名</strong> 敌国士兵，但会炸毁附近的 <strong>1棵</strong> 敌国树木。</p> <p>树木的照片如下图所示。</p> <p></p> <img src='stimuli/trees/6.png', style='max-width: 30%;'> </img> <p><strong>你是否选择发射武器？</strong></p>","1",""
"","","","","","html-keyboard-response","100","309105","0.0-4.0-0.48","30","1","2022-11-27 09:38:46","7b1eb8be57ff77859c7d9ac988e43411","115.60.187.40","Mozilla/5.0 (Linux; Android 10; MIX 2S Build/QKQ1.190828.002; wv) AppleWebKit/537.36 (KHTML, like Gecko) Version/4.0 Chrome/86.0.4240.99 XWEB/4343 MMWEBSDK/20220903 Mobile Safari/537.36 MMWEBID/4477 MicroMessenger/8.0.28.2240(0x28001C57) WeChat/arm64 Weixin NetType/WIFI Language/zh_CN ABI/arm64","WebKit","Chrome","86.0.4240.99","AndroidOS","10","null","<div style=""font-size:60px;"">+</div>","null",""
"","","","","","html-button-response","101","311917","0.0-4.0-1.48","30","1","2022-11-27 09:38:46","7b1eb8be57ff77859c7d9ac988e43411","115.60.187.40","Mozilla/5.0 (Linux; Android 10; MIX 2S Build/QKQ1.190828.002; wv) AppleWebKit/537.36 (KHTML, like Gecko) Version/4.0 Chrome/86.0.4240.99 XWEB/4343 MMWEBSDK/20220903 Mobile Safari/537.36 MMWEBID/4477 MicroMessenger/8.0.28.2240(0x28001C57) WeChat/arm64 Weixin NetType/WIFI Language/zh_CN ABI/arm64","WebKit","Chrome","86.0.4240.99","AndroidOS","10","2782","<p>作为军队的指挥官，你可以选择发射导弹杀死 <strong>5名</strong> 敌国士兵，但会炸毁附近的 <strong>1棵</strong> 敌国树木。</p> <p>树木的照片如下图所示。</p> <p></p> <img src='stimuli/trees/14.png', style='max-width: 30%;'> </img> <p><strong>你是否选择发射武器？</strong></p>","1",""
"","","","","","html-keyboard-response","102","312939","0.0-4.0-0.49","30","1","2022-11-27 09:38:46","7b1eb8be57ff77859c7d9ac988e43411","115.60.187.40","Mozilla/5.0 (Linux; Android 10; MIX 2S Build/QKQ1.190828.002; wv) AppleWebKit/537.36 (KHTML, like Gecko) Version/4.0 Chrome/86.0.4240.99 XWEB/4343 MMWEBSDK/20220903 Mobile Safari/537.36 MMWEBID/4477 MicroMessenger/8.0.28.2240(0x28001C57) WeChat/arm64 Weixin NetType/WIFI Language/zh_CN ABI/arm64","WebKit","Chrome","86.0.4240.99","AndroidOS","10","null","<div style=""font-size:60px;"">+</div>","null",""
"","","","","","html-button-response","103","316528","0.0-4.0-1.49","30","1","2022-11-27 09:38:46","7b1eb8be57ff77859c7d9ac988e43411","115.60.187.40","Mozilla/5.0 (Linux; Android 10; MIX 2S Build/QKQ1.190828.002; wv) AppleWebKit/537.36 (KHTML, like Gecko) Version/4.0 Chrome/86.0.4240.99 XWEB/4343 MMWEBSDK/20220903 Mobile Safari/537.36 MMWEBID/4477 MicroMessenger/8.0.28.2240(0x28001C57) WeChat/arm64 Weixin NetType/WIFI Language/zh_CN ABI/arm64","WebKit","Chrome","86.0.4240.99","AndroidOS","10","3560","<p>作为军队的指挥官，你可以选择发射导弹杀死 <strong>6名</strong> 敌国士兵，但会误杀附近的 <strong>1名</strong> 敌国平民。</p> <p>平民照片如下图所示。</p> <p></p> <img src='stimuli/faces/PCM2.jpg', style='max-width: 30%;'> </img> <p><strong>你是否选择发射武器？</strong></p>","0",""
"","","","","","html-keyboard-response","104","317542","0.0-4.0-0.50","30","1","2022-11-27 09:38:46","7b1eb8be57ff77859c7d9ac988e43411","115.60.187.40","Mozilla/5.0 (Linux; Android 10; MIX 2S Build/QKQ1.190828.002; wv) AppleWebKit/537.36 (KHTML, like Gecko) Version/4.0 Chrome/86.0.4240.99 XWEB/4343 MMWEBSDK/20220903 Mobile Safari/537.36 MMWEBID/4477 MicroMessenger/8.0.28.2240(0x28001C57) WeChat/arm64 Weixin NetType/WIFI Language/zh_CN ABI/arm64","WebKit","Chrome","86.0.4240.99","AndroidOS","10","null","<div style=""font-size:60px;"">+</div>","null",""
"","","","","","html-button-response","105","319530","0.0-4.0-1.50","30","1","2022-11-27 09:38:46","7b1eb8be57ff77859c7d9ac988e43411","115.60.187.40","Mozilla/5.0 (Linux; Android 10; MIX 2S Build/QKQ1.190828.002; wv) AppleWebKit/537.36 (KHTML, like Gecko) Version/4.0 Chrome/86.0.4240.99 XWEB/4343 MMWEBSDK/20220903 Mobile Safari/537.36 MMWEBID/4477 MicroMessenger/8.0.28.2240(0x28001C57) WeChat/arm64 Weixin NetType/WIFI Language/zh_CN ABI/arm64","WebKit","Chrome","86.0.4240.99","AndroidOS","10","1952","<p>作为军队的指挥官，你可以选择发射导弹杀死 <strong>10名</strong> 敌国士兵，但会炸毁附近的 <strong>1棵</strong> 敌国树木。</p> <p>树木的照片如下图所示。</p> <p></p> <img src='stimuli/trees/5.png', style='max-width: 30%;'> </img> <p><strong>你是否选择发射武器？</strong></p>","0",""
"","","","","","html-keyboard-response","106","320549","0.0-4.0-0.51","30","1","2022-11-27 09:38:46","7b1eb8be57ff77859c7d9ac988e43411","115.60.187.40","Mozilla/5.0 (Linux; Android 10; MIX 2S Build/QKQ1.190828.002; wv) AppleWebKit/537.36 (KHTML, like Gecko) Version/4.0 Chrome/86.0.4240.99 XWEB/4343 MMWEBSDK/20220903 Mobile Safari/537.36 MMWEBID/4477 MicroMessenger/8.0.28.2240(0x28001C57) WeChat/arm64 Weixin NetType/WIFI Language/zh_CN ABI/arm64","WebKit","Chrome","86.0.4240.99","AndroidOS","10","null","<div style=""font-size:60px;"">+</div>","null",""
"","","","","","html-button-response","107","324724","0.0-4.0-1.51","30","1","2022-11-27 09:38:46","7b1eb8be57ff77859c7d9ac988e43411","115.60.187.40","Mozilla/5.0 (Linux; Android 10; MIX 2S Build/QKQ1.190828.002; wv) AppleWebKit/537.36 (KHTML, like Gecko) Version/4.0 Chrome/86.0.4240.99 XWEB/4343 MMWEBSDK/20220903 Mobile Safari/537.36 MMWEBID/4477 MicroMessenger/8.0.28.2240(0x28001C57) WeChat/arm64 Weixin NetType/WIFI Language/zh_CN ABI/arm64","WebKit","Chrome","86.0.4240.99","AndroidOS","10","4138","<p>作为军队的指挥官，你可以选择发射导弹杀死 <strong>3名</strong> 敌国士兵，但会炸毁附近的 <strong>1棵</strong> 敌国树木。</p> <p>树木的照片如下图所示。</p> <p></p> <img src='stimuli/trees/9.png', style='max-width: 30%;'> </img> <p><strong>你是否选择发射武器？</strong></p>","1",""
"","","","","","html-keyboard-response","108","325738","0.0-4.0-0.52","30","1","2022-11-27 09:38:46","7b1eb8be57ff77859c7d9ac988e43411","115.60.187.40","Mozilla/5.0 (Linux; Android 10; MIX 2S Build/QKQ1.190828.002; wv) AppleWebKit/537.36 (KHTML, like Gecko) Version/4.0 Chrome/86.0.4240.99 XWEB/4343 MMWEBSDK/20220903 Mobile Safari/537.36 MMWEBID/4477 MicroMessenger/8.0.28.2240(0x28001C57) WeChat/arm64 Weixin NetType/WIFI Language/zh_CN ABI/arm64","WebKit","Chrome","86.0.4240.99","AndroidOS","10","null","<div style=""font-size:60px;"">+</div>","null",""
"","","","","","html-button-response","109","327419","0.0-4.0-1.52","30","1","2022-11-27 09:38:46","7b1eb8be57ff77859c7d9ac988e43411","115.60.187.40","Mozilla/5.0 (Linux; Android 10; MIX 2S Build/QKQ1.190828.002; wv) AppleWebKit/537.36 (KHTML, like Gecko) Version/4.0 Chrome/86.0.4240.99 XWEB/4343 MMWEBSDK/20220903 Mobile Safari/537.36 MMWEBID/4477 MicroMessenger/8.0.28.2240(0x28001C57) WeChat/arm64 Weixin NetType/WIFI Language/zh_CN ABI/arm64","WebKit","Chrome","86.0.4240.99","AndroidOS","10","1655","<p>作为军队的指挥官，你可以选择发射导弹杀死 <strong>7名</strong> 敌国士兵，但会炸毁附近的 <strong>1棵</strong> 敌国树木。</p> <p>树木的照片如下图所示。</p> <p></p> <img src='stimuli/trees/14.png', style='max-width: 30%;'> </img> <p><strong>你是否选择发射武器？</strong></p>","0",""
"","","","","","html-keyboard-response","110","328436","0.0-4.0-0.53","30","1","2022-11-27 09:38:46","7b1eb8be57ff77859c7d9ac988e43411","115.60.187.40","Mozilla/5.0 (Linux; Android 10; MIX 2S Build/QKQ1.190828.002; wv) AppleWebKit/537.36 (KHTML, like Gecko) Version/4.0 Chrome/86.0.4240.99 XWEB/4343 MMWEBSDK/20220903 Mobile Safari/537.36 MMWEBID/4477 MicroMessenger/8.0.28.2240(0x28001C57) WeChat/arm64 Weixin NetType/WIFI Language/zh_CN ABI/arm64","WebKit","Chrome","86.0.4240.99","AndroidOS","10","null","<div style=""font-size:60px;"">+</div>","null",""
"","","","","","html-button-response","111","330030","0.0-4.0-1.53","30","1","2022-11-27 09:38:46","7b1eb8be57ff77859c7d9ac988e43411","115.60.187.40","Mozilla/5.0 (Linux; Android 10; MIX 2S Build/QKQ1.190828.002; wv) AppleWebKit/537.36 (KHTML, like Gecko) Version/4.0 Chrome/86.0.4240.99 XWEB/4343 MMWEBSDK/20220903 Mobile Safari/537.36 MMWEBID/4477 MicroMessenger/8.0.28.2240(0x28001C57) WeChat/arm64 Weixin NetType/WIFI Language/zh_CN ABI/arm64","WebKit","Chrome","86.0.4240.99","AndroidOS","10","1556","<p>作为军队的指挥官，你可以选择发射导弹杀死 <strong>9名</strong> 敌国士兵，但会误杀附近的 <strong>1名</strong> 敌国平民。</p> <p>平民照片如下图所示。</p> <p></p> <img src='stimuli/faces/PCF4.jpg', style='max-width: 30%;'> </img> <p><strong>你是否选择发射武器？</strong></p>","0",""
"","","","","","html-keyboard-response","112","331049","0.0-4.0-0.54","30","1","2022-11-27 09:38:46","7b1eb8be57ff77859c7d9ac988e43411","115.60.187.40","Mozilla/5.0 (Linux; Android 10; MIX 2S Build/QKQ1.190828.002; wv) AppleWebKit/537.36 (KHTML, like Gecko) Version/4.0 Chrome/86.0.4240.99 XWEB/4343 MMWEBSDK/20220903 Mobile Safari/537.36 MMWEBID/4477 MicroMessenger/8.0.28.2240(0x28001C57) WeChat/arm64 Weixin NetType/WIFI Language/zh_CN ABI/arm64","WebKit","Chrome","86.0.4240.99","AndroidOS","10","null","<div style=""font-size:60px;"">+</div>","null",""
"","","","","","html-button-response","113","333419","0.0-4.0-1.54","30","1","2022-11-27 09:38:46","7b1eb8be57ff77859c7d9ac988e43411","115.60.187.40","Mozilla/5.0 (Linux; Android 10; MIX 2S Build/QKQ1.190828.002; wv) AppleWebKit/537.36 (KHTML, like Gecko) Version/4.0 Chrome/86.0.4240.99 XWEB/4343 MMWEBSDK/20220903 Mobile Safari/537.36 MMWEBID/4477 MicroMessenger/8.0.28.2240(0x28001C57) WeChat/arm64 Weixin NetType/WIFI Language/zh_CN ABI/arm64","WebKit","Chrome","86.0.4240.99","AndroidOS","10","2330","<p>作为军队的指挥官，你可以选择发射导弹杀死 <strong>8名</strong> 敌国士兵，但会炸毁附近的 <strong>1棵</strong> 敌国树木。</p> <p>树木的照片如下图所示。</p> <p></p> <img src='stimuli/trees/15.png', style='max-width: 30%;'> </img> <p><strong>你是否选择发射武器？</strong></p>","0",""
"","","","","","html-keyboard-response","114","334437","0.0-4.0-0.55","30","1","2022-11-27 09:38:46","7b1eb8be57ff77859c7d9ac988e43411","115.60.187.40","Mozilla/5.0 (Linux; Android 10; MIX 2S Build/QKQ1.190828.002; wv) AppleWebKit/537.36 (KHTML, like Gecko) Version/4.0 Chrome/86.0.4240.99 XWEB/4343 MMWEBSDK/20220903 Mobile Safari/537.36 MMWEBID/4477 MicroMessenger/8.0.28.2240(0x28001C57) WeChat/arm64 Weixin NetType/WIFI Language/zh_CN ABI/arm64","WebKit","Chrome","86.0.4240.99","AndroidOS","10","null","<div style=""font-size:60px;"">+</div>","null",""
"","","","","","html-button-response","115","336903","0.0-4.0-1.55","30","1","2022-11-27 09:38:46","7b1eb8be57ff77859c7d9ac988e43411","115.60.187.40","Mozilla/5.0 (Linux; Android 10; MIX 2S Build/QKQ1.190828.002; wv) AppleWebKit/537.36 (KHTML, like Gecko) Version/4.0 Chrome/86.0.4240.99 XWEB/4343 MMWEBSDK/20220903 Mobile Safari/537.36 MMWEBID/4477 MicroMessenger/8.0.28.2240(0x28001C57) WeChat/arm64 Weixin NetType/WIFI Language/zh_CN ABI/arm64","WebKit","Chrome","86.0.4240.99","AndroidOS","10","2433","<p>作为军队的指挥官，你可以选择发射导弹杀死 <strong>10名</strong> 敌国士兵，但会炸毁附近的 <strong>1棵</strong> 敌国树木。</p> <p>树木的照片如下图所示。</p> <p></p> <img src='stimuli/trees/2.png', style='max-width: 30%;'> </img> <p><strong>你是否选择发射武器？</strong></p>","0",""
"","","","","","html-keyboard-response","116","337926","0.0-4.0-0.56","30","1","2022-11-27 09:38:46","7b1eb8be57ff77859c7d9ac988e43411","115.60.187.40","Mozilla/5.0 (Linux; Android 10; MIX 2S Build/QKQ1.190828.002; wv) AppleWebKit/537.36 (KHTML, like Gecko) Version/4.0 Chrome/86.0.4240.99 XWEB/4343 MMWEBSDK/20220903 Mobile Safari/537.36 MMWEBID/4477 MicroMessenger/8.0.28.2240(0x28001C57) WeChat/arm64 Weixin NetType/WIFI Language/zh_CN ABI/arm64","WebKit","Chrome","86.0.4240.99","AndroidOS","10","null","<div style=""font-size:60px;"">+</div>","null",""
"","","","","","html-button-response","117","339896","0.0-4.0-1.56","30","1","2022-11-27 09:38:46","7b1eb8be57ff77859c7d9ac988e43411","115.60.187.40","Mozilla/5.0 (Linux; Android 10; MIX 2S Build/QKQ1.190828.002; wv) AppleWebKit/537.36 (KHTML, like Gecko) Version/4.0 Chrome/86.0.4240.99 XWEB/4343 MMWEBSDK/20220903 Mobile Safari/537.36 MMWEBID/4477 MicroMessenger/8.0.28.2240(0x28001C57) WeChat/arm64 Weixin NetType/WIFI Language/zh_CN ABI/arm64","WebKit","Chrome","86.0.4240.99","AndroidOS","10","1938","<p>作为军队的指挥官，你可以选择发射导弹杀死 <strong>4名</strong> 敌国士兵，但会炸毁附近的 <strong>1棵</strong> 敌国树木。</p> <p>树木的照片如下图所示。</p> <p></p> <img src='stimuli/trees/12.png', style='max-width: 30%;'> </img> <p><strong>你是否选择发射武器？</strong></p>","1",""
"","","","","","html-keyboard-response","118","340909","0.0-4.0-0.57","30","1","2022-11-27 09:38:46","7b1eb8be57ff77859c7d9ac988e43411","115.60.187.40","Mozilla/5.0 (Linux; Android 10; MIX 2S Build/QKQ1.190828.002; wv) AppleWebKit/537.36 (KHTML, like Gecko) Version/4.0 Chrome/86.0.4240.99 XWEB/4343 MMWEBSDK/20220903 Mobile Safari/537.36 MMWEBID/4477 MicroMessenger/8.0.28.2240(0x28001C57) WeChat/arm64 Weixin NetType/WIFI Language/zh_CN ABI/arm64","WebKit","Chrome","86.0.4240.99","AndroidOS","10","null","<div style=""font-size:60px;"">+</div>","null",""
"","","","","","html-button-response","119","344373","0.0-4.0-1.57","30","1","2022-11-27 09:38:46","7b1eb8be57ff77859c7d9ac988e43411","115.60.187.40","Mozilla/5.0 (Linux; Android 10; MIX 2S Build/QKQ1.190828.002; wv) AppleWebKit/537.36 (KHTML, like Gecko) Version/4.0 Chrome/86.0.4240.99 XWEB/4343 MMWEBSDK/20220903 Mobile Safari/537.36 MMWEBID/4477 MicroMessenger/8.0.28.2240(0x28001C57) WeChat/arm64 Weixin NetType/WIFI Language/zh_CN ABI/arm64","WebKit","Chrome","86.0.4240.99","AndroidOS","10","3425","<p>作为军队的指挥官，你可以选择发射导弹杀死 <strong>3名</strong> 敌国士兵，但会误杀附近的 <strong>1名</strong> 敌国平民。</p> <p>平民照片如下图所示。</p> <p></p> <img src='stimuli/faces/PCM6.jpg', style='max-width: 30%;'> </img> <p><strong>你是否选择发射武器？</strong></p>","1",""
"","","","","","html-keyboard-response","120","345397","0.0-4.0-0.58","30","1","2022-11-27 09:38:46","7b1eb8be57ff77859c7d9ac988e43411","115.60.187.40","Mozilla/5.0 (Linux; Android 10; MIX 2S Build/QKQ1.190828.002; wv) AppleWebKit/537.36 (KHTML, like Gecko) Version/4.0 Chrome/86.0.4240.99 XWEB/4343 MMWEBSDK/20220903 Mobile Safari/537.36 MMWEBID/4477 MicroMessenger/8.0.28.2240(0x28001C57) WeChat/arm64 Weixin NetType/WIFI Language/zh_CN ABI/arm64","WebKit","Chrome","86.0.4240.99","AndroidOS","10","null","<div style=""font-size:60px;"">+</div>","null",""
"","","","","","html-button-response","121","346805","0.0-4.0-1.58","30","1","2022-11-27 09:38:46","7b1eb8be57ff77859c7d9ac988e43411","115.60.187.40","Mozilla/5.0 (Linux; Android 10; MIX 2S Build/QKQ1.190828.002; wv) AppleWebKit/537.36 (KHTML, like Gecko) Version/4.0 Chrome/86.0.4240.99 XWEB/4343 MMWEBSDK/20220903 Mobile Safari/537.36 MMWEBID/4477 MicroMessenger/8.0.28.2240(0x28001C57) WeChat/arm64 Weixin NetType/WIFI Language/zh_CN ABI/arm64","WebKit","Chrome","86.0.4240.99","AndroidOS","10","1373","<p>作为军队的指挥官，你可以选择发射导弹杀死 <strong>7名</strong> 敌国士兵，但会炸毁附近的 <strong>1棵</strong> 敌国树木。</p> <p>树木的照片如下图所示。</p> <p></p> <img src='stimuli/trees/8.png', style='max-width: 30%;'> </img> <p><strong>你是否选择发射武器？</strong></p>","1",""
"","","","","","html-keyboard-response","122","347831","0.0-4.0-0.59","30","1","2022-11-27 09:38:46","7b1eb8be57ff77859c7d9ac988e43411","115.60.187.40","Mozilla/5.0 (Linux; Android 10; MIX 2S Build/QKQ1.190828.002; wv) AppleWebKit/537.36 (KHTML, like Gecko) Version/4.0 Chrome/86.0.4240.99 XWEB/4343 MMWEBSDK/20220903 Mobile Safari/537.36 MMWEBID/4477 MicroMessenger/8.0.28.2240(0x28001C57) WeChat/arm64 Weixin NetType/WIFI Language/zh_CN ABI/arm64","WebKit","Chrome","86.0.4240.99","AndroidOS","10","null","<div style=""font-size:60px;"">+</div>","null",""
"","","","","","html-button-response","123","349295","0.0-4.0-1.59","30","1","2022-11-27 09:38:46","7b1eb8be57ff77859c7d9ac988e43411","115.60.187.40","Mozilla/5.0 (Linux; Android 10; MIX 2S Build/QKQ1.190828.002; wv) AppleWebKit/537.36 (KHTML, like Gecko) Version/4.0 Chrome/86.0.4240.99 XWEB/4343 MMWEBSDK/20220903 Mobile Safari/537.36 MMWEBID/4477 MicroMessenger/8.0.28.2240(0x28001C57) WeChat/arm64 Weixin NetType/WIFI Language/zh_CN ABI/arm64","WebKit","Chrome","86.0.4240.99","AndroidOS","10","1425","<p>作为军队的指挥官，你可以选择发射导弹杀死 <strong>7名</strong> 敌国士兵，但会误杀附近的 <strong>1名</strong> 敌国平民。</p> <p>平民照片如下图所示。</p> <p></p> <img src='stimuli/faces/PCF2.jpg', style='max-width: 30%;'> </img> <p><strong>你是否选择发射武器？</strong></p>","1",""
"","","","","","html-keyboard-response","124","350316","0.0-4.0-0.60","30","1","2022-11-27 09:38:46","7b1eb8be57ff77859c7d9ac988e43411","115.60.187.40","Mozilla/5.0 (Linux; Android 10; MIX 2S Build/QKQ1.190828.002; wv) AppleWebKit/537.36 (KHTML, like Gecko) Version/4.0 Chrome/86.0.4240.99 XWEB/4343 MMWEBSDK/20220903 Mobile Safari/537.36 MMWEBID/4477 MicroMessenger/8.0.28.2240(0x28001C57) WeChat/arm64 Weixin NetType/WIFI Language/zh_CN ABI/arm64","WebKit","Chrome","86.0.4240.99","AndroidOS","10","null","<div style=""font-size:60px;"">+</div>","null",""
"","","","","","html-button-response","125","352916","0.0-4.0-1.60","30","1","2022-11-27 09:38:46","7b1eb8be57ff77859c7d9ac988e43411","115.60.187.40","Mozilla/5.0 (Linux; Android 10; MIX 2S Build/QKQ1.190828.002; wv) AppleWebKit/537.36 (KHTML, like Gecko) Version/4.0 Chrome/86.0.4240.99 XWEB/4343 MMWEBSDK/20220903 Mobile Safari/537.36 MMWEBID/4477 MicroMessenger/8.0.28.2240(0x28001C57) WeChat/arm64 Weixin NetType/WIFI Language/zh_CN ABI/arm64","WebKit","Chrome","86.0.4240.99","AndroidOS","10","2558","<p>作为军队的指挥官，你可以选择发射导弹杀死 <strong>1名</strong> 敌国士兵，但会误杀附近的 <strong>1名</strong> 敌国平民。</p> <p>平民照片如下图所示。</p> <p></p> <img src='stimuli/faces/PCF5.jpg', style='max-width: 30%;'> </img> <p><strong>你是否选择发射武器？</strong></p>","1",""
"","","","","","html-keyboard-response","126","353935","0.0-4.0-0.61","30","1","2022-11-27 09:38:46","7b1eb8be57ff77859c7d9ac988e43411","115.60.187.40","Mozilla/5.0 (Linux; Android 10; MIX 2S Build/QKQ1.190828.002; wv) AppleWebKit/537.36 (KHTML, like Gecko) Version/4.0 Chrome/86.0.4240.99 XWEB/4343 MMWEBSDK/20220903 Mobile Safari/537.36 MMWEBID/4477 MicroMessenger/8.0.28.2240(0x28001C57) WeChat/arm64 Weixin NetType/WIFI Language/zh_CN ABI/arm64","WebKit","Chrome","86.0.4240.99","AndroidOS","10","null","<div style=""font-size:60px;"">+</div>","null",""
"","","","","","html-button-response","127","359512","0.0-4.0-1.61","30","1","2022-11-27 09:38:46","7b1eb8be57ff77859c7d9ac988e43411","115.60.187.40","Mozilla/5.0 (Linux; Android 10; MIX 2S Build/QKQ1.190828.002; wv) AppleWebKit/537.36 (KHTML, like Gecko) Version/4.0 Chrome/86.0.4240.99 XWEB/4343 MMWEBSDK/20220903 Mobile Safari/537.36 MMWEBID/4477 MicroMessenger/8.0.28.2240(0x28001C57) WeChat/arm64 Weixin NetType/WIFI Language/zh_CN ABI/arm64","WebKit","Chrome","86.0.4240.99","AndroidOS","10","5541","<p>作为军队的指挥官，你可以选择发射导弹杀死 <strong>5名</strong> 敌国士兵，但会炸毁附近的 <strong>1棵</strong> 敌国树木。</p> <p>树木的照片如下图所示。</p> <p></p> <img src='stimuli/trees/7.png', style='max-width: 30%;'> </img> <p><strong>你是否选择发射武器？</strong></p>","0",""
"","","","","","html-keyboard-response","128","360535","0.0-4.0-0.62","30","1","2022-11-27 09:38:46","7b1eb8be57ff77859c7d9ac988e43411","115.60.187.40","Mozilla/5.0 (Linux; Android 10; MIX 2S Build/QKQ1.190828.002; wv) AppleWebKit/537.36 (KHTML, like Gecko) Version/4.0 Chrome/86.0.4240.99 XWEB/4343 MMWEBSDK/20220903 Mobile Safari/537.36 MMWEBID/4477 MicroMessenger/8.0.28.2240(0x28001C57) WeChat/arm64 Weixin NetType/WIFI Language/zh_CN ABI/arm64","WebKit","Chrome","86.0.4240.99","AndroidOS","10","null","<div style=""font-size:60px;"">+</div>","null",""
"","","","","","html-button-response","129","362820","0.0-4.0-1.62","30","1","2022-11-27 09:38:46","7b1eb8be57ff77859c7d9ac988e43411","115.60.187.40","Mozilla/5.0 (Linux; Android 10; MIX 2S Build/QKQ1.190828.002; wv) AppleWebKit/537.36 (KHTML, like Gecko) Version/4.0 Chrome/86.0.4240.99 XWEB/4343 MMWEBSDK/20220903 Mobile Safari/537.36 MMWEBID/4477 MicroMessenger/8.0.28.2240(0x28001C57) WeChat/arm64 Weixin NetType/WIFI Language/zh_CN ABI/arm64","WebKit","Chrome","86.0.4240.99","AndroidOS","10","2242","<p>作为军队的指挥官，你可以选择发射导弹杀死 <strong>8名</strong> 敌国士兵，但会误杀附近的 <strong>1名</strong> 敌国平民。</p> <p>平民照片如下图所示。</p> <p></p> <img src='stimuli/faces/PCF5.jpg', style='max-width: 30%;'> </img> <p><strong>你是否选择发射武器？</strong></p>","0",""
"","","","","","html-keyboard-response","130","363844","0.0-4.0-0.63","30","1","2022-11-27 09:38:46","7b1eb8be57ff77859c7d9ac988e43411","115.60.187.40","Mozilla/5.0 (Linux; Android 10; MIX 2S Build/QKQ1.190828.002; wv) AppleWebKit/537.36 (KHTML, like Gecko) Version/4.0 Chrome/86.0.4240.99 XWEB/4343 MMWEBSDK/20220903 Mobile Safari/537.36 MMWEBID/4477 MicroMessenger/8.0.28.2240(0x28001C57) WeChat/arm64 Weixin NetType/WIFI Language/zh_CN ABI/arm64","WebKit","Chrome","86.0.4240.99","AndroidOS","10","null","<div style=""font-size:60px;"">+</div>","null",""
"","","","","","html-button-response","131","368733","0.0-4.0-1.63","30","1","2022-11-27 09:38:46","7b1eb8be57ff77859c7d9ac988e43411","115.60.187.40","Mozilla/5.0 (Linux; Android 10; MIX 2S Build/QKQ1.190828.002; wv) AppleWebKit/537.36 (KHTML, like Gecko) Version/4.0 Chrome/86.0.4240.99 XWEB/4343 MMWEBSDK/20220903 Mobile Safari/537.36 MMWEBID/4477 MicroMessenger/8.0.28.2240(0x28001C57) WeChat/arm64 Weixin NetType/WIFI Language/zh_CN ABI/arm64","WebKit","Chrome","86.0.4240.99","AndroidOS","10","4856","<p>作为军队的指挥官，你可以选择发射导弹杀死 <strong>5名</strong> 敌国士兵，但会误杀附近的 <strong>1名</strong> 敌国平民。</p> <p>平民照片如下图所示。</p> <p></p> <img src='stimuli/faces/PCF8.jpg', style='max-width: 30%;'> </img> <p><strong>你是否选择发射武器？</strong></p>","0",""
"","","","","","survey-multi-choice","132","405454","0.0-5.0","30","1","2022-11-27 09:38:46","7b1eb8be57ff77859c7d9ac988e43411","115.60.187.40","Mozilla/5.0 (Linux; Android 10; MIX 2S Build/QKQ1.190828.002; wv) AppleWebKit/537.36 (KHTML, like Gecko) Version/4.0 Chrome/86.0.4240.99 XWEB/4343 MMWEBSDK/20220903 Mobile Safari/537.36 MMWEBID/4477 MicroMessenger/8.0.28.2240(0x28001C57) WeChat/arm64 Weixin NetType/WIFI Language/zh_CN ABI/arm64","WebKit","Chrome","86.0.4240.99","AndroidOS","10","36688","","{""Attention1"":""""}","[0]"
"","","","","","html-button-response","133","409696","0.0-6.0","30","1","2022-11-27 09:38:46","7b1eb8be57ff77859c7d9ac988e43411","115.60.187.40","Mozilla/5.0 (Linux; Android 10; MIX 2S Build/QKQ1.190828.002; wv) AppleWebKit/537.36 (KHTML, like Gecko) Version/4.0 Chrome/86.0.4240.99 XWEB/4343 MMWEBSDK/20220903 Mobile Safari/537.36 MMWEBID/4477 MicroMessenger/8.0.28.2240(0x28001C57) WeChat/arm64 Weixin NetType/WIFI Language/zh_CN ABI/arm64","WebKit","Chrome","86.0.4240.99","AndroidOS","10","4211","<p style=""font-size:20px;font-weight:bold;"">恭喜！</p><p>你已经完成了实验的第一部分。</p><p>请休息放松一下，然后进入第二部分。</p><p>这部分大约需要10分钟。</p>","0",""
"","","","","","survey-text","134","481651","0.0-7.0","30","1","2022-11-27 09:38:46","7b1eb8be57ff77859c7d9ac988e43411","115.60.187.40","Mozilla/5.0 (Linux; Android 10; MIX 2S Build/QKQ1.190828.002; wv) AppleWebKit/537.36 (KHTML, like Gecko) Version/4.0 Chrome/86.0.4240.99 XWEB/4343 MMWEBSDK/20220903 Mobile Safari/537.36 MMWEBID/4477 MicroMessenger/8.0.28.2240(0x28001C57) WeChat/arm64 Weixin NetType/WIFI Language/zh_CN ABI/arm64","WebKit","Chrome","86.0.4240.99","AndroidOS","10","70878","","{""Age"":""24"",""Nation"":""中国"",""Born"":""河南省信阳市"",""Live"":""河南省郑州市"",""Ethnic"":""汉"",""Alipay"":""15851292074"",""ID"":""""}",""
"","","","","","survey-multi-choice","135","509564","0.0-8.0","30","1","2022-11-27 09:38:46","7b1eb8be57ff77859c7d9ac988e43411","115.60.187.40","Mozilla/5.0 (Linux; Android 10; MIX 2S Build/QKQ1.190828.002; wv) AppleWebKit/537.36 (KHTML, like Gecko) Version/4.0 Chrome/86.0.4240.99 XWEB/4343 MMWEBSDK/20220903 Mobile Safari/537.36 MMWEBID/4477 MicroMessenger/8.0.28.2240(0x28001C57) WeChat/arm64 Weixin NetType/WIFI Language/zh_CN ABI/arm64","WebKit","Chrome","86.0.4240.99","AndroidOS","10","27888","","{""Gender"":""男"",""Education"":""本科毕业"",""Income"":""￥270,000-￥489,999"",""Children"":""1"",""Race"":""亚洲人""}","[0,1,2,3,4]"
"","","","","","survey-multi-select","136","539782","0.0-9.0","30","1","2022-11-27 09:38:46","7b1eb8be57ff77859c7d9ac988e43411","115.60.187.40","Mozilla/5.0 (Linux; Android 10; MIX 2S Build/QKQ1.190828.002; wv) AppleWebKit/537.36 (KHTML, like Gecko) Version/4.0 Chrome/86.0.4240.99 XWEB/4343 MMWEBSDK/20220903 Mobile Safari/537.36 MMWEBID/4477 MicroMessenger/8.0.28.2240(0x28001C57) WeChat/arm64 Weixin NetType/WIFI Language/zh_CN ABI/arm64","WebKit","Chrome","86.0.4240.99","AndroidOS","10","30164","","{""Marriage"":[""已婚""],""Religion"":[""佛教""]}","[0,1]"
"","","","","","survey-multi-choice","137","564678","0.0-10.0","30","1","2022-11-27 09:38:46","7b1eb8be57ff77859c7d9ac988e43411","115.60.187.40","Mozilla/5.0 (Linux; Android 10; MIX 2S Build/QKQ1.190828.002; wv) AppleWebKit/537.36 (KHTML, like Gecko) Version/4.0 Chrome/86.0.4240.99 XWEB/4343 MMWEBSDK/20220903 Mobile Safari/537.36 MMWEBID/4477 MicroMessenger/8.0.28.2240(0x28001C57) WeChat/arm64 Weixin NetType/WIFI Language/zh_CN ABI/arm64","WebKit","Chrome","86.0.4240.99","AndroidOS","10","24860","","{""SES"":""6""}","[0]"
"","","","","","html-button-response","138","572458","0.0-11.0","30","1","2022-11-27 09:38:46","7b1eb8be57ff77859c7d9ac988e43411","115.60.187.40","Mozilla/5.0 (Linux; Android 10; MIX 2S Build/QKQ1.190828.002; wv) AppleWebKit/537.36 (KHTML, like Gecko) Version/4.0 Chrome/86.0.4240.99 XWEB/4343 MMWEBSDK/20220903 Mobile Safari/537.36 MMWEBID/4477 MicroMessenger/8.0.28.2240(0x28001C57) WeChat/arm64 Weixin NetType/WIFI Language/zh_CN ABI/arm64","WebKit","Chrome","86.0.4240.99","AndroidOS","10","7745","<p><strong>请判断下列陈述在多大程度上可以形容你？</p><p> (1 = ""和我一点都不像"" to 5 = ""非常像我"".)</strong></p>","0",""
"","","","","","survey-likert","139","613309","0.0-12.0","30","1","2022-11-27 09:38:46","7b1eb8be57ff77859c7d9ac988e43411","115.60.187.40","Mozilla/5.0 (Linux; Android 10; MIX 2S Build/QKQ1.190828.002; wv) AppleWebKit/537.36 (KHTML, like Gecko) Version/4.0 Chrome/86.0.4240.99 XWEB/4343 MMWEBSDK/20220903 Mobile Safari/537.36 MMWEBID/4477 MicroMessenger/8.0.28.2240(0x28001C57) WeChat/arm64 Weixin NetType/WIFI Language/zh_CN ABI/arm64","WebKit","Chrome","86.0.4240.99","AndroidOS","10","40803","","{""Aggression1"":1,""Aggression2"":2,""Aggression3"":4,""Aggression4"":0,""Aggression5"":4,""Aggression6"":4,""Aggression7"":2,""Aggression8"":0,""Aggression9"":0}","[0,1,2,3,4,5,6,7,8]"
"","","","","","html-button-response","140","615244","0.0-13.0","30","1","2022-11-27 09:38:46","7b1eb8be57ff77859c7d9ac988e43411","115.60.187.40","Mozilla/5.0 (Linux; Android 10; MIX 2S Build/QKQ1.190828.002; wv) AppleWebKit/537.36 (KHTML, like Gecko) Version/4.0 Chrome/86.0.4240.99 XWEB/4343 MMWEBSDK/20220903 Mobile Safari/537.36 MMWEBID/4477 MicroMessenger/8.0.28.2240(0x28001C57) WeChat/arm64 Weixin NetType/WIFI Language/zh_CN ABI/arm64","WebKit","Chrome","86.0.4240.99","AndroidOS","10","1902","<p><strong>请判断你在多大程度上同意下列陈述。</strong></p>","0",""
"","","","","","survey-likert","141","709788","0.0-14.0","30","1","2022-11-27 09:38:46","7b1eb8be57ff77859c7d9ac988e43411","115.60.187.40","Mozilla/5.0 (Linux; Android 10; MIX 2S Build/QKQ1.190828.002; wv) AppleWebKit/537.36 (KHTML, like Gecko) Version/4.0 Chrome/86.0.4240.99 XWEB/4343 MMWEBSDK/20220903 Mobile Safari/537.36 MMWEBID/4477 MicroMessenger/8.0.28.2240(0x28001C57) WeChat/arm64 Weixin NetType/WIFI Language/zh_CN ABI/arm64","WebKit","Chrome","86.0.4240.99","AndroidOS","10","94494","","{""scale6"":2,""scale8"":3,""scale24"":2,""scale12"":0,""scale19"":4,""scale17"":2,""scale27"":1,""scale7"":4,""scale5"":4,""scale22"":1,""scale4"":2,""scale1"":2,""scale14"":3,""scale2"":2,""scale10"":2,""scale18"":3,""scale26"":2,""scale15"":3,""scale21"":1,""scale23"":3,""scale20"":3,""scale25"":3,""scale16"":3,""scale9"":3,""scale28"":2,""scale13"":3,""scale3"":1,""scale11"":3}","[5,7,23,11,18,16,26,6,4,21,3,0,13,1,9,17,25,14,20,22,19,24,15,8,27,12,2,10]"
"","","","","","html-button-response","142","711351","0.0-15.0","30","1","2022-11-27 09:38:46","7b1eb8be57ff77859c7d9ac988e43411","115.60.187.40","Mozilla/5.0 (Linux; Android 10; MIX 2S Build/QKQ1.190828.002; wv) AppleWebKit/537.36 (KHTML, like Gecko) Version/4.0 Chrome/86.0.4240.99 XWEB/4343 MMWEBSDK/20220903 Mobile Safari/537.36 MMWEBID/4477 MicroMessenger/8.0.28.2240(0x28001C57) WeChat/arm64 Weixin NetType/WIFI Language/zh_CN ABI/arm64","WebKit","Chrome","86.0.4240.99","AndroidOS","10","1538","<p><strong>请判断你在多大程度上同意下列陈述。</strong></p>","0",""
"","","","","","survey-likert","143","748516","0.0-16.0","30","1","2022-11-27 09:38:46","7b1eb8be57ff77859c7d9ac988e43411","115.60.187.40","Mozilla/5.0 (Linux; Android 10; MIX 2S Build/QKQ1.190828.002; wv) AppleWebKit/537.36 (KHTML, like Gecko) Version/4.0 Chrome/86.0.4240.99 XWEB/4343 MMWEBSDK/20220903 Mobile Safari/537.36 MMWEBID/4477 MicroMessenger/8.0.28.2240(0x28001C57) WeChat/arm64 Weixin NetType/WIFI Language/zh_CN ABI/arm64","WebKit","Chrome","86.0.4240.99","AndroidOS","10","37118","","{""sdo9"":5,""sdo12"":4,""sdo1"":4,""sdo2"":5,""sdo7"":3,""sdo14"":3,""sdo10"":2,""sdo15"":2,""sdo4"":4,""sdo8"":2,""sdo13"":5,""sdo6"":1,""sdo5"":3,""sdo11"":3,""sdo3"":2,""sdo16"":3}","[8,11,0,1,6,13,9,14,3,7,12,5,4,10,2,15]"
"","","","","","html-button-response","144","749972","0.0-17.0","30","1","2022-11-27 09:38:46","7b1eb8be57ff77859c7d9ac988e43411","115.60.187.40","Mozilla/5.0 (Linux; Android 10; MIX 2S Build/QKQ1.190828.002; wv) AppleWebKit/537.36 (KHTML, like Gecko) Version/4.0 Chrome/86.0.4240.99 XWEB/4343 MMWEBSDK/20220903 Mobile Safari/537.36 MMWEBID/4477 MicroMessenger/8.0.28.2240(0x28001C57) WeChat/arm64 Weixin NetType/WIFI Language/zh_CN ABI/arm64","WebKit","Chrome","86.0.4240.99","AndroidOS","10","1432","<p><strong>请判断你在多大程度上同意下列陈述。</strong></p>","0",""
"","","","","","survey-likert","145","798248","0.0-18.0","30","1","2022-11-27 09:38:46","7b1eb8be57ff77859c7d9ac988e43411","115.60.187.40","Mozilla/5.0 (Linux; Android 10; MIX 2S Build/QKQ1.190828.002; wv) AppleWebKit/537.36 (KHTML, like Gecko) Version/4.0 Chrome/86.0.4240.99 XWEB/4343 MMWEBSDK/20220903 Mobile Safari/537.36 MMWEBID/4477 MicroMessenger/8.0.28.2240(0x28001C57) WeChat/arm64 Weixin NetType/WIFI Language/zh_CN ABI/arm64","WebKit","Chrome","86.0.4240.99","AndroidOS","10","48241","","{""caring1"":2,""liking1"":2,""caring2"":3,""protection1"":3,""liking2"":2,""caring3"":2,""protection2"":2,""liking3"":3,""protection3"":3,""caring4"":2,""liking4"":2,""protection4"":3,""caring5"":2,""liking5"":1,""protection5"":2}","[0,1,2,3,4,5,6,7,8,9,10,11,12,13,14]"
"","","","","","html-button-response","146","799831","0.0-19.0","30","1","2022-11-27 09:38:46","7b1eb8be57ff77859c7d9ac988e43411","115.60.187.40","Mozilla/5.0 (Linux; Android 10; MIX 2S Build/QKQ1.190828.002; wv) AppleWebKit/537.36 (KHTML, like Gecko) Version/4.0 Chrome/86.0.4240.99 XWEB/4343 MMWEBSDK/20220903 Mobile Safari/537.36 MMWEBID/4477 MicroMessenger/8.0.28.2240(0x28001C57) WeChat/arm64 Weixin NetType/WIFI Language/zh_CN ABI/arm64","WebKit","Chrome","86.0.4240.99","AndroidOS","10","1556","<p><strong>请判断下列场景中你的内心感受有多柔软。</strong></p>","0",""
"","","","","","survey-likert","147","840743","0.0-20.0","30","1","2022-11-27 09:38:46","7b1eb8be57ff77859c7d9ac988e43411","115.60.187.40","Mozilla/5.0 (Linux; Android 10; MIX 2S Build/QKQ1.190828.002; wv) AppleWebKit/537.36 (KHTML, like Gecko) Version/4.0 Chrome/86.0.4240.99 XWEB/4343 MMWEBSDK/20220903 Mobile Safari/537.36 MMWEBID/4477 MicroMessenger/8.0.28.2240(0x28001C57) WeChat/arm64 Weixin NetType/WIFI Language/zh_CN ABI/arm64","WebKit","Chrome","86.0.4240.99","AndroidOS","10","40871","","{""tenderness-positive1"":3,""tenderness-negative1"":2,""tenderness-negative2"":0,""tenderness-positive2"":3,""tenderness-positive3"":3,""tenderness-negative3"":2,""tenderness-positive4"":3,""tenderness-negative4"":3,""tenderness-negative5"":3,""tenderness-positive5"":3}","[0,1,2,3,4,5,6,7,8,9]"
"","","","","","survey-multi-choice","148","888029","0.0-21.0","30","1","2022-11-27 09:38:46","7b1eb8be57ff77859c7d9ac988e43411","115.60.187.40","Mozilla/5.0 (Linux; Android 10; MIX 2S Build/QKQ1.190828.002; wv) AppleWebKit/537.36 (KHTML, like Gecko) Version/4.0 Chrome/86.0.4240.99 XWEB/4343 MMWEBSDK/20220903 Mobile Safari/537.36 MMWEBID/4477 MicroMessenger/8.0.28.2240(0x28001C57) WeChat/arm64 Weixin NetType/WIFI Language/zh_CN ABI/arm64","WebKit","Chrome","86.0.4240.99","AndroidOS","10","47256","","{""Attention2"":""其他""}","[0]"
"","","","","","html-button-response","149","889391","0.0-22.0","30","1","2022-11-27 09:38:46","7b1eb8be57ff77859c7d9ac988e43411","115.60.187.40","Mozilla/5.0 (Linux; Android 10; MIX 2S Build/QKQ1.190828.002; wv) AppleWebKit/537.36 (KHTML, like Gecko) Version/4.0 Chrome/86.0.4240.99 XWEB/4343 MMWEBSDK/20220903 Mobile Safari/537.36 MMWEBID/4477 MicroMessenger/8.0.28.2240(0x28001C57) WeChat/arm64 Weixin NetType/WIFI Language/zh_CN ABI/arm64","WebKit","Chrome","86.0.4240.99","AndroidOS","10","1326","<p><strong>请判断你在多大程度上同意下列陈述。</strong></p>","0",""
"","","","","","survey-likert","150","918544","0.0-23.0","30","1","2022-11-27 09:38:46","7b1eb8be57ff77859c7d9ac988e43411","115.60.187.40","Mozilla/5.0 (Linux; Android 10; MIX 2S Build/QKQ1.190828.002; wv) AppleWebKit/537.36 (KHTML, like Gecko) Version/4.0 Chrome/86.0.4240.99 XWEB/4343 MMWEBSDK/20220903 Mobile Safari/537.36 MMWEBID/4477 MicroMessenger/8.0.28.2240(0x28001C57) WeChat/arm64 Weixin NetType/WIFI Language/zh_CN ABI/arm64","WebKit","Chrome","86.0.4240.99","AndroidOS","10","29111","","{""Patri11"":3,""Patri5"":3,""Patri6"":2,""Patri4"":3,""Nation6"":2,""Patri12"":2,""Nation7"":3,""Patri2"":1,""Patri7"":3,""Nation3"":3,""Nation4"":1,""Nation8"":3,""Patri8"":3,""Patri1"":3,""Patri3"":3,""Nation1"":2,""Patri9"":3,""Nation2"":2,""Nation5"":3,""Patri10"":3}","[10,4,5,3,17,11,18,1,6,14,15,19,7,0,2,12,8,13,16,9]"
"","","","","","html-button-response","151","919825","0.0-24.0","30","1","2022-11-27 09:38:46","7b1eb8be57ff77859c7d9ac988e43411","115.60.187.40","Mozilla/5.0 (Linux; Android 10; MIX 2S Build/QKQ1.190828.002; wv) AppleWebKit/537.36 (KHTML, like Gecko) Version/4.0 Chrome/86.0.4240.99 XWEB/4343 MMWEBSDK/20220903 Mobile Safari/537.36 MMWEBID/4477 MicroMessenger/8.0.28.2240(0x28001C57) WeChat/arm64 Weixin NetType/WIFI Language/zh_CN ABI/arm64","WebKit","Chrome","86.0.4240.99","AndroidOS","10","1258","<p><strong>请判断你在多大程度上同意下列陈述。</strong></p>","0",""
"","","","","","survey-likert","152","972381","0.0-25.0","30","1","2022-11-27 09:38:46","7b1eb8be57ff77859c7d9ac988e43411","115.60.187.40","Mozilla/5.0 (Linux; Android 10; MIX 2S Build/QKQ1.190828.002; wv) AppleWebKit/537.36 (KHTML, like Gecko) Version/4.0 Chrome/86.0.4240.99 XWEB/4343 MMWEBSDK/20220903 Mobile Safari/537.36 MMWEBID/4477 MicroMessenger/8.0.28.2240(0x28001C57) WeChat/arm64 Weixin NetType/WIFI Language/zh_CN ABI/arm64","WebKit","Chrome","86.0.4240.99","AndroidOS","10","52511","","{""hc2"":4,""vi4"":4,""vc2"":6,""vi1"":4,""hc3"":6,""hi4"":5,""vc1"":4,""Robot"":6,""hc4"":6,""hi1"":5,""vi3"":5,""hi2"":5,""hi3"":6,""hc1"":5,""vc4"":7,""vc3"":6,""vi2"":6}","[10,8,14,4,11,3,13,7,12,0,6,1,2,9,16,15,5]"
"","","","","","survey-text","153","986716","0.0-26.0","30","1","2022-11-27 09:38:46","7b1eb8be57ff77859c7d9ac988e43411","115.60.187.40","Mozilla/5.0 (Linux; Android 10; MIX 2S Build/QKQ1.190828.002; wv) AppleWebKit/537.36 (KHTML, like Gecko) Version/4.0 Chrome/86.0.4240.99 XWEB/4343 MMWEBSDK/20220903 Mobile Safari/537.36 MMWEBID/4477 MicroMessenger/8.0.28.2240(0x28001C57) WeChat/arm64 Weixin NetType/WIFI Language/zh_CN ABI/arm64","WebKit","Chrome","86.0.4240.99","AndroidOS","10","14288","","{""Comments"":""前面不太理解是什么鬼""}",""
