"success","timeout","failed_images","failed_audio","failed_video","trial_type","trial_index","time_elapsed","internal_node_id","run_id","condition","recorded_at","source_code_version","ip","user_agent","device","browser","browser_version","platform","platform_version","rt","stimulus","response","question_order"
"true","false","[]","[]","[]","preload","0","4727","0.0-0.0","33","1","2022-11-27 09:39:28","7b1eb8be57ff77859c7d9ac988e43411","36.137.172.57","Mozilla/5.0 (Linux; Android 11; meizu 17 Pro Build/QKQ1.200127.002; wv) AppleWebKit/537.36 (KHTML, like Gecko) Version/4.0 Chrome/86.0.4240.99 XWEB/4343 MMWEBSDK/20220903 Mobile Safari/537.36 MMWEBID/5360 MicroMessenger/8.0.28.2240(0x28001C57) WeChat/arm64 Weixin NetType/5G Language/zh_CN ABI/arm64","WebKit","Chrome","86.0.4240.99","AndroidOS","11","","","",""
"true","","","","","fullscreen","1","8250","0.0-1.0","33","1","2022-11-27 09:39:28","7b1eb8be57ff77859c7d9ac988e43411","36.137.172.57","Mozilla/5.0 (Linux; Android 11; meizu 17 Pro Build/QKQ1.200127.002; wv) AppleWebKit/537.36 (KHTML, like Gecko) Version/4.0 Chrome/86.0.4240.99 XWEB/4343 MMWEBSDK/20220903 Mobile Safari/537.36 MMWEBID/5360 MicroMessenger/8.0.28.2240(0x28001C57) WeChat/arm64 Weixin NetType/5G Language/zh_CN ABI/arm64","WebKit","Chrome","86.0.4240.99","AndroidOS","11","","","",""
"","","","","","html-button-response","2","12860","0.0-2.0","33","1","2022-11-27 09:39:28","7b1eb8be57ff77859c7d9ac988e43411","36.137.172.57","Mozilla/5.0 (Linux; Android 11; meizu 17 Pro Build/QKQ1.200127.002; wv) AppleWebKit/537.36 (KHTML, like Gecko) Version/4.0 Chrome/86.0.4240.99 XWEB/4343 MMWEBSDK/20220903 Mobile Safari/537.36 MMWEBID/5360 MicroMessenger/8.0.28.2240(0x28001C57) WeChat/arm64 Weixin NetType/5G Language/zh_CN ABI/arm64","WebKit","Chrome","86.0.4240.99","AndroidOS","11","4596","<p style=""font-size:20px;font-weight:bold;"">实验知情同意书</p><p style=""text-align:left;""><strong>实验名称：</strong>社会冲突研究</p><p style=""text-align:left;""><strong>主要研究者：</strong>韩晓春副教授（北京师范大学心理学部）</p><p style=""text-align:left;""><strong>联系方式：</strong>发送邮件至xiaochun.han@bnu.edu.cn</p><p style=""text-align:left;""><strong>研究目的：</strong>研究旨在了解人类面对群体冲突时的决策方式，以及相关的心理学特质。实验调查大约需要20分钟。</p><p style=""text-align:left;""><strong>实验流程：</strong>实验包含两部分。第一部分呈现一系列群体冲突场景，请你决定如何对这些冲突进行反应，大约需要10分钟完成。第二部分包含一系列人口统计学信息收集和心理学问卷，大约需要10分钟完成。</p><p style=""text-align:left;""><strong>参加及退出规则：</strong>参加本实验完全取决于您的个人意愿。在参与过程中，您可以随时退出，并且不用承担任何后果。</p><p style=""text-align:left;""><strong>隐私：</strong>本实验完全匿名进行，不会收集您的姓名或其他能够识别您身份的信息。实验中收集的作答仅用作科学研究使用，可能会在学术期刊/书籍上发表，或者用于教学，您的数据未来可能会和其他研究者或实验室分享，但您的个人身份不会被识别。</p><p style=""text-align:left;""><strong>实验报酬：</strong>实验完成后，您将获得15元人民币报酬，以感谢您的时间和努力。调查问卷中包含几道题目用以测验您作答时的认真度。只有完成全部实验，并且正确回答认真度测验的被试才能获得实验报酬。实验报酬将通过支付宝转账发放。</p><p style=""text-align:left;font-size:20px;""><strong>如果您同意以上实验知情同意书的内容，请点击'同意并且开始实验'按钮；否则请关闭浏览器界面，退出实验。</strong></p>","0",""
"","","","","","html-button-response","3","14651","0.0-3.0","33","1","2022-11-27 09:39:28","7b1eb8be57ff77859c7d9ac988e43411","36.137.172.57","Mozilla/5.0 (Linux; Android 11; meizu 17 Pro Build/QKQ1.200127.002; wv) AppleWebKit/537.36 (KHTML, like Gecko) Version/4.0 Chrome/86.0.4240.99 XWEB/4343 MMWEBSDK/20220903 Mobile Safari/537.36 MMWEBID/5360 MicroMessenger/8.0.28.2240(0x28001C57) WeChat/arm64 Weixin NetType/5G Language/zh_CN ABI/arm64","WebKit","Chrome","86.0.4240.99","AndroidOS","11","1783","<p ><strong>实验任务一：</strong></p><p>请想象你的国家与另一个国家发生了军事冲突。</p><p>你是国家军队的指挥官，你将如何在冲突中进行决策。</p><p>具体来说，作为军队指挥官，请你决定是否发射导弹进行打击。</p><p>接下来，你会面对一系列场景，请仔细阅读每个场景，然后进行决策。</p><p>这部分实验任务大约需要10分钟。</p><p><strong>实验过程中，请集中注意力。</strong></p>","0",""
"","","","","","html-keyboard-response","4","15660","0.0-4.0-0.0","33","1","2022-11-27 09:39:28","7b1eb8be57ff77859c7d9ac988e43411","36.137.172.57","Mozilla/5.0 (Linux; Android 11; meizu 17 Pro Build/QKQ1.200127.002; wv) AppleWebKit/537.36 (KHTML, like Gecko) Version/4.0 Chrome/86.0.4240.99 XWEB/4343 MMWEBSDK/20220903 Mobile Safari/537.36 MMWEBID/5360 MicroMessenger/8.0.28.2240(0x28001C57) WeChat/arm64 Weixin NetType/5G Language/zh_CN ABI/arm64","WebKit","Chrome","86.0.4240.99","AndroidOS","11","null","<div style=""font-size:60px;"">+</div>","null",""
"","","","","","html-button-response","5","24780","0.0-4.0-1.0","33","1","2022-11-27 09:39:28","7b1eb8be57ff77859c7d9ac988e43411","36.137.172.57","Mozilla/5.0 (Linux; Android 11; meizu 17 Pro Build/QKQ1.200127.002; wv) AppleWebKit/537.36 (KHTML, like Gecko) Version/4.0 Chrome/86.0.4240.99 XWEB/4343 MMWEBSDK/20220903 Mobile Safari/537.36 MMWEBID/5360 MicroMessenger/8.0.28.2240(0x28001C57) WeChat/arm64 Weixin NetType/5G Language/zh_CN ABI/arm64","WebKit","Chrome","86.0.4240.99","AndroidOS","11","9102","<p>作为军队的指挥官，你可以选择发射导弹杀死 <strong>1名</strong> 敌国士兵，但会误杀附近的 <strong>1名</strong> 敌国平民。</p> <p>平民照片如下图所示。</p> <p></p> <img src='stimuli/faces/PCF7.jpg', style='max-width: 30%;'> </img> <p><strong>你是否选择发射武器？</strong></p>","1",""
"","","","","","html-keyboard-response","6","25788","0.0-4.0-0.1","33","1","2022-11-27 09:39:28","7b1eb8be57ff77859c7d9ac988e43411","36.137.172.57","Mozilla/5.0 (Linux; Android 11; meizu 17 Pro Build/QKQ1.200127.002; wv) AppleWebKit/537.36 (KHTML, like Gecko) Version/4.0 Chrome/86.0.4240.99 XWEB/4343 MMWEBSDK/20220903 Mobile Safari/537.36 MMWEBID/5360 MicroMessenger/8.0.28.2240(0x28001C57) WeChat/arm64 Weixin NetType/5G Language/zh_CN ABI/arm64","WebKit","Chrome","86.0.4240.99","AndroidOS","11","null","<div style=""font-size:60px;"">+</div>","null",""
"","","","","","html-button-response","7","32901","0.0-4.0-1.1","33","1","2022-11-27 09:39:28","7b1eb8be57ff77859c7d9ac988e43411","36.137.172.57","Mozilla/5.0 (Linux; Android 11; meizu 17 Pro Build/QKQ1.200127.002; wv) AppleWebKit/537.36 (KHTML, like Gecko) Version/4.0 Chrome/86.0.4240.99 XWEB/4343 MMWEBSDK/20220903 Mobile Safari/537.36 MMWEBID/5360 MicroMessenger/8.0.28.2240(0x28001C57) WeChat/arm64 Weixin NetType/5G Language/zh_CN ABI/arm64","WebKit","Chrome","86.0.4240.99","AndroidOS","11","7095","<p>作为军队的指挥官，你可以选择发射导弹杀死 <strong>9名</strong> 敌国士兵，但会炸毁附近的 <strong>1棵</strong> 敌国树木。</p> <p>树木的照片如下图所示。</p> <p></p> <img src='stimuli/trees/1.png', style='max-width: 30%;'> </img> <p><strong>你是否选择发射武器？</strong></p>","0",""
"","","","","","html-keyboard-response","8","33910","0.0-4.0-0.2","33","1","2022-11-27 09:39:28","7b1eb8be57ff77859c7d9ac988e43411","36.137.172.57","Mozilla/5.0 (Linux; Android 11; meizu 17 Pro Build/QKQ1.200127.002; wv) AppleWebKit/537.36 (KHTML, like Gecko) Version/4.0 Chrome/86.0.4240.99 XWEB/4343 MMWEBSDK/20220903 Mobile Safari/537.36 MMWEBID/5360 MicroMessenger/8.0.28.2240(0x28001C57) WeChat/arm64 Weixin NetType/5G Language/zh_CN ABI/arm64","WebKit","Chrome","86.0.4240.99","AndroidOS","11","null","<div style=""font-size:60px;"">+</div>","null",""
"","","","","","html-button-response","9","36773","0.0-4.0-1.2","33","1","2022-11-27 09:39:28","7b1eb8be57ff77859c7d9ac988e43411","36.137.172.57","Mozilla/5.0 (Linux; Android 11; meizu 17 Pro Build/QKQ1.200127.002; wv) AppleWebKit/537.36 (KHTML, like Gecko) Version/4.0 Chrome/86.0.4240.99 XWEB/4343 MMWEBSDK/20220903 Mobile Safari/537.36 MMWEBID/5360 MicroMessenger/8.0.28.2240(0x28001C57) WeChat/arm64 Weixin NetType/5G Language/zh_CN ABI/arm64","WebKit","Chrome","86.0.4240.99","AndroidOS","11","2845","<p>作为军队的指挥官，你可以选择发射导弹杀死 <strong>9名</strong> 敌国士兵，但会炸毁附近的 <strong>1棵</strong> 敌国树木。</p> <p>树木的照片如下图所示。</p> <p></p> <img src='stimuli/trees/5.png', style='max-width: 30%;'> </img> <p><strong>你是否选择发射武器？</strong></p>","1",""
"","","","","","html-keyboard-response","10","37784","0.0-4.0-0.3","33","1","2022-11-27 09:39:28","7b1eb8be57ff77859c7d9ac988e43411","36.137.172.57","Mozilla/5.0 (Linux; Android 11; meizu 17 Pro Build/QKQ1.200127.002; wv) AppleWebKit/537.36 (KHTML, like Gecko) Version/4.0 Chrome/86.0.4240.99 XWEB/4343 MMWEBSDK/20220903 Mobile Safari/537.36 MMWEBID/5360 MicroMessenger/8.0.28.2240(0x28001C57) WeChat/arm64 Weixin NetType/5G Language/zh_CN ABI/arm64","WebKit","Chrome","86.0.4240.99","AndroidOS","11","null","<div style=""font-size:60px;"">+</div>","null",""
"","","","","","html-button-response","11","41956","0.0-4.0-1.3","33","1","2022-11-27 09:39:28","7b1eb8be57ff77859c7d9ac988e43411","36.137.172.57","Mozilla/5.0 (Linux; Android 11; meizu 17 Pro Build/QKQ1.200127.002; wv) AppleWebKit/537.36 (KHTML, like Gecko) Version/4.0 Chrome/86.0.4240.99 XWEB/4343 MMWEBSDK/20220903 Mobile Safari/537.36 MMWEBID/5360 MicroMessenger/8.0.28.2240(0x28001C57) WeChat/arm64 Weixin NetType/5G Language/zh_CN ABI/arm64","WebKit","Chrome","86.0.4240.99","AndroidOS","11","4160","<p>作为军队的指挥官，你可以选择发射导弹杀死 <strong>3名</strong> 敌国士兵，但会炸毁附近的 <strong>1棵</strong> 敌国树木。</p> <p>树木的照片如下图所示。</p> <p></p> <img src='stimuli/trees/15.png', style='max-width: 30%;'> </img> <p><strong>你是否选择发射武器？</strong></p>","0",""
"","","","","","html-keyboard-response","12","42966","0.0-4.0-0.4","33","1","2022-11-27 09:39:28","7b1eb8be57ff77859c7d9ac988e43411","36.137.172.57","Mozilla/5.0 (Linux; Android 11; meizu 17 Pro Build/QKQ1.200127.002; wv) AppleWebKit/537.36 (KHTML, like Gecko) Version/4.0 Chrome/86.0.4240.99 XWEB/4343 MMWEBSDK/20220903 Mobile Safari/537.36 MMWEBID/5360 MicroMessenger/8.0.28.2240(0x28001C57) WeChat/arm64 Weixin NetType/5G Language/zh_CN ABI/arm64","WebKit","Chrome","86.0.4240.99","AndroidOS","11","null","<div style=""font-size:60px;"">+</div>","null",""
"","","","","","html-button-response","13","47101","0.0-4.0-1.4","33","1","2022-11-27 09:39:28","7b1eb8be57ff77859c7d9ac988e43411","36.137.172.57","Mozilla/5.0 (Linux; Android 11; meizu 17 Pro Build/QKQ1.200127.002; wv) AppleWebKit/537.36 (KHTML, like Gecko) Version/4.0 Chrome/86.0.4240.99 XWEB/4343 MMWEBSDK/20220903 Mobile Safari/537.36 MMWEBID/5360 MicroMessenger/8.0.28.2240(0x28001C57) WeChat/arm64 Weixin NetType/5G Language/zh_CN ABI/arm64","WebKit","Chrome","86.0.4240.99","AndroidOS","11","4117","<p>作为军队的指挥官，你可以选择发射导弹杀死 <strong>8名</strong> 敌国士兵，但会误杀附近的 <strong>1名</strong> 敌国平民。</p> <p>平民照片如下图所示。</p> <p></p> <img src='stimuli/faces/PCF5.jpg', style='max-width: 30%;'> </img> <p><strong>你是否选择发射武器？</strong></p>","0",""
"","","","","","html-keyboard-response","14","48107","0.0-4.0-0.5","33","1","2022-11-27 09:39:28","7b1eb8be57ff77859c7d9ac988e43411","36.137.172.57","Mozilla/5.0 (Linux; Android 11; meizu 17 Pro Build/QKQ1.200127.002; wv) AppleWebKit/537.36 (KHTML, like Gecko) Version/4.0 Chrome/86.0.4240.99 XWEB/4343 MMWEBSDK/20220903 Mobile Safari/537.36 MMWEBID/5360 MicroMessenger/8.0.28.2240(0x28001C57) WeChat/arm64 Weixin NetType/5G Language/zh_CN ABI/arm64","WebKit","Chrome","86.0.4240.99","AndroidOS","11","null","<div style=""font-size:60px;"">+</div>","null",""
"","","","","","html-button-response","15","50756","0.0-4.0-1.5","33","1","2022-11-27 09:39:28","7b1eb8be57ff77859c7d9ac988e43411","36.137.172.57","Mozilla/5.0 (Linux; Android 11; meizu 17 Pro Build/QKQ1.200127.002; wv) AppleWebKit/537.36 (KHTML, like Gecko) Version/4.0 Chrome/86.0.4240.99 XWEB/4343 MMWEBSDK/20220903 Mobile Safari/537.36 MMWEBID/5360 MicroMessenger/8.0.28.2240(0x28001C57) WeChat/arm64 Weixin NetType/5G Language/zh_CN ABI/arm64","WebKit","Chrome","86.0.4240.99","AndroidOS","11","2629","<p>作为军队的指挥官，你可以选择发射导弹杀死 <strong>1名</strong> 敌国士兵，但会炸毁附近的 <strong>1棵</strong> 敌国树木。</p> <p>树木的照片如下图所示。</p> <p></p> <img src='stimuli/trees/9.png', style='max-width: 30%;'> </img> <p><strong>你是否选择发射武器？</strong></p>","0",""
"","","","","","html-keyboard-response","16","51765","0.0-4.0-0.6","33","1","2022-11-27 09:39:28","7b1eb8be57ff77859c7d9ac988e43411","36.137.172.57","Mozilla/5.0 (Linux; Android 11; meizu 17 Pro Build/QKQ1.200127.002; wv) AppleWebKit/537.36 (KHTML, like Gecko) Version/4.0 Chrome/86.0.4240.99 XWEB/4343 MMWEBSDK/20220903 Mobile Safari/537.36 MMWEBID/5360 MicroMessenger/8.0.28.2240(0x28001C57) WeChat/arm64 Weixin NetType/5G Language/zh_CN ABI/arm64","WebKit","Chrome","86.0.4240.99","AndroidOS","11","null","<div style=""font-size:60px;"">+</div>","null",""
"","","","","","html-button-response","17","54359","0.0-4.0-1.6","33","1","2022-11-27 09:39:28","7b1eb8be57ff77859c7d9ac988e43411","36.137.172.57","Mozilla/5.0 (Linux; Android 11; meizu 17 Pro Build/QKQ1.200127.002; wv) AppleWebKit/537.36 (KHTML, like Gecko) Version/4.0 Chrome/86.0.4240.99 XWEB/4343 MMWEBSDK/20220903 Mobile Safari/537.36 MMWEBID/5360 MicroMessenger/8.0.28.2240(0x28001C57) WeChat/arm64 Weixin NetType/5G Language/zh_CN ABI/arm64","WebKit","Chrome","86.0.4240.99","AndroidOS","11","2568","<p>作为军队的指挥官，你可以选择发射导弹杀死 <strong>4名</strong> 敌国士兵，但会误杀附近的 <strong>1名</strong> 敌国平民。</p> <p>平民照片如下图所示。</p> <p></p> <img src='stimuli/faces/PCF6.jpg', style='max-width: 30%;'> </img> <p><strong>你是否选择发射武器？</strong></p>","1",""
"","","","","","html-keyboard-response","18","55366","0.0-4.0-0.7","33","1","2022-11-27 09:39:28","7b1eb8be57ff77859c7d9ac988e43411","36.137.172.57","Mozilla/5.0 (Linux; Android 11; meizu 17 Pro Build/QKQ1.200127.002; wv) AppleWebKit/537.36 (KHTML, like Gecko) Version/4.0 Chrome/86.0.4240.99 XWEB/4343 MMWEBSDK/20220903 Mobile Safari/537.36 MMWEBID/5360 MicroMessenger/8.0.28.2240(0x28001C57) WeChat/arm64 Weixin NetType/5G Language/zh_CN ABI/arm64","WebKit","Chrome","86.0.4240.99","AndroidOS","11","null","<div style=""font-size:60px;"">+</div>","null",""
"","","","","","html-button-response","19","56778","0.0-4.0-1.7","33","1","2022-11-27 09:39:28","7b1eb8be57ff77859c7d9ac988e43411","36.137.172.57","Mozilla/5.0 (Linux; Android 11; meizu 17 Pro Build/QKQ1.200127.002; wv) AppleWebKit/537.36 (KHTML, like Gecko) Version/4.0 Chrome/86.0.4240.99 XWEB/4343 MMWEBSDK/20220903 Mobile Safari/537.36 MMWEBID/5360 MicroMessenger/8.0.28.2240(0x28001C57) WeChat/arm64 Weixin NetType/5G Language/zh_CN ABI/arm64","WebKit","Chrome","86.0.4240.99","AndroidOS","11","1395","<p>作为军队的指挥官，你可以选择发射导弹杀死 <strong>8名</strong> 敌国士兵，但会误杀附近的 <strong>1名</strong> 敌国平民。</p> <p>平民照片如下图所示。</p> <p></p> <img src='stimuli/faces/PCM3.jpg', style='max-width: 30%;'> </img> <p><strong>你是否选择发射武器？</strong></p>","0",""
"","","","","","html-keyboard-response","20","57785","0.0-4.0-0.8","33","1","2022-11-27 09:39:28","7b1eb8be57ff77859c7d9ac988e43411","36.137.172.57","Mozilla/5.0 (Linux; Android 11; meizu 17 Pro Build/QKQ1.200127.002; wv) AppleWebKit/537.36 (KHTML, like Gecko) Version/4.0 Chrome/86.0.4240.99 XWEB/4343 MMWEBSDK/20220903 Mobile Safari/537.36 MMWEBID/5360 MicroMessenger/8.0.28.2240(0x28001C57) WeChat/arm64 Weixin NetType/5G Language/zh_CN ABI/arm64","WebKit","Chrome","86.0.4240.99","AndroidOS","11","null","<div style=""font-size:60px;"">+</div>","null",""
"","","","","","html-button-response","21","60278","0.0-4.0-1.8","33","1","2022-11-27 09:39:28","7b1eb8be57ff77859c7d9ac988e43411","36.137.172.57","Mozilla/5.0 (Linux; Android 11; meizu 17 Pro Build/QKQ1.200127.002; wv) AppleWebKit/537.36 (KHTML, like Gecko) Version/4.0 Chrome/86.0.4240.99 XWEB/4343 MMWEBSDK/20220903 Mobile Safari/537.36 MMWEBID/5360 MicroMessenger/8.0.28.2240(0x28001C57) WeChat/arm64 Weixin NetType/5G Language/zh_CN ABI/arm64","WebKit","Chrome","86.0.4240.99","AndroidOS","11","2473","<p>作为军队的指挥官，你可以选择发射导弹杀死 <strong>9名</strong> 敌国士兵，但会炸毁附近的 <strong>1棵</strong> 敌国树木。</p> <p>树木的照片如下图所示。</p> <p></p> <img src='stimuli/trees/12.png', style='max-width: 30%;'> </img> <p><strong>你是否选择发射武器？</strong></p>","0",""
"","","","","","html-keyboard-response","22","61287","0.0-4.0-0.9","33","1","2022-11-27 09:39:28","7b1eb8be57ff77859c7d9ac988e43411","36.137.172.57","Mozilla/5.0 (Linux; Android 11; meizu 17 Pro Build/QKQ1.200127.002; wv) AppleWebKit/537.36 (KHTML, like Gecko) Version/4.0 Chrome/86.0.4240.99 XWEB/4343 MMWEBSDK/20220903 Mobile Safari/537.36 MMWEBID/5360 MicroMessenger/8.0.28.2240(0x28001C57) WeChat/arm64 Weixin NetType/5G Language/zh_CN ABI/arm64","WebKit","Chrome","86.0.4240.99","AndroidOS","11","null","<div style=""font-size:60px;"">+</div>","null",""
"","","","","","html-button-response","23","63944","0.0-4.0-1.9","33","1","2022-11-27 09:39:28","7b1eb8be57ff77859c7d9ac988e43411","36.137.172.57","Mozilla/5.0 (Linux; Android 11; meizu 17 Pro Build/QKQ1.200127.002; wv) AppleWebKit/537.36 (KHTML, like Gecko) Version/4.0 Chrome/86.0.4240.99 XWEB/4343 MMWEBSDK/20220903 Mobile Safari/537.36 MMWEBID/5360 MicroMessenger/8.0.28.2240(0x28001C57) WeChat/arm64 Weixin NetType/5G Language/zh_CN ABI/arm64","WebKit","Chrome","86.0.4240.99","AndroidOS","11","2640","<p>作为军队的指挥官，你可以选择发射导弹杀死 <strong>7名</strong> 敌国士兵，但会炸毁附近的 <strong>1棵</strong> 敌国树木。</p> <p>树木的照片如下图所示。</p> <p></p> <img src='stimuli/trees/11.png', style='max-width: 30%;'> </img> <p><strong>你是否选择发射武器？</strong></p>","1",""
"","","","","","html-keyboard-response","24","64953","0.0-4.0-0.10","33","1","2022-11-27 09:39:28","7b1eb8be57ff77859c7d9ac988e43411","36.137.172.57","Mozilla/5.0 (Linux; Android 11; meizu 17 Pro Build/QKQ1.200127.002; wv) AppleWebKit/537.36 (KHTML, like Gecko) Version/4.0 Chrome/86.0.4240.99 XWEB/4343 MMWEBSDK/20220903 Mobile Safari/537.36 MMWEBID/5360 MicroMessenger/8.0.28.2240(0x28001C57) WeChat/arm64 Weixin NetType/5G Language/zh_CN ABI/arm64","WebKit","Chrome","86.0.4240.99","AndroidOS","11","null","<div style=""font-size:60px;"">+</div>","null",""
"","","","","","html-button-response","25","69211","0.0-4.0-1.10","33","1","2022-11-27 09:39:28","7b1eb8be57ff77859c7d9ac988e43411","36.137.172.57","Mozilla/5.0 (Linux; Android 11; meizu 17 Pro Build/QKQ1.200127.002; wv) AppleWebKit/537.36 (KHTML, like Gecko) Version/4.0 Chrome/86.0.4240.99 XWEB/4343 MMWEBSDK/20220903 Mobile Safari/537.36 MMWEBID/5360 MicroMessenger/8.0.28.2240(0x28001C57) WeChat/arm64 Weixin NetType/5G Language/zh_CN ABI/arm64","WebKit","Chrome","86.0.4240.99","AndroidOS","11","4239","<p>作为军队的指挥官，你可以选择发射导弹杀死 <strong>6名</strong> 敌国士兵，但会炸毁附近的 <strong>1棵</strong> 敌国树木。</p> <p>树木的照片如下图所示。</p> <p></p> <img src='stimuli/trees/3.png', style='max-width: 30%;'> </img> <p><strong>你是否选择发射武器？</strong></p>","0",""
"","","","","","html-keyboard-response","26","70222","0.0-4.0-0.11","33","1","2022-11-27 09:39:28","7b1eb8be57ff77859c7d9ac988e43411","36.137.172.57","Mozilla/5.0 (Linux; Android 11; meizu 17 Pro Build/QKQ1.200127.002; wv) AppleWebKit/537.36 (KHTML, like Gecko) Version/4.0 Chrome/86.0.4240.99 XWEB/4343 MMWEBSDK/20220903 Mobile Safari/537.36 MMWEBID/5360 MicroMessenger/8.0.28.2240(0x28001C57) WeChat/arm64 Weixin NetType/5G Language/zh_CN ABI/arm64","WebKit","Chrome","86.0.4240.99","AndroidOS","11","null","<div style=""font-size:60px;"">+</div>","null",""
"","","","","","html-button-response","27","71630","0.0-4.0-1.11","33","1","2022-11-27 09:39:28","7b1eb8be57ff77859c7d9ac988e43411","36.137.172.57","Mozilla/5.0 (Linux; Android 11; meizu 17 Pro Build/QKQ1.200127.002; wv) AppleWebKit/537.36 (KHTML, like Gecko) Version/4.0 Chrome/86.0.4240.99 XWEB/4343 MMWEBSDK/20220903 Mobile Safari/537.36 MMWEBID/5360 MicroMessenger/8.0.28.2240(0x28001C57) WeChat/arm64 Weixin NetType/5G Language/zh_CN ABI/arm64","WebKit","Chrome","86.0.4240.99","AndroidOS","11","1387","<p>作为军队的指挥官，你可以选择发射导弹杀死 <strong>4名</strong> 敌国士兵，但会炸毁附近的 <strong>1棵</strong> 敌国树木。</p> <p>树木的照片如下图所示。</p> <p></p> <img src='stimuli/trees/13.png', style='max-width: 30%;'> </img> <p><strong>你是否选择发射武器？</strong></p>","1",""
"","","","","","html-keyboard-response","28","72637","0.0-4.0-0.12","33","1","2022-11-27 09:39:28","7b1eb8be57ff77859c7d9ac988e43411","36.137.172.57","Mozilla/5.0 (Linux; Android 11; meizu 17 Pro Build/QKQ1.200127.002; wv) AppleWebKit/537.36 (KHTML, like Gecko) Version/4.0 Chrome/86.0.4240.99 XWEB/4343 MMWEBSDK/20220903 Mobile Safari/537.36 MMWEBID/5360 MicroMessenger/8.0.28.2240(0x28001C57) WeChat/arm64 Weixin NetType/5G Language/zh_CN ABI/arm64","WebKit","Chrome","86.0.4240.99","AndroidOS","11","null","<div style=""font-size:60px;"">+</div>","null",""
"","","","","","html-button-response","29","73757","0.0-4.0-1.12","33","1","2022-11-27 09:39:28","7b1eb8be57ff77859c7d9ac988e43411","36.137.172.57","Mozilla/5.0 (Linux; Android 11; meizu 17 Pro Build/QKQ1.200127.002; wv) AppleWebKit/537.36 (KHTML, like Gecko) Version/4.0 Chrome/86.0.4240.99 XWEB/4343 MMWEBSDK/20220903 Mobile Safari/537.36 MMWEBID/5360 MicroMessenger/8.0.28.2240(0x28001C57) WeChat/arm64 Weixin NetType/5G Language/zh_CN ABI/arm64","WebKit","Chrome","86.0.4240.99","AndroidOS","11","1109","<p>作为军队的指挥官，你可以选择发射导弹杀死 <strong>8名</strong> 敌国士兵，但会误杀附近的 <strong>1名</strong> 敌国平民。</p> <p>平民照片如下图所示。</p> <p></p> <img src='stimuli/faces/PCM5.jpg', style='max-width: 30%;'> </img> <p><strong>你是否选择发射武器？</strong></p>","0",""
"","","","","","html-keyboard-response","30","74765","0.0-4.0-0.13","33","1","2022-11-27 09:39:28","7b1eb8be57ff77859c7d9ac988e43411","36.137.172.57","Mozilla/5.0 (Linux; Android 11; meizu 17 Pro Build/QKQ1.200127.002; wv) AppleWebKit/537.36 (KHTML, like Gecko) Version/4.0 Chrome/86.0.4240.99 XWEB/4343 MMWEBSDK/20220903 Mobile Safari/537.36 MMWEBID/5360 MicroMessenger/8.0.28.2240(0x28001C57) WeChat/arm64 Weixin NetType/5G Language/zh_CN ABI/arm64","WebKit","Chrome","86.0.4240.99","AndroidOS","11","null","<div style=""font-size:60px;"">+</div>","null",""
"","","","","","html-button-response","31","76136","0.0-4.0-1.13","33","1","2022-11-27 09:39:28","7b1eb8be57ff77859c7d9ac988e43411","36.137.172.57","Mozilla/5.0 (Linux; Android 11; meizu 17 Pro Build/QKQ1.200127.002; wv) AppleWebKit/537.36 (KHTML, like Gecko) Version/4.0 Chrome/86.0.4240.99 XWEB/4343 MMWEBSDK/20220903 Mobile Safari/537.36 MMWEBID/5360 MicroMessenger/8.0.28.2240(0x28001C57) WeChat/arm64 Weixin NetType/5G Language/zh_CN ABI/arm64","WebKit","Chrome","86.0.4240.99","AndroidOS","11","1360","<p>作为军队的指挥官，你可以选择发射导弹杀死 <strong>7名</strong> 敌国士兵，但会误杀附近的 <strong>1名</strong> 敌国平民。</p> <p>平民照片如下图所示。</p> <p></p> <img src='stimuli/faces/PCM2.jpg', style='max-width: 30%;'> </img> <p><strong>你是否选择发射武器？</strong></p>","0",""
"","","","","","html-keyboard-response","32","77145","0.0-4.0-0.14","33","1","2022-11-27 09:39:28","7b1eb8be57ff77859c7d9ac988e43411","36.137.172.57","Mozilla/5.0 (Linux; Android 11; meizu 17 Pro Build/QKQ1.200127.002; wv) AppleWebKit/537.36 (KHTML, like Gecko) Version/4.0 Chrome/86.0.4240.99 XWEB/4343 MMWEBSDK/20220903 Mobile Safari/537.36 MMWEBID/5360 MicroMessenger/8.0.28.2240(0x28001C57) WeChat/arm64 Weixin NetType/5G Language/zh_CN ABI/arm64","WebKit","Chrome","86.0.4240.99","AndroidOS","11","null","<div style=""font-size:60px;"">+</div>","null",""
"","","","","","html-button-response","33","78746","0.0-4.0-1.14","33","1","2022-11-27 09:39:28","7b1eb8be57ff77859c7d9ac988e43411","36.137.172.57","Mozilla/5.0 (Linux; Android 11; meizu 17 Pro Build/QKQ1.200127.002; wv) AppleWebKit/537.36 (KHTML, like Gecko) Version/4.0 Chrome/86.0.4240.99 XWEB/4343 MMWEBSDK/20220903 Mobile Safari/537.36 MMWEBID/5360 MicroMessenger/8.0.28.2240(0x28001C57) WeChat/arm64 Weixin NetType/5G Language/zh_CN ABI/arm64","WebKit","Chrome","86.0.4240.99","AndroidOS","11","1585","<p>作为军队的指挥官，你可以选择发射导弹杀死 <strong>5名</strong> 敌国士兵，但会误杀附近的 <strong>1名</strong> 敌国平民。</p> <p>平民照片如下图所示。</p> <p></p> <img src='stimuli/faces/PCM6.jpg', style='max-width: 30%;'> </img> <p><strong>你是否选择发射武器？</strong></p>","0",""
"","","","","","html-keyboard-response","34","79756","0.0-4.0-0.15","33","1","2022-11-27 09:39:28","7b1eb8be57ff77859c7d9ac988e43411","36.137.172.57","Mozilla/5.0 (Linux; Android 11; meizu 17 Pro Build/QKQ1.200127.002; wv) AppleWebKit/537.36 (KHTML, like Gecko) Version/4.0 Chrome/86.0.4240.99 XWEB/4343 MMWEBSDK/20220903 Mobile Safari/537.36 MMWEBID/5360 MicroMessenger/8.0.28.2240(0x28001C57) WeChat/arm64 Weixin NetType/5G Language/zh_CN ABI/arm64","WebKit","Chrome","86.0.4240.99","AndroidOS","11","null","<div style=""font-size:60px;"">+</div>","null",""
"","","","","","html-button-response","35","81179","0.0-4.0-1.15","33","1","2022-11-27 09:39:28","7b1eb8be57ff77859c7d9ac988e43411","36.137.172.57","Mozilla/5.0 (Linux; Android 11; meizu 17 Pro Build/QKQ1.200127.002; wv) AppleWebKit/537.36 (KHTML, like Gecko) Version/4.0 Chrome/86.0.4240.99 XWEB/4343 MMWEBSDK/20220903 Mobile Safari/537.36 MMWEBID/5360 MicroMessenger/8.0.28.2240(0x28001C57) WeChat/arm64 Weixin NetType/5G Language/zh_CN ABI/arm64","WebKit","Chrome","86.0.4240.99","AndroidOS","11","1403","<p>作为军队的指挥官，你可以选择发射导弹杀死 <strong>4名</strong> 敌国士兵，但会误杀附近的 <strong>1名</strong> 敌国平民。</p> <p>平民照片如下图所示。</p> <p></p> <img src='stimuli/faces/PCM4.jpg', style='max-width: 30%;'> </img> <p><strong>你是否选择发射武器？</strong></p>","0",""
"","","","","","html-keyboard-response","36","82190","0.0-4.0-0.16","33","1","2022-11-27 09:39:28","7b1eb8be57ff77859c7d9ac988e43411","36.137.172.57","Mozilla/5.0 (Linux; Android 11; meizu 17 Pro Build/QKQ1.200127.002; wv) AppleWebKit/537.36 (KHTML, like Gecko) Version/4.0 Chrome/86.0.4240.99 XWEB/4343 MMWEBSDK/20220903 Mobile Safari/537.36 MMWEBID/5360 MicroMessenger/8.0.28.2240(0x28001C57) WeChat/arm64 Weixin NetType/5G Language/zh_CN ABI/arm64","WebKit","Chrome","86.0.4240.99","AndroidOS","11","null","<div style=""font-size:60px;"">+</div>","null",""
"","","","","","html-button-response","37","83952","0.0-4.0-1.16","33","1","2022-11-27 09:39:28","7b1eb8be57ff77859c7d9ac988e43411","36.137.172.57","Mozilla/5.0 (Linux; Android 11; meizu 17 Pro Build/QKQ1.200127.002; wv) AppleWebKit/537.36 (KHTML, like Gecko) Version/4.0 Chrome/86.0.4240.99 XWEB/4343 MMWEBSDK/20220903 Mobile Safari/537.36 MMWEBID/5360 MicroMessenger/8.0.28.2240(0x28001C57) WeChat/arm64 Weixin NetType/5G Language/zh_CN ABI/arm64","WebKit","Chrome","86.0.4240.99","AndroidOS","11","1736","<p>作为军队的指挥官，你可以选择发射导弹杀死 <strong>1名</strong> 敌国士兵，但会炸毁附近的 <strong>1棵</strong> 敌国树木。</p> <p>树木的照片如下图所示。</p> <p></p> <img src='stimuli/trees/11.png', style='max-width: 30%;'> </img> <p><strong>你是否选择发射武器？</strong></p>","1",""
"","","","","","html-keyboard-response","38","84964","0.0-4.0-0.17","33","1","2022-11-27 09:39:28","7b1eb8be57ff77859c7d9ac988e43411","36.137.172.57","Mozilla/5.0 (Linux; Android 11; meizu 17 Pro Build/QKQ1.200127.002; wv) AppleWebKit/537.36 (KHTML, like Gecko) Version/4.0 Chrome/86.0.4240.99 XWEB/4343 MMWEBSDK/20220903 Mobile Safari/537.36 MMWEBID/5360 MicroMessenger/8.0.28.2240(0x28001C57) WeChat/arm64 Weixin NetType/5G Language/zh_CN ABI/arm64","WebKit","Chrome","86.0.4240.99","AndroidOS","11","null","<div style=""font-size:60px;"">+</div>","null",""
"","","","","","html-button-response","39","86418","0.0-4.0-1.17","33","1","2022-11-27 09:39:28","7b1eb8be57ff77859c7d9ac988e43411","36.137.172.57","Mozilla/5.0 (Linux; Android 11; meizu 17 Pro Build/QKQ1.200127.002; wv) AppleWebKit/537.36 (KHTML, like Gecko) Version/4.0 Chrome/86.0.4240.99 XWEB/4343 MMWEBSDK/20220903 Mobile Safari/537.36 MMWEBID/5360 MicroMessenger/8.0.28.2240(0x28001C57) WeChat/arm64 Weixin NetType/5G Language/zh_CN ABI/arm64","WebKit","Chrome","86.0.4240.99","AndroidOS","11","1430","<p>作为军队的指挥官，你可以选择发射导弹杀死 <strong>5名</strong> 敌国士兵，但会炸毁附近的 <strong>1棵</strong> 敌国树木。</p> <p>树木的照片如下图所示。</p> <p></p> <img src='stimuli/trees/6.png', style='max-width: 30%;'> </img> <p><strong>你是否选择发射武器？</strong></p>","1",""
"","","","","","html-keyboard-response","40","87429","0.0-4.0-0.18","33","1","2022-11-27 09:39:28","7b1eb8be57ff77859c7d9ac988e43411","36.137.172.57","Mozilla/5.0 (Linux; Android 11; meizu 17 Pro Build/QKQ1.200127.002; wv) AppleWebKit/537.36 (KHTML, like Gecko) Version/4.0 Chrome/86.0.4240.99 XWEB/4343 MMWEBSDK/20220903 Mobile Safari/537.36 MMWEBID/5360 MicroMessenger/8.0.28.2240(0x28001C57) WeChat/arm64 Weixin NetType/5G Language/zh_CN ABI/arm64","WebKit","Chrome","86.0.4240.99","AndroidOS","11","null","<div style=""font-size:60px;"">+</div>","null",""
"","","","","","html-button-response","41","89687","0.0-4.0-1.18","33","1","2022-11-27 09:39:28","7b1eb8be57ff77859c7d9ac988e43411","36.137.172.57","Mozilla/5.0 (Linux; Android 11; meizu 17 Pro Build/QKQ1.200127.002; wv) AppleWebKit/537.36 (KHTML, like Gecko) Version/4.0 Chrome/86.0.4240.99 XWEB/4343 MMWEBSDK/20220903 Mobile Safari/537.36 MMWEBID/5360 MicroMessenger/8.0.28.2240(0x28001C57) WeChat/arm64 Weixin NetType/5G Language/zh_CN ABI/arm64","WebKit","Chrome","86.0.4240.99","AndroidOS","11","2237","<p>作为军队的指挥官，你可以选择发射导弹杀死 <strong>6名</strong> 敌国士兵，但会误杀附近的 <strong>1名</strong> 敌国平民。</p> <p>平民照片如下图所示。</p> <p></p> <img src='stimuli/faces/PCF1.jpg', style='max-width: 30%;'> </img> <p><strong>你是否选择发射武器？</strong></p>","1",""
"","","","","","html-keyboard-response","42","90696","0.0-4.0-0.19","33","1","2022-11-27 09:39:28","7b1eb8be57ff77859c7d9ac988e43411","36.137.172.57","Mozilla/5.0 (Linux; Android 11; meizu 17 Pro Build/QKQ1.200127.002; wv) AppleWebKit/537.36 (KHTML, like Gecko) Version/4.0 Chrome/86.0.4240.99 XWEB/4343 MMWEBSDK/20220903 Mobile Safari/537.36 MMWEBID/5360 MicroMessenger/8.0.28.2240(0x28001C57) WeChat/arm64 Weixin NetType/5G Language/zh_CN ABI/arm64","WebKit","Chrome","86.0.4240.99","AndroidOS","11","null","<div style=""font-size:60px;"">+</div>","null",""
"","","","","","html-button-response","43","92499","0.0-4.0-1.19","33","1","2022-11-27 09:39:28","7b1eb8be57ff77859c7d9ac988e43411","36.137.172.57","Mozilla/5.0 (Linux; Android 11; meizu 17 Pro Build/QKQ1.200127.002; wv) AppleWebKit/537.36 (KHTML, like Gecko) Version/4.0 Chrome/86.0.4240.99 XWEB/4343 MMWEBSDK/20220903 Mobile Safari/537.36 MMWEBID/5360 MicroMessenger/8.0.28.2240(0x28001C57) WeChat/arm64 Weixin NetType/5G Language/zh_CN ABI/arm64","WebKit","Chrome","86.0.4240.99","AndroidOS","11","1789","<p>作为军队的指挥官，你可以选择发射导弹杀死 <strong>3名</strong> 敌国士兵，但会误杀附近的 <strong>1名</strong> 敌国平民。</p> <p>平民照片如下图所示。</p> <p></p> <img src='stimuli/faces/PCM3.jpg', style='max-width: 30%;'> </img> <p><strong>你是否选择发射武器？</strong></p>","0",""
"","","","","","html-keyboard-response","44","93510","0.0-4.0-0.20","33","1","2022-11-27 09:39:28","7b1eb8be57ff77859c7d9ac988e43411","36.137.172.57","Mozilla/5.0 (Linux; Android 11; meizu 17 Pro Build/QKQ1.200127.002; wv) AppleWebKit/537.36 (KHTML, like Gecko) Version/4.0 Chrome/86.0.4240.99 XWEB/4343 MMWEBSDK/20220903 Mobile Safari/537.36 MMWEBID/5360 MicroMessenger/8.0.28.2240(0x28001C57) WeChat/arm64 Weixin NetType/5G Language/zh_CN ABI/arm64","WebKit","Chrome","86.0.4240.99","AndroidOS","11","null","<div style=""font-size:60px;"">+</div>","null",""
"","","","","","html-button-response","45","95212","0.0-4.0-1.20","33","1","2022-11-27 09:39:28","7b1eb8be57ff77859c7d9ac988e43411","36.137.172.57","Mozilla/5.0 (Linux; Android 11; meizu 17 Pro Build/QKQ1.200127.002; wv) AppleWebKit/537.36 (KHTML, like Gecko) Version/4.0 Chrome/86.0.4240.99 XWEB/4343 MMWEBSDK/20220903 Mobile Safari/537.36 MMWEBID/5360 MicroMessenger/8.0.28.2240(0x28001C57) WeChat/arm64 Weixin NetType/5G Language/zh_CN ABI/arm64","WebKit","Chrome","86.0.4240.99","AndroidOS","11","1678","<p>作为军队的指挥官，你可以选择发射导弹杀死 <strong>4名</strong> 敌国士兵，但会误杀附近的 <strong>1名</strong> 敌国平民。</p> <p>平民照片如下图所示。</p> <p></p> <img src='stimuli/faces/PCM5.jpg', style='max-width: 30%;'> </img> <p><strong>你是否选择发射武器？</strong></p>","0",""
"","","","","","html-keyboard-response","46","96223","0.0-4.0-0.21","33","1","2022-11-27 09:39:28","7b1eb8be57ff77859c7d9ac988e43411","36.137.172.57","Mozilla/5.0 (Linux; Android 11; meizu 17 Pro Build/QKQ1.200127.002; wv) AppleWebKit/537.36 (KHTML, like Gecko) Version/4.0 Chrome/86.0.4240.99 XWEB/4343 MMWEBSDK/20220903 Mobile Safari/537.36 MMWEBID/5360 MicroMessenger/8.0.28.2240(0x28001C57) WeChat/arm64 Weixin NetType/5G Language/zh_CN ABI/arm64","WebKit","Chrome","86.0.4240.99","AndroidOS","11","null","<div style=""font-size:60px;"">+</div>","null",""
"","","","","","html-button-response","47","101132","0.0-4.0-1.21","33","1","2022-11-27 09:39:28","7b1eb8be57ff77859c7d9ac988e43411","36.137.172.57","Mozilla/5.0 (Linux; Android 11; meizu 17 Pro Build/QKQ1.200127.002; wv) AppleWebKit/537.36 (KHTML, like Gecko) Version/4.0 Chrome/86.0.4240.99 XWEB/4343 MMWEBSDK/20220903 Mobile Safari/537.36 MMWEBID/5360 MicroMessenger/8.0.28.2240(0x28001C57) WeChat/arm64 Weixin NetType/5G Language/zh_CN ABI/arm64","WebKit","Chrome","86.0.4240.99","AndroidOS","11","4885","<p>作为军队的指挥官，你可以选择发射导弹杀死 <strong>2名</strong> 敌国士兵，但会误杀附近的 <strong>1名</strong> 敌国平民。</p> <p>平民照片如下图所示。</p> <p></p> <img src='stimuli/faces/PCF5.jpg', style='max-width: 30%;'> </img> <p><strong>你是否选择发射武器？</strong></p>","1",""
"","","","","","html-keyboard-response","48","102143","0.0-4.0-0.22","33","1","2022-11-27 09:39:28","7b1eb8be57ff77859c7d9ac988e43411","36.137.172.57","Mozilla/5.0 (Linux; Android 11; meizu 17 Pro Build/QKQ1.200127.002; wv) AppleWebKit/537.36 (KHTML, like Gecko) Version/4.0 Chrome/86.0.4240.99 XWEB/4343 MMWEBSDK/20220903 Mobile Safari/537.36 MMWEBID/5360 MicroMessenger/8.0.28.2240(0x28001C57) WeChat/arm64 Weixin NetType/5G Language/zh_CN ABI/arm64","WebKit","Chrome","86.0.4240.99","AndroidOS","11","null","<div style=""font-size:60px;"">+</div>","null",""
"","","","","","html-button-response","49","108815","0.0-4.0-1.22","33","1","2022-11-27 09:39:28","7b1eb8be57ff77859c7d9ac988e43411","36.137.172.57","Mozilla/5.0 (Linux; Android 11; meizu 17 Pro Build/QKQ1.200127.002; wv) AppleWebKit/537.36 (KHTML, like Gecko) Version/4.0 Chrome/86.0.4240.99 XWEB/4343 MMWEBSDK/20220903 Mobile Safari/537.36 MMWEBID/5360 MicroMessenger/8.0.28.2240(0x28001C57) WeChat/arm64 Weixin NetType/5G Language/zh_CN ABI/arm64","WebKit","Chrome","86.0.4240.99","AndroidOS","11","6645","<p>作为军队的指挥官，你可以选择发射导弹杀死 <strong>7名</strong> 敌国士兵，但会误杀附近的 <strong>1名</strong> 敌国平民。</p> <p>平民照片如下图所示。</p> <p></p> <img src='stimuli/faces/PCM4.jpg', style='max-width: 30%;'> </img> <p><strong>你是否选择发射武器？</strong></p>","0",""
"","","","","","html-keyboard-response","50","109829","0.0-4.0-0.23","33","1","2022-11-27 09:39:28","7b1eb8be57ff77859c7d9ac988e43411","36.137.172.57","Mozilla/5.0 (Linux; Android 11; meizu 17 Pro Build/QKQ1.200127.002; wv) AppleWebKit/537.36 (KHTML, like Gecko) Version/4.0 Chrome/86.0.4240.99 XWEB/4343 MMWEBSDK/20220903 Mobile Safari/537.36 MMWEBID/5360 MicroMessenger/8.0.28.2240(0x28001C57) WeChat/arm64 Weixin NetType/5G Language/zh_CN ABI/arm64","WebKit","Chrome","86.0.4240.99","AndroidOS","11","null","<div style=""font-size:60px;"">+</div>","null",""
"","","","","","html-button-response","51","112088","0.0-4.0-1.23","33","1","2022-11-27 09:39:28","7b1eb8be57ff77859c7d9ac988e43411","36.137.172.57","Mozilla/5.0 (Linux; Android 11; meizu 17 Pro Build/QKQ1.200127.002; wv) AppleWebKit/537.36 (KHTML, like Gecko) Version/4.0 Chrome/86.0.4240.99 XWEB/4343 MMWEBSDK/20220903 Mobile Safari/537.36 MMWEBID/5360 MicroMessenger/8.0.28.2240(0x28001C57) WeChat/arm64 Weixin NetType/5G Language/zh_CN ABI/arm64","WebKit","Chrome","86.0.4240.99","AndroidOS","11","2237","<p>作为军队的指挥官，你可以选择发射导弹杀死 <strong>6名</strong> 敌国士兵，但会炸毁附近的 <strong>1棵</strong> 敌国树木。</p> <p>树木的照片如下图所示。</p> <p></p> <img src='stimuli/trees/2.png', style='max-width: 30%;'> </img> <p><strong>你是否选择发射武器？</strong></p>","1",""
"","","","","","html-keyboard-response","52","113101","0.0-4.0-0.24","33","1","2022-11-27 09:39:28","7b1eb8be57ff77859c7d9ac988e43411","36.137.172.57","Mozilla/5.0 (Linux; Android 11; meizu 17 Pro Build/QKQ1.200127.002; wv) AppleWebKit/537.36 (KHTML, like Gecko) Version/4.0 Chrome/86.0.4240.99 XWEB/4343 MMWEBSDK/20220903 Mobile Safari/537.36 MMWEBID/5360 MicroMessenger/8.0.28.2240(0x28001C57) WeChat/arm64 Weixin NetType/5G Language/zh_CN ABI/arm64","WebKit","Chrome","86.0.4240.99","AndroidOS","11","null","<div style=""font-size:60px;"">+</div>","null",""
"","","","","","html-button-response","53","117812","0.0-4.0-1.24","33","1","2022-11-27 09:39:28","7b1eb8be57ff77859c7d9ac988e43411","36.137.172.57","Mozilla/5.0 (Linux; Android 11; meizu 17 Pro Build/QKQ1.200127.002; wv) AppleWebKit/537.36 (KHTML, like Gecko) Version/4.0 Chrome/86.0.4240.99 XWEB/4343 MMWEBSDK/20220903 Mobile Safari/537.36 MMWEBID/5360 MicroMessenger/8.0.28.2240(0x28001C57) WeChat/arm64 Weixin NetType/5G Language/zh_CN ABI/arm64","WebKit","Chrome","86.0.4240.99","AndroidOS","11","4685","<p>作为军队的指挥官，你可以选择发射导弹杀死 <strong>10名</strong> 敌国士兵，但会误杀附近的 <strong>1名</strong> 敌国平民。</p> <p>平民照片如下图所示。</p> <p></p> <img src='stimuli/faces/PCF2.jpg', style='max-width: 30%;'> </img> <p><strong>你是否选择发射武器？</strong></p>","0",""
"","","","","","html-keyboard-response","54","118833","0.0-4.0-0.25","33","1","2022-11-27 09:39:28","7b1eb8be57ff77859c7d9ac988e43411","36.137.172.57","Mozilla/5.0 (Linux; Android 11; meizu 17 Pro Build/QKQ1.200127.002; wv) AppleWebKit/537.36 (KHTML, like Gecko) Version/4.0 Chrome/86.0.4240.99 XWEB/4343 MMWEBSDK/20220903 Mobile Safari/537.36 MMWEBID/5360 MicroMessenger/8.0.28.2240(0x28001C57) WeChat/arm64 Weixin NetType/5G Language/zh_CN ABI/arm64","WebKit","Chrome","86.0.4240.99","AndroidOS","11","null","<div style=""font-size:60px;"">+</div>","null",""
"","","","","","html-button-response","55","120182","0.0-4.0-1.25","33","1","2022-11-27 09:39:28","7b1eb8be57ff77859c7d9ac988e43411","36.137.172.57","Mozilla/5.0 (Linux; Android 11; meizu 17 Pro Build/QKQ1.200127.002; wv) AppleWebKit/537.36 (KHTML, like Gecko) Version/4.0 Chrome/86.0.4240.99 XWEB/4343 MMWEBSDK/20220903 Mobile Safari/537.36 MMWEBID/5360 MicroMessenger/8.0.28.2240(0x28001C57) WeChat/arm64 Weixin NetType/5G Language/zh_CN ABI/arm64","WebKit","Chrome","86.0.4240.99","AndroidOS","11","1329","<p>作为军队的指挥官，你可以选择发射导弹杀死 <strong>3名</strong> 敌国士兵，但会误杀附近的 <strong>1名</strong> 敌国平民。</p> <p>平民照片如下图所示。</p> <p></p> <img src='stimuli/faces/PCF1.jpg', style='max-width: 30%;'> </img> <p><strong>你是否选择发射武器？</strong></p>","1",""
"","","","","","html-keyboard-response","56","121188","0.0-4.0-0.26","33","1","2022-11-27 09:39:28","7b1eb8be57ff77859c7d9ac988e43411","36.137.172.57","Mozilla/5.0 (Linux; Android 11; meizu 17 Pro Build/QKQ1.200127.002; wv) AppleWebKit/537.36 (KHTML, like Gecko) Version/4.0 Chrome/86.0.4240.99 XWEB/4343 MMWEBSDK/20220903 Mobile Safari/537.36 MMWEBID/5360 MicroMessenger/8.0.28.2240(0x28001C57) WeChat/arm64 Weixin NetType/5G Language/zh_CN ABI/arm64","WebKit","Chrome","86.0.4240.99","AndroidOS","11","null","<div style=""font-size:60px;"">+</div>","null",""
"","","","","","html-button-response","57","124349","0.0-4.0-1.26","33","1","2022-11-27 09:39:28","7b1eb8be57ff77859c7d9ac988e43411","36.137.172.57","Mozilla/5.0 (Linux; Android 11; meizu 17 Pro Build/QKQ1.200127.002; wv) AppleWebKit/537.36 (KHTML, like Gecko) Version/4.0 Chrome/86.0.4240.99 XWEB/4343 MMWEBSDK/20220903 Mobile Safari/537.36 MMWEBID/5360 MicroMessenger/8.0.28.2240(0x28001C57) WeChat/arm64 Weixin NetType/5G Language/zh_CN ABI/arm64","WebKit","Chrome","86.0.4240.99","AndroidOS","11","3143","<p>作为军队的指挥官，你可以选择发射导弹杀死 <strong>5名</strong> 敌国士兵，但会炸毁附近的 <strong>1棵</strong> 敌国树木。</p> <p>树木的照片如下图所示。</p> <p></p> <img src='stimuli/trees/5.png', style='max-width: 30%;'> </img> <p><strong>你是否选择发射武器？</strong></p>","0",""
"","","","","","html-keyboard-response","58","125362","0.0-4.0-0.27","33","1","2022-11-27 09:39:28","7b1eb8be57ff77859c7d9ac988e43411","36.137.172.57","Mozilla/5.0 (Linux; Android 11; meizu 17 Pro Build/QKQ1.200127.002; wv) AppleWebKit/537.36 (KHTML, like Gecko) Version/4.0 Chrome/86.0.4240.99 XWEB/4343 MMWEBSDK/20220903 Mobile Safari/537.36 MMWEBID/5360 MicroMessenger/8.0.28.2240(0x28001C57) WeChat/arm64 Weixin NetType/5G Language/zh_CN ABI/arm64","WebKit","Chrome","86.0.4240.99","AndroidOS","11","null","<div style=""font-size:60px;"">+</div>","null",""
"","","","","","html-button-response","59","136975","0.0-4.0-1.27","33","1","2022-11-27 09:39:28","7b1eb8be57ff77859c7d9ac988e43411","36.137.172.57","Mozilla/5.0 (Linux; Android 11; meizu 17 Pro Build/QKQ1.200127.002; wv) AppleWebKit/537.36 (KHTML, like Gecko) Version/4.0 Chrome/86.0.4240.99 XWEB/4343 MMWEBSDK/20220903 Mobile Safari/537.36 MMWEBID/5360 MicroMessenger/8.0.28.2240(0x28001C57) WeChat/arm64 Weixin NetType/5G Language/zh_CN ABI/arm64","WebKit","Chrome","86.0.4240.99","AndroidOS","11","11584","<p>作为军队的指挥官，你可以选择发射导弹杀死 <strong>7名</strong> 敌国士兵，但会炸毁附近的 <strong>1棵</strong> 敌国树木。</p> <p>树木的照片如下图所示。</p> <p></p> <img src='stimuli/trees/4.png', style='max-width: 30%;'> </img> <p><strong>你是否选择发射武器？</strong></p>","0",""
"","","","","","html-keyboard-response","60","137989","0.0-4.0-0.28","33","1","2022-11-27 09:39:28","7b1eb8be57ff77859c7d9ac988e43411","36.137.172.57","Mozilla/5.0 (Linux; Android 11; meizu 17 Pro Build/QKQ1.200127.002; wv) AppleWebKit/537.36 (KHTML, like Gecko) Version/4.0 Chrome/86.0.4240.99 XWEB/4343 MMWEBSDK/20220903 Mobile Safari/537.36 MMWEBID/5360 MicroMessenger/8.0.28.2240(0x28001C57) WeChat/arm64 Weixin NetType/5G Language/zh_CN ABI/arm64","WebKit","Chrome","86.0.4240.99","AndroidOS","11","null","<div style=""font-size:60px;"">+</div>","null",""
"","","","","","html-button-response","61","142193","0.0-4.0-1.28","33","1","2022-11-27 09:39:28","7b1eb8be57ff77859c7d9ac988e43411","36.137.172.57","Mozilla/5.0 (Linux; Android 11; meizu 17 Pro Build/QKQ1.200127.002; wv) AppleWebKit/537.36 (KHTML, like Gecko) Version/4.0 Chrome/86.0.4240.99 XWEB/4343 MMWEBSDK/20220903 Mobile Safari/537.36 MMWEBID/5360 MicroMessenger/8.0.28.2240(0x28001C57) WeChat/arm64 Weixin NetType/5G Language/zh_CN ABI/arm64","WebKit","Chrome","86.0.4240.99","AndroidOS","11","4182","<p>作为军队的指挥官，你可以选择发射导弹杀死 <strong>3名</strong> 敌国士兵，但会炸毁附近的 <strong>1棵</strong> 敌国树木。</p> <p>树木的照片如下图所示。</p> <p></p> <img src='stimuli/trees/14.png', style='max-width: 30%;'> </img> <p><strong>你是否选择发射武器？</strong></p>","1",""
"","","","","","html-keyboard-response","62","143208","0.0-4.0-0.29","33","1","2022-11-27 09:39:28","7b1eb8be57ff77859c7d9ac988e43411","36.137.172.57","Mozilla/5.0 (Linux; Android 11; meizu 17 Pro Build/QKQ1.200127.002; wv) AppleWebKit/537.36 (KHTML, like Gecko) Version/4.0 Chrome/86.0.4240.99 XWEB/4343 MMWEBSDK/20220903 Mobile Safari/537.36 MMWEBID/5360 MicroMessenger/8.0.28.2240(0x28001C57) WeChat/arm64 Weixin NetType/5G Language/zh_CN ABI/arm64","WebKit","Chrome","86.0.4240.99","AndroidOS","11","null","<div style=""font-size:60px;"">+</div>","null",""
"","","","","","html-button-response","63","154900","0.0-4.0-1.29","33","1","2022-11-27 09:39:28","7b1eb8be57ff77859c7d9ac988e43411","36.137.172.57","Mozilla/5.0 (Linux; Android 11; meizu 17 Pro Build/QKQ1.200127.002; wv) AppleWebKit/537.36 (KHTML, like Gecko) Version/4.0 Chrome/86.0.4240.99 XWEB/4343 MMWEBSDK/20220903 Mobile Safari/537.36 MMWEBID/5360 MicroMessenger/8.0.28.2240(0x28001C57) WeChat/arm64 Weixin NetType/5G Language/zh_CN ABI/arm64","WebKit","Chrome","86.0.4240.99","AndroidOS","11","11667","<p>作为军队的指挥官，你可以选择发射导弹杀死 <strong>2名</strong> 敌国士兵，但会炸毁附近的 <strong>1棵</strong> 敌国树木。</p> <p>树木的照片如下图所示。</p> <p></p> <img src='stimuli/trees/3.png', style='max-width: 30%;'> </img> <p><strong>你是否选择发射武器？</strong></p>","1",""
"","","","","","html-keyboard-response","64","155915","0.0-4.0-0.30","33","1","2022-11-27 09:39:28","7b1eb8be57ff77859c7d9ac988e43411","36.137.172.57","Mozilla/5.0 (Linux; Android 11; meizu 17 Pro Build/QKQ1.200127.002; wv) AppleWebKit/537.36 (KHTML, like Gecko) Version/4.0 Chrome/86.0.4240.99 XWEB/4343 MMWEBSDK/20220903 Mobile Safari/537.36 MMWEBID/5360 MicroMessenger/8.0.28.2240(0x28001C57) WeChat/arm64 Weixin NetType/5G Language/zh_CN ABI/arm64","WebKit","Chrome","86.0.4240.99","AndroidOS","11","null","<div style=""font-size:60px;"">+</div>","null",""
"","","","","","html-button-response","65","157655","0.0-4.0-1.30","33","1","2022-11-27 09:39:28","7b1eb8be57ff77859c7d9ac988e43411","36.137.172.57","Mozilla/5.0 (Linux; Android 11; meizu 17 Pro Build/QKQ1.200127.002; wv) AppleWebKit/537.36 (KHTML, like Gecko) Version/4.0 Chrome/86.0.4240.99 XWEB/4343 MMWEBSDK/20220903 Mobile Safari/537.36 MMWEBID/5360 MicroMessenger/8.0.28.2240(0x28001C57) WeChat/arm64 Weixin NetType/5G Language/zh_CN ABI/arm64","WebKit","Chrome","86.0.4240.99","AndroidOS","11","1715","<p>作为军队的指挥官，你可以选择发射导弹杀死 <strong>4名</strong> 敌国士兵，但会炸毁附近的 <strong>1棵</strong> 敌国树木。</p> <p>树木的照片如下图所示。</p> <p></p> <img src='stimuli/trees/12.png', style='max-width: 30%;'> </img> <p><strong>你是否选择发射武器？</strong></p>","0",""
"","","","","","html-keyboard-response","66","158669","0.0-4.0-0.31","33","1","2022-11-27 09:39:28","7b1eb8be57ff77859c7d9ac988e43411","36.137.172.57","Mozilla/5.0 (Linux; Android 11; meizu 17 Pro Build/QKQ1.200127.002; wv) AppleWebKit/537.36 (KHTML, like Gecko) Version/4.0 Chrome/86.0.4240.99 XWEB/4343 MMWEBSDK/20220903 Mobile Safari/537.36 MMWEBID/5360 MicroMessenger/8.0.28.2240(0x28001C57) WeChat/arm64 Weixin NetType/5G Language/zh_CN ABI/arm64","WebKit","Chrome","86.0.4240.99","AndroidOS","11","null","<div style=""font-size:60px;"">+</div>","null",""
"","","","","","html-button-response","67","160911","0.0-4.0-1.31","33","1","2022-11-27 09:39:28","7b1eb8be57ff77859c7d9ac988e43411","36.137.172.57","Mozilla/5.0 (Linux; Android 11; meizu 17 Pro Build/QKQ1.200127.002; wv) AppleWebKit/537.36 (KHTML, like Gecko) Version/4.0 Chrome/86.0.4240.99 XWEB/4343 MMWEBSDK/20220903 Mobile Safari/537.36 MMWEBID/5360 MicroMessenger/8.0.28.2240(0x28001C57) WeChat/arm64 Weixin NetType/5G Language/zh_CN ABI/arm64","WebKit","Chrome","86.0.4240.99","AndroidOS","11","2218","<p>作为军队的指挥官，你可以选择发射导弹杀死 <strong>6名</strong> 敌国士兵，但会误杀附近的 <strong>1名</strong> 敌国平民。</p> <p>平民照片如下图所示。</p> <p></p> <img src='stimuli/faces/PCM1.jpg', style='max-width: 30%;'> </img> <p><strong>你是否选择发射武器？</strong></p>","0",""
"","","","","","html-keyboard-response","68","161926","0.0-4.0-0.32","33","1","2022-11-27 09:39:28","7b1eb8be57ff77859c7d9ac988e43411","36.137.172.57","Mozilla/5.0 (Linux; Android 11; meizu 17 Pro Build/QKQ1.200127.002; wv) AppleWebKit/537.36 (KHTML, like Gecko) Version/4.0 Chrome/86.0.4240.99 XWEB/4343 MMWEBSDK/20220903 Mobile Safari/537.36 MMWEBID/5360 MicroMessenger/8.0.28.2240(0x28001C57) WeChat/arm64 Weixin NetType/5G Language/zh_CN ABI/arm64","WebKit","Chrome","86.0.4240.99","AndroidOS","11","null","<div style=""font-size:60px;"">+</div>","null",""
"","","","","","html-button-response","69","163517","0.0-4.0-1.32","33","1","2022-11-27 09:39:28","7b1eb8be57ff77859c7d9ac988e43411","36.137.172.57","Mozilla/5.0 (Linux; Android 11; meizu 17 Pro Build/QKQ1.200127.002; wv) AppleWebKit/537.36 (KHTML, like Gecko) Version/4.0 Chrome/86.0.4240.99 XWEB/4343 MMWEBSDK/20220903 Mobile Safari/537.36 MMWEBID/5360 MicroMessenger/8.0.28.2240(0x28001C57) WeChat/arm64 Weixin NetType/5G Language/zh_CN ABI/arm64","WebKit","Chrome","86.0.4240.99","AndroidOS","11","1564","<p>作为军队的指挥官，你可以选择发射导弹杀死 <strong>9名</strong> 敌国士兵，但会炸毁附近的 <strong>1棵</strong> 敌国树木。</p> <p>树木的照片如下图所示。</p> <p></p> <img src='stimuli/trees/14.png', style='max-width: 30%;'> </img> <p><strong>你是否选择发射武器？</strong></p>","0",""
"","","","","","html-keyboard-response","70","164535","0.0-4.0-0.33","33","1","2022-11-27 09:39:28","7b1eb8be57ff77859c7d9ac988e43411","36.137.172.57","Mozilla/5.0 (Linux; Android 11; meizu 17 Pro Build/QKQ1.200127.002; wv) AppleWebKit/537.36 (KHTML, like Gecko) Version/4.0 Chrome/86.0.4240.99 XWEB/4343 MMWEBSDK/20220903 Mobile Safari/537.36 MMWEBID/5360 MicroMessenger/8.0.28.2240(0x28001C57) WeChat/arm64 Weixin NetType/5G Language/zh_CN ABI/arm64","WebKit","Chrome","86.0.4240.99","AndroidOS","11","null","<div style=""font-size:60px;"">+</div>","null",""
"","","","","","html-button-response","71","167904","0.0-4.0-1.33","33","1","2022-11-27 09:39:28","7b1eb8be57ff77859c7d9ac988e43411","36.137.172.57","Mozilla/5.0 (Linux; Android 11; meizu 17 Pro Build/QKQ1.200127.002; wv) AppleWebKit/537.36 (KHTML, like Gecko) Version/4.0 Chrome/86.0.4240.99 XWEB/4343 MMWEBSDK/20220903 Mobile Safari/537.36 MMWEBID/5360 MicroMessenger/8.0.28.2240(0x28001C57) WeChat/arm64 Weixin NetType/5G Language/zh_CN ABI/arm64","WebKit","Chrome","86.0.4240.99","AndroidOS","11","3339","<p>作为军队的指挥官，你可以选择发射导弹杀死 <strong>9名</strong> 敌国士兵，但会误杀附近的 <strong>1名</strong> 敌国平民。</p> <p>平民照片如下图所示。</p> <p></p> <img src='stimuli/faces/PCF7.jpg', style='max-width: 30%;'> </img> <p><strong>你是否选择发射武器？</strong></p>","0",""
"","","","","","html-keyboard-response","72","168916","0.0-4.0-0.34","33","1","2022-11-27 09:39:28","7b1eb8be57ff77859c7d9ac988e43411","36.137.172.57","Mozilla/5.0 (Linux; Android 11; meizu 17 Pro Build/QKQ1.200127.002; wv) AppleWebKit/537.36 (KHTML, like Gecko) Version/4.0 Chrome/86.0.4240.99 XWEB/4343 MMWEBSDK/20220903 Mobile Safari/537.36 MMWEBID/5360 MicroMessenger/8.0.28.2240(0x28001C57) WeChat/arm64 Weixin NetType/5G Language/zh_CN ABI/arm64","WebKit","Chrome","86.0.4240.99","AndroidOS","11","null","<div style=""font-size:60px;"">+</div>","null",""
"","","","","","html-button-response","73","170680","0.0-4.0-1.34","33","1","2022-11-27 09:39:28","7b1eb8be57ff77859c7d9ac988e43411","36.137.172.57","Mozilla/5.0 (Linux; Android 11; meizu 17 Pro Build/QKQ1.200127.002; wv) AppleWebKit/537.36 (KHTML, like Gecko) Version/4.0 Chrome/86.0.4240.99 XWEB/4343 MMWEBSDK/20220903 Mobile Safari/537.36 MMWEBID/5360 MicroMessenger/8.0.28.2240(0x28001C57) WeChat/arm64 Weixin NetType/5G Language/zh_CN ABI/arm64","WebKit","Chrome","86.0.4240.99","AndroidOS","11","1733","<p>作为军队的指挥官，你可以选择发射导弹杀死 <strong>1名</strong> 敌国士兵，但会炸毁附近的 <strong>1棵</strong> 敌国树木。</p> <p>树木的照片如下图所示。</p> <p></p> <img src='stimuli/trees/4.png', style='max-width: 30%;'> </img> <p><strong>你是否选择发射武器？</strong></p>","1",""
"","","","","","html-keyboard-response","74","171696","0.0-4.0-0.35","33","1","2022-11-27 09:39:28","7b1eb8be57ff77859c7d9ac988e43411","36.137.172.57","Mozilla/5.0 (Linux; Android 11; meizu 17 Pro Build/QKQ1.200127.002; wv) AppleWebKit/537.36 (KHTML, like Gecko) Version/4.0 Chrome/86.0.4240.99 XWEB/4343 MMWEBSDK/20220903 Mobile Safari/537.36 MMWEBID/5360 MicroMessenger/8.0.28.2240(0x28001C57) WeChat/arm64 Weixin NetType/5G Language/zh_CN ABI/arm64","WebKit","Chrome","86.0.4240.99","AndroidOS","11","null","<div style=""font-size:60px;"">+</div>","null",""
"","","","","","html-button-response","75","173149","0.0-4.0-1.35","33","1","2022-11-27 09:39:28","7b1eb8be57ff77859c7d9ac988e43411","36.137.172.57","Mozilla/5.0 (Linux; Android 11; meizu 17 Pro Build/QKQ1.200127.002; wv) AppleWebKit/537.36 (KHTML, like Gecko) Version/4.0 Chrome/86.0.4240.99 XWEB/4343 MMWEBSDK/20220903 Mobile Safari/537.36 MMWEBID/5360 MicroMessenger/8.0.28.2240(0x28001C57) WeChat/arm64 Weixin NetType/5G Language/zh_CN ABI/arm64","WebKit","Chrome","86.0.4240.99","AndroidOS","11","1420","<p>作为军队的指挥官，你可以选择发射导弹杀死 <strong>4名</strong> 敌国士兵，但会误杀附近的 <strong>1名</strong> 敌国平民。</p> <p>平民照片如下图所示。</p> <p></p> <img src='stimuli/faces/PCM8.jpg', style='max-width: 30%;'> </img> <p><strong>你是否选择发射武器？</strong></p>","0",""
"","","","","","html-keyboard-response","76","174167","0.0-4.0-0.36","33","1","2022-11-27 09:39:28","7b1eb8be57ff77859c7d9ac988e43411","36.137.172.57","Mozilla/5.0 (Linux; Android 11; meizu 17 Pro Build/QKQ1.200127.002; wv) AppleWebKit/537.36 (KHTML, like Gecko) Version/4.0 Chrome/86.0.4240.99 XWEB/4343 MMWEBSDK/20220903 Mobile Safari/537.36 MMWEBID/5360 MicroMessenger/8.0.28.2240(0x28001C57) WeChat/arm64 Weixin NetType/5G Language/zh_CN ABI/arm64","WebKit","Chrome","86.0.4240.99","AndroidOS","11","null","<div style=""font-size:60px;"">+</div>","null",""
"","","","","","html-button-response","77","175529","0.0-4.0-1.36","33","1","2022-11-27 09:39:28","7b1eb8be57ff77859c7d9ac988e43411","36.137.172.57","Mozilla/5.0 (Linux; Android 11; meizu 17 Pro Build/QKQ1.200127.002; wv) AppleWebKit/537.36 (KHTML, like Gecko) Version/4.0 Chrome/86.0.4240.99 XWEB/4343 MMWEBSDK/20220903 Mobile Safari/537.36 MMWEBID/5360 MicroMessenger/8.0.28.2240(0x28001C57) WeChat/arm64 Weixin NetType/5G Language/zh_CN ABI/arm64","WebKit","Chrome","86.0.4240.99","AndroidOS","11","1334","<p>作为军队的指挥官，你可以选择发射导弹杀死 <strong>9名</strong> 敌国士兵，但会炸毁附近的 <strong>1棵</strong> 敌国树木。</p> <p>树木的照片如下图所示。</p> <p></p> <img src='stimuli/trees/16.png', style='max-width: 30%;'> </img> <p><strong>你是否选择发射武器？</strong></p>","0",""
"","","","","","html-keyboard-response","78","176546","0.0-4.0-0.37","33","1","2022-11-27 09:39:28","7b1eb8be57ff77859c7d9ac988e43411","36.137.172.57","Mozilla/5.0 (Linux; Android 11; meizu 17 Pro Build/QKQ1.200127.002; wv) AppleWebKit/537.36 (KHTML, like Gecko) Version/4.0 Chrome/86.0.4240.99 XWEB/4343 MMWEBSDK/20220903 Mobile Safari/537.36 MMWEBID/5360 MicroMessenger/8.0.28.2240(0x28001C57) WeChat/arm64 Weixin NetType/5G Language/zh_CN ABI/arm64","WebKit","Chrome","86.0.4240.99","AndroidOS","11","null","<div style=""font-size:60px;"">+</div>","null",""
"","","","","","html-button-response","79","181641","0.0-4.0-1.37","33","1","2022-11-27 09:39:28","7b1eb8be57ff77859c7d9ac988e43411","36.137.172.57","Mozilla/5.0 (Linux; Android 11; meizu 17 Pro Build/QKQ1.200127.002; wv) AppleWebKit/537.36 (KHTML, like Gecko) Version/4.0 Chrome/86.0.4240.99 XWEB/4343 MMWEBSDK/20220903 Mobile Safari/537.36 MMWEBID/5360 MicroMessenger/8.0.28.2240(0x28001C57) WeChat/arm64 Weixin NetType/5G Language/zh_CN ABI/arm64","WebKit","Chrome","86.0.4240.99","AndroidOS","11","5067","<p>作为军队的指挥官，你可以选择发射导弹杀死 <strong>3名</strong> 敌国士兵，但会误杀附近的 <strong>1名</strong> 敌国平民。</p> <p>平民照片如下图所示。</p> <p></p> <img src='stimuli/faces/PCF4.jpg', style='max-width: 30%;'> </img> <p><strong>你是否选择发射武器？</strong></p>","1",""
"","","","","","html-keyboard-response","80","182658","0.0-4.0-0.38","33","1","2022-11-27 09:39:28","7b1eb8be57ff77859c7d9ac988e43411","36.137.172.57","Mozilla/5.0 (Linux; Android 11; meizu 17 Pro Build/QKQ1.200127.002; wv) AppleWebKit/537.36 (KHTML, like Gecko) Version/4.0 Chrome/86.0.4240.99 XWEB/4343 MMWEBSDK/20220903 Mobile Safari/537.36 MMWEBID/5360 MicroMessenger/8.0.28.2240(0x28001C57) WeChat/arm64 Weixin NetType/5G Language/zh_CN ABI/arm64","WebKit","Chrome","86.0.4240.99","AndroidOS","11","null","<div style=""font-size:60px;"">+</div>","null",""
"","","","","","html-button-response","81","189461","0.0-4.0-1.38","33","1","2022-11-27 09:39:28","7b1eb8be57ff77859c7d9ac988e43411","36.137.172.57","Mozilla/5.0 (Linux; Android 11; meizu 17 Pro Build/QKQ1.200127.002; wv) AppleWebKit/537.36 (KHTML, like Gecko) Version/4.0 Chrome/86.0.4240.99 XWEB/4343 MMWEBSDK/20220903 Mobile Safari/537.36 MMWEBID/5360 MicroMessenger/8.0.28.2240(0x28001C57) WeChat/arm64 Weixin NetType/5G Language/zh_CN ABI/arm64","WebKit","Chrome","86.0.4240.99","AndroidOS","11","6771","<p>作为军队的指挥官，你可以选择发射导弹杀死 <strong>2名</strong> 敌国士兵，但会炸毁附近的 <strong>1棵</strong> 敌国树木。</p> <p>树木的照片如下图所示。</p> <p></p> <img src='stimuli/trees/10.png', style='max-width: 30%;'> </img> <p><strong>你是否选择发射武器？</strong></p>","1",""
"","","","","","html-keyboard-response","82","190477","0.0-4.0-0.39","33","1","2022-11-27 09:39:28","7b1eb8be57ff77859c7d9ac988e43411","36.137.172.57","Mozilla/5.0 (Linux; Android 11; meizu 17 Pro Build/QKQ1.200127.002; wv) AppleWebKit/537.36 (KHTML, like Gecko) Version/4.0 Chrome/86.0.4240.99 XWEB/4343 MMWEBSDK/20220903 Mobile Safari/537.36 MMWEBID/5360 MicroMessenger/8.0.28.2240(0x28001C57) WeChat/arm64 Weixin NetType/5G Language/zh_CN ABI/arm64","WebKit","Chrome","86.0.4240.99","AndroidOS","11","null","<div style=""font-size:60px;"">+</div>","null",""
"","","","","","html-button-response","83","192095","0.0-4.0-1.39","33","1","2022-11-27 09:39:28","7b1eb8be57ff77859c7d9ac988e43411","36.137.172.57","Mozilla/5.0 (Linux; Android 11; meizu 17 Pro Build/QKQ1.200127.002; wv) AppleWebKit/537.36 (KHTML, like Gecko) Version/4.0 Chrome/86.0.4240.99 XWEB/4343 MMWEBSDK/20220903 Mobile Safari/537.36 MMWEBID/5360 MicroMessenger/8.0.28.2240(0x28001C57) WeChat/arm64 Weixin NetType/5G Language/zh_CN ABI/arm64","WebKit","Chrome","86.0.4240.99","AndroidOS","11","1584","<p>作为军队的指挥官，你可以选择发射导弹杀死 <strong>9名</strong> 敌国士兵，但会炸毁附近的 <strong>1棵</strong> 敌国树木。</p> <p>树木的照片如下图所示。</p> <p></p> <img src='stimuli/trees/10.png', style='max-width: 30%;'> </img> <p><strong>你是否选择发射武器？</strong></p>","0",""
"","","","","","html-keyboard-response","84","193113","0.0-4.0-0.40","33","1","2022-11-27 09:39:28","7b1eb8be57ff77859c7d9ac988e43411","36.137.172.57","Mozilla/5.0 (Linux; Android 11; meizu 17 Pro Build/QKQ1.200127.002; wv) AppleWebKit/537.36 (KHTML, like Gecko) Version/4.0 Chrome/86.0.4240.99 XWEB/4343 MMWEBSDK/20220903 Mobile Safari/537.36 MMWEBID/5360 MicroMessenger/8.0.28.2240(0x28001C57) WeChat/arm64 Weixin NetType/5G Language/zh_CN ABI/arm64","WebKit","Chrome","86.0.4240.99","AndroidOS","11","null","<div style=""font-size:60px;"">+</div>","null",""
"","","","","","html-button-response","85","195970","0.0-4.0-1.40","33","1","2022-11-27 09:39:28","7b1eb8be57ff77859c7d9ac988e43411","36.137.172.57","Mozilla/5.0 (Linux; Android 11; meizu 17 Pro Build/QKQ1.200127.002; wv) AppleWebKit/537.36 (KHTML, like Gecko) Version/4.0 Chrome/86.0.4240.99 XWEB/4343 MMWEBSDK/20220903 Mobile Safari/537.36 MMWEBID/5360 MicroMessenger/8.0.28.2240(0x28001C57) WeChat/arm64 Weixin NetType/5G Language/zh_CN ABI/arm64","WebKit","Chrome","86.0.4240.99","AndroidOS","11","2835","<p>作为军队的指挥官，你可以选择发射导弹杀死 <strong>9名</strong> 敌国士兵，但会炸毁附近的 <strong>1棵</strong> 敌国树木。</p> <p>树木的照片如下图所示。</p> <p></p> <img src='stimuli/trees/8.png', style='max-width: 30%;'> </img> <p><strong>你是否选择发射武器？</strong></p>","0",""
"","","","","","html-keyboard-response","86","196988","0.0-4.0-0.41","33","1","2022-11-27 09:39:28","7b1eb8be57ff77859c7d9ac988e43411","36.137.172.57","Mozilla/5.0 (Linux; Android 11; meizu 17 Pro Build/QKQ1.200127.002; wv) AppleWebKit/537.36 (KHTML, like Gecko) Version/4.0 Chrome/86.0.4240.99 XWEB/4343 MMWEBSDK/20220903 Mobile Safari/537.36 MMWEBID/5360 MicroMessenger/8.0.28.2240(0x28001C57) WeChat/arm64 Weixin NetType/5G Language/zh_CN ABI/arm64","WebKit","Chrome","86.0.4240.99","AndroidOS","11","null","<div style=""font-size:60px;"">+</div>","null",""
"","","","","","html-button-response","87","198482","0.0-4.0-1.41","33","1","2022-11-27 09:39:28","7b1eb8be57ff77859c7d9ac988e43411","36.137.172.57","Mozilla/5.0 (Linux; Android 11; meizu 17 Pro Build/QKQ1.200127.002; wv) AppleWebKit/537.36 (KHTML, like Gecko) Version/4.0 Chrome/86.0.4240.99 XWEB/4343 MMWEBSDK/20220903 Mobile Safari/537.36 MMWEBID/5360 MicroMessenger/8.0.28.2240(0x28001C57) WeChat/arm64 Weixin NetType/5G Language/zh_CN ABI/arm64","WebKit","Chrome","86.0.4240.99","AndroidOS","11","1464","<p>作为军队的指挥官，你可以选择发射导弹杀死 <strong>9名</strong> 敌国士兵，但会误杀附近的 <strong>1名</strong> 敌国平民。</p> <p>平民照片如下图所示。</p> <p></p> <img src='stimuli/faces/PCF4.jpg', style='max-width: 30%;'> </img> <p><strong>你是否选择发射武器？</strong></p>","0",""
"","","","","","html-keyboard-response","88","199495","0.0-4.0-0.42","33","1","2022-11-27 09:39:28","7b1eb8be57ff77859c7d9ac988e43411","36.137.172.57","Mozilla/5.0 (Linux; Android 11; meizu 17 Pro Build/QKQ1.200127.002; wv) AppleWebKit/537.36 (KHTML, like Gecko) Version/4.0 Chrome/86.0.4240.99 XWEB/4343 MMWEBSDK/20220903 Mobile Safari/537.36 MMWEBID/5360 MicroMessenger/8.0.28.2240(0x28001C57) WeChat/arm64 Weixin NetType/5G Language/zh_CN ABI/arm64","WebKit","Chrome","86.0.4240.99","AndroidOS","11","null","<div style=""font-size:60px;"">+</div>","null",""
"","","","","","html-button-response","89","200388","0.0-4.0-1.42","33","1","2022-11-27 09:39:28","7b1eb8be57ff77859c7d9ac988e43411","36.137.172.57","Mozilla/5.0 (Linux; Android 11; meizu 17 Pro Build/QKQ1.200127.002; wv) AppleWebKit/537.36 (KHTML, like Gecko) Version/4.0 Chrome/86.0.4240.99 XWEB/4343 MMWEBSDK/20220903 Mobile Safari/537.36 MMWEBID/5360 MicroMessenger/8.0.28.2240(0x28001C57) WeChat/arm64 Weixin NetType/5G Language/zh_CN ABI/arm64","WebKit","Chrome","86.0.4240.99","AndroidOS","11","859","<p>作为军队的指挥官，你可以选择发射导弹杀死 <strong>9名</strong> 敌国士兵，但会误杀附近的 <strong>1名</strong> 敌国平民。</p> <p>平民照片如下图所示。</p> <p></p> <img src='stimuli/faces/PCF8.jpg', style='max-width: 30%;'> </img> <p><strong>你是否选择发射武器？</strong></p>","0",""
"","","","","","html-keyboard-response","90","201407","0.0-4.0-0.43","33","1","2022-11-27 09:39:28","7b1eb8be57ff77859c7d9ac988e43411","36.137.172.57","Mozilla/5.0 (Linux; Android 11; meizu 17 Pro Build/QKQ1.200127.002; wv) AppleWebKit/537.36 (KHTML, like Gecko) Version/4.0 Chrome/86.0.4240.99 XWEB/4343 MMWEBSDK/20220903 Mobile Safari/537.36 MMWEBID/5360 MicroMessenger/8.0.28.2240(0x28001C57) WeChat/arm64 Weixin NetType/5G Language/zh_CN ABI/arm64","WebKit","Chrome","86.0.4240.99","AndroidOS","11","null","<div style=""font-size:60px;"">+</div>","null",""
"","","","","","html-button-response","91","202835","0.0-4.0-1.43","33","1","2022-11-27 09:39:28","7b1eb8be57ff77859c7d9ac988e43411","36.137.172.57","Mozilla/5.0 (Linux; Android 11; meizu 17 Pro Build/QKQ1.200127.002; wv) AppleWebKit/537.36 (KHTML, like Gecko) Version/4.0 Chrome/86.0.4240.99 XWEB/4343 MMWEBSDK/20220903 Mobile Safari/537.36 MMWEBID/5360 MicroMessenger/8.0.28.2240(0x28001C57) WeChat/arm64 Weixin NetType/5G Language/zh_CN ABI/arm64","WebKit","Chrome","86.0.4240.99","AndroidOS","11","1399","<p>作为军队的指挥官，你可以选择发射导弹杀死 <strong>5名</strong> 敌国士兵，但会误杀附近的 <strong>1名</strong> 敌国平民。</p> <p>平民照片如下图所示。</p> <p></p> <img src='stimuli/faces/PCM7.jpg', style='max-width: 30%;'> </img> <p><strong>你是否选择发射武器？</strong></p>","0",""
"","","","","","html-keyboard-response","92","203852","0.0-4.0-0.44","33","1","2022-11-27 09:39:28","7b1eb8be57ff77859c7d9ac988e43411","36.137.172.57","Mozilla/5.0 (Linux; Android 11; meizu 17 Pro Build/QKQ1.200127.002; wv) AppleWebKit/537.36 (KHTML, like Gecko) Version/4.0 Chrome/86.0.4240.99 XWEB/4343 MMWEBSDK/20220903 Mobile Safari/537.36 MMWEBID/5360 MicroMessenger/8.0.28.2240(0x28001C57) WeChat/arm64 Weixin NetType/5G Language/zh_CN ABI/arm64","WebKit","Chrome","86.0.4240.99","AndroidOS","11","null","<div style=""font-size:60px;"">+</div>","null",""
"","","","","","html-button-response","93","205934","0.0-4.0-1.44","33","1","2022-11-27 09:39:28","7b1eb8be57ff77859c7d9ac988e43411","36.137.172.57","Mozilla/5.0 (Linux; Android 11; meizu 17 Pro Build/QKQ1.200127.002; wv) AppleWebKit/537.36 (KHTML, like Gecko) Version/4.0 Chrome/86.0.4240.99 XWEB/4343 MMWEBSDK/20220903 Mobile Safari/537.36 MMWEBID/5360 MicroMessenger/8.0.28.2240(0x28001C57) WeChat/arm64 Weixin NetType/5G Language/zh_CN ABI/arm64","WebKit","Chrome","86.0.4240.99","AndroidOS","11","2047","<p>作为军队的指挥官，你可以选择发射导弹杀死 <strong>3名</strong> 敌国士兵，但会误杀附近的 <strong>1名</strong> 敌国平民。</p> <p>平民照片如下图所示。</p> <p></p> <img src='stimuli/faces/PCF3.jpg', style='max-width: 30%;'> </img> <p><strong>你是否选择发射武器？</strong></p>","1",""
"","","","","","html-keyboard-response","94","206950","0.0-4.0-0.45","33","1","2022-11-27 09:39:28","7b1eb8be57ff77859c7d9ac988e43411","36.137.172.57","Mozilla/5.0 (Linux; Android 11; meizu 17 Pro Build/QKQ1.200127.002; wv) AppleWebKit/537.36 (KHTML, like Gecko) Version/4.0 Chrome/86.0.4240.99 XWEB/4343 MMWEBSDK/20220903 Mobile Safari/537.36 MMWEBID/5360 MicroMessenger/8.0.28.2240(0x28001C57) WeChat/arm64 Weixin NetType/5G Language/zh_CN ABI/arm64","WebKit","Chrome","86.0.4240.99","AndroidOS","11","null","<div style=""font-size:60px;"">+</div>","null",""
"","","","","","html-button-response","95","209753","0.0-4.0-1.45","33","1","2022-11-27 09:39:28","7b1eb8be57ff77859c7d9ac988e43411","36.137.172.57","Mozilla/5.0 (Linux; Android 11; meizu 17 Pro Build/QKQ1.200127.002; wv) AppleWebKit/537.36 (KHTML, like Gecko) Version/4.0 Chrome/86.0.4240.99 XWEB/4343 MMWEBSDK/20220903 Mobile Safari/537.36 MMWEBID/5360 MicroMessenger/8.0.28.2240(0x28001C57) WeChat/arm64 Weixin NetType/5G Language/zh_CN ABI/arm64","WebKit","Chrome","86.0.4240.99","AndroidOS","11","2774","<p>作为军队的指挥官，你可以选择发射导弹杀死 <strong>2名</strong> 敌国士兵，但会炸毁附近的 <strong>1棵</strong> 敌国树木。</p> <p>树木的照片如下图所示。</p> <p></p> <img src='stimuli/trees/2.png', style='max-width: 30%;'> </img> <p><strong>你是否选择发射武器？</strong></p>","1",""
"","","","","","html-keyboard-response","96","210773","0.0-4.0-0.46","33","1","2022-11-27 09:39:28","7b1eb8be57ff77859c7d9ac988e43411","36.137.172.57","Mozilla/5.0 (Linux; Android 11; meizu 17 Pro Build/QKQ1.200127.002; wv) AppleWebKit/537.36 (KHTML, like Gecko) Version/4.0 Chrome/86.0.4240.99 XWEB/4343 MMWEBSDK/20220903 Mobile Safari/537.36 MMWEBID/5360 MicroMessenger/8.0.28.2240(0x28001C57) WeChat/arm64 Weixin NetType/5G Language/zh_CN ABI/arm64","WebKit","Chrome","86.0.4240.99","AndroidOS","11","null","<div style=""font-size:60px;"">+</div>","null",""
"","","","","","html-button-response","97","215767","0.0-4.0-1.46","33","1","2022-11-27 09:39:28","7b1eb8be57ff77859c7d9ac988e43411","36.137.172.57","Mozilla/5.0 (Linux; Android 11; meizu 17 Pro Build/QKQ1.200127.002; wv) AppleWebKit/537.36 (KHTML, like Gecko) Version/4.0 Chrome/86.0.4240.99 XWEB/4343 MMWEBSDK/20220903 Mobile Safari/537.36 MMWEBID/5360 MicroMessenger/8.0.28.2240(0x28001C57) WeChat/arm64 Weixin NetType/5G Language/zh_CN ABI/arm64","WebKit","Chrome","86.0.4240.99","AndroidOS","11","4961","<p>作为军队的指挥官，你可以选择发射导弹杀死 <strong>8名</strong> 敌国士兵，但会炸毁附近的 <strong>1棵</strong> 敌国树木。</p> <p>树木的照片如下图所示。</p> <p></p> <img src='stimuli/trees/13.png', style='max-width: 30%;'> </img> <p><strong>你是否选择发射武器？</strong></p>","0",""
"","","","","","html-keyboard-response","98","216785","0.0-4.0-0.47","33","1","2022-11-27 09:39:28","7b1eb8be57ff77859c7d9ac988e43411","36.137.172.57","Mozilla/5.0 (Linux; Android 11; meizu 17 Pro Build/QKQ1.200127.002; wv) AppleWebKit/537.36 (KHTML, like Gecko) Version/4.0 Chrome/86.0.4240.99 XWEB/4343 MMWEBSDK/20220903 Mobile Safari/537.36 MMWEBID/5360 MicroMessenger/8.0.28.2240(0x28001C57) WeChat/arm64 Weixin NetType/5G Language/zh_CN ABI/arm64","WebKit","Chrome","86.0.4240.99","AndroidOS","11","null","<div style=""font-size:60px;"">+</div>","null",""
"","","","","","html-button-response","99","219556","0.0-4.0-1.47","33","1","2022-11-27 09:39:28","7b1eb8be57ff77859c7d9ac988e43411","36.137.172.57","Mozilla/5.0 (Linux; Android 11; meizu 17 Pro Build/QKQ1.200127.002; wv) AppleWebKit/537.36 (KHTML, like Gecko) Version/4.0 Chrome/86.0.4240.99 XWEB/4343 MMWEBSDK/20220903 Mobile Safari/537.36 MMWEBID/5360 MicroMessenger/8.0.28.2240(0x28001C57) WeChat/arm64 Weixin NetType/5G Language/zh_CN ABI/arm64","WebKit","Chrome","86.0.4240.99","AndroidOS","11","2740","<p>作为军队的指挥官，你可以选择发射导弹杀死 <strong>9名</strong> 敌国士兵，但会炸毁附近的 <strong>1棵</strong> 敌国树木。</p> <p>树木的照片如下图所示。</p> <p></p> <img src='stimuli/trees/15.png', style='max-width: 30%;'> </img> <p><strong>你是否选择发射武器？</strong></p>","0",""
"","","","","","html-keyboard-response","100","220574","0.0-4.0-0.48","33","1","2022-11-27 09:39:28","7b1eb8be57ff77859c7d9ac988e43411","36.137.172.57","Mozilla/5.0 (Linux; Android 11; meizu 17 Pro Build/QKQ1.200127.002; wv) AppleWebKit/537.36 (KHTML, like Gecko) Version/4.0 Chrome/86.0.4240.99 XWEB/4343 MMWEBSDK/20220903 Mobile Safari/537.36 MMWEBID/5360 MicroMessenger/8.0.28.2240(0x28001C57) WeChat/arm64 Weixin NetType/5G Language/zh_CN ABI/arm64","WebKit","Chrome","86.0.4240.99","AndroidOS","11","null","<div style=""font-size:60px;"">+</div>","null",""
"","","","","","html-button-response","101","222279","0.0-4.0-1.48","33","1","2022-11-27 09:39:28","7b1eb8be57ff77859c7d9ac988e43411","36.137.172.57","Mozilla/5.0 (Linux; Android 11; meizu 17 Pro Build/QKQ1.200127.002; wv) AppleWebKit/537.36 (KHTML, like Gecko) Version/4.0 Chrome/86.0.4240.99 XWEB/4343 MMWEBSDK/20220903 Mobile Safari/537.36 MMWEBID/5360 MicroMessenger/8.0.28.2240(0x28001C57) WeChat/arm64 Weixin NetType/5G Language/zh_CN ABI/arm64","WebKit","Chrome","86.0.4240.99","AndroidOS","11","1673","<p>作为军队的指挥官，你可以选择发射导弹杀死 <strong>2名</strong> 敌国士兵，但会炸毁附近的 <strong>1棵</strong> 敌国树木。</p> <p>树木的照片如下图所示。</p> <p></p> <img src='stimuli/trees/8.png', style='max-width: 30%;'> </img> <p><strong>你是否选择发射武器？</strong></p>","1",""
"","","","","","html-keyboard-response","102","223296","0.0-4.0-0.49","33","1","2022-11-27 09:39:28","7b1eb8be57ff77859c7d9ac988e43411","36.137.172.57","Mozilla/5.0 (Linux; Android 11; meizu 17 Pro Build/QKQ1.200127.002; wv) AppleWebKit/537.36 (KHTML, like Gecko) Version/4.0 Chrome/86.0.4240.99 XWEB/4343 MMWEBSDK/20220903 Mobile Safari/537.36 MMWEBID/5360 MicroMessenger/8.0.28.2240(0x28001C57) WeChat/arm64 Weixin NetType/5G Language/zh_CN ABI/arm64","WebKit","Chrome","86.0.4240.99","AndroidOS","11","null","<div style=""font-size:60px;"">+</div>","null",""
"","","","","","html-button-response","103","232088","0.0-4.0-1.49","33","1","2022-11-27 09:39:28","7b1eb8be57ff77859c7d9ac988e43411","36.137.172.57","Mozilla/5.0 (Linux; Android 11; meizu 17 Pro Build/QKQ1.200127.002; wv) AppleWebKit/537.36 (KHTML, like Gecko) Version/4.0 Chrome/86.0.4240.99 XWEB/4343 MMWEBSDK/20220903 Mobile Safari/537.36 MMWEBID/5360 MicroMessenger/8.0.28.2240(0x28001C57) WeChat/arm64 Weixin NetType/5G Language/zh_CN ABI/arm64","WebKit","Chrome","86.0.4240.99","AndroidOS","11","8762","<p>作为军队的指挥官，你可以选择发射导弹杀死 <strong>1名</strong> 敌国士兵，但会炸毁附近的 <strong>1棵</strong> 敌国树木。</p> <p>树木的照片如下图所示。</p> <p></p> <img src='stimuli/trees/16.png', style='max-width: 30%;'> </img> <p><strong>你是否选择发射武器？</strong></p>","1",""
"","","","","","html-keyboard-response","104","233102","0.0-4.0-0.50","33","1","2022-11-27 09:39:28","7b1eb8be57ff77859c7d9ac988e43411","36.137.172.57","Mozilla/5.0 (Linux; Android 11; meizu 17 Pro Build/QKQ1.200127.002; wv) AppleWebKit/537.36 (KHTML, like Gecko) Version/4.0 Chrome/86.0.4240.99 XWEB/4343 MMWEBSDK/20220903 Mobile Safari/537.36 MMWEBID/5360 MicroMessenger/8.0.28.2240(0x28001C57) WeChat/arm64 Weixin NetType/5G Language/zh_CN ABI/arm64","WebKit","Chrome","86.0.4240.99","AndroidOS","11","null","<div style=""font-size:60px;"">+</div>","null",""
"","","","","","html-button-response","105","235320","0.0-4.0-1.50","33","1","2022-11-27 09:39:28","7b1eb8be57ff77859c7d9ac988e43411","36.137.172.57","Mozilla/5.0 (Linux; Android 11; meizu 17 Pro Build/QKQ1.200127.002; wv) AppleWebKit/537.36 (KHTML, like Gecko) Version/4.0 Chrome/86.0.4240.99 XWEB/4343 MMWEBSDK/20220903 Mobile Safari/537.36 MMWEBID/5360 MicroMessenger/8.0.28.2240(0x28001C57) WeChat/arm64 Weixin NetType/5G Language/zh_CN ABI/arm64","WebKit","Chrome","86.0.4240.99","AndroidOS","11","2186","<p>作为军队的指挥官，你可以选择发射导弹杀死 <strong>5名</strong> 敌国士兵，但会误杀附近的 <strong>1名</strong> 敌国平民。</p> <p>平民照片如下图所示。</p> <p></p> <img src='stimuli/faces/PCM1.jpg', style='max-width: 30%;'> </img> <p><strong>你是否选择发射武器？</strong></p>","0",""
"","","","","","html-keyboard-response","106","236335","0.0-4.0-0.51","33","1","2022-11-27 09:39:28","7b1eb8be57ff77859c7d9ac988e43411","36.137.172.57","Mozilla/5.0 (Linux; Android 11; meizu 17 Pro Build/QKQ1.200127.002; wv) AppleWebKit/537.36 (KHTML, like Gecko) Version/4.0 Chrome/86.0.4240.99 XWEB/4343 MMWEBSDK/20220903 Mobile Safari/537.36 MMWEBID/5360 MicroMessenger/8.0.28.2240(0x28001C57) WeChat/arm64 Weixin NetType/5G Language/zh_CN ABI/arm64","WebKit","Chrome","86.0.4240.99","AndroidOS","11","null","<div style=""font-size:60px;"">+</div>","null",""
"","","","","","html-button-response","107","238247","0.0-4.0-1.51","33","1","2022-11-27 09:39:28","7b1eb8be57ff77859c7d9ac988e43411","36.137.172.57","Mozilla/5.0 (Linux; Android 11; meizu 17 Pro Build/QKQ1.200127.002; wv) AppleWebKit/537.36 (KHTML, like Gecko) Version/4.0 Chrome/86.0.4240.99 XWEB/4343 MMWEBSDK/20220903 Mobile Safari/537.36 MMWEBID/5360 MicroMessenger/8.0.28.2240(0x28001C57) WeChat/arm64 Weixin NetType/5G Language/zh_CN ABI/arm64","WebKit","Chrome","86.0.4240.99","AndroidOS","11","1879","<p>作为军队的指挥官，你可以选择发射导弹杀死 <strong>5名</strong> 敌国士兵，但会炸毁附近的 <strong>1棵</strong> 敌国树木。</p> <p>树木的照片如下图所示。</p> <p></p> <img src='stimuli/trees/1.png', style='max-width: 30%;'> </img> <p><strong>你是否选择发射武器？</strong></p>","0",""
"","","","","","html-keyboard-response","108","239270","0.0-4.0-0.52","33","1","2022-11-27 09:39:28","7b1eb8be57ff77859c7d9ac988e43411","36.137.172.57","Mozilla/5.0 (Linux; Android 11; meizu 17 Pro Build/QKQ1.200127.002; wv) AppleWebKit/537.36 (KHTML, like Gecko) Version/4.0 Chrome/86.0.4240.99 XWEB/4343 MMWEBSDK/20220903 Mobile Safari/537.36 MMWEBID/5360 MicroMessenger/8.0.28.2240(0x28001C57) WeChat/arm64 Weixin NetType/5G Language/zh_CN ABI/arm64","WebKit","Chrome","86.0.4240.99","AndroidOS","11","null","<div style=""font-size:60px;"">+</div>","null",""
"","","","","","html-button-response","109","241482","0.0-4.0-1.52","33","1","2022-11-27 09:39:28","7b1eb8be57ff77859c7d9ac988e43411","36.137.172.57","Mozilla/5.0 (Linux; Android 11; meizu 17 Pro Build/QKQ1.200127.002; wv) AppleWebKit/537.36 (KHTML, like Gecko) Version/4.0 Chrome/86.0.4240.99 XWEB/4343 MMWEBSDK/20220903 Mobile Safari/537.36 MMWEBID/5360 MicroMessenger/8.0.28.2240(0x28001C57) WeChat/arm64 Weixin NetType/5G Language/zh_CN ABI/arm64","WebKit","Chrome","86.0.4240.99","AndroidOS","11","2194","<p>作为军队的指挥官，你可以选择发射导弹杀死 <strong>5名</strong> 敌国士兵，但会误杀附近的 <strong>1名</strong> 敌国平民。</p> <p>平民照片如下图所示。</p> <p></p> <img src='stimuli/faces/PCM2.jpg', style='max-width: 30%;'> </img> <p><strong>你是否选择发射武器？</strong></p>","0",""
"","","","","","html-keyboard-response","110","242497","0.0-4.0-0.53","33","1","2022-11-27 09:39:28","7b1eb8be57ff77859c7d9ac988e43411","36.137.172.57","Mozilla/5.0 (Linux; Android 11; meizu 17 Pro Build/QKQ1.200127.002; wv) AppleWebKit/537.36 (KHTML, like Gecko) Version/4.0 Chrome/86.0.4240.99 XWEB/4343 MMWEBSDK/20220903 Mobile Safari/537.36 MMWEBID/5360 MicroMessenger/8.0.28.2240(0x28001C57) WeChat/arm64 Weixin NetType/5G Language/zh_CN ABI/arm64","WebKit","Chrome","86.0.4240.99","AndroidOS","11","null","<div style=""font-size:60px;"">+</div>","null",""
"","","","","","html-button-response","111","250205","0.0-4.0-1.53","33","1","2022-11-27 09:39:28","7b1eb8be57ff77859c7d9ac988e43411","36.137.172.57","Mozilla/5.0 (Linux; Android 11; meizu 17 Pro Build/QKQ1.200127.002; wv) AppleWebKit/537.36 (KHTML, like Gecko) Version/4.0 Chrome/86.0.4240.99 XWEB/4343 MMWEBSDK/20220903 Mobile Safari/537.36 MMWEBID/5360 MicroMessenger/8.0.28.2240(0x28001C57) WeChat/arm64 Weixin NetType/5G Language/zh_CN ABI/arm64","WebKit","Chrome","86.0.4240.99","AndroidOS","11","7675","<p>作为军队的指挥官，你可以选择发射导弹杀死 <strong>6名</strong> 敌国士兵，但会炸毁附近的 <strong>1棵</strong> 敌国树木。</p> <p>树木的照片如下图所示。</p> <p></p> <img src='stimuli/trees/9.png', style='max-width: 30%;'> </img> <p><strong>你是否选择发射武器？</strong></p>","0",""
"","","","","","html-keyboard-response","112","251223","0.0-4.0-0.54","33","1","2022-11-27 09:39:28","7b1eb8be57ff77859c7d9ac988e43411","36.137.172.57","Mozilla/5.0 (Linux; Android 11; meizu 17 Pro Build/QKQ1.200127.002; wv) AppleWebKit/537.36 (KHTML, like Gecko) Version/4.0 Chrome/86.0.4240.99 XWEB/4343 MMWEBSDK/20220903 Mobile Safari/537.36 MMWEBID/5360 MicroMessenger/8.0.28.2240(0x28001C57) WeChat/arm64 Weixin NetType/5G Language/zh_CN ABI/arm64","WebKit","Chrome","86.0.4240.99","AndroidOS","11","null","<div style=""font-size:60px;"">+</div>","null",""
"","","","","","html-button-response","113","252774","0.0-4.0-1.54","33","1","2022-11-27 09:39:28","7b1eb8be57ff77859c7d9ac988e43411","36.137.172.57","Mozilla/5.0 (Linux; Android 11; meizu 17 Pro Build/QKQ1.200127.002; wv) AppleWebKit/537.36 (KHTML, like Gecko) Version/4.0 Chrome/86.0.4240.99 XWEB/4343 MMWEBSDK/20220903 Mobile Safari/537.36 MMWEBID/5360 MicroMessenger/8.0.28.2240(0x28001C57) WeChat/arm64 Weixin NetType/5G Language/zh_CN ABI/arm64","WebKit","Chrome","86.0.4240.99","AndroidOS","11","1516","<p>作为军队的指挥官，你可以选择发射导弹杀死 <strong>6名</strong> 敌国士兵，但会误杀附近的 <strong>1名</strong> 敌国平民。</p> <p>平民照片如下图所示。</p> <p></p> <img src='stimuli/faces/PCF3.jpg', style='max-width: 30%;'> </img> <p><strong>你是否选择发射武器？</strong></p>","0",""
"","","","","","html-keyboard-response","114","253795","0.0-4.0-0.55","33","1","2022-11-27 09:39:28","7b1eb8be57ff77859c7d9ac988e43411","36.137.172.57","Mozilla/5.0 (Linux; Android 11; meizu 17 Pro Build/QKQ1.200127.002; wv) AppleWebKit/537.36 (KHTML, like Gecko) Version/4.0 Chrome/86.0.4240.99 XWEB/4343 MMWEBSDK/20220903 Mobile Safari/537.36 MMWEBID/5360 MicroMessenger/8.0.28.2240(0x28001C57) WeChat/arm64 Weixin NetType/5G Language/zh_CN ABI/arm64","WebKit","Chrome","86.0.4240.99","AndroidOS","11","null","<div style=""font-size:60px;"">+</div>","null",""
"","","","","","html-button-response","115","255175","0.0-4.0-1.55","33","1","2022-11-27 09:39:28","7b1eb8be57ff77859c7d9ac988e43411","36.137.172.57","Mozilla/5.0 (Linux; Android 11; meizu 17 Pro Build/QKQ1.200127.002; wv) AppleWebKit/537.36 (KHTML, like Gecko) Version/4.0 Chrome/86.0.4240.99 XWEB/4343 MMWEBSDK/20220903 Mobile Safari/537.36 MMWEBID/5360 MicroMessenger/8.0.28.2240(0x28001C57) WeChat/arm64 Weixin NetType/5G Language/zh_CN ABI/arm64","WebKit","Chrome","86.0.4240.99","AndroidOS","11","1354","<p>作为军队的指挥官，你可以选择发射导弹杀死 <strong>1名</strong> 敌国士兵，但会误杀附近的 <strong>1名</strong> 敌国平民。</p> <p>平民照片如下图所示。</p> <p></p> <img src='stimuli/faces/PCF8.jpg', style='max-width: 30%;'> </img> <p><strong>你是否选择发射武器？</strong></p>","1",""
"","","","","","html-keyboard-response","116","256199","0.0-4.0-0.56","33","1","2022-11-27 09:39:28","7b1eb8be57ff77859c7d9ac988e43411","36.137.172.57","Mozilla/5.0 (Linux; Android 11; meizu 17 Pro Build/QKQ1.200127.002; wv) AppleWebKit/537.36 (KHTML, like Gecko) Version/4.0 Chrome/86.0.4240.99 XWEB/4343 MMWEBSDK/20220903 Mobile Safari/537.36 MMWEBID/5360 MicroMessenger/8.0.28.2240(0x28001C57) WeChat/arm64 Weixin NetType/5G Language/zh_CN ABI/arm64","WebKit","Chrome","86.0.4240.99","AndroidOS","11","null","<div style=""font-size:60px;"">+</div>","null",""
"","","","","","html-button-response","117","257329","0.0-4.0-1.56","33","1","2022-11-27 09:39:28","7b1eb8be57ff77859c7d9ac988e43411","36.137.172.57","Mozilla/5.0 (Linux; Android 11; meizu 17 Pro Build/QKQ1.200127.002; wv) AppleWebKit/537.36 (KHTML, like Gecko) Version/4.0 Chrome/86.0.4240.99 XWEB/4343 MMWEBSDK/20220903 Mobile Safari/537.36 MMWEBID/5360 MicroMessenger/8.0.28.2240(0x28001C57) WeChat/arm64 Weixin NetType/5G Language/zh_CN ABI/arm64","WebKit","Chrome","86.0.4240.99","AndroidOS","11","1092","<p>作为军队的指挥官，你可以选择发射导弹杀死 <strong>9名</strong> 敌国士兵，但会炸毁附近的 <strong>1棵</strong> 敌国树木。</p> <p>树木的照片如下图所示。</p> <p></p> <img src='stimuli/trees/6.png', style='max-width: 30%;'> </img> <p><strong>你是否选择发射武器？</strong></p>","0",""
"","","","","","html-keyboard-response","118","258350","0.0-4.0-0.57","33","1","2022-11-27 09:39:28","7b1eb8be57ff77859c7d9ac988e43411","36.137.172.57","Mozilla/5.0 (Linux; Android 11; meizu 17 Pro Build/QKQ1.200127.002; wv) AppleWebKit/537.36 (KHTML, like Gecko) Version/4.0 Chrome/86.0.4240.99 XWEB/4343 MMWEBSDK/20220903 Mobile Safari/537.36 MMWEBID/5360 MicroMessenger/8.0.28.2240(0x28001C57) WeChat/arm64 Weixin NetType/5G Language/zh_CN ABI/arm64","WebKit","Chrome","86.0.4240.99","AndroidOS","11","null","<div style=""font-size:60px;"">+</div>","null",""
"","","","","","html-button-response","119","259391","0.0-4.0-1.57","33","1","2022-11-27 09:39:28","7b1eb8be57ff77859c7d9ac988e43411","36.137.172.57","Mozilla/5.0 (Linux; Android 11; meizu 17 Pro Build/QKQ1.200127.002; wv) AppleWebKit/537.36 (KHTML, like Gecko) Version/4.0 Chrome/86.0.4240.99 XWEB/4343 MMWEBSDK/20220903 Mobile Safari/537.36 MMWEBID/5360 MicroMessenger/8.0.28.2240(0x28001C57) WeChat/arm64 Weixin NetType/5G Language/zh_CN ABI/arm64","WebKit","Chrome","86.0.4240.99","AndroidOS","11","1005","<p>作为军队的指挥官，你可以选择发射导弹杀死 <strong>1名</strong> 敌国士兵，但会误杀附近的 <strong>1名</strong> 敌国平民。</p> <p>平民照片如下图所示。</p> <p></p> <img src='stimuli/faces/PCF2.jpg', style='max-width: 30%;'> </img> <p><strong>你是否选择发射武器？</strong></p>","1",""
"","","","","","html-keyboard-response","120","260406","0.0-4.0-0.58","33","1","2022-11-27 09:39:28","7b1eb8be57ff77859c7d9ac988e43411","36.137.172.57","Mozilla/5.0 (Linux; Android 11; meizu 17 Pro Build/QKQ1.200127.002; wv) AppleWebKit/537.36 (KHTML, like Gecko) Version/4.0 Chrome/86.0.4240.99 XWEB/4343 MMWEBSDK/20220903 Mobile Safari/537.36 MMWEBID/5360 MicroMessenger/8.0.28.2240(0x28001C57) WeChat/arm64 Weixin NetType/5G Language/zh_CN ABI/arm64","WebKit","Chrome","86.0.4240.99","AndroidOS","11","null","<div style=""font-size:60px;"">+</div>","null",""
"","","","","","html-button-response","121","261490","0.0-4.0-1.58","33","1","2022-11-27 09:39:28","7b1eb8be57ff77859c7d9ac988e43411","36.137.172.57","Mozilla/5.0 (Linux; Android 11; meizu 17 Pro Build/QKQ1.200127.002; wv) AppleWebKit/537.36 (KHTML, like Gecko) Version/4.0 Chrome/86.0.4240.99 XWEB/4343 MMWEBSDK/20220903 Mobile Safari/537.36 MMWEBID/5360 MicroMessenger/8.0.28.2240(0x28001C57) WeChat/arm64 Weixin NetType/5G Language/zh_CN ABI/arm64","WebKit","Chrome","86.0.4240.99","AndroidOS","11","1051","<p>作为军队的指挥官，你可以选择发射导弹杀死 <strong>8名</strong> 敌国士兵，但会炸毁附近的 <strong>1棵</strong> 敌国树木。</p> <p>树木的照片如下图所示。</p> <p></p> <img src='stimuli/trees/7.png', style='max-width: 30%;'> </img> <p><strong>你是否选择发射武器？</strong></p>","0",""
"","","","","","html-keyboard-response","122","262511","0.0-4.0-0.59","33","1","2022-11-27 09:39:28","7b1eb8be57ff77859c7d9ac988e43411","36.137.172.57","Mozilla/5.0 (Linux; Android 11; meizu 17 Pro Build/QKQ1.200127.002; wv) AppleWebKit/537.36 (KHTML, like Gecko) Version/4.0 Chrome/86.0.4240.99 XWEB/4343 MMWEBSDK/20220903 Mobile Safari/537.36 MMWEBID/5360 MicroMessenger/8.0.28.2240(0x28001C57) WeChat/arm64 Weixin NetType/5G Language/zh_CN ABI/arm64","WebKit","Chrome","86.0.4240.99","AndroidOS","11","null","<div style=""font-size:60px;"">+</div>","null",""
"","","","","","html-button-response","123","263753","0.0-4.0-1.59","33","1","2022-11-27 09:39:28","7b1eb8be57ff77859c7d9ac988e43411","36.137.172.57","Mozilla/5.0 (Linux; Android 11; meizu 17 Pro Build/QKQ1.200127.002; wv) AppleWebKit/537.36 (KHTML, like Gecko) Version/4.0 Chrome/86.0.4240.99 XWEB/4343 MMWEBSDK/20220903 Mobile Safari/537.36 MMWEBID/5360 MicroMessenger/8.0.28.2240(0x28001C57) WeChat/arm64 Weixin NetType/5G Language/zh_CN ABI/arm64","WebKit","Chrome","86.0.4240.99","AndroidOS","11","1208","<p>作为军队的指挥官，你可以选择发射导弹杀死 <strong>6名</strong> 敌国士兵，但会误杀附近的 <strong>1名</strong> 敌国平民。</p> <p>平民照片如下图所示。</p> <p></p> <img src='stimuli/faces/PCM6.jpg', style='max-width: 30%;'> </img> <p><strong>你是否选择发射武器？</strong></p>","0",""
"","","","","","html-keyboard-response","124","264776","0.0-4.0-0.60","33","1","2022-11-27 09:39:28","7b1eb8be57ff77859c7d9ac988e43411","36.137.172.57","Mozilla/5.0 (Linux; Android 11; meizu 17 Pro Build/QKQ1.200127.002; wv) AppleWebKit/537.36 (KHTML, like Gecko) Version/4.0 Chrome/86.0.4240.99 XWEB/4343 MMWEBSDK/20220903 Mobile Safari/537.36 MMWEBID/5360 MicroMessenger/8.0.28.2240(0x28001C57) WeChat/arm64 Weixin NetType/5G Language/zh_CN ABI/arm64","WebKit","Chrome","86.0.4240.99","AndroidOS","11","null","<div style=""font-size:60px;"">+</div>","null",""
"","","","","","html-button-response","125","266011","0.0-4.0-1.60","33","1","2022-11-27 09:39:28","7b1eb8be57ff77859c7d9ac988e43411","36.137.172.57","Mozilla/5.0 (Linux; Android 11; meizu 17 Pro Build/QKQ1.200127.002; wv) AppleWebKit/537.36 (KHTML, like Gecko) Version/4.0 Chrome/86.0.4240.99 XWEB/4343 MMWEBSDK/20220903 Mobile Safari/537.36 MMWEBID/5360 MicroMessenger/8.0.28.2240(0x28001C57) WeChat/arm64 Weixin NetType/5G Language/zh_CN ABI/arm64","WebKit","Chrome","86.0.4240.99","AndroidOS","11","1196","<p>作为军队的指挥官，你可以选择发射导弹杀死 <strong>8名</strong> 敌国士兵，但会误杀附近的 <strong>1名</strong> 敌国平民。</p> <p>平民照片如下图所示。</p> <p></p> <img src='stimuli/faces/PCM8.jpg', style='max-width: 30%;'> </img> <p><strong>你是否选择发射武器？</strong></p>","0",""
"","","","","","html-keyboard-response","126","267026","0.0-4.0-0.61","33","1","2022-11-27 09:39:28","7b1eb8be57ff77859c7d9ac988e43411","36.137.172.57","Mozilla/5.0 (Linux; Android 11; meizu 17 Pro Build/QKQ1.200127.002; wv) AppleWebKit/537.36 (KHTML, like Gecko) Version/4.0 Chrome/86.0.4240.99 XWEB/4343 MMWEBSDK/20220903 Mobile Safari/537.36 MMWEBID/5360 MicroMessenger/8.0.28.2240(0x28001C57) WeChat/arm64 Weixin NetType/5G Language/zh_CN ABI/arm64","WebKit","Chrome","86.0.4240.99","AndroidOS","11","null","<div style=""font-size:60px;"">+</div>","null",""
"","","","","","html-button-response","127","268262","0.0-4.0-1.61","33","1","2022-11-27 09:39:28","7b1eb8be57ff77859c7d9ac988e43411","36.137.172.57","Mozilla/5.0 (Linux; Android 11; meizu 17 Pro Build/QKQ1.200127.002; wv) AppleWebKit/537.36 (KHTML, like Gecko) Version/4.0 Chrome/86.0.4240.99 XWEB/4343 MMWEBSDK/20220903 Mobile Safari/537.36 MMWEBID/5360 MicroMessenger/8.0.28.2240(0x28001C57) WeChat/arm64 Weixin NetType/5G Language/zh_CN ABI/arm64","WebKit","Chrome","86.0.4240.99","AndroidOS","11","1208","<p>作为军队的指挥官，你可以选择发射导弹杀死 <strong>9名</strong> 敌国士兵，但会误杀附近的 <strong>1名</strong> 敌国平民。</p> <p>平民照片如下图所示。</p> <p></p> <img src='stimuli/faces/PCM7.jpg', style='max-width: 30%;'> </img> <p><strong>你是否选择发射武器？</strong></p>","0",""
"","","","","","html-keyboard-response","128","269283","0.0-4.0-0.62","33","1","2022-11-27 09:39:28","7b1eb8be57ff77859c7d9ac988e43411","36.137.172.57","Mozilla/5.0 (Linux; Android 11; meizu 17 Pro Build/QKQ1.200127.002; wv) AppleWebKit/537.36 (KHTML, like Gecko) Version/4.0 Chrome/86.0.4240.99 XWEB/4343 MMWEBSDK/20220903 Mobile Safari/537.36 MMWEBID/5360 MicroMessenger/8.0.28.2240(0x28001C57) WeChat/arm64 Weixin NetType/5G Language/zh_CN ABI/arm64","WebKit","Chrome","86.0.4240.99","AndroidOS","11","null","<div style=""font-size:60px;"">+</div>","null",""
"","","","","","html-button-response","129","270521","0.0-4.0-1.62","33","1","2022-11-27 09:39:28","7b1eb8be57ff77859c7d9ac988e43411","36.137.172.57","Mozilla/5.0 (Linux; Android 11; meizu 17 Pro Build/QKQ1.200127.002; wv) AppleWebKit/537.36 (KHTML, like Gecko) Version/4.0 Chrome/86.0.4240.99 XWEB/4343 MMWEBSDK/20220903 Mobile Safari/537.36 MMWEBID/5360 MicroMessenger/8.0.28.2240(0x28001C57) WeChat/arm64 Weixin NetType/5G Language/zh_CN ABI/arm64","WebKit","Chrome","86.0.4240.99","AndroidOS","11","1207","<p>作为军队的指挥官，你可以选择发射导弹杀死 <strong>8名</strong> 敌国士兵，但会误杀附近的 <strong>1名</strong> 敌国平民。</p> <p>平民照片如下图所示。</p> <p></p> <img src='stimuli/faces/PCF6.jpg', style='max-width: 30%;'> </img> <p><strong>你是否选择发射武器？</strong></p>","0",""
"","","","","","html-keyboard-response","130","271530","0.0-4.0-0.63","33","1","2022-11-27 09:39:28","7b1eb8be57ff77859c7d9ac988e43411","36.137.172.57","Mozilla/5.0 (Linux; Android 11; meizu 17 Pro Build/QKQ1.200127.002; wv) AppleWebKit/537.36 (KHTML, like Gecko) Version/4.0 Chrome/86.0.4240.99 XWEB/4343 MMWEBSDK/20220903 Mobile Safari/537.36 MMWEBID/5360 MicroMessenger/8.0.28.2240(0x28001C57) WeChat/arm64 Weixin NetType/5G Language/zh_CN ABI/arm64","WebKit","Chrome","86.0.4240.99","AndroidOS","11","null","<div style=""font-size:60px;"">+</div>","null",""
"","","","","","html-button-response","131","273100","0.0-4.0-1.63","33","1","2022-11-27 09:39:28","7b1eb8be57ff77859c7d9ac988e43411","36.137.172.57","Mozilla/5.0 (Linux; Android 11; meizu 17 Pro Build/QKQ1.200127.002; wv) AppleWebKit/537.36 (KHTML, like Gecko) Version/4.0 Chrome/86.0.4240.99 XWEB/4343 MMWEBSDK/20220903 Mobile Safari/537.36 MMWEBID/5360 MicroMessenger/8.0.28.2240(0x28001C57) WeChat/arm64 Weixin NetType/5G Language/zh_CN ABI/arm64","WebKit","Chrome","86.0.4240.99","AndroidOS","11","1532","<p>作为军队的指挥官，你可以选择发射导弹杀死 <strong>4名</strong> 敌国士兵，但会炸毁附近的 <strong>1棵</strong> 敌国树木。</p> <p>树木的照片如下图所示。</p> <p></p> <img src='stimuli/trees/7.png', style='max-width: 30%;'> </img> <p><strong>你是否选择发射武器？</strong></p>","0",""
"","","","","","survey-multi-choice","132","293551","0.0-5.0","33","1","2022-11-27 09:39:28","7b1eb8be57ff77859c7d9ac988e43411","36.137.172.57","Mozilla/5.0 (Linux; Android 11; meizu 17 Pro Build/QKQ1.200127.002; wv) AppleWebKit/537.36 (KHTML, like Gecko) Version/4.0 Chrome/86.0.4240.99 XWEB/4343 MMWEBSDK/20220903 Mobile Safari/537.36 MMWEBID/5360 MicroMessenger/8.0.28.2240(0x28001C57) WeChat/arm64 Weixin NetType/5G Language/zh_CN ABI/arm64","WebKit","Chrome","86.0.4240.99","AndroidOS","11","20422","","{""Attention1"":""""}","[0]"
"","","","","","html-button-response","133","298176","0.0-6.0","33","1","2022-11-27 09:39:28","7b1eb8be57ff77859c7d9ac988e43411","36.137.172.57","Mozilla/5.0 (Linux; Android 11; meizu 17 Pro Build/QKQ1.200127.002; wv) AppleWebKit/537.36 (KHTML, like Gecko) Version/4.0 Chrome/86.0.4240.99 XWEB/4343 MMWEBSDK/20220903 Mobile Safari/537.36 MMWEBID/5360 MicroMessenger/8.0.28.2240(0x28001C57) WeChat/arm64 Weixin NetType/5G Language/zh_CN ABI/arm64","WebKit","Chrome","86.0.4240.99","AndroidOS","11","4602","<p style=""font-size:20px;font-weight:bold;"">恭喜！</p><p>你已经完成了实验的第一部分。</p><p>请休息放松一下，然后进入第二部分。</p><p>这部分大约需要10分钟。</p>","0",""
"","","","","","survey-text","134","322522","0.0-7.0","33","1","2022-11-27 09:39:28","7b1eb8be57ff77859c7d9ac988e43411","36.137.172.57","Mozilla/5.0 (Linux; Android 11; meizu 17 Pro Build/QKQ1.200127.002; wv) AppleWebKit/537.36 (KHTML, like Gecko) Version/4.0 Chrome/86.0.4240.99 XWEB/4343 MMWEBSDK/20220903 Mobile Safari/537.36 MMWEBID/5360 MicroMessenger/8.0.28.2240(0x28001C57) WeChat/arm64 Weixin NetType/5G Language/zh_CN ABI/arm64","WebKit","Chrome","86.0.4240.99","AndroidOS","11","23253","","{""Age"":""22"",""Nation"":""中国"",""Born"":""山东省"",""Live"":""临沂市"",""Ethnic"":""汉"",""Alipay"":""17861613117"",""ID"":""""}",""
"","","","","","survey-multi-choice","135","344430","0.0-8.0","33","1","2022-11-27 09:39:28","7b1eb8be57ff77859c7d9ac988e43411","36.137.172.57","Mozilla/5.0 (Linux; Android 11; meizu 17 Pro Build/QKQ1.200127.002; wv) AppleWebKit/537.36 (KHTML, like Gecko) Version/4.0 Chrome/86.0.4240.99 XWEB/4343 MMWEBSDK/20220903 Mobile Safari/537.36 MMWEBID/5360 MicroMessenger/8.0.28.2240(0x28001C57) WeChat/arm64 Weixin NetType/5G Language/zh_CN ABI/arm64","WebKit","Chrome","86.0.4240.99","AndroidOS","11","21882","","{""Gender"":""女"",""Education"":""本科毕业"",""Income"":""￥270,000-￥489,999"",""Children"":""0"",""Race"":""亚洲人""}","[0,1,2,3,4]"
"","","","","","survey-multi-select","136","356003","0.0-9.0","33","1","2022-11-27 09:39:28","7b1eb8be57ff77859c7d9ac988e43411","36.137.172.57","Mozilla/5.0 (Linux; Android 11; meizu 17 Pro Build/QKQ1.200127.002; wv) AppleWebKit/537.36 (KHTML, like Gecko) Version/4.0 Chrome/86.0.4240.99 XWEB/4343 MMWEBSDK/20220903 Mobile Safari/537.36 MMWEBID/5360 MicroMessenger/8.0.28.2240(0x28001C57) WeChat/arm64 Weixin NetType/5G Language/zh_CN ABI/arm64","WebKit","Chrome","86.0.4240.99","AndroidOS","11","11513","","{""Marriage"":[""未婚""],""Religion"":[""无宗教信仰""]}","[0,1]"
"","","","","","survey-multi-choice","137","360858","0.0-10.0","33","1","2022-11-27 09:39:28","7b1eb8be57ff77859c7d9ac988e43411","36.137.172.57","Mozilla/5.0 (Linux; Android 11; meizu 17 Pro Build/QKQ1.200127.002; wv) AppleWebKit/537.36 (KHTML, like Gecko) Version/4.0 Chrome/86.0.4240.99 XWEB/4343 MMWEBSDK/20220903 Mobile Safari/537.36 MMWEBID/5360 MicroMessenger/8.0.28.2240(0x28001C57) WeChat/arm64 Weixin NetType/5G Language/zh_CN ABI/arm64","WebKit","Chrome","86.0.4240.99","AndroidOS","11","4839","","{""SES"":""6""}","[0]"
"","","","","","html-button-response","138","363253","0.0-11.0","33","1","2022-11-27 09:39:28","7b1eb8be57ff77859c7d9ac988e43411","36.137.172.57","Mozilla/5.0 (Linux; Android 11; meizu 17 Pro Build/QKQ1.200127.002; wv) AppleWebKit/537.36 (KHTML, like Gecko) Version/4.0 Chrome/86.0.4240.99 XWEB/4343 MMWEBSDK/20220903 Mobile Safari/537.36 MMWEBID/5360 MicroMessenger/8.0.28.2240(0x28001C57) WeChat/arm64 Weixin NetType/5G Language/zh_CN ABI/arm64","WebKit","Chrome","86.0.4240.99","AndroidOS","11","2369","<p><strong>请判断下列陈述在多大程度上可以形容你？</p><p> (1 = ""和我一点都不像"" to 5 = ""非常像我"".)</strong></p>","0",""
"","","","","","survey-likert","139","395361","0.0-12.0","33","1","2022-11-27 09:39:28","7b1eb8be57ff77859c7d9ac988e43411","36.137.172.57","Mozilla/5.0 (Linux; Android 11; meizu 17 Pro Build/QKQ1.200127.002; wv) AppleWebKit/537.36 (KHTML, like Gecko) Version/4.0 Chrome/86.0.4240.99 XWEB/4343 MMWEBSDK/20220903 Mobile Safari/537.36 MMWEBID/5360 MicroMessenger/8.0.28.2240(0x28001C57) WeChat/arm64 Weixin NetType/5G Language/zh_CN ABI/arm64","WebKit","Chrome","86.0.4240.99","AndroidOS","11","32069","","{""Aggression1"":3,""Aggression2"":1,""Aggression3"":3,""Aggression4"":1,""Aggression5"":3,""Aggression6"":2,""Aggression7"":3,""Aggression8"":1,""Aggression9"":1}","[0,1,2,3,4,5,6,7,8]"
"","","","","","html-button-response","140","397422","0.0-13.0","33","1","2022-11-27 09:39:28","7b1eb8be57ff77859c7d9ac988e43411","36.137.172.57","Mozilla/5.0 (Linux; Android 11; meizu 17 Pro Build/QKQ1.200127.002; wv) AppleWebKit/537.36 (KHTML, like Gecko) Version/4.0 Chrome/86.0.4240.99 XWEB/4343 MMWEBSDK/20220903 Mobile Safari/537.36 MMWEBID/5360 MicroMessenger/8.0.28.2240(0x28001C57) WeChat/arm64 Weixin NetType/5G Language/zh_CN ABI/arm64","WebKit","Chrome","86.0.4240.99","AndroidOS","11","2032","<p><strong>请判断你在多大程度上同意下列陈述。</strong></p>","0",""
"","","","","","survey-likert","141","559541","0.0-14.0","33","1","2022-11-27 09:39:28","7b1eb8be57ff77859c7d9ac988e43411","36.137.172.57","Mozilla/5.0 (Linux; Android 11; meizu 17 Pro Build/QKQ1.200127.002; wv) AppleWebKit/537.36 (KHTML, like Gecko) Version/4.0 Chrome/86.0.4240.99 XWEB/4343 MMWEBSDK/20220903 Mobile Safari/537.36 MMWEBID/5360 MicroMessenger/8.0.28.2240(0x28001C57) WeChat/arm64 Weixin NetType/5G Language/zh_CN ABI/arm64","WebKit","Chrome","86.0.4240.99","AndroidOS","11","162070","","{""scale1"":3,""scale11"":3,""scale20"":3,""scale15"":2,""scale28"":3,""scale12"":2,""scale16"":2,""scale25"":3,""scale17"":2,""scale4"":2,""scale2"":2,""scale14"":2,""scale23"":3,""scale18"":1,""scale10"":2,""scale8"":3,""scale19"":2,""scale5"":2,""scale26"":3,""scale9"":3,""scale21"":4,""scale22"":2,""scale7"":2,""scale24"":1,""scale13"":1,""scale6"":2,""scale3"":1,""scale27"":0}","[0,10,19,14,27,11,15,24,16,3,1,13,22,17,9,7,18,4,25,8,20,21,6,23,12,5,2,26]"
"","","","","","html-button-response","142","561222","0.0-15.0","33","1","2022-11-27 09:39:28","7b1eb8be57ff77859c7d9ac988e43411","36.137.172.57","Mozilla/5.0 (Linux; Android 11; meizu 17 Pro Build/QKQ1.200127.002; wv) AppleWebKit/537.36 (KHTML, like Gecko) Version/4.0 Chrome/86.0.4240.99 XWEB/4343 MMWEBSDK/20220903 Mobile Safari/537.36 MMWEBID/5360 MicroMessenger/8.0.28.2240(0x28001C57) WeChat/arm64 Weixin NetType/5G Language/zh_CN ABI/arm64","WebKit","Chrome","86.0.4240.99","AndroidOS","11","1669","<p><strong>请判断你在多大程度上同意下列陈述。</strong></p>","0",""
"","","","","","survey-likert","143","645131","0.0-16.0","33","1","2022-11-27 09:39:28","7b1eb8be57ff77859c7d9ac988e43411","36.137.172.57","Mozilla/5.0 (Linux; Android 11; meizu 17 Pro Build/QKQ1.200127.002; wv) AppleWebKit/537.36 (KHTML, like Gecko) Version/4.0 Chrome/86.0.4240.99 XWEB/4343 MMWEBSDK/20220903 Mobile Safari/537.36 MMWEBID/5360 MicroMessenger/8.0.28.2240(0x28001C57) WeChat/arm64 Weixin NetType/5G Language/zh_CN ABI/arm64","WebKit","Chrome","86.0.4240.99","AndroidOS","11","83861","","{""sdo7"":0,""sdo3"":2,""sdo13"":5,""sdo11"":4,""sdo1"":3,""sdo9"":6,""sdo12"":6,""sdo15"":5,""sdo2"":1,""sdo4"":2,""sdo16"":5,""sdo6"":1,""sdo5"":2,""sdo10"":6,""sdo8"":2,""sdo14"":6}","[6,2,12,10,0,8,11,14,1,3,15,5,4,9,7,13]"
"","","","","","html-button-response","144","646496","0.0-17.0","33","1","2022-11-27 09:39:28","7b1eb8be57ff77859c7d9ac988e43411","36.137.172.57","Mozilla/5.0 (Linux; Android 11; meizu 17 Pro Build/QKQ1.200127.002; wv) AppleWebKit/537.36 (KHTML, like Gecko) Version/4.0 Chrome/86.0.4240.99 XWEB/4343 MMWEBSDK/20220903 Mobile Safari/537.36 MMWEBID/5360 MicroMessenger/8.0.28.2240(0x28001C57) WeChat/arm64 Weixin NetType/5G Language/zh_CN ABI/arm64","WebKit","Chrome","86.0.4240.99","AndroidOS","11","1348","<p><strong>请判断你在多大程度上同意下列陈述。</strong></p>","0",""
"","","","","","survey-likert","145","680407","0.0-18.0","33","1","2022-11-27 09:39:28","7b1eb8be57ff77859c7d9ac988e43411","36.137.172.57","Mozilla/5.0 (Linux; Android 11; meizu 17 Pro Build/QKQ1.200127.002; wv) AppleWebKit/537.36 (KHTML, like Gecko) Version/4.0 Chrome/86.0.4240.99 XWEB/4343 MMWEBSDK/20220903 Mobile Safari/537.36 MMWEBID/5360 MicroMessenger/8.0.28.2240(0x28001C57) WeChat/arm64 Weixin NetType/5G Language/zh_CN ABI/arm64","WebKit","Chrome","86.0.4240.99","AndroidOS","11","33868","","{""caring1"":4,""liking1"":4,""caring2"":4,""protection1"":3,""liking2"":2,""caring3"":3,""protection2"":1,""liking3"":2,""protection3"":2,""caring4"":3,""liking4"":2,""protection4"":3,""caring5"":4,""liking5"":4,""protection5"":2}","[0,1,2,3,4,5,6,7,8,9,10,11,12,13,14]"
"","","","","","html-button-response","146","681384","0.0-19.0","33","1","2022-11-27 09:39:28","7b1eb8be57ff77859c7d9ac988e43411","36.137.172.57","Mozilla/5.0 (Linux; Android 11; meizu 17 Pro Build/QKQ1.200127.002; wv) AppleWebKit/537.36 (KHTML, like Gecko) Version/4.0 Chrome/86.0.4240.99 XWEB/4343 MMWEBSDK/20220903 Mobile Safari/537.36 MMWEBID/5360 MicroMessenger/8.0.28.2240(0x28001C57) WeChat/arm64 Weixin NetType/5G Language/zh_CN ABI/arm64","WebKit","Chrome","86.0.4240.99","AndroidOS","11","959","<p><strong>请判断下列场景中你的内心感受有多柔软。</strong></p>","0",""
"","","","","","survey-likert","147","717266","0.0-20.0","33","1","2022-11-27 09:39:28","7b1eb8be57ff77859c7d9ac988e43411","36.137.172.57","Mozilla/5.0 (Linux; Android 11; meizu 17 Pro Build/QKQ1.200127.002; wv) AppleWebKit/537.36 (KHTML, like Gecko) Version/4.0 Chrome/86.0.4240.99 XWEB/4343 MMWEBSDK/20220903 Mobile Safari/537.36 MMWEBID/5360 MicroMessenger/8.0.28.2240(0x28001C57) WeChat/arm64 Weixin NetType/5G Language/zh_CN ABI/arm64","WebKit","Chrome","86.0.4240.99","AndroidOS","11","35850","","{""tenderness-positive1"":4,""tenderness-negative1"":3,""tenderness-negative2"":1,""tenderness-positive2"":3,""tenderness-positive3"":3,""tenderness-negative3"":2,""tenderness-positive4"":4,""tenderness-negative4"":3,""tenderness-negative5"":3,""tenderness-positive5"":4}","[0,1,2,3,4,5,6,7,8,9]"
"","","","","","survey-multi-choice","148","741096","0.0-21.0","33","1","2022-11-27 09:39:28","7b1eb8be57ff77859c7d9ac988e43411","36.137.172.57","Mozilla/5.0 (Linux; Android 11; meizu 17 Pro Build/QKQ1.200127.002; wv) AppleWebKit/537.36 (KHTML, like Gecko) Version/4.0 Chrome/86.0.4240.99 XWEB/4343 MMWEBSDK/20220903 Mobile Safari/537.36 MMWEBID/5360 MicroMessenger/8.0.28.2240(0x28001C57) WeChat/arm64 Weixin NetType/5G Language/zh_CN ABI/arm64","WebKit","Chrome","86.0.4240.99","AndroidOS","11","23818","","{""Attention2"":""其他""}","[0]"
"","","","","","html-button-response","149","742416","0.0-22.0","33","1","2022-11-27 09:39:28","7b1eb8be57ff77859c7d9ac988e43411","36.137.172.57","Mozilla/5.0 (Linux; Android 11; meizu 17 Pro Build/QKQ1.200127.002; wv) AppleWebKit/537.36 (KHTML, like Gecko) Version/4.0 Chrome/86.0.4240.99 XWEB/4343 MMWEBSDK/20220903 Mobile Safari/537.36 MMWEBID/5360 MicroMessenger/8.0.28.2240(0x28001C57) WeChat/arm64 Weixin NetType/5G Language/zh_CN ABI/arm64","WebKit","Chrome","86.0.4240.99","AndroidOS","11","1284","<p><strong>请判断你在多大程度上同意下列陈述。</strong></p>","0",""
"","","","","","survey-likert","150","885423","0.0-23.0","33","1","2022-11-27 09:39:28","7b1eb8be57ff77859c7d9ac988e43411","36.137.172.57","Mozilla/5.0 (Linux; Android 11; meizu 17 Pro Build/QKQ1.200127.002; wv) AppleWebKit/537.36 (KHTML, like Gecko) Version/4.0 Chrome/86.0.4240.99 XWEB/4343 MMWEBSDK/20220903 Mobile Safari/537.36 MMWEBID/5360 MicroMessenger/8.0.28.2240(0x28001C57) WeChat/arm64 Weixin NetType/5G Language/zh_CN ABI/arm64","WebKit","Chrome","86.0.4240.99","AndroidOS","11","114637","","{""Nation1"":2,""Nation5"":1,""Nation2"":1,""Patri2"":4,""Patri8"":4,""Nation7"":3,""Patri9"":1,""Patri4"":3,""Patri11"":0,""Patri1"":4,""Nation6"":4,""Patri7"":4,""Patri6"":0,""Nation3"":0,""Patri10"":0,""Nation4"":3,""Patri12"":0,""Patri3"":1,""Patri5"":4,""Nation8"":2}","[12,16,13,1,7,18,8,3,10,0,17,6,5,14,9,15,11,2,4,19]"
"","","","","","html-button-response","151","886624","0.0-24.0","33","1","2022-11-27 09:39:28","7b1eb8be57ff77859c7d9ac988e43411","36.137.172.57","Mozilla/5.0 (Linux; Android 11; meizu 17 Pro Build/QKQ1.200127.002; wv) AppleWebKit/537.36 (KHTML, like Gecko) Version/4.0 Chrome/86.0.4240.99 XWEB/4343 MMWEBSDK/20220903 Mobile Safari/537.36 MMWEBID/5360 MicroMessenger/8.0.28.2240(0x28001C57) WeChat/arm64 Weixin NetType/5G Language/zh_CN ABI/arm64","WebKit","Chrome","86.0.4240.99","AndroidOS","11","1181","<p><strong>请判断你在多大程度上同意下列陈述。</strong></p>","0",""
"","","","","","survey-likert","152","1041043","0.0-25.0","33","1","2022-11-27 09:39:28","7b1eb8be57ff77859c7d9ac988e43411","36.137.172.57","Mozilla/5.0 (Linux; Android 11; meizu 17 Pro Build/QKQ1.200127.002; wv) AppleWebKit/537.36 (KHTML, like Gecko) Version/4.0 Chrome/86.0.4240.99 XWEB/4343 MMWEBSDK/20220903 Mobile Safari/537.36 MMWEBID/5360 MicroMessenger/8.0.28.2240(0x28001C57) WeChat/arm64 Weixin NetType/5G Language/zh_CN ABI/arm64","WebKit","Chrome","86.0.4240.99","AndroidOS","11","154378","","{""hi2"":5,""hi1"":5,""vc3"":6,""vi3"":6,""vc1"":7,""vc4"":6,""hi4"":5,""hc2"":6,""hc4"":6,""vi2"":5,""vi1"":5,""hc3"":6,""hc1"":6,""vi4"":4,""vc2"":5,""hi3"":5,""Robot"":6}","[1,0,15,6,13,16,3,10,12,5,4,11,9,8,14,2,7]"
