"success","timeout","failed_images","failed_audio","failed_video","trial_type","trial_index","time_elapsed","internal_node_id","run_id","condition","recorded_at","source_code_version","ip","user_agent","device","browser","browser_version","platform","platform_version","rt","stimulus","response","question_order"
"true","false","[]","[]","[]","preload","0","1005","0.0-0.0","42","1","2022-11-27 09:47:38","7b1eb8be57ff77859c7d9ac988e43411","183.198.116.238","Mozilla/5.0 (Windows NT 10.0; Win64; x64) AppleWebKit/537.36 (KHTML, like Gecko) Chrome/103.0.0.0 Safari/537.36","WebKit","Chrome","103.0.0.0","Windows","10.0","","","",""
"true","","","","","fullscreen","1","6216","0.0-1.0","42","1","2022-11-27 09:47:38","7b1eb8be57ff77859c7d9ac988e43411","183.198.116.238","Mozilla/5.0 (Windows NT 10.0; Win64; x64) AppleWebKit/537.36 (KHTML, like Gecko) Chrome/103.0.0.0 Safari/537.36","WebKit","Chrome","103.0.0.0","Windows","10.0","","","",""
"","","","","","html-button-response","2","20518","0.0-2.0","42","1","2022-11-27 09:47:38","7b1eb8be57ff77859c7d9ac988e43411","183.198.116.238","Mozilla/5.0 (Windows NT 10.0; Win64; x64) AppleWebKit/537.36 (KHTML, like Gecko) Chrome/103.0.0.0 Safari/537.36","WebKit","Chrome","103.0.0.0","Windows","10.0","14300","<p style=""font-size:20px;font-weight:bold;"">实验知情同意书</p><p style=""text-align:left;""><strong>实验名称：</strong>社会冲突研究</p><p style=""text-align:left;""><strong>主要研究者：</strong>韩晓春副教授（北京师范大学心理学部）</p><p style=""text-align:left;""><strong>联系方式：</strong>发送邮件至xiaochun.han@bnu.edu.cn</p><p style=""text-align:left;""><strong>研究目的：</strong>研究旨在了解人类面对群体冲突时的决策方式，以及相关的心理学特质。实验调查大约需要20分钟。</p><p style=""text-align:left;""><strong>实验流程：</strong>实验包含两部分。第一部分呈现一系列群体冲突场景，请你决定如何对这些冲突进行反应，大约需要10分钟完成。第二部分包含一系列人口统计学信息收集和心理学问卷，大约需要10分钟完成。</p><p style=""text-align:left;""><strong>参加及退出规则：</strong>参加本实验完全取决于您的个人意愿。在参与过程中，您可以随时退出，并且不用承担任何后果。</p><p style=""text-align:left;""><strong>隐私：</strong>本实验完全匿名进行，不会收集您的姓名或其他能够识别您身份的信息。实验中收集的作答仅用作科学研究使用，可能会在学术期刊/书籍上发表，或者用于教学，您的数据未来可能会和其他研究者或实验室分享，但您的个人身份不会被识别。</p><p style=""text-align:left;""><strong>实验报酬：</strong>实验完成后，您将获得15元人民币报酬，以感谢您的时间和努力。调查问卷中包含几道题目用以测验您作答时的认真度。只有完成全部实验，并且正确回答认真度测验的被试才能获得实验报酬。实验报酬将通过支付宝转账发放。</p><p style=""text-align:left;font-size:20px;""><strong>如果您同意以上实验知情同意书的内容，请点击'同意并且开始实验'按钮；否则请关闭浏览器界面，退出实验。</strong></p>","0",""
"","","","","","html-button-response","3","33518","0.0-3.0","42","1","2022-11-27 09:47:38","7b1eb8be57ff77859c7d9ac988e43411","183.198.116.238","Mozilla/5.0 (Windows NT 10.0; Win64; x64) AppleWebKit/537.36 (KHTML, like Gecko) Chrome/103.0.0.0 Safari/537.36","WebKit","Chrome","103.0.0.0","Windows","10.0","12998","<p ><strong>实验任务一：</strong></p><p>请想象你的国家与另一个国家发生了军事冲突。</p><p>你是国家军队的指挥官，你将如何在冲突中进行决策。</p><p>具体来说，作为军队指挥官，请你决定是否发射导弹进行打击。</p><p>接下来，你会面对一系列场景，请仔细阅读每个场景，然后进行决策。</p><p>这部分实验任务大约需要10分钟。</p><p><strong>实验过程中，请集中注意力。</strong></p>","0",""
"","","","","","html-keyboard-response","4","34522","0.0-4.0-0.0","42","1","2022-11-27 09:47:38","7b1eb8be57ff77859c7d9ac988e43411","183.198.116.238","Mozilla/5.0 (Windows NT 10.0; Win64; x64) AppleWebKit/537.36 (KHTML, like Gecko) Chrome/103.0.0.0 Safari/537.36","WebKit","Chrome","103.0.0.0","Windows","10.0","null","<div style=""font-size:60px;"">+</div>","null",""
"","","","","","html-button-response","5","38067","0.0-4.0-1.0","42","1","2022-11-27 09:47:38","7b1eb8be57ff77859c7d9ac988e43411","183.198.116.238","Mozilla/5.0 (Windows NT 10.0; Win64; x64) AppleWebKit/537.36 (KHTML, like Gecko) Chrome/103.0.0.0 Safari/537.36","WebKit","Chrome","103.0.0.0","Windows","10.0","3543","<p>作为军队的指挥官，你可以选择发射导弹杀死 <strong>8名</strong> 敌国士兵，但会炸毁附近的 <strong>1棵</strong> 敌国树木。</p> <p>树木的照片如下图所示。</p> <p></p> <img src='stimuli/trees/1.png', style='max-width: 30%;'> </img> <p><strong>你是否选择发射武器？</strong></p>","0",""
"","","","","","html-keyboard-response","6","39076","0.0-4.0-0.1","42","1","2022-11-27 09:47:38","7b1eb8be57ff77859c7d9ac988e43411","183.198.116.238","Mozilla/5.0 (Windows NT 10.0; Win64; x64) AppleWebKit/537.36 (KHTML, like Gecko) Chrome/103.0.0.0 Safari/537.36","WebKit","Chrome","103.0.0.0","Windows","10.0","null","<div style=""font-size:60px;"">+</div>","null",""
"","","","","","html-button-response","7","41879","0.0-4.0-1.1","42","1","2022-11-27 09:47:38","7b1eb8be57ff77859c7d9ac988e43411","183.198.116.238","Mozilla/5.0 (Windows NT 10.0; Win64; x64) AppleWebKit/537.36 (KHTML, like Gecko) Chrome/103.0.0.0 Safari/537.36","WebKit","Chrome","103.0.0.0","Windows","10.0","2801","<p>作为军队的指挥官，你可以选择发射导弹杀死 <strong>2名</strong> 敌国士兵，但会误杀附近的 <strong>1名</strong> 敌国平民。</p> <p>平民照片如下图所示。</p> <p></p> <img src='stimuli/faces/PCM7.jpg', style='max-width: 30%;'> </img> <p><strong>你是否选择发射武器？</strong></p>","1",""
"","","","","","html-keyboard-response","8","42894","0.0-4.0-0.2","42","1","2022-11-27 09:47:38","7b1eb8be57ff77859c7d9ac988e43411","183.198.116.238","Mozilla/5.0 (Windows NT 10.0; Win64; x64) AppleWebKit/537.36 (KHTML, like Gecko) Chrome/103.0.0.0 Safari/537.36","WebKit","Chrome","103.0.0.0","Windows","10.0","null","<div style=""font-size:60px;"">+</div>","null",""
"","","","","","html-button-response","9","44657","0.0-4.0-1.2","42","1","2022-11-27 09:47:38","7b1eb8be57ff77859c7d9ac988e43411","183.198.116.238","Mozilla/5.0 (Windows NT 10.0; Win64; x64) AppleWebKit/537.36 (KHTML, like Gecko) Chrome/103.0.0.0 Safari/537.36","WebKit","Chrome","103.0.0.0","Windows","10.0","1761","<p>作为军队的指挥官，你可以选择发射导弹杀死 <strong>9名</strong> 敌国士兵，但会炸毁附近的 <strong>1棵</strong> 敌国树木。</p> <p>树木的照片如下图所示。</p> <p></p> <img src='stimuli/trees/16.png', style='max-width: 30%;'> </img> <p><strong>你是否选择发射武器？</strong></p>","0",""
"","","","","","html-keyboard-response","10","45660","0.0-4.0-0.3","42","1","2022-11-27 09:47:38","7b1eb8be57ff77859c7d9ac988e43411","183.198.116.238","Mozilla/5.0 (Windows NT 10.0; Win64; x64) AppleWebKit/537.36 (KHTML, like Gecko) Chrome/103.0.0.0 Safari/537.36","WebKit","Chrome","103.0.0.0","Windows","10.0","null","<div style=""font-size:60px;"">+</div>","null",""
"","","","","","html-button-response","11","48074","0.0-4.0-1.3","42","1","2022-11-27 09:47:38","7b1eb8be57ff77859c7d9ac988e43411","183.198.116.238","Mozilla/5.0 (Windows NT 10.0; Win64; x64) AppleWebKit/537.36 (KHTML, like Gecko) Chrome/103.0.0.0 Safari/537.36","WebKit","Chrome","103.0.0.0","Windows","10.0","2412","<p>作为军队的指挥官，你可以选择发射导弹杀死 <strong>5名</strong> 敌国士兵，但会误杀附近的 <strong>1名</strong> 敌国平民。</p> <p>平民照片如下图所示。</p> <p></p> <img src='stimuli/faces/PCF7.jpg', style='max-width: 30%;'> </img> <p><strong>你是否选择发射武器？</strong></p>","1",""
"","","","","","html-keyboard-response","12","49083","0.0-4.0-0.4","42","1","2022-11-27 09:47:38","7b1eb8be57ff77859c7d9ac988e43411","183.198.116.238","Mozilla/5.0 (Windows NT 10.0; Win64; x64) AppleWebKit/537.36 (KHTML, like Gecko) Chrome/103.0.0.0 Safari/537.36","WebKit","Chrome","103.0.0.0","Windows","10.0","null","<div style=""font-size:60px;"">+</div>","null",""
"","","","","","html-button-response","13","50816","0.0-4.0-1.4","42","1","2022-11-27 09:47:38","7b1eb8be57ff77859c7d9ac988e43411","183.198.116.238","Mozilla/5.0 (Windows NT 10.0; Win64; x64) AppleWebKit/537.36 (KHTML, like Gecko) Chrome/103.0.0.0 Safari/537.36","WebKit","Chrome","103.0.0.0","Windows","10.0","1731","<p>作为军队的指挥官，你可以选择发射导弹杀死 <strong>3名</strong> 敌国士兵，但会炸毁附近的 <strong>1棵</strong> 敌国树木。</p> <p>树木的照片如下图所示。</p> <p></p> <img src='stimuli/trees/7.png', style='max-width: 30%;'> </img> <p><strong>你是否选择发射武器？</strong></p>","0",""
"","","","","","html-keyboard-response","14","51832","0.0-4.0-0.5","42","1","2022-11-27 09:47:38","7b1eb8be57ff77859c7d9ac988e43411","183.198.116.238","Mozilla/5.0 (Windows NT 10.0; Win64; x64) AppleWebKit/537.36 (KHTML, like Gecko) Chrome/103.0.0.0 Safari/537.36","WebKit","Chrome","103.0.0.0","Windows","10.0","null","<div style=""font-size:60px;"">+</div>","null",""
"","","","","","html-button-response","15","54091","0.0-4.0-1.5","42","1","2022-11-27 09:47:38","7b1eb8be57ff77859c7d9ac988e43411","183.198.116.238","Mozilla/5.0 (Windows NT 10.0; Win64; x64) AppleWebKit/537.36 (KHTML, like Gecko) Chrome/103.0.0.0 Safari/537.36","WebKit","Chrome","103.0.0.0","Windows","10.0","2258","<p>作为军队的指挥官，你可以选择发射导弹杀死 <strong>9名</strong> 敌国士兵，但会误杀附近的 <strong>1名</strong> 敌国平民。</p> <p>平民照片如下图所示。</p> <p></p> <img src='stimuli/faces/PCF5.jpg', style='max-width: 30%;'> </img> <p><strong>你是否选择发射武器？</strong></p>","1",""
"","","","","","html-keyboard-response","16","55105","0.0-4.0-0.6","42","1","2022-11-27 09:47:38","7b1eb8be57ff77859c7d9ac988e43411","183.198.116.238","Mozilla/5.0 (Windows NT 10.0; Win64; x64) AppleWebKit/537.36 (KHTML, like Gecko) Chrome/103.0.0.0 Safari/537.36","WebKit","Chrome","103.0.0.0","Windows","10.0","null","<div style=""font-size:60px;"">+</div>","null",""
"","","","","","html-button-response","17","57390","0.0-4.0-1.6","42","1","2022-11-27 09:47:38","7b1eb8be57ff77859c7d9ac988e43411","183.198.116.238","Mozilla/5.0 (Windows NT 10.0; Win64; x64) AppleWebKit/537.36 (KHTML, like Gecko) Chrome/103.0.0.0 Safari/537.36","WebKit","Chrome","103.0.0.0","Windows","10.0","2283","<p>作为军队的指挥官，你可以选择发射导弹杀死 <strong>7名</strong> 敌国士兵，但会误杀附近的 <strong>1名</strong> 敌国平民。</p> <p>平民照片如下图所示。</p> <p></p> <img src='stimuli/faces/PCM3.jpg', style='max-width: 30%;'> </img> <p><strong>你是否选择发射武器？</strong></p>","0",""
"","","","","","html-keyboard-response","18","58391","0.0-4.0-0.7","42","1","2022-11-27 09:47:38","7b1eb8be57ff77859c7d9ac988e43411","183.198.116.238","Mozilla/5.0 (Windows NT 10.0; Win64; x64) AppleWebKit/537.36 (KHTML, like Gecko) Chrome/103.0.0.0 Safari/537.36","WebKit","Chrome","103.0.0.0","Windows","10.0","null","<div style=""font-size:60px;"">+</div>","null",""
"","","","","","html-button-response","19","60690","0.0-4.0-1.7","42","1","2022-11-27 09:47:38","7b1eb8be57ff77859c7d9ac988e43411","183.198.116.238","Mozilla/5.0 (Windows NT 10.0; Win64; x64) AppleWebKit/537.36 (KHTML, like Gecko) Chrome/103.0.0.0 Safari/537.36","WebKit","Chrome","103.0.0.0","Windows","10.0","2298","<p>作为军队的指挥官，你可以选择发射导弹杀死 <strong>1名</strong> 敌国士兵，但会炸毁附近的 <strong>1棵</strong> 敌国树木。</p> <p>树木的照片如下图所示。</p> <p></p> <img src='stimuli/trees/13.png', style='max-width: 30%;'> </img> <p><strong>你是否选择发射武器？</strong></p>","1",""
"","","","","","html-keyboard-response","20","61691","0.0-4.0-0.8","42","1","2022-11-27 09:47:38","7b1eb8be57ff77859c7d9ac988e43411","183.198.116.238","Mozilla/5.0 (Windows NT 10.0; Win64; x64) AppleWebKit/537.36 (KHTML, like Gecko) Chrome/103.0.0.0 Safari/537.36","WebKit","Chrome","103.0.0.0","Windows","10.0","null","<div style=""font-size:60px;"">+</div>","null",""
"","","","","","html-button-response","21","62982","0.0-4.0-1.8","42","1","2022-11-27 09:47:38","7b1eb8be57ff77859c7d9ac988e43411","183.198.116.238","Mozilla/5.0 (Windows NT 10.0; Win64; x64) AppleWebKit/537.36 (KHTML, like Gecko) Chrome/103.0.0.0 Safari/537.36","WebKit","Chrome","103.0.0.0","Windows","10.0","1288","<p>作为军队的指挥官，你可以选择发射导弹杀死 <strong>9名</strong> 敌国士兵，但会炸毁附近的 <strong>1棵</strong> 敌国树木。</p> <p>树木的照片如下图所示。</p> <p></p> <img src='stimuli/trees/13.png', style='max-width: 30%;'> </img> <p><strong>你是否选择发射武器？</strong></p>","0",""
"","","","","","html-keyboard-response","22","63989","0.0-4.0-0.9","42","1","2022-11-27 09:47:38","7b1eb8be57ff77859c7d9ac988e43411","183.198.116.238","Mozilla/5.0 (Windows NT 10.0; Win64; x64) AppleWebKit/537.36 (KHTML, like Gecko) Chrome/103.0.0.0 Safari/537.36","WebKit","Chrome","103.0.0.0","Windows","10.0","null","<div style=""font-size:60px;"">+</div>","null",""
"","","","","","html-button-response","23","65604","0.0-4.0-1.9","42","1","2022-11-27 09:47:38","7b1eb8be57ff77859c7d9ac988e43411","183.198.116.238","Mozilla/5.0 (Windows NT 10.0; Win64; x64) AppleWebKit/537.36 (KHTML, like Gecko) Chrome/103.0.0.0 Safari/537.36","WebKit","Chrome","103.0.0.0","Windows","10.0","1614","<p>作为军队的指挥官，你可以选择发射导弹杀死 <strong>2名</strong> 敌国士兵，但会炸毁附近的 <strong>1棵</strong> 敌国树木。</p> <p>树木的照片如下图所示。</p> <p></p> <img src='stimuli/trees/3.png', style='max-width: 30%;'> </img> <p><strong>你是否选择发射武器？</strong></p>","0",""
"","","","","","html-keyboard-response","24","66616","0.0-4.0-0.10","42","1","2022-11-27 09:47:38","7b1eb8be57ff77859c7d9ac988e43411","183.198.116.238","Mozilla/5.0 (Windows NT 10.0; Win64; x64) AppleWebKit/537.36 (KHTML, like Gecko) Chrome/103.0.0.0 Safari/537.36","WebKit","Chrome","103.0.0.0","Windows","10.0","null","<div style=""font-size:60px;"">+</div>","null",""
"","","","","","html-button-response","25","70302","0.0-4.0-1.10","42","1","2022-11-27 09:47:38","7b1eb8be57ff77859c7d9ac988e43411","183.198.116.238","Mozilla/5.0 (Windows NT 10.0; Win64; x64) AppleWebKit/537.36 (KHTML, like Gecko) Chrome/103.0.0.0 Safari/537.36","WebKit","Chrome","103.0.0.0","Windows","10.0","3684","<p>作为军队的指挥官，你可以选择发射导弹杀死 <strong>8名</strong> 敌国士兵，但会误杀附近的 <strong>1名</strong> 敌国平民。</p> <p>平民照片如下图所示。</p> <p></p> <img src='stimuli/faces/PCF1.jpg', style='max-width: 30%;'> </img> <p><strong>你是否选择发射武器？</strong></p>","1",""
"","","","","","html-keyboard-response","26","71309","0.0-4.0-0.11","42","1","2022-11-27 09:47:38","7b1eb8be57ff77859c7d9ac988e43411","183.198.116.238","Mozilla/5.0 (Windows NT 10.0; Win64; x64) AppleWebKit/537.36 (KHTML, like Gecko) Chrome/103.0.0.0 Safari/537.36","WebKit","Chrome","103.0.0.0","Windows","10.0","null","<div style=""font-size:60px;"">+</div>","null",""
"","","","","","html-button-response","27","72702","0.0-4.0-1.11","42","1","2022-11-27 09:47:38","7b1eb8be57ff77859c7d9ac988e43411","183.198.116.238","Mozilla/5.0 (Windows NT 10.0; Win64; x64) AppleWebKit/537.36 (KHTML, like Gecko) Chrome/103.0.0.0 Safari/537.36","WebKit","Chrome","103.0.0.0","Windows","10.0","1391","<p>作为军队的指挥官，你可以选择发射导弹杀死 <strong>1名</strong> 敌国士兵，但会炸毁附近的 <strong>1棵</strong> 敌国树木。</p> <p>树木的照片如下图所示。</p> <p></p> <img src='stimuli/trees/9.png', style='max-width: 30%;'> </img> <p><strong>你是否选择发射武器？</strong></p>","0",""
"","","","","","html-keyboard-response","28","73714","0.0-4.0-0.12","42","1","2022-11-27 09:47:38","7b1eb8be57ff77859c7d9ac988e43411","183.198.116.238","Mozilla/5.0 (Windows NT 10.0; Win64; x64) AppleWebKit/537.36 (KHTML, like Gecko) Chrome/103.0.0.0 Safari/537.36","WebKit","Chrome","103.0.0.0","Windows","10.0","null","<div style=""font-size:60px;"">+</div>","null",""
"","","","","","html-button-response","29","74938","0.0-4.0-1.12","42","1","2022-11-27 09:47:38","7b1eb8be57ff77859c7d9ac988e43411","183.198.116.238","Mozilla/5.0 (Windows NT 10.0; Win64; x64) AppleWebKit/537.36 (KHTML, like Gecko) Chrome/103.0.0.0 Safari/537.36","WebKit","Chrome","103.0.0.0","Windows","10.0","1223","<p>作为军队的指挥官，你可以选择发射导弹杀死 <strong>9名</strong> 敌国士兵，但会误杀附近的 <strong>1名</strong> 敌国平民。</p> <p>平民照片如下图所示。</p> <p></p> <img src='stimuli/faces/PCF8.jpg', style='max-width: 30%;'> </img> <p><strong>你是否选择发射武器？</strong></p>","0",""
"","","","","","html-keyboard-response","30","75947","0.0-4.0-0.13","42","1","2022-11-27 09:47:38","7b1eb8be57ff77859c7d9ac988e43411","183.198.116.238","Mozilla/5.0 (Windows NT 10.0; Win64; x64) AppleWebKit/537.36 (KHTML, like Gecko) Chrome/103.0.0.0 Safari/537.36","WebKit","Chrome","103.0.0.0","Windows","10.0","null","<div style=""font-size:60px;"">+</div>","null",""
"","","","","","html-button-response","31","77588","0.0-4.0-1.13","42","1","2022-11-27 09:47:38","7b1eb8be57ff77859c7d9ac988e43411","183.198.116.238","Mozilla/5.0 (Windows NT 10.0; Win64; x64) AppleWebKit/537.36 (KHTML, like Gecko) Chrome/103.0.0.0 Safari/537.36","WebKit","Chrome","103.0.0.0","Windows","10.0","1639","<p>作为军队的指挥官，你可以选择发射导弹杀死 <strong>9名</strong> 敌国士兵，但会炸毁附近的 <strong>1棵</strong> 敌国树木。</p> <p>树木的照片如下图所示。</p> <p></p> <img src='stimuli/trees/3.png', style='max-width: 30%;'> </img> <p><strong>你是否选择发射武器？</strong></p>","0",""
"","","","","","html-keyboard-response","32","78594","0.0-4.0-0.14","42","1","2022-11-27 09:47:38","7b1eb8be57ff77859c7d9ac988e43411","183.198.116.238","Mozilla/5.0 (Windows NT 10.0; Win64; x64) AppleWebKit/537.36 (KHTML, like Gecko) Chrome/103.0.0.0 Safari/537.36","WebKit","Chrome","103.0.0.0","Windows","10.0","null","<div style=""font-size:60px;"">+</div>","null",""
"","","","","","html-button-response","33","81160","0.0-4.0-1.14","42","1","2022-11-27 09:47:38","7b1eb8be57ff77859c7d9ac988e43411","183.198.116.238","Mozilla/5.0 (Windows NT 10.0; Win64; x64) AppleWebKit/537.36 (KHTML, like Gecko) Chrome/103.0.0.0 Safari/537.36","WebKit","Chrome","103.0.0.0","Windows","10.0","2564","<p>作为军队的指挥官，你可以选择发射导弹杀死 <strong>10名</strong> 敌国士兵，但会误杀附近的 <strong>1名</strong> 敌国平民。</p> <p>平民照片如下图所示。</p> <p></p> <img src='stimuli/faces/PCM1.jpg', style='max-width: 30%;'> </img> <p><strong>你是否选择发射武器？</strong></p>","0",""
"","","","","","html-keyboard-response","34","82174","0.0-4.0-0.15","42","1","2022-11-27 09:47:38","7b1eb8be57ff77859c7d9ac988e43411","183.198.116.238","Mozilla/5.0 (Windows NT 10.0; Win64; x64) AppleWebKit/537.36 (KHTML, like Gecko) Chrome/103.0.0.0 Safari/537.36","WebKit","Chrome","103.0.0.0","Windows","10.0","null","<div style=""font-size:60px;"">+</div>","null",""
"","","","","","html-button-response","35","83599","0.0-4.0-1.15","42","1","2022-11-27 09:47:38","7b1eb8be57ff77859c7d9ac988e43411","183.198.116.238","Mozilla/5.0 (Windows NT 10.0; Win64; x64) AppleWebKit/537.36 (KHTML, like Gecko) Chrome/103.0.0.0 Safari/537.36","WebKit","Chrome","103.0.0.0","Windows","10.0","1423","<p>作为军队的指挥官，你可以选择发射导弹杀死 <strong>2名</strong> 敌国士兵，但会误杀附近的 <strong>1名</strong> 敌国平民。</p> <p>平民照片如下图所示。</p> <p></p> <img src='stimuli/faces/PCM8.jpg', style='max-width: 30%;'> </img> <p><strong>你是否选择发射武器？</strong></p>","1",""
"","","","","","html-keyboard-response","36","84613","0.0-4.0-0.16","42","1","2022-11-27 09:47:38","7b1eb8be57ff77859c7d9ac988e43411","183.198.116.238","Mozilla/5.0 (Windows NT 10.0; Win64; x64) AppleWebKit/537.36 (KHTML, like Gecko) Chrome/103.0.0.0 Safari/537.36","WebKit","Chrome","103.0.0.0","Windows","10.0","null","<div style=""font-size:60px;"">+</div>","null",""
"","","","","","html-button-response","37","86442","0.0-4.0-1.16","42","1","2022-11-27 09:47:38","7b1eb8be57ff77859c7d9ac988e43411","183.198.116.238","Mozilla/5.0 (Windows NT 10.0; Win64; x64) AppleWebKit/537.36 (KHTML, like Gecko) Chrome/103.0.0.0 Safari/537.36","WebKit","Chrome","103.0.0.0","Windows","10.0","1827","<p>作为军队的指挥官，你可以选择发射导弹杀死 <strong>8名</strong> 敌国士兵，但会炸毁附近的 <strong>1棵</strong> 敌国树木。</p> <p>树木的照片如下图所示。</p> <p></p> <img src='stimuli/trees/2.png', style='max-width: 30%;'> </img> <p><strong>你是否选择发射武器？</strong></p>","0",""
"","","","","","html-keyboard-response","38","87454","0.0-4.0-0.17","42","1","2022-11-27 09:47:38","7b1eb8be57ff77859c7d9ac988e43411","183.198.116.238","Mozilla/5.0 (Windows NT 10.0; Win64; x64) AppleWebKit/537.36 (KHTML, like Gecko) Chrome/103.0.0.0 Safari/537.36","WebKit","Chrome","103.0.0.0","Windows","10.0","null","<div style=""font-size:60px;"">+</div>","null",""
"","","","","","html-button-response","39","88402","0.0-4.0-1.17","42","1","2022-11-27 09:47:38","7b1eb8be57ff77859c7d9ac988e43411","183.198.116.238","Mozilla/5.0 (Windows NT 10.0; Win64; x64) AppleWebKit/537.36 (KHTML, like Gecko) Chrome/103.0.0.0 Safari/537.36","WebKit","Chrome","103.0.0.0","Windows","10.0","945","<p>作为军队的指挥官，你可以选择发射导弹杀死 <strong>4名</strong> 敌国士兵，但会炸毁附近的 <strong>1棵</strong> 敌国树木。</p> <p>树木的照片如下图所示。</p> <p></p> <img src='stimuli/trees/4.png', style='max-width: 30%;'> </img> <p><strong>你是否选择发射武器？</strong></p>","0",""
"","","","","","html-keyboard-response","40","89417","0.0-4.0-0.18","42","1","2022-11-27 09:47:38","7b1eb8be57ff77859c7d9ac988e43411","183.198.116.238","Mozilla/5.0 (Windows NT 10.0; Win64; x64) AppleWebKit/537.36 (KHTML, like Gecko) Chrome/103.0.0.0 Safari/537.36","WebKit","Chrome","103.0.0.0","Windows","10.0","null","<div style=""font-size:60px;"">+</div>","null",""
"","","","","","html-button-response","41","91400","0.0-4.0-1.18","42","1","2022-11-27 09:47:38","7b1eb8be57ff77859c7d9ac988e43411","183.198.116.238","Mozilla/5.0 (Windows NT 10.0; Win64; x64) AppleWebKit/537.36 (KHTML, like Gecko) Chrome/103.0.0.0 Safari/537.36","WebKit","Chrome","103.0.0.0","Windows","10.0","1981","<p>作为军队的指挥官，你可以选择发射导弹杀死 <strong>4名</strong> 敌国士兵，但会误杀附近的 <strong>1名</strong> 敌国平民。</p> <p>平民照片如下图所示。</p> <p></p> <img src='stimuli/faces/PCM3.jpg', style='max-width: 30%;'> </img> <p><strong>你是否选择发射武器？</strong></p>","0",""
"","","","","","html-keyboard-response","42","92417","0.0-4.0-0.19","42","1","2022-11-27 09:47:38","7b1eb8be57ff77859c7d9ac988e43411","183.198.116.238","Mozilla/5.0 (Windows NT 10.0; Win64; x64) AppleWebKit/537.36 (KHTML, like Gecko) Chrome/103.0.0.0 Safari/537.36","WebKit","Chrome","103.0.0.0","Windows","10.0","null","<div style=""font-size:60px;"">+</div>","null",""
"","","","","","html-button-response","43","97866","0.0-4.0-1.19","42","1","2022-11-27 09:47:38","7b1eb8be57ff77859c7d9ac988e43411","183.198.116.238","Mozilla/5.0 (Windows NT 10.0; Win64; x64) AppleWebKit/537.36 (KHTML, like Gecko) Chrome/103.0.0.0 Safari/537.36","WebKit","Chrome","103.0.0.0","Windows","10.0","5448","<p>作为军队的指挥官，你可以选择发射导弹杀死 <strong>8名</strong> 敌国士兵，但会炸毁附近的 <strong>1棵</strong> 敌国树木。</p> <p>树木的照片如下图所示。</p> <p></p> <img src='stimuli/trees/5.png', style='max-width: 30%;'> </img> <p><strong>你是否选择发射武器？</strong></p>","0",""
"","","","","","html-keyboard-response","44","98868","0.0-4.0-0.20","42","1","2022-11-27 09:47:38","7b1eb8be57ff77859c7d9ac988e43411","183.198.116.238","Mozilla/5.0 (Windows NT 10.0; Win64; x64) AppleWebKit/537.36 (KHTML, like Gecko) Chrome/103.0.0.0 Safari/537.36","WebKit","Chrome","103.0.0.0","Windows","10.0","null","<div style=""font-size:60px;"">+</div>","null",""
"","","","","","html-button-response","45","100466","0.0-4.0-1.20","42","1","2022-11-27 09:47:38","7b1eb8be57ff77859c7d9ac988e43411","183.198.116.238","Mozilla/5.0 (Windows NT 10.0; Win64; x64) AppleWebKit/537.36 (KHTML, like Gecko) Chrome/103.0.0.0 Safari/537.36","WebKit","Chrome","103.0.0.0","Windows","10.0","1595","<p>作为军队的指挥官，你可以选择发射导弹杀死 <strong>2名</strong> 敌国士兵，但会炸毁附近的 <strong>1棵</strong> 敌国树木。</p> <p>树木的照片如下图所示。</p> <p></p> <img src='stimuli/trees/16.png', style='max-width: 30%;'> </img> <p><strong>你是否选择发射武器？</strong></p>","0",""
"","","","","","html-keyboard-response","46","101476","0.0-4.0-0.21","42","1","2022-11-27 09:47:38","7b1eb8be57ff77859c7d9ac988e43411","183.198.116.238","Mozilla/5.0 (Windows NT 10.0; Win64; x64) AppleWebKit/537.36 (KHTML, like Gecko) Chrome/103.0.0.0 Safari/537.36","WebKit","Chrome","103.0.0.0","Windows","10.0","null","<div style=""font-size:60px;"">+</div>","null",""
"","","","","","html-button-response","47","103652","0.0-4.0-1.21","42","1","2022-11-27 09:47:38","7b1eb8be57ff77859c7d9ac988e43411","183.198.116.238","Mozilla/5.0 (Windows NT 10.0; Win64; x64) AppleWebKit/537.36 (KHTML, like Gecko) Chrome/103.0.0.0 Safari/537.36","WebKit","Chrome","103.0.0.0","Windows","10.0","2174","<p>作为军队的指挥官，你可以选择发射导弹杀死 <strong>9名</strong> 敌国士兵，但会误杀附近的 <strong>1名</strong> 敌国平民。</p> <p>平民照片如下图所示。</p> <p></p> <img src='stimuli/faces/PCM5.jpg', style='max-width: 30%;'> </img> <p><strong>你是否选择发射武器？</strong></p>","0",""
"","","","","","html-keyboard-response","48","104655","0.0-4.0-0.22","42","1","2022-11-27 09:47:38","7b1eb8be57ff77859c7d9ac988e43411","183.198.116.238","Mozilla/5.0 (Windows NT 10.0; Win64; x64) AppleWebKit/537.36 (KHTML, like Gecko) Chrome/103.0.0.0 Safari/537.36","WebKit","Chrome","103.0.0.0","Windows","10.0","null","<div style=""font-size:60px;"">+</div>","null",""
"","","","","","html-button-response","49","106012","0.0-4.0-1.22","42","1","2022-11-27 09:47:38","7b1eb8be57ff77859c7d9ac988e43411","183.198.116.238","Mozilla/5.0 (Windows NT 10.0; Win64; x64) AppleWebKit/537.36 (KHTML, like Gecko) Chrome/103.0.0.0 Safari/537.36","WebKit","Chrome","103.0.0.0","Windows","10.0","1355","<p>作为军队的指挥官，你可以选择发射导弹杀死 <strong>1名</strong> 敌国士兵，但会炸毁附近的 <strong>1棵</strong> 敌国树木。</p> <p>树木的照片如下图所示。</p> <p></p> <img src='stimuli/trees/10.png', style='max-width: 30%;'> </img> <p><strong>你是否选择发射武器？</strong></p>","1",""
"","","","","","html-keyboard-response","50","107028","0.0-4.0-0.23","42","1","2022-11-27 09:47:38","7b1eb8be57ff77859c7d9ac988e43411","183.198.116.238","Mozilla/5.0 (Windows NT 10.0; Win64; x64) AppleWebKit/537.36 (KHTML, like Gecko) Chrome/103.0.0.0 Safari/537.36","WebKit","Chrome","103.0.0.0","Windows","10.0","null","<div style=""font-size:60px;"">+</div>","null",""
"","","","","","html-button-response","51","108929","0.0-4.0-1.23","42","1","2022-11-27 09:47:38","7b1eb8be57ff77859c7d9ac988e43411","183.198.116.238","Mozilla/5.0 (Windows NT 10.0; Win64; x64) AppleWebKit/537.36 (KHTML, like Gecko) Chrome/103.0.0.0 Safari/537.36","WebKit","Chrome","103.0.0.0","Windows","10.0","1898","<p>作为军队的指挥官，你可以选择发射导弹杀死 <strong>7名</strong> 敌国士兵，但会误杀附近的 <strong>1名</strong> 敌国平民。</p> <p>平民照片如下图所示。</p> <p></p> <img src='stimuli/faces/PCF3.jpg', style='max-width: 30%;'> </img> <p><strong>你是否选择发射武器？</strong></p>","1",""
"","","","","","html-keyboard-response","52","109937","0.0-4.0-0.24","42","1","2022-11-27 09:47:38","7b1eb8be57ff77859c7d9ac988e43411","183.198.116.238","Mozilla/5.0 (Windows NT 10.0; Win64; x64) AppleWebKit/537.36 (KHTML, like Gecko) Chrome/103.0.0.0 Safari/537.36","WebKit","Chrome","103.0.0.0","Windows","10.0","null","<div style=""font-size:60px;"">+</div>","null",""
"","","","","","html-button-response","53","111758","0.0-4.0-1.24","42","1","2022-11-27 09:47:38","7b1eb8be57ff77859c7d9ac988e43411","183.198.116.238","Mozilla/5.0 (Windows NT 10.0; Win64; x64) AppleWebKit/537.36 (KHTML, like Gecko) Chrome/103.0.0.0 Safari/537.36","WebKit","Chrome","103.0.0.0","Windows","10.0","1818","<p>作为军队的指挥官，你可以选择发射导弹杀死 <strong>2名</strong> 敌国士兵，但会误杀附近的 <strong>1名</strong> 敌国平民。</p> <p>平民照片如下图所示。</p> <p></p> <img src='stimuli/faces/PCF2.jpg', style='max-width: 30%;'> </img> <p><strong>你是否选择发射武器？</strong></p>","1",""
"","","","","","html-keyboard-response","54","112761","0.0-4.0-0.25","42","1","2022-11-27 09:47:38","7b1eb8be57ff77859c7d9ac988e43411","183.198.116.238","Mozilla/5.0 (Windows NT 10.0; Win64; x64) AppleWebKit/537.36 (KHTML, like Gecko) Chrome/103.0.0.0 Safari/537.36","WebKit","Chrome","103.0.0.0","Windows","10.0","null","<div style=""font-size:60px;"">+</div>","null",""
"","","","","","html-button-response","55","114378","0.0-4.0-1.25","42","1","2022-11-27 09:47:38","7b1eb8be57ff77859c7d9ac988e43411","183.198.116.238","Mozilla/5.0 (Windows NT 10.0; Win64; x64) AppleWebKit/537.36 (KHTML, like Gecko) Chrome/103.0.0.0 Safari/537.36","WebKit","Chrome","103.0.0.0","Windows","10.0","1615","<p>作为军队的指挥官，你可以选择发射导弹杀死 <strong>3名</strong> 敌国士兵，但会炸毁附近的 <strong>1棵</strong> 敌国树木。</p> <p>树木的照片如下图所示。</p> <p></p> <img src='stimuli/trees/11.png', style='max-width: 30%;'> </img> <p><strong>你是否选择发射武器？</strong></p>","1",""
"","","","","","html-keyboard-response","56","115381","0.0-4.0-0.26","42","1","2022-11-27 09:47:38","7b1eb8be57ff77859c7d9ac988e43411","183.198.116.238","Mozilla/5.0 (Windows NT 10.0; Win64; x64) AppleWebKit/537.36 (KHTML, like Gecko) Chrome/103.0.0.0 Safari/537.36","WebKit","Chrome","103.0.0.0","Windows","10.0","null","<div style=""font-size:60px;"">+</div>","null",""
"","","","","","html-button-response","57","116844","0.0-4.0-1.26","42","1","2022-11-27 09:47:38","7b1eb8be57ff77859c7d9ac988e43411","183.198.116.238","Mozilla/5.0 (Windows NT 10.0; Win64; x64) AppleWebKit/537.36 (KHTML, like Gecko) Chrome/103.0.0.0 Safari/537.36","WebKit","Chrome","103.0.0.0","Windows","10.0","1460","<p>作为军队的指挥官，你可以选择发射导弹杀死 <strong>9名</strong> 敌国士兵，但会炸毁附近的 <strong>1棵</strong> 敌国树木。</p> <p>树木的照片如下图所示。</p> <p></p> <img src='stimuli/trees/15.png', style='max-width: 30%;'> </img> <p><strong>你是否选择发射武器？</strong></p>","0",""
"","","","","","html-keyboard-response","58","117847","0.0-4.0-0.27","42","1","2022-11-27 09:47:38","7b1eb8be57ff77859c7d9ac988e43411","183.198.116.238","Mozilla/5.0 (Windows NT 10.0; Win64; x64) AppleWebKit/537.36 (KHTML, like Gecko) Chrome/103.0.0.0 Safari/537.36","WebKit","Chrome","103.0.0.0","Windows","10.0","null","<div style=""font-size:60px;"">+</div>","null",""
"","","","","","html-button-response","59","118888","0.0-4.0-1.27","42","1","2022-11-27 09:47:38","7b1eb8be57ff77859c7d9ac988e43411","183.198.116.238","Mozilla/5.0 (Windows NT 10.0; Win64; x64) AppleWebKit/537.36 (KHTML, like Gecko) Chrome/103.0.0.0 Safari/537.36","WebKit","Chrome","103.0.0.0","Windows","10.0","1038","<p>作为军队的指挥官，你可以选择发射导弹杀死 <strong>10名</strong> 敌国士兵，但会误杀附近的 <strong>1名</strong> 敌国平民。</p> <p>平民照片如下图所示。</p> <p></p> <img src='stimuli/faces/PCM7.jpg', style='max-width: 30%;'> </img> <p><strong>你是否选择发射武器？</strong></p>","0",""
"","","","","","html-keyboard-response","60","119894","0.0-4.0-0.28","42","1","2022-11-27 09:47:38","7b1eb8be57ff77859c7d9ac988e43411","183.198.116.238","Mozilla/5.0 (Windows NT 10.0; Win64; x64) AppleWebKit/537.36 (KHTML, like Gecko) Chrome/103.0.0.0 Safari/537.36","WebKit","Chrome","103.0.0.0","Windows","10.0","null","<div style=""font-size:60px;"">+</div>","null",""
"","","","","","html-button-response","61","121192","0.0-4.0-1.28","42","1","2022-11-27 09:47:38","7b1eb8be57ff77859c7d9ac988e43411","183.198.116.238","Mozilla/5.0 (Windows NT 10.0; Win64; x64) AppleWebKit/537.36 (KHTML, like Gecko) Chrome/103.0.0.0 Safari/537.36","WebKit","Chrome","103.0.0.0","Windows","10.0","1295","<p>作为军队的指挥官，你可以选择发射导弹杀死 <strong>4名</strong> 敌国士兵，但会炸毁附近的 <strong>1棵</strong> 敌国树木。</p> <p>树木的照片如下图所示。</p> <p></p> <img src='stimuli/trees/5.png', style='max-width: 30%;'> </img> <p><strong>你是否选择发射武器？</strong></p>","0",""
"","","","","","html-keyboard-response","62","122209","0.0-4.0-0.29","42","1","2022-11-27 09:47:38","7b1eb8be57ff77859c7d9ac988e43411","183.198.116.238","Mozilla/5.0 (Windows NT 10.0; Win64; x64) AppleWebKit/537.36 (KHTML, like Gecko) Chrome/103.0.0.0 Safari/537.36","WebKit","Chrome","103.0.0.0","Windows","10.0","null","<div style=""font-size:60px;"">+</div>","null",""
"","","","","","html-button-response","63","125014","0.0-4.0-1.29","42","1","2022-11-27 09:47:38","7b1eb8be57ff77859c7d9ac988e43411","183.198.116.238","Mozilla/5.0 (Windows NT 10.0; Win64; x64) AppleWebKit/537.36 (KHTML, like Gecko) Chrome/103.0.0.0 Safari/537.36","WebKit","Chrome","103.0.0.0","Windows","10.0","2803","<p>作为军队的指挥官，你可以选择发射导弹杀死 <strong>6名</strong> 敌国士兵，但会误杀附近的 <strong>1名</strong> 敌国平民。</p> <p>平民照片如下图所示。</p> <p></p> <img src='stimuli/faces/PCM8.jpg', style='max-width: 30%;'> </img> <p><strong>你是否选择发射武器？</strong></p>","1",""
"","","","","","html-keyboard-response","64","126030","0.0-4.0-0.30","42","1","2022-11-27 09:47:38","7b1eb8be57ff77859c7d9ac988e43411","183.198.116.238","Mozilla/5.0 (Windows NT 10.0; Win64; x64) AppleWebKit/537.36 (KHTML, like Gecko) Chrome/103.0.0.0 Safari/537.36","WebKit","Chrome","103.0.0.0","Windows","10.0","null","<div style=""font-size:60px;"">+</div>","null",""
"","","","","","html-button-response","65","126830","0.0-4.0-1.30","42","1","2022-11-27 09:47:38","7b1eb8be57ff77859c7d9ac988e43411","183.198.116.238","Mozilla/5.0 (Windows NT 10.0; Win64; x64) AppleWebKit/537.36 (KHTML, like Gecko) Chrome/103.0.0.0 Safari/537.36","WebKit","Chrome","103.0.0.0","Windows","10.0","797","<p>作为军队的指挥官，你可以选择发射导弹杀死 <strong>10名</strong> 敌国士兵，但会炸毁附近的 <strong>1棵</strong> 敌国树木。</p> <p>树木的照片如下图所示。</p> <p></p> <img src='stimuli/trees/12.png', style='max-width: 30%;'> </img> <p><strong>你是否选择发射武器？</strong></p>","0",""
"","","","","","html-keyboard-response","66","127840","0.0-4.0-0.31","42","1","2022-11-27 09:47:38","7b1eb8be57ff77859c7d9ac988e43411","183.198.116.238","Mozilla/5.0 (Windows NT 10.0; Win64; x64) AppleWebKit/537.36 (KHTML, like Gecko) Chrome/103.0.0.0 Safari/537.36","WebKit","Chrome","103.0.0.0","Windows","10.0","null","<div style=""font-size:60px;"">+</div>","null",""
"","","","","","html-button-response","67","129310","0.0-4.0-1.31","42","1","2022-11-27 09:47:38","7b1eb8be57ff77859c7d9ac988e43411","183.198.116.238","Mozilla/5.0 (Windows NT 10.0; Win64; x64) AppleWebKit/537.36 (KHTML, like Gecko) Chrome/103.0.0.0 Safari/537.36","WebKit","Chrome","103.0.0.0","Windows","10.0","1468","<p>作为军队的指挥官，你可以选择发射导弹杀死 <strong>5名</strong> 敌国士兵，但会误杀附近的 <strong>1名</strong> 敌国平民。</p> <p>平民照片如下图所示。</p> <p></p> <img src='stimuli/faces/PCF5.jpg', style='max-width: 30%;'> </img> <p><strong>你是否选择发射武器？</strong></p>","0",""
"","","","","","html-keyboard-response","68","130320","0.0-4.0-0.32","42","1","2022-11-27 09:47:38","7b1eb8be57ff77859c7d9ac988e43411","183.198.116.238","Mozilla/5.0 (Windows NT 10.0; Win64; x64) AppleWebKit/537.36 (KHTML, like Gecko) Chrome/103.0.0.0 Safari/537.36","WebKit","Chrome","103.0.0.0","Windows","10.0","null","<div style=""font-size:60px;"">+</div>","null",""
"","","","","","html-button-response","69","132200","0.0-4.0-1.32","42","1","2022-11-27 09:47:38","7b1eb8be57ff77859c7d9ac988e43411","183.198.116.238","Mozilla/5.0 (Windows NT 10.0; Win64; x64) AppleWebKit/537.36 (KHTML, like Gecko) Chrome/103.0.0.0 Safari/537.36","WebKit","Chrome","103.0.0.0","Windows","10.0","1878","<p>作为军队的指挥官，你可以选择发射导弹杀死 <strong>8名</strong> 敌国士兵，但会误杀附近的 <strong>1名</strong> 敌国平民。</p> <p>平民照片如下图所示。</p> <p></p> <img src='stimuli/faces/PCM4.jpg', style='max-width: 30%;'> </img> <p><strong>你是否选择发射武器？</strong></p>","0",""
"","","","","","html-keyboard-response","70","133206","0.0-4.0-0.33","42","1","2022-11-27 09:47:38","7b1eb8be57ff77859c7d9ac988e43411","183.198.116.238","Mozilla/5.0 (Windows NT 10.0; Win64; x64) AppleWebKit/537.36 (KHTML, like Gecko) Chrome/103.0.0.0 Safari/537.36","WebKit","Chrome","103.0.0.0","Windows","10.0","null","<div style=""font-size:60px;"">+</div>","null",""
"","","","","","html-button-response","71","140327","0.0-4.0-1.33","42","1","2022-11-27 09:47:38","7b1eb8be57ff77859c7d9ac988e43411","183.198.116.238","Mozilla/5.0 (Windows NT 10.0; Win64; x64) AppleWebKit/537.36 (KHTML, like Gecko) Chrome/103.0.0.0 Safari/537.36","WebKit","Chrome","103.0.0.0","Windows","10.0","7118","<p>作为军队的指挥官，你可以选择发射导弹杀死 <strong>6名</strong> 敌国士兵，但会误杀附近的 <strong>1名</strong> 敌国平民。</p> <p>平民照片如下图所示。</p> <p></p> <img src='stimuli/faces/PCF7.jpg', style='max-width: 30%;'> </img> <p><strong>你是否选择发射武器？</strong></p>","1",""
"","","","","","html-keyboard-response","72","141343","0.0-4.0-0.34","42","1","2022-11-27 09:47:38","7b1eb8be57ff77859c7d9ac988e43411","183.198.116.238","Mozilla/5.0 (Windows NT 10.0; Win64; x64) AppleWebKit/537.36 (KHTML, like Gecko) Chrome/103.0.0.0 Safari/537.36","WebKit","Chrome","103.0.0.0","Windows","10.0","null","<div style=""font-size:60px;"">+</div>","null",""
"","","","","","html-button-response","73","142419","0.0-4.0-1.34","42","1","2022-11-27 09:47:38","7b1eb8be57ff77859c7d9ac988e43411","183.198.116.238","Mozilla/5.0 (Windows NT 10.0; Win64; x64) AppleWebKit/537.36 (KHTML, like Gecko) Chrome/103.0.0.0 Safari/537.36","WebKit","Chrome","103.0.0.0","Windows","10.0","1073","<p>作为军队的指挥官，你可以选择发射导弹杀死 <strong>1名</strong> 敌国士兵，但会炸毁附近的 <strong>1棵</strong> 敌国树木。</p> <p>树木的照片如下图所示。</p> <p></p> <img src='stimuli/trees/12.png', style='max-width: 30%;'> </img> <p><strong>你是否选择发射武器？</strong></p>","0",""
"","","","","","html-keyboard-response","74","143425","0.0-4.0-0.35","42","1","2022-11-27 09:47:38","7b1eb8be57ff77859c7d9ac988e43411","183.198.116.238","Mozilla/5.0 (Windows NT 10.0; Win64; x64) AppleWebKit/537.36 (KHTML, like Gecko) Chrome/103.0.0.0 Safari/537.36","WebKit","Chrome","103.0.0.0","Windows","10.0","null","<div style=""font-size:60px;"">+</div>","null",""
"","","","","","html-button-response","75","144492","0.0-4.0-1.35","42","1","2022-11-27 09:47:38","7b1eb8be57ff77859c7d9ac988e43411","183.198.116.238","Mozilla/5.0 (Windows NT 10.0; Win64; x64) AppleWebKit/537.36 (KHTML, like Gecko) Chrome/103.0.0.0 Safari/537.36","WebKit","Chrome","103.0.0.0","Windows","10.0","1065","<p>作为军队的指挥官，你可以选择发射导弹杀死 <strong>8名</strong> 敌国士兵，但会炸毁附近的 <strong>1棵</strong> 敌国树木。</p> <p>树木的照片如下图所示。</p> <p></p> <img src='stimuli/trees/9.png', style='max-width: 30%;'> </img> <p><strong>你是否选择发射武器？</strong></p>","0",""
"","","","","","html-keyboard-response","76","145500","0.0-4.0-0.36","42","1","2022-11-27 09:47:38","7b1eb8be57ff77859c7d9ac988e43411","183.198.116.238","Mozilla/5.0 (Windows NT 10.0; Win64; x64) AppleWebKit/537.36 (KHTML, like Gecko) Chrome/103.0.0.0 Safari/537.36","WebKit","Chrome","103.0.0.0","Windows","10.0","null","<div style=""font-size:60px;"">+</div>","null",""
"","","","","","html-button-response","77","146796","0.0-4.0-1.36","42","1","2022-11-27 09:47:38","7b1eb8be57ff77859c7d9ac988e43411","183.198.116.238","Mozilla/5.0 (Windows NT 10.0; Win64; x64) AppleWebKit/537.36 (KHTML, like Gecko) Chrome/103.0.0.0 Safari/537.36","WebKit","Chrome","103.0.0.0","Windows","10.0","1293","<p>作为军队的指挥官，你可以选择发射导弹杀死 <strong>4名</strong> 敌国士兵，但会误杀附近的 <strong>1名</strong> 敌国平民。</p> <p>平民照片如下图所示。</p> <p></p> <img src='stimuli/faces/PCM5.jpg', style='max-width: 30%;'> </img> <p><strong>你是否选择发射武器？</strong></p>","0",""
"","","","","","html-keyboard-response","78","147805","0.0-4.0-0.37","42","1","2022-11-27 09:47:38","7b1eb8be57ff77859c7d9ac988e43411","183.198.116.238","Mozilla/5.0 (Windows NT 10.0; Win64; x64) AppleWebKit/537.36 (KHTML, like Gecko) Chrome/103.0.0.0 Safari/537.36","WebKit","Chrome","103.0.0.0","Windows","10.0","null","<div style=""font-size:60px;"">+</div>","null",""
"","","","","","html-button-response","79","148880","0.0-4.0-1.37","42","1","2022-11-27 09:47:38","7b1eb8be57ff77859c7d9ac988e43411","183.198.116.238","Mozilla/5.0 (Windows NT 10.0; Win64; x64) AppleWebKit/537.36 (KHTML, like Gecko) Chrome/103.0.0.0 Safari/537.36","WebKit","Chrome","103.0.0.0","Windows","10.0","1072","<p>作为军队的指挥官，你可以选择发射导弹杀死 <strong>3名</strong> 敌国士兵，但会误杀附近的 <strong>1名</strong> 敌国平民。</p> <p>平民照片如下图所示。</p> <p></p> <img src='stimuli/faces/PCF3.jpg', style='max-width: 30%;'> </img> <p><strong>你是否选择发射武器？</strong></p>","1",""
"","","","","","html-keyboard-response","80","149887","0.0-4.0-0.38","42","1","2022-11-27 09:47:38","7b1eb8be57ff77859c7d9ac988e43411","183.198.116.238","Mozilla/5.0 (Windows NT 10.0; Win64; x64) AppleWebKit/537.36 (KHTML, like Gecko) Chrome/103.0.0.0 Safari/537.36","WebKit","Chrome","103.0.0.0","Windows","10.0","null","<div style=""font-size:60px;"">+</div>","null",""
"","","","","","html-button-response","81","150538","0.0-4.0-1.38","42","1","2022-11-27 09:47:38","7b1eb8be57ff77859c7d9ac988e43411","183.198.116.238","Mozilla/5.0 (Windows NT 10.0; Win64; x64) AppleWebKit/537.36 (KHTML, like Gecko) Chrome/103.0.0.0 Safari/537.36","WebKit","Chrome","103.0.0.0","Windows","10.0","649","<p>作为军队的指挥官，你可以选择发射导弹杀死 <strong>10名</strong> 敌国士兵，但会炸毁附近的 <strong>1棵</strong> 敌国树木。</p> <p>树木的照片如下图所示。</p> <p></p> <img src='stimuli/trees/14.png', style='max-width: 30%;'> </img> <p><strong>你是否选择发射武器？</strong></p>","0",""
"","","","","","html-keyboard-response","82","151548","0.0-4.0-0.39","42","1","2022-11-27 09:47:38","7b1eb8be57ff77859c7d9ac988e43411","183.198.116.238","Mozilla/5.0 (Windows NT 10.0; Win64; x64) AppleWebKit/537.36 (KHTML, like Gecko) Chrome/103.0.0.0 Safari/537.36","WebKit","Chrome","103.0.0.0","Windows","10.0","null","<div style=""font-size:60px;"">+</div>","null",""
"","","","","","html-button-response","83","153998","0.0-4.0-1.39","42","1","2022-11-27 09:47:38","7b1eb8be57ff77859c7d9ac988e43411","183.198.116.238","Mozilla/5.0 (Windows NT 10.0; Win64; x64) AppleWebKit/537.36 (KHTML, like Gecko) Chrome/103.0.0.0 Safari/537.36","WebKit","Chrome","103.0.0.0","Windows","10.0","2448","<p>作为军队的指挥官，你可以选择发射导弹杀死 <strong>1名</strong> 敌国士兵，但会误杀附近的 <strong>1名</strong> 敌国平民。</p> <p>平民照片如下图所示。</p> <p></p> <img src='stimuli/faces/PCF4.jpg', style='max-width: 30%;'> </img> <p><strong>你是否选择发射武器？</strong></p>","1",""
"","","","","","html-keyboard-response","84","155004","0.0-4.0-0.40","42","1","2022-11-27 09:47:38","7b1eb8be57ff77859c7d9ac988e43411","183.198.116.238","Mozilla/5.0 (Windows NT 10.0; Win64; x64) AppleWebKit/537.36 (KHTML, like Gecko) Chrome/103.0.0.0 Safari/537.36","WebKit","Chrome","103.0.0.0","Windows","10.0","null","<div style=""font-size:60px;"">+</div>","null",""
"","","","","","html-button-response","85","156098","0.0-4.0-1.40","42","1","2022-11-27 09:47:38","7b1eb8be57ff77859c7d9ac988e43411","183.198.116.238","Mozilla/5.0 (Windows NT 10.0; Win64; x64) AppleWebKit/537.36 (KHTML, like Gecko) Chrome/103.0.0.0 Safari/537.36","WebKit","Chrome","103.0.0.0","Windows","10.0","1092","<p>作为军队的指挥官，你可以选择发射导弹杀死 <strong>5名</strong> 敌国士兵，但会炸毁附近的 <strong>1棵</strong> 敌国树木。</p> <p>树木的照片如下图所示。</p> <p></p> <img src='stimuli/trees/15.png', style='max-width: 30%;'> </img> <p><strong>你是否选择发射武器？</strong></p>","0",""
"","","","","","html-keyboard-response","86","157102","0.0-4.0-0.41","42","1","2022-11-27 09:47:38","7b1eb8be57ff77859c7d9ac988e43411","183.198.116.238","Mozilla/5.0 (Windows NT 10.0; Win64; x64) AppleWebKit/537.36 (KHTML, like Gecko) Chrome/103.0.0.0 Safari/537.36","WebKit","Chrome","103.0.0.0","Windows","10.0","null","<div style=""font-size:60px;"">+</div>","null",""
"","","","","","html-button-response","87","157689","0.0-4.0-1.41","42","1","2022-11-27 09:47:38","7b1eb8be57ff77859c7d9ac988e43411","183.198.116.238","Mozilla/5.0 (Windows NT 10.0; Win64; x64) AppleWebKit/537.36 (KHTML, like Gecko) Chrome/103.0.0.0 Safari/537.36","WebKit","Chrome","103.0.0.0","Windows","10.0","584","<p>作为军队的指挥官，你可以选择发射导弹杀死 <strong>6名</strong> 敌国士兵，但会炸毁附近的 <strong>1棵</strong> 敌国树木。</p> <p>树木的照片如下图所示。</p> <p></p> <img src='stimuli/trees/10.png', style='max-width: 30%;'> </img> <p><strong>你是否选择发射武器？</strong></p>","0",""
"","","","","","html-keyboard-response","88","158703","0.0-4.0-0.42","42","1","2022-11-27 09:47:38","7b1eb8be57ff77859c7d9ac988e43411","183.198.116.238","Mozilla/5.0 (Windows NT 10.0; Win64; x64) AppleWebKit/537.36 (KHTML, like Gecko) Chrome/103.0.0.0 Safari/537.36","WebKit","Chrome","103.0.0.0","Windows","10.0","null","<div style=""font-size:60px;"">+</div>","null",""
"","","","","","html-button-response","89","159849","0.0-4.0-1.42","42","1","2022-11-27 09:47:38","7b1eb8be57ff77859c7d9ac988e43411","183.198.116.238","Mozilla/5.0 (Windows NT 10.0; Win64; x64) AppleWebKit/537.36 (KHTML, like Gecko) Chrome/103.0.0.0 Safari/537.36","WebKit","Chrome","103.0.0.0","Windows","10.0","1142","<p>作为军队的指挥官，你可以选择发射导弹杀死 <strong>3名</strong> 敌国士兵，但会炸毁附近的 <strong>1棵</strong> 敌国树木。</p> <p>树木的照片如下图所示。</p> <p></p> <img src='stimuli/trees/8.png', style='max-width: 30%;'> </img> <p><strong>你是否选择发射武器？</strong></p>","1",""
"","","","","","html-keyboard-response","90","160854","0.0-4.0-0.43","42","1","2022-11-27 09:47:38","7b1eb8be57ff77859c7d9ac988e43411","183.198.116.238","Mozilla/5.0 (Windows NT 10.0; Win64; x64) AppleWebKit/537.36 (KHTML, like Gecko) Chrome/103.0.0.0 Safari/537.36","WebKit","Chrome","103.0.0.0","Windows","10.0","null","<div style=""font-size:60px;"">+</div>","null",""
"","","","","","html-button-response","91","161761","0.0-4.0-1.43","42","1","2022-11-27 09:47:38","7b1eb8be57ff77859c7d9ac988e43411","183.198.116.238","Mozilla/5.0 (Windows NT 10.0; Win64; x64) AppleWebKit/537.36 (KHTML, like Gecko) Chrome/103.0.0.0 Safari/537.36","WebKit","Chrome","103.0.0.0","Windows","10.0","905","<p>作为军队的指挥官，你可以选择发射导弹杀死 <strong>8名</strong> 敌国士兵，但会炸毁附近的 <strong>1棵</strong> 敌国树木。</p> <p>树木的照片如下图所示。</p> <p></p> <img src='stimuli/trees/4.png', style='max-width: 30%;'> </img> <p><strong>你是否选择发射武器？</strong></p>","0",""
"","","","","","html-keyboard-response","92","162774","0.0-4.0-0.44","42","1","2022-11-27 09:47:38","7b1eb8be57ff77859c7d9ac988e43411","183.198.116.238","Mozilla/5.0 (Windows NT 10.0; Win64; x64) AppleWebKit/537.36 (KHTML, like Gecko) Chrome/103.0.0.0 Safari/537.36","WebKit","Chrome","103.0.0.0","Windows","10.0","null","<div style=""font-size:60px;"">+</div>","null",""
"","","","","","html-button-response","93","164200","0.0-4.0-1.44","42","1","2022-11-27 09:47:38","7b1eb8be57ff77859c7d9ac988e43411","183.198.116.238","Mozilla/5.0 (Windows NT 10.0; Win64; x64) AppleWebKit/537.36 (KHTML, like Gecko) Chrome/103.0.0.0 Safari/537.36","WebKit","Chrome","103.0.0.0","Windows","10.0","1422","<p>作为军队的指挥官，你可以选择发射导弹杀死 <strong>3名</strong> 敌国士兵，但会误杀附近的 <strong>1名</strong> 敌国平民。</p> <p>平民照片如下图所示。</p> <p></p> <img src='stimuli/faces/PCF6.jpg', style='max-width: 30%;'> </img> <p><strong>你是否选择发射武器？</strong></p>","1",""
"","","","","","html-keyboard-response","94","165202","0.0-4.0-0.45","42","1","2022-11-27 09:47:38","7b1eb8be57ff77859c7d9ac988e43411","183.198.116.238","Mozilla/5.0 (Windows NT 10.0; Win64; x64) AppleWebKit/537.36 (KHTML, like Gecko) Chrome/103.0.0.0 Safari/537.36","WebKit","Chrome","103.0.0.0","Windows","10.0","null","<div style=""font-size:60px;"">+</div>","null",""
"","","","","","html-button-response","95","165970","0.0-4.0-1.45","42","1","2022-11-27 09:47:38","7b1eb8be57ff77859c7d9ac988e43411","183.198.116.238","Mozilla/5.0 (Windows NT 10.0; Win64; x64) AppleWebKit/537.36 (KHTML, like Gecko) Chrome/103.0.0.0 Safari/537.36","WebKit","Chrome","103.0.0.0","Windows","10.0","765","<p>作为军队的指挥官，你可以选择发射导弹杀死 <strong>7名</strong> 敌国士兵，但会炸毁附近的 <strong>1棵</strong> 敌国树木。</p> <p>树木的照片如下图所示。</p> <p></p> <img src='stimuli/trees/8.png', style='max-width: 30%;'> </img> <p><strong>你是否选择发射武器？</strong></p>","0",""
"","","","","","html-keyboard-response","96","166974","0.0-4.0-0.46","42","1","2022-11-27 09:47:38","7b1eb8be57ff77859c7d9ac988e43411","183.198.116.238","Mozilla/5.0 (Windows NT 10.0; Win64; x64) AppleWebKit/537.36 (KHTML, like Gecko) Chrome/103.0.0.0 Safari/537.36","WebKit","Chrome","103.0.0.0","Windows","10.0","null","<div style=""font-size:60px;"">+</div>","null",""
"","","","","","html-button-response","97","167982","0.0-4.0-1.46","42","1","2022-11-27 09:47:38","7b1eb8be57ff77859c7d9ac988e43411","183.198.116.238","Mozilla/5.0 (Windows NT 10.0; Win64; x64) AppleWebKit/537.36 (KHTML, like Gecko) Chrome/103.0.0.0 Safari/537.36","WebKit","Chrome","103.0.0.0","Windows","10.0","1005","<p>作为军队的指挥官，你可以选择发射导弹杀死 <strong>2名</strong> 敌国士兵，但会误杀附近的 <strong>1名</strong> 敌国平民。</p> <p>平民照片如下图所示。</p> <p></p> <img src='stimuli/faces/PCM4.jpg', style='max-width: 30%;'> </img> <p><strong>你是否选择发射武器？</strong></p>","1",""
"","","","","","html-keyboard-response","98","168997","0.0-4.0-0.47","42","1","2022-11-27 09:47:38","7b1eb8be57ff77859c7d9ac988e43411","183.198.116.238","Mozilla/5.0 (Windows NT 10.0; Win64; x64) AppleWebKit/537.36 (KHTML, like Gecko) Chrome/103.0.0.0 Safari/537.36","WebKit","Chrome","103.0.0.0","Windows","10.0","null","<div style=""font-size:60px;"">+</div>","null",""
"","","","","","html-button-response","99","170027","0.0-4.0-1.47","42","1","2022-11-27 09:47:38","7b1eb8be57ff77859c7d9ac988e43411","183.198.116.238","Mozilla/5.0 (Windows NT 10.0; Win64; x64) AppleWebKit/537.36 (KHTML, like Gecko) Chrome/103.0.0.0 Safari/537.36","WebKit","Chrome","103.0.0.0","Windows","10.0","1027","<p>作为军队的指挥官，你可以选择发射导弹杀死 <strong>5名</strong> 敌国士兵，但会炸毁附近的 <strong>1棵</strong> 敌国树木。</p> <p>树木的照片如下图所示。</p> <p></p> <img src='stimuli/trees/2.png', style='max-width: 30%;'> </img> <p><strong>你是否选择发射武器？</strong></p>","0",""
"","","","","","html-keyboard-response","100","171036","0.0-4.0-0.48","42","1","2022-11-27 09:47:38","7b1eb8be57ff77859c7d9ac988e43411","183.198.116.238","Mozilla/5.0 (Windows NT 10.0; Win64; x64) AppleWebKit/537.36 (KHTML, like Gecko) Chrome/103.0.0.0 Safari/537.36","WebKit","Chrome","103.0.0.0","Windows","10.0","null","<div style=""font-size:60px;"">+</div>","null",""
"","","","","","html-button-response","101","172125","0.0-4.0-1.48","42","1","2022-11-27 09:47:38","7b1eb8be57ff77859c7d9ac988e43411","183.198.116.238","Mozilla/5.0 (Windows NT 10.0; Win64; x64) AppleWebKit/537.36 (KHTML, like Gecko) Chrome/103.0.0.0 Safari/537.36","WebKit","Chrome","103.0.0.0","Windows","10.0","1085","<p>作为军队的指挥官，你可以选择发射导弹杀死 <strong>5名</strong> 敌国士兵，但会炸毁附近的 <strong>1棵</strong> 敌国树木。</p> <p>树木的照片如下图所示。</p> <p></p> <img src='stimuli/trees/14.png', style='max-width: 30%;'> </img> <p><strong>你是否选择发射武器？</strong></p>","0",""
"","","","","","html-keyboard-response","102","173136","0.0-4.0-0.49","42","1","2022-11-27 09:47:38","7b1eb8be57ff77859c7d9ac988e43411","183.198.116.238","Mozilla/5.0 (Windows NT 10.0; Win64; x64) AppleWebKit/537.36 (KHTML, like Gecko) Chrome/103.0.0.0 Safari/537.36","WebKit","Chrome","103.0.0.0","Windows","10.0","null","<div style=""font-size:60px;"">+</div>","null",""
"","","","","","html-button-response","103","174581","0.0-4.0-1.49","42","1","2022-11-27 09:47:38","7b1eb8be57ff77859c7d9ac988e43411","183.198.116.238","Mozilla/5.0 (Windows NT 10.0; Win64; x64) AppleWebKit/537.36 (KHTML, like Gecko) Chrome/103.0.0.0 Safari/537.36","WebKit","Chrome","103.0.0.0","Windows","10.0","1442","<p>作为军队的指挥官，你可以选择发射导弹杀死 <strong>1名</strong> 敌国士兵，但会炸毁附近的 <strong>1棵</strong> 敌国树木。</p> <p>树木的照片如下图所示。</p> <p></p> <img src='stimuli/trees/1.png', style='max-width: 30%;'> </img> <p><strong>你是否选择发射武器？</strong></p>","0",""
"","","","","","html-keyboard-response","104","175599","0.0-4.0-0.50","42","1","2022-11-27 09:47:38","7b1eb8be57ff77859c7d9ac988e43411","183.198.116.238","Mozilla/5.0 (Windows NT 10.0; Win64; x64) AppleWebKit/537.36 (KHTML, like Gecko) Chrome/103.0.0.0 Safari/537.36","WebKit","Chrome","103.0.0.0","Windows","10.0","null","<div style=""font-size:60px;"">+</div>","null",""
"","","","","","html-button-response","105","176645","0.0-4.0-1.50","42","1","2022-11-27 09:47:38","7b1eb8be57ff77859c7d9ac988e43411","183.198.116.238","Mozilla/5.0 (Windows NT 10.0; Win64; x64) AppleWebKit/537.36 (KHTML, like Gecko) Chrome/103.0.0.0 Safari/537.36","WebKit","Chrome","103.0.0.0","Windows","10.0","1042","<p>作为军队的指挥官，你可以选择发射导弹杀死 <strong>2名</strong> 敌国士兵，但会误杀附近的 <strong>1名</strong> 敌国平民。</p> <p>平民照片如下图所示。</p> <p></p> <img src='stimuli/faces/PCF1.jpg', style='max-width: 30%;'> </img> <p><strong>你是否选择发射武器？</strong></p>","1",""
"","","","","","html-keyboard-response","106","177652","0.0-4.0-0.51","42","1","2022-11-27 09:47:38","7b1eb8be57ff77859c7d9ac988e43411","183.198.116.238","Mozilla/5.0 (Windows NT 10.0; Win64; x64) AppleWebKit/537.36 (KHTML, like Gecko) Chrome/103.0.0.0 Safari/537.36","WebKit","Chrome","103.0.0.0","Windows","10.0","null","<div style=""font-size:60px;"">+</div>","null",""
"","","","","","html-button-response","107","178674","0.0-4.0-1.51","42","1","2022-11-27 09:47:38","7b1eb8be57ff77859c7d9ac988e43411","183.198.116.238","Mozilla/5.0 (Windows NT 10.0; Win64; x64) AppleWebKit/537.36 (KHTML, like Gecko) Chrome/103.0.0.0 Safari/537.36","WebKit","Chrome","103.0.0.0","Windows","10.0","1019","<p>作为军队的指挥官，你可以选择发射导弹杀死 <strong>9名</strong> 敌国士兵，但会误杀附近的 <strong>1名</strong> 敌国平民。</p> <p>平民照片如下图所示。</p> <p></p> <img src='stimuli/faces/PCF2.jpg', style='max-width: 30%;'> </img> <p><strong>你是否选择发射武器？</strong></p>","0",""
"","","","","","html-keyboard-response","108","179689","0.0-4.0-0.52","42","1","2022-11-27 09:47:38","7b1eb8be57ff77859c7d9ac988e43411","183.198.116.238","Mozilla/5.0 (Windows NT 10.0; Win64; x64) AppleWebKit/537.36 (KHTML, like Gecko) Chrome/103.0.0.0 Safari/537.36","WebKit","Chrome","103.0.0.0","Windows","10.0","null","<div style=""font-size:60px;"">+</div>","null",""
"","","","","","html-button-response","109","180322","0.0-4.0-1.52","42","1","2022-11-27 09:47:38","7b1eb8be57ff77859c7d9ac988e43411","183.198.116.238","Mozilla/5.0 (Windows NT 10.0; Win64; x64) AppleWebKit/537.36 (KHTML, like Gecko) Chrome/103.0.0.0 Safari/537.36","WebKit","Chrome","103.0.0.0","Windows","10.0","630","<p>作为军队的指挥官，你可以选择发射导弹杀死 <strong>8名</strong> 敌国士兵，但会炸毁附近的 <strong>1棵</strong> 敌国树木。</p> <p>树木的照片如下图所示。</p> <p></p> <img src='stimuli/trees/7.png', style='max-width: 30%;'> </img> <p><strong>你是否选择发射武器？</strong></p>","0",""
"","","","","","html-keyboard-response","110","181326","0.0-4.0-0.53","42","1","2022-11-27 09:47:38","7b1eb8be57ff77859c7d9ac988e43411","183.198.116.238","Mozilla/5.0 (Windows NT 10.0; Win64; x64) AppleWebKit/537.36 (KHTML, like Gecko) Chrome/103.0.0.0 Safari/537.36","WebKit","Chrome","103.0.0.0","Windows","10.0","null","<div style=""font-size:60px;"">+</div>","null",""
"","","","","","html-button-response","111","182187","0.0-4.0-1.53","42","1","2022-11-27 09:47:38","7b1eb8be57ff77859c7d9ac988e43411","183.198.116.238","Mozilla/5.0 (Windows NT 10.0; Win64; x64) AppleWebKit/537.36 (KHTML, like Gecko) Chrome/103.0.0.0 Safari/537.36","WebKit","Chrome","103.0.0.0","Windows","10.0","857","<p>作为军队的指挥官，你可以选择发射导弹杀死 <strong>3名</strong> 敌国士兵，但会误杀附近的 <strong>1名</strong> 敌国平民。</p> <p>平民照片如下图所示。</p> <p></p> <img src='stimuli/faces/PCF8.jpg', style='max-width: 30%;'> </img> <p><strong>你是否选择发射武器？</strong></p>","1",""
"","","","","","html-keyboard-response","112","183190","0.0-4.0-0.54","42","1","2022-11-27 09:47:38","7b1eb8be57ff77859c7d9ac988e43411","183.198.116.238","Mozilla/5.0 (Windows NT 10.0; Win64; x64) AppleWebKit/537.36 (KHTML, like Gecko) Chrome/103.0.0.0 Safari/537.36","WebKit","Chrome","103.0.0.0","Windows","10.0","null","<div style=""font-size:60px;"">+</div>","null",""
"","","","","","html-button-response","113","184066","0.0-4.0-1.54","42","1","2022-11-27 09:47:38","7b1eb8be57ff77859c7d9ac988e43411","183.198.116.238","Mozilla/5.0 (Windows NT 10.0; Win64; x64) AppleWebKit/537.36 (KHTML, like Gecko) Chrome/103.0.0.0 Safari/537.36","WebKit","Chrome","103.0.0.0","Windows","10.0","872","<p>作为军队的指挥官，你可以选择发射导弹杀死 <strong>3名</strong> 敌国士兵，但会炸毁附近的 <strong>1棵</strong> 敌国树木。</p> <p>树木的照片如下图所示。</p> <p></p> <img src='stimuli/trees/6.png', style='max-width: 30%;'> </img> <p><strong>你是否选择发射武器？</strong></p>","0",""
"","","","","","html-keyboard-response","114","185076","0.0-4.0-0.55","42","1","2022-11-27 09:47:38","7b1eb8be57ff77859c7d9ac988e43411","183.198.116.238","Mozilla/5.0 (Windows NT 10.0; Win64; x64) AppleWebKit/537.36 (KHTML, like Gecko) Chrome/103.0.0.0 Safari/537.36","WebKit","Chrome","103.0.0.0","Windows","10.0","null","<div style=""font-size:60px;"">+</div>","null",""
"","","","","","html-button-response","115","186557","0.0-4.0-1.55","42","1","2022-11-27 09:47:38","7b1eb8be57ff77859c7d9ac988e43411","183.198.116.238","Mozilla/5.0 (Windows NT 10.0; Win64; x64) AppleWebKit/537.36 (KHTML, like Gecko) Chrome/103.0.0.0 Safari/537.36","WebKit","Chrome","103.0.0.0","Windows","10.0","1477","<p>作为军队的指挥官，你可以选择发射导弹杀死 <strong>6名</strong> 敌国士兵，但会误杀附近的 <strong>1名</strong> 敌国平民。</p> <p>平民照片如下图所示。</p> <p></p> <img src='stimuli/faces/PCF4.jpg', style='max-width: 30%;'> </img> <p><strong>你是否选择发射武器？</strong></p>","1",""
"","","","","","html-keyboard-response","116","187561","0.0-4.0-0.56","42","1","2022-11-27 09:47:38","7b1eb8be57ff77859c7d9ac988e43411","183.198.116.238","Mozilla/5.0 (Windows NT 10.0; Win64; x64) AppleWebKit/537.36 (KHTML, like Gecko) Chrome/103.0.0.0 Safari/537.36","WebKit","Chrome","103.0.0.0","Windows","10.0","null","<div style=""font-size:60px;"">+</div>","null",""
"","","","","","html-button-response","117","188229","0.0-4.0-1.56","42","1","2022-11-27 09:47:38","7b1eb8be57ff77859c7d9ac988e43411","183.198.116.238","Mozilla/5.0 (Windows NT 10.0; Win64; x64) AppleWebKit/537.36 (KHTML, like Gecko) Chrome/103.0.0.0 Safari/537.36","WebKit","Chrome","103.0.0.0","Windows","10.0","664","<p>作为军队的指挥官，你可以选择发射导弹杀死 <strong>1名</strong> 敌国士兵，但会误杀附近的 <strong>1名</strong> 敌国平民。</p> <p>平民照片如下图所示。</p> <p></p> <img src='stimuli/faces/PCM6.jpg', style='max-width: 30%;'> </img> <p><strong>你是否选择发射武器？</strong></p>","0",""
"","","","","","html-keyboard-response","118","189248","0.0-4.0-0.57","42","1","2022-11-27 09:47:38","7b1eb8be57ff77859c7d9ac988e43411","183.198.116.238","Mozilla/5.0 (Windows NT 10.0; Win64; x64) AppleWebKit/537.36 (KHTML, like Gecko) Chrome/103.0.0.0 Safari/537.36","WebKit","Chrome","103.0.0.0","Windows","10.0","null","<div style=""font-size:60px;"">+</div>","null",""
"","","","","","html-button-response","119","190419","0.0-4.0-1.57","42","1","2022-11-27 09:47:38","7b1eb8be57ff77859c7d9ac988e43411","183.198.116.238","Mozilla/5.0 (Windows NT 10.0; Win64; x64) AppleWebKit/537.36 (KHTML, like Gecko) Chrome/103.0.0.0 Safari/537.36","WebKit","Chrome","103.0.0.0","Windows","10.0","1167","<p>作为军队的指挥官，你可以选择发射导弹杀死 <strong>10名</strong> 敌国士兵，但会误杀附近的 <strong>1名</strong> 敌国平民。</p> <p>平民照片如下图所示。</p> <p></p> <img src='stimuli/faces/PCF6.jpg', style='max-width: 30%;'> </img> <p><strong>你是否选择发射武器？</strong></p>","0",""
"","","","","","html-keyboard-response","120","191436","0.0-4.0-0.58","42","1","2022-11-27 09:47:38","7b1eb8be57ff77859c7d9ac988e43411","183.198.116.238","Mozilla/5.0 (Windows NT 10.0; Win64; x64) AppleWebKit/537.36 (KHTML, like Gecko) Chrome/103.0.0.0 Safari/537.36","WebKit","Chrome","103.0.0.0","Windows","10.0","null","<div style=""font-size:60px;"">+</div>","null",""
"","","","","","html-button-response","121","192244","0.0-4.0-1.58","42","1","2022-11-27 09:47:38","7b1eb8be57ff77859c7d9ac988e43411","183.198.116.238","Mozilla/5.0 (Windows NT 10.0; Win64; x64) AppleWebKit/537.36 (KHTML, like Gecko) Chrome/103.0.0.0 Safari/537.36","WebKit","Chrome","103.0.0.0","Windows","10.0","804","<p>作为军队的指挥官，你可以选择发射导弹杀死 <strong>1名</strong> 敌国士兵，但会误杀附近的 <strong>1名</strong> 敌国平民。</p> <p>平民照片如下图所示。</p> <p></p> <img src='stimuli/faces/PCM1.jpg', style='max-width: 30%;'> </img> <p><strong>你是否选择发射武器？</strong></p>","1",""
"","","","","","html-keyboard-response","122","193252","0.0-4.0-0.59","42","1","2022-11-27 09:47:38","7b1eb8be57ff77859c7d9ac988e43411","183.198.116.238","Mozilla/5.0 (Windows NT 10.0; Win64; x64) AppleWebKit/537.36 (KHTML, like Gecko) Chrome/103.0.0.0 Safari/537.36","WebKit","Chrome","103.0.0.0","Windows","10.0","null","<div style=""font-size:60px;"">+</div>","null",""
"","","","","","html-button-response","123","194458","0.0-4.0-1.59","42","1","2022-11-27 09:47:38","7b1eb8be57ff77859c7d9ac988e43411","183.198.116.238","Mozilla/5.0 (Windows NT 10.0; Win64; x64) AppleWebKit/537.36 (KHTML, like Gecko) Chrome/103.0.0.0 Safari/537.36","WebKit","Chrome","103.0.0.0","Windows","10.0","1202","<p>作为军队的指挥官，你可以选择发射导弹杀死 <strong>9名</strong> 敌国士兵，但会炸毁附近的 <strong>1棵</strong> 敌国树木。</p> <p>树木的照片如下图所示。</p> <p></p> <img src='stimuli/trees/6.png', style='max-width: 30%;'> </img> <p><strong>你是否选择发射武器？</strong></p>","0",""
"","","","","","html-keyboard-response","124","195472","0.0-4.0-0.60","42","1","2022-11-27 09:47:38","7b1eb8be57ff77859c7d9ac988e43411","183.198.116.238","Mozilla/5.0 (Windows NT 10.0; Win64; x64) AppleWebKit/537.36 (KHTML, like Gecko) Chrome/103.0.0.0 Safari/537.36","WebKit","Chrome","103.0.0.0","Windows","10.0","null","<div style=""font-size:60px;"">+</div>","null",""
"","","","","","html-button-response","125","198312","0.0-4.0-1.60","42","1","2022-11-27 09:47:38","7b1eb8be57ff77859c7d9ac988e43411","183.198.116.238","Mozilla/5.0 (Windows NT 10.0; Win64; x64) AppleWebKit/537.36 (KHTML, like Gecko) Chrome/103.0.0.0 Safari/537.36","WebKit","Chrome","103.0.0.0","Windows","10.0","2836","<p>作为军队的指挥官，你可以选择发射导弹杀死 <strong>9名</strong> 敌国士兵，但会误杀附近的 <strong>1名</strong> 敌国平民。</p> <p>平民照片如下图所示。</p> <p></p> <img src='stimuli/faces/PCM6.jpg', style='max-width: 30%;'> </img> <p><strong>你是否选择发射武器？</strong></p>","0",""
"","","","","","html-keyboard-response","126","199328","0.0-4.0-0.61","42","1","2022-11-27 09:47:38","7b1eb8be57ff77859c7d9ac988e43411","183.198.116.238","Mozilla/5.0 (Windows NT 10.0; Win64; x64) AppleWebKit/537.36 (KHTML, like Gecko) Chrome/103.0.0.0 Safari/537.36","WebKit","Chrome","103.0.0.0","Windows","10.0","null","<div style=""font-size:60px;"">+</div>","null",""
"","","","","","html-button-response","127","201145","0.0-4.0-1.61","42","1","2022-11-27 09:47:38","7b1eb8be57ff77859c7d9ac988e43411","183.198.116.238","Mozilla/5.0 (Windows NT 10.0; Win64; x64) AppleWebKit/537.36 (KHTML, like Gecko) Chrome/103.0.0.0 Safari/537.36","WebKit","Chrome","103.0.0.0","Windows","10.0","1813","<p>作为军队的指挥官，你可以选择发射导弹杀死 <strong>7名</strong> 敌国士兵，但会炸毁附近的 <strong>1棵</strong> 敌国树木。</p> <p>树木的照片如下图所示。</p> <p></p> <img src='stimuli/trees/11.png', style='max-width: 30%;'> </img> <p><strong>你是否选择发射武器？</strong></p>","0",""
"","","","","","html-keyboard-response","128","202151","0.0-4.0-0.62","42","1","2022-11-27 09:47:38","7b1eb8be57ff77859c7d9ac988e43411","183.198.116.238","Mozilla/5.0 (Windows NT 10.0; Win64; x64) AppleWebKit/537.36 (KHTML, like Gecko) Chrome/103.0.0.0 Safari/537.36","WebKit","Chrome","103.0.0.0","Windows","10.0","null","<div style=""font-size:60px;"">+</div>","null",""
"","","","","","html-button-response","129","204027","0.0-4.0-1.62","42","1","2022-11-27 09:47:38","7b1eb8be57ff77859c7d9ac988e43411","183.198.116.238","Mozilla/5.0 (Windows NT 10.0; Win64; x64) AppleWebKit/537.36 (KHTML, like Gecko) Chrome/103.0.0.0 Safari/537.36","WebKit","Chrome","103.0.0.0","Windows","10.0","1872","<p>作为军队的指挥官，你可以选择发射导弹杀死 <strong>10名</strong> 敌国士兵，但会误杀附近的 <strong>1名</strong> 敌国平民。</p> <p>平民照片如下图所示。</p> <p></p> <img src='stimuli/faces/PCM2.jpg', style='max-width: 30%;'> </img> <p><strong>你是否选择发射武器？</strong></p>","0",""
"","","","","","html-keyboard-response","130","205040","0.0-4.0-0.63","42","1","2022-11-27 09:47:38","7b1eb8be57ff77859c7d9ac988e43411","183.198.116.238","Mozilla/5.0 (Windows NT 10.0; Win64; x64) AppleWebKit/537.36 (KHTML, like Gecko) Chrome/103.0.0.0 Safari/537.36","WebKit","Chrome","103.0.0.0","Windows","10.0","null","<div style=""font-size:60px;"">+</div>","null",""
"","","","","","html-button-response","131","206943","0.0-4.0-1.63","42","1","2022-11-27 09:47:38","7b1eb8be57ff77859c7d9ac988e43411","183.198.116.238","Mozilla/5.0 (Windows NT 10.0; Win64; x64) AppleWebKit/537.36 (KHTML, like Gecko) Chrome/103.0.0.0 Safari/537.36","WebKit","Chrome","103.0.0.0","Windows","10.0","1899","<p>作为军队的指挥官，你可以选择发射导弹杀死 <strong>2名</strong> 敌国士兵，但会误杀附近的 <strong>1名</strong> 敌国平民。</p> <p>平民照片如下图所示。</p> <p></p> <img src='stimuli/faces/PCM2.jpg', style='max-width: 30%;'> </img> <p><strong>你是否选择发射武器？</strong></p>","1",""
"","","","","","survey-multi-choice","132","217747","0.0-5.0","42","1","2022-11-27 09:47:38","7b1eb8be57ff77859c7d9ac988e43411","183.198.116.238","Mozilla/5.0 (Windows NT 10.0; Win64; x64) AppleWebKit/537.36 (KHTML, like Gecko) Chrome/103.0.0.0 Safari/537.36","WebKit","Chrome","103.0.0.0","Windows","10.0","10799","","{""Attention1"":""""}","[0]"
"","","","","","html-button-response","133","262114","0.0-6.0","42","1","2022-11-27 09:47:38","7b1eb8be57ff77859c7d9ac988e43411","183.198.116.238","Mozilla/5.0 (Windows NT 10.0; Win64; x64) AppleWebKit/537.36 (KHTML, like Gecko) Chrome/103.0.0.0 Safari/537.36","WebKit","Chrome","103.0.0.0","Windows","10.0","44361","<p style=""font-size:20px;font-weight:bold;"">恭喜！</p><p>你已经完成了实验的第一部分。</p><p>请休息放松一下，然后进入第二部分。</p><p>这部分大约需要10分钟。</p>","0",""
"","","","","","survey-text","134","305109","0.0-7.0","42","1","2022-11-27 09:47:38","7b1eb8be57ff77859c7d9ac988e43411","183.198.116.238","Mozilla/5.0 (Windows NT 10.0; Win64; x64) AppleWebKit/537.36 (KHTML, like Gecko) Chrome/103.0.0.0 Safari/537.36","WebKit","Chrome","103.0.0.0","Windows","10.0","41986","","{""Age"":""21"",""Nation"":""中国"",""Born"":""河北省张家口市"",""Live"":""河北省张家口市"",""Ethnic"":""汉族"",""Alipay"":""15849165158"",""ID"":""""}",""
"","","","","","survey-multi-choice","135","323910","0.0-8.0","42","1","2022-11-27 09:47:38","7b1eb8be57ff77859c7d9ac988e43411","183.198.116.238","Mozilla/5.0 (Windows NT 10.0; Win64; x64) AppleWebKit/537.36 (KHTML, like Gecko) Chrome/103.0.0.0 Safari/537.36","WebKit","Chrome","103.0.0.0","Windows","10.0","18796","","{""Gender"":""女"",""Education"":""高中毕业"",""Income"":""￥70,000-￥139,999"",""Children"":""0"",""Race"":""亚洲人""}","[0,1,2,3,4]"
"","","","","","survey-multi-select","136","332534","0.0-9.0","42","1","2022-11-27 09:47:38","7b1eb8be57ff77859c7d9ac988e43411","183.198.116.238","Mozilla/5.0 (Windows NT 10.0; Win64; x64) AppleWebKit/537.36 (KHTML, like Gecko) Chrome/103.0.0.0 Safari/537.36","WebKit","Chrome","103.0.0.0","Windows","10.0","8613","","{""Marriage"":[""未婚""],""Religion"":[""无宗教信仰""]}","[0,1]"
"","","","","","survey-multi-choice","137","336949","0.0-10.0","42","1","2022-11-27 09:47:38","7b1eb8be57ff77859c7d9ac988e43411","183.198.116.238","Mozilla/5.0 (Windows NT 10.0; Win64; x64) AppleWebKit/537.36 (KHTML, like Gecko) Chrome/103.0.0.0 Safari/537.36","WebKit","Chrome","103.0.0.0","Windows","10.0","4411","","{""SES"":""6""}","[0]"
"","","","","","html-button-response","138","338808","0.0-11.0","42","1","2022-11-27 09:47:38","7b1eb8be57ff77859c7d9ac988e43411","183.198.116.238","Mozilla/5.0 (Windows NT 10.0; Win64; x64) AppleWebKit/537.36 (KHTML, like Gecko) Chrome/103.0.0.0 Safari/537.36","WebKit","Chrome","103.0.0.0","Windows","10.0","1854","<p><strong>请判断下列陈述在多大程度上可以形容你？</p><p> (1 = ""和我一点都不像"" to 5 = ""非常像我"".)</strong></p>","0",""
"","","","","","survey-likert","139","361898","0.0-12.0","42","1","2022-11-27 09:47:38","7b1eb8be57ff77859c7d9ac988e43411","183.198.116.238","Mozilla/5.0 (Windows NT 10.0; Win64; x64) AppleWebKit/537.36 (KHTML, like Gecko) Chrome/103.0.0.0 Safari/537.36","WebKit","Chrome","103.0.0.0","Windows","10.0","23086","","{""Aggression1"":1,""Aggression2"":3,""Aggression3"":3,""Aggression4"":0,""Aggression5"":4,""Aggression6"":3,""Aggression7"":1,""Aggression8"":1,""Aggression9"":3}","[0,1,2,3,4,5,6,7,8]"
"","","","","","html-button-response","140","363061","0.0-13.0","42","1","2022-11-27 09:47:38","7b1eb8be57ff77859c7d9ac988e43411","183.198.116.238","Mozilla/5.0 (Windows NT 10.0; Win64; x64) AppleWebKit/537.36 (KHTML, like Gecko) Chrome/103.0.0.0 Safari/537.36","WebKit","Chrome","103.0.0.0","Windows","10.0","1158","<p><strong>请判断你在多大程度上同意下列陈述。</strong></p>","0",""
"","","","","","survey-likert","141","429570","0.0-14.0","42","1","2022-11-27 09:47:38","7b1eb8be57ff77859c7d9ac988e43411","183.198.116.238","Mozilla/5.0 (Windows NT 10.0; Win64; x64) AppleWebKit/537.36 (KHTML, like Gecko) Chrome/103.0.0.0 Safari/537.36","WebKit","Chrome","103.0.0.0","Windows","10.0","66505","","{""scale27"":2,""scale18"":1,""scale20"":4,""scale10"":3,""scale22"":3,""scale7"":0,""scale26"":3,""scale5"":4,""scale12"":1,""scale14"":1,""scale1"":3,""scale19"":3,""scale24"":1,""scale8"":2,""scale17"":3,""scale2"":3,""scale23"":2,""scale28"":1,""scale11"":3,""scale16"":2,""scale13"":0,""scale6"":2,""scale9"":3,""scale3"":3,""scale21"":2,""scale25"":3,""scale4"":2,""scale15"":4}","[26,17,19,9,21,6,25,4,11,13,0,18,23,7,16,1,22,27,10,15,12,5,8,2,20,24,3,14]"
"","","","","","html-button-response","142","430536","0.0-15.0","42","1","2022-11-27 09:47:38","7b1eb8be57ff77859c7d9ac988e43411","183.198.116.238","Mozilla/5.0 (Windows NT 10.0; Win64; x64) AppleWebKit/537.36 (KHTML, like Gecko) Chrome/103.0.0.0 Safari/537.36","WebKit","Chrome","103.0.0.0","Windows","10.0","961","<p><strong>请判断你在多大程度上同意下列陈述。</strong></p>","0",""
"","","","","","survey-likert","143","479264","0.0-16.0","42","1","2022-11-27 09:47:38","7b1eb8be57ff77859c7d9ac988e43411","183.198.116.238","Mozilla/5.0 (Windows NT 10.0; Win64; x64) AppleWebKit/537.36 (KHTML, like Gecko) Chrome/103.0.0.0 Safari/537.36","WebKit","Chrome","103.0.0.0","Windows","10.0","48723","","{""sdo13"":6,""sdo14"":5,""sdo10"":6,""sdo12"":5,""sdo1"":1,""sdo7"":2,""sdo9"":4,""sdo2"":3,""sdo8"":1,""sdo16"":6,""sdo11"":5,""sdo5"":4,""sdo3"":1,""sdo15"":2,""sdo6"":3,""sdo4"":4}","[12,13,9,11,0,6,8,1,7,15,10,4,2,14,5,3]"
"","","","","","html-button-response","144","480143","0.0-17.0","42","1","2022-11-27 09:47:38","7b1eb8be57ff77859c7d9ac988e43411","183.198.116.238","Mozilla/5.0 (Windows NT 10.0; Win64; x64) AppleWebKit/537.36 (KHTML, like Gecko) Chrome/103.0.0.0 Safari/537.36","WebKit","Chrome","103.0.0.0","Windows","10.0","874","<p><strong>请判断你在多大程度上同意下列陈述。</strong></p>","0",""
"","","","","","survey-likert","145","516507","0.0-18.0","42","1","2022-11-27 09:47:38","7b1eb8be57ff77859c7d9ac988e43411","183.198.116.238","Mozilla/5.0 (Windows NT 10.0; Win64; x64) AppleWebKit/537.36 (KHTML, like Gecko) Chrome/103.0.0.0 Safari/537.36","WebKit","Chrome","103.0.0.0","Windows","10.0","36360","","{""caring1"":3,""liking1"":4,""caring2"":3,""protection1"":3,""liking2"":2,""caring3"":3,""protection2"":1,""liking3"":4,""protection3"":2,""caring4"":3,""liking4"":2,""protection4"":3,""caring5"":4,""liking5"":3,""protection5"":3}","[0,1,2,3,4,5,6,7,8,9,10,11,12,13,14]"
"","","","","","html-button-response","146","517582","0.0-19.0","42","1","2022-11-27 09:47:38","7b1eb8be57ff77859c7d9ac988e43411","183.198.116.238","Mozilla/5.0 (Windows NT 10.0; Win64; x64) AppleWebKit/537.36 (KHTML, like Gecko) Chrome/103.0.0.0 Safari/537.36","WebKit","Chrome","103.0.0.0","Windows","10.0","1070","<p><strong>请判断下列场景中你的内心感受有多柔软。</strong></p>","0",""
"","","","","","survey-likert","147","537581","0.0-20.0","42","1","2022-11-27 09:47:38","7b1eb8be57ff77859c7d9ac988e43411","183.198.116.238","Mozilla/5.0 (Windows NT 10.0; Win64; x64) AppleWebKit/537.36 (KHTML, like Gecko) Chrome/103.0.0.0 Safari/537.36","WebKit","Chrome","103.0.0.0","Windows","10.0","19994","","{""tenderness-positive1"":4,""tenderness-negative1"":3,""tenderness-negative2"":0,""tenderness-positive2"":3,""tenderness-positive3"":4,""tenderness-negative3"":1,""tenderness-positive4"":3,""tenderness-negative4"":3,""tenderness-negative5"":4,""tenderness-positive5"":4}","[0,1,2,3,4,5,6,7,8,9]"
"","","","","","survey-multi-choice","148","545679","0.0-21.0","42","1","2022-11-27 09:47:38","7b1eb8be57ff77859c7d9ac988e43411","183.198.116.238","Mozilla/5.0 (Windows NT 10.0; Win64; x64) AppleWebKit/537.36 (KHTML, like Gecko) Chrome/103.0.0.0 Safari/537.36","WebKit","Chrome","103.0.0.0","Windows","10.0","8093","","{""Attention2"":""其他""}","[0]"
"","","","","","html-button-response","149","546998","0.0-22.0","42","1","2022-11-27 09:47:38","7b1eb8be57ff77859c7d9ac988e43411","183.198.116.238","Mozilla/5.0 (Windows NT 10.0; Win64; x64) AppleWebKit/537.36 (KHTML, like Gecko) Chrome/103.0.0.0 Safari/537.36","WebKit","Chrome","103.0.0.0","Windows","10.0","1314","<p><strong>请判断你在多大程度上同意下列陈述。</strong></p>","0",""
"","","","","","survey-likert","150","601957","0.0-23.0","42","1","2022-11-27 09:47:38","7b1eb8be57ff77859c7d9ac988e43411","183.198.116.238","Mozilla/5.0 (Windows NT 10.0; Win64; x64) AppleWebKit/537.36 (KHTML, like Gecko) Chrome/103.0.0.0 Safari/537.36","WebKit","Chrome","103.0.0.0","Windows","10.0","54954","","{""Nation4"":0,""Nation3"":3,""Patri4"":4,""Patri1"":4,""Nation5"":2,""Patri6"":1,""Patri2"":3,""Patri11"":0,""Nation2"":4,""Patri3"":3,""Patri8"":3,""Patri7"":4,""Nation8"":1,""Patri12"":0,""Nation6"":3,""Nation7"":3,""Patri10"":0,""Nation1"":4,""Patri9"":1,""Patri5"":4}","[15,14,3,0,16,5,1,10,13,2,7,6,19,11,17,18,9,12,8,4]"
"","","","","","html-button-response","151","603026","0.0-24.0","42","1","2022-11-27 09:47:38","7b1eb8be57ff77859c7d9ac988e43411","183.198.116.238","Mozilla/5.0 (Windows NT 10.0; Win64; x64) AppleWebKit/537.36 (KHTML, like Gecko) Chrome/103.0.0.0 Safari/537.36","WebKit","Chrome","103.0.0.0","Windows","10.0","1063","<p><strong>请判断你在多大程度上同意下列陈述。</strong></p>","0",""
"","","","","","survey-likert","152","650868","0.0-25.0","42","1","2022-11-27 09:47:38","7b1eb8be57ff77859c7d9ac988e43411","183.198.116.238","Mozilla/5.0 (Windows NT 10.0; Win64; x64) AppleWebKit/537.36 (KHTML, like Gecko) Chrome/103.0.0.0 Safari/537.36","WebKit","Chrome","103.0.0.0","Windows","10.0","47838","","{""vc4"":6,""hi4"":7,""Robot"":6,""vi4"":2,""hc2"":7,""vc3"":6,""vi1"":5,""vc2"":7,""hi1"":0,""vc1"":8,""hc4"":5,""hi2"":7,""vi3"":7,""hi3"":3,""vi2"":6,""hc1"":8,""hc3"":4}","[16,3,7,8,10,15,4,14,0,13,12,1,6,2,5,9,11]"
"","","","","","survey-text","153","702743","0.0-26.0","42","1","2022-11-27 09:47:38","7b1eb8be57ff77859c7d9ac988e43411","183.198.116.238","Mozilla/5.0 (Windows NT 10.0; Win64; x64) AppleWebKit/537.36 (KHTML, like Gecko) Chrome/103.0.0.0 Safari/537.36","WebKit","Chrome","103.0.0.0","Windows","10.0","51861","","{""Comments"":""或许那个实验一树木的图片可以换成那种一片的树林那样的，一棵树有点少了""}",""
"","","","","","html-button-response","154","705811","0.0-27.0","42","1","2022-11-27 09:47:38","7b1eb8be57ff77859c7d9ac988e43411","183.198.116.238","Mozilla/5.0 (Windows NT 10.0; Win64; x64) AppleWebKit/537.36 (KHTML, like Gecko) Chrome/103.0.0.0 Safari/537.36","WebKit","Chrome","103.0.0.0","Windows","10.0","3064","<strong><p>恭喜你完成了实验！</p><p>感谢您的参与。</p></strong>","0",""
