"success","timeout","failed_images","failed_audio","failed_video","trial_type","trial_index","time_elapsed","internal_node_id","run_id","condition","recorded_at","source_code_version","ip","user_agent","device","browser","browser_version","platform","platform_version","rt","stimulus","response","question_order"
"true","false","[]","[]","[]","preload","0","2656","0.0-0.0","47","1","2022-11-27 09:50:35","7b1eb8be57ff77859c7d9ac988e43411","39.144.168.61","Mozilla/5.0 (Linux; Android 12; PEPM00 Build/SP1A.210812.016; wv) AppleWebKit/537.36 (KHTML, like Gecko) Version/4.0 Chrome/86.0.4240.99 XWEB/4343 MMWEBSDK/20220903 Mobile Safari/537.36 MMWEBID/1322 MicroMessenger/8.0.28.2240(0x28001C57) WeChat/arm64 Weixin NetType/5G Language/zh_CN ABI/arm64","WebKit","Chrome","86.0.4240.99","AndroidOS","12","","","",""
"true","","","","","fullscreen","1","5781","0.0-1.0","47","1","2022-11-27 09:50:35","7b1eb8be57ff77859c7d9ac988e43411","39.144.168.61","Mozilla/5.0 (Linux; Android 12; PEPM00 Build/SP1A.210812.016; wv) AppleWebKit/537.36 (KHTML, like Gecko) Version/4.0 Chrome/86.0.4240.99 XWEB/4343 MMWEBSDK/20220903 Mobile Safari/537.36 MMWEBID/1322 MicroMessenger/8.0.28.2240(0x28001C57) WeChat/arm64 Weixin NetType/5G Language/zh_CN ABI/arm64","WebKit","Chrome","86.0.4240.99","AndroidOS","12","","","",""
"","","","","","html-button-response","2","49764","0.0-2.0","47","1","2022-11-27 09:50:35","7b1eb8be57ff77859c7d9ac988e43411","39.144.168.61","Mozilla/5.0 (Linux; Android 12; PEPM00 Build/SP1A.210812.016; wv) AppleWebKit/537.36 (KHTML, like Gecko) Version/4.0 Chrome/86.0.4240.99 XWEB/4343 MMWEBSDK/20220903 Mobile Safari/537.36 MMWEBID/1322 MicroMessenger/8.0.28.2240(0x28001C57) WeChat/arm64 Weixin NetType/5G Language/zh_CN ABI/arm64","WebKit","Chrome","86.0.4240.99","AndroidOS","12","43964","<p style=""font-size:20px;font-weight:bold;"">实验知情同意书</p><p style=""text-align:left;""><strong>实验名称：</strong>社会冲突研究</p><p style=""text-align:left;""><strong>主要研究者：</strong>韩晓春副教授（北京师范大学心理学部）</p><p style=""text-align:left;""><strong>联系方式：</strong>发送邮件至xiaochun.han@bnu.edu.cn</p><p style=""text-align:left;""><strong>研究目的：</strong>研究旨在了解人类面对群体冲突时的决策方式，以及相关的心理学特质。实验调查大约需要20分钟。</p><p style=""text-align:left;""><strong>实验流程：</strong>实验包含两部分。第一部分呈现一系列群体冲突场景，请你决定如何对这些冲突进行反应，大约需要10分钟完成。第二部分包含一系列人口统计学信息收集和心理学问卷，大约需要10分钟完成。</p><p style=""text-align:left;""><strong>参加及退出规则：</strong>参加本实验完全取决于您的个人意愿。在参与过程中，您可以随时退出，并且不用承担任何后果。</p><p style=""text-align:left;""><strong>隐私：</strong>本实验完全匿名进行，不会收集您的姓名或其他能够识别您身份的信息。实验中收集的作答仅用作科学研究使用，可能会在学术期刊/书籍上发表，或者用于教学，您的数据未来可能会和其他研究者或实验室分享，但您的个人身份不会被识别。</p><p style=""text-align:left;""><strong>实验报酬：</strong>实验完成后，您将获得15元人民币报酬，以感谢您的时间和努力。调查问卷中包含几道题目用以测验您作答时的认真度。只有完成全部实验，并且正确回答认真度测验的被试才能获得实验报酬。实验报酬将通过支付宝转账发放。</p><p style=""text-align:left;font-size:20px;""><strong>如果您同意以上实验知情同意书的内容，请点击'同意并且开始实验'按钮；否则请关闭浏览器界面，退出实验。</strong></p>","0",""
"","","","","","html-button-response","3","69065","0.0-3.0","47","1","2022-11-27 09:50:35","7b1eb8be57ff77859c7d9ac988e43411","39.144.168.61","Mozilla/5.0 (Linux; Android 12; PEPM00 Build/SP1A.210812.016; wv) AppleWebKit/537.36 (KHTML, like Gecko) Version/4.0 Chrome/86.0.4240.99 XWEB/4343 MMWEBSDK/20220903 Mobile Safari/537.36 MMWEBID/1322 MicroMessenger/8.0.28.2240(0x28001C57) WeChat/arm64 Weixin NetType/5G Language/zh_CN ABI/arm64","WebKit","Chrome","86.0.4240.99","AndroidOS","12","19289","<p ><strong>实验任务一：</strong></p><p>请想象你的国家与另一个国家发生了军事冲突。</p><p>你是国家军队的指挥官，你将如何在冲突中进行决策。</p><p>具体来说，作为军队指挥官，请你决定是否发射导弹进行打击。</p><p>接下来，你会面对一系列场景，请仔细阅读每个场景，然后进行决策。</p><p>这部分实验任务大约需要10分钟。</p><p><strong>实验过程中，请集中注意力。</strong></p>","0",""
"","","","","","html-keyboard-response","4","70071","0.0-4.0-0.0","47","1","2022-11-27 09:50:35","7b1eb8be57ff77859c7d9ac988e43411","39.144.168.61","Mozilla/5.0 (Linux; Android 12; PEPM00 Build/SP1A.210812.016; wv) AppleWebKit/537.36 (KHTML, like Gecko) Version/4.0 Chrome/86.0.4240.99 XWEB/4343 MMWEBSDK/20220903 Mobile Safari/537.36 MMWEBID/1322 MicroMessenger/8.0.28.2240(0x28001C57) WeChat/arm64 Weixin NetType/5G Language/zh_CN ABI/arm64","WebKit","Chrome","86.0.4240.99","AndroidOS","12","null","<div style=""font-size:60px;"">+</div>","null",""
"","","","","","html-button-response","5","82159","0.0-4.0-1.0","47","1","2022-11-27 09:50:35","7b1eb8be57ff77859c7d9ac988e43411","39.144.168.61","Mozilla/5.0 (Linux; Android 12; PEPM00 Build/SP1A.210812.016; wv) AppleWebKit/537.36 (KHTML, like Gecko) Version/4.0 Chrome/86.0.4240.99 XWEB/4343 MMWEBSDK/20220903 Mobile Safari/537.36 MMWEBID/1322 MicroMessenger/8.0.28.2240(0x28001C57) WeChat/arm64 Weixin NetType/5G Language/zh_CN ABI/arm64","WebKit","Chrome","86.0.4240.99","AndroidOS","12","12062","<p>作为军队的指挥官，你可以选择发射导弹杀死 <strong>6名</strong> 敌国士兵，但会误杀附近的 <strong>1名</strong> 敌国平民。</p> <p>平民照片如下图所示。</p> <p></p> <img src='stimuli/faces/PCM2.jpg', style='max-width: 30%;'> </img> <p><strong>你是否选择发射武器？</strong></p>","1",""
"","","","","","html-keyboard-response","6","83168","0.0-4.0-0.1","47","1","2022-11-27 09:50:35","7b1eb8be57ff77859c7d9ac988e43411","39.144.168.61","Mozilla/5.0 (Linux; Android 12; PEPM00 Build/SP1A.210812.016; wv) AppleWebKit/537.36 (KHTML, like Gecko) Version/4.0 Chrome/86.0.4240.99 XWEB/4343 MMWEBSDK/20220903 Mobile Safari/537.36 MMWEBID/1322 MicroMessenger/8.0.28.2240(0x28001C57) WeChat/arm64 Weixin NetType/5G Language/zh_CN ABI/arm64","WebKit","Chrome","86.0.4240.99","AndroidOS","12","null","<div style=""font-size:60px;"">+</div>","null",""
"","","","","","html-button-response","7","95849","0.0-4.0-1.1","47","1","2022-11-27 09:50:35","7b1eb8be57ff77859c7d9ac988e43411","39.144.168.61","Mozilla/5.0 (Linux; Android 12; PEPM00 Build/SP1A.210812.016; wv) AppleWebKit/537.36 (KHTML, like Gecko) Version/4.0 Chrome/86.0.4240.99 XWEB/4343 MMWEBSDK/20220903 Mobile Safari/537.36 MMWEBID/1322 MicroMessenger/8.0.28.2240(0x28001C57) WeChat/arm64 Weixin NetType/5G Language/zh_CN ABI/arm64","WebKit","Chrome","86.0.4240.99","AndroidOS","12","12674","<p>作为军队的指挥官，你可以选择发射导弹杀死 <strong>1名</strong> 敌国士兵，但会误杀附近的 <strong>1名</strong> 敌国平民。</p> <p>平民照片如下图所示。</p> <p></p> <img src='stimuli/faces/PCM6.jpg', style='max-width: 30%;'> </img> <p><strong>你是否选择发射武器？</strong></p>","1",""
"","","","","","html-keyboard-response","8","96854","0.0-4.0-0.2","47","1","2022-11-27 09:50:35","7b1eb8be57ff77859c7d9ac988e43411","39.144.168.61","Mozilla/5.0 (Linux; Android 12; PEPM00 Build/SP1A.210812.016; wv) AppleWebKit/537.36 (KHTML, like Gecko) Version/4.0 Chrome/86.0.4240.99 XWEB/4343 MMWEBSDK/20220903 Mobile Safari/537.36 MMWEBID/1322 MicroMessenger/8.0.28.2240(0x28001C57) WeChat/arm64 Weixin NetType/5G Language/zh_CN ABI/arm64","WebKit","Chrome","86.0.4240.99","AndroidOS","12","null","<div style=""font-size:60px;"">+</div>","null",""
"","","","","","html-button-response","9","102932","0.0-4.0-1.2","47","1","2022-11-27 09:50:35","7b1eb8be57ff77859c7d9ac988e43411","39.144.168.61","Mozilla/5.0 (Linux; Android 12; PEPM00 Build/SP1A.210812.016; wv) AppleWebKit/537.36 (KHTML, like Gecko) Version/4.0 Chrome/86.0.4240.99 XWEB/4343 MMWEBSDK/20220903 Mobile Safari/537.36 MMWEBID/1322 MicroMessenger/8.0.28.2240(0x28001C57) WeChat/arm64 Weixin NetType/5G Language/zh_CN ABI/arm64","WebKit","Chrome","86.0.4240.99","AndroidOS","12","6059","<p>作为军队的指挥官，你可以选择发射导弹杀死 <strong>7名</strong> 敌国士兵，但会误杀附近的 <strong>1名</strong> 敌国平民。</p> <p>平民照片如下图所示。</p> <p></p> <img src='stimuli/faces/PCF3.jpg', style='max-width: 30%;'> </img> <p><strong>你是否选择发射武器？</strong></p>","1",""
"","","","","","html-keyboard-response","10","103939","0.0-4.0-0.3","47","1","2022-11-27 09:50:35","7b1eb8be57ff77859c7d9ac988e43411","39.144.168.61","Mozilla/5.0 (Linux; Android 12; PEPM00 Build/SP1A.210812.016; wv) AppleWebKit/537.36 (KHTML, like Gecko) Version/4.0 Chrome/86.0.4240.99 XWEB/4343 MMWEBSDK/20220903 Mobile Safari/537.36 MMWEBID/1322 MicroMessenger/8.0.28.2240(0x28001C57) WeChat/arm64 Weixin NetType/5G Language/zh_CN ABI/arm64","WebKit","Chrome","86.0.4240.99","AndroidOS","12","null","<div style=""font-size:60px;"">+</div>","null",""
"","","","","","html-button-response","11","108945","0.0-4.0-1.3","47","1","2022-11-27 09:50:35","7b1eb8be57ff77859c7d9ac988e43411","39.144.168.61","Mozilla/5.0 (Linux; Android 12; PEPM00 Build/SP1A.210812.016; wv) AppleWebKit/537.36 (KHTML, like Gecko) Version/4.0 Chrome/86.0.4240.99 XWEB/4343 MMWEBSDK/20220903 Mobile Safari/537.36 MMWEBID/1322 MicroMessenger/8.0.28.2240(0x28001C57) WeChat/arm64 Weixin NetType/5G Language/zh_CN ABI/arm64","WebKit","Chrome","86.0.4240.99","AndroidOS","12","4988","<p>作为军队的指挥官，你可以选择发射导弹杀死 <strong>10名</strong> 敌国士兵，但会误杀附近的 <strong>1名</strong> 敌国平民。</p> <p>平民照片如下图所示。</p> <p></p> <img src='stimuli/faces/PCM5.jpg', style='max-width: 30%;'> </img> <p><strong>你是否选择发射武器？</strong></p>","1",""
"","","","","","html-keyboard-response","12","109954","0.0-4.0-0.4","47","1","2022-11-27 09:50:35","7b1eb8be57ff77859c7d9ac988e43411","39.144.168.61","Mozilla/5.0 (Linux; Android 12; PEPM00 Build/SP1A.210812.016; wv) AppleWebKit/537.36 (KHTML, like Gecko) Version/4.0 Chrome/86.0.4240.99 XWEB/4343 MMWEBSDK/20220903 Mobile Safari/537.36 MMWEBID/1322 MicroMessenger/8.0.28.2240(0x28001C57) WeChat/arm64 Weixin NetType/5G Language/zh_CN ABI/arm64","WebKit","Chrome","86.0.4240.99","AndroidOS","12","null","<div style=""font-size:60px;"">+</div>","null",""
"","","","","","html-button-response","13","113268","0.0-4.0-1.4","47","1","2022-11-27 09:50:35","7b1eb8be57ff77859c7d9ac988e43411","39.144.168.61","Mozilla/5.0 (Linux; Android 12; PEPM00 Build/SP1A.210812.016; wv) AppleWebKit/537.36 (KHTML, like Gecko) Version/4.0 Chrome/86.0.4240.99 XWEB/4343 MMWEBSDK/20220903 Mobile Safari/537.36 MMWEBID/1322 MicroMessenger/8.0.28.2240(0x28001C57) WeChat/arm64 Weixin NetType/5G Language/zh_CN ABI/arm64","WebKit","Chrome","86.0.4240.99","AndroidOS","12","3298","<p>作为军队的指挥官，你可以选择发射导弹杀死 <strong>2名</strong> 敌国士兵，但会误杀附近的 <strong>1名</strong> 敌国平民。</p> <p>平民照片如下图所示。</p> <p></p> <img src='stimuli/faces/PCF3.jpg', style='max-width: 30%;'> </img> <p><strong>你是否选择发射武器？</strong></p>","1",""
"","","","","","html-keyboard-response","14","114276","0.0-4.0-0.5","47","1","2022-11-27 09:50:35","7b1eb8be57ff77859c7d9ac988e43411","39.144.168.61","Mozilla/5.0 (Linux; Android 12; PEPM00 Build/SP1A.210812.016; wv) AppleWebKit/537.36 (KHTML, like Gecko) Version/4.0 Chrome/86.0.4240.99 XWEB/4343 MMWEBSDK/20220903 Mobile Safari/537.36 MMWEBID/1322 MicroMessenger/8.0.28.2240(0x28001C57) WeChat/arm64 Weixin NetType/5G Language/zh_CN ABI/arm64","WebKit","Chrome","86.0.4240.99","AndroidOS","12","null","<div style=""font-size:60px;"">+</div>","null",""
"","","","","","html-button-response","15","121298","0.0-4.0-1.5","47","1","2022-11-27 09:50:35","7b1eb8be57ff77859c7d9ac988e43411","39.144.168.61","Mozilla/5.0 (Linux; Android 12; PEPM00 Build/SP1A.210812.016; wv) AppleWebKit/537.36 (KHTML, like Gecko) Version/4.0 Chrome/86.0.4240.99 XWEB/4343 MMWEBSDK/20220903 Mobile Safari/537.36 MMWEBID/1322 MicroMessenger/8.0.28.2240(0x28001C57) WeChat/arm64 Weixin NetType/5G Language/zh_CN ABI/arm64","WebKit","Chrome","86.0.4240.99","AndroidOS","12","7004","<p>作为军队的指挥官，你可以选择发射导弹杀死 <strong>1名</strong> 敌国士兵，但会炸毁附近的 <strong>1棵</strong> 敌国树木。</p> <p>树木的照片如下图所示。</p> <p></p> <img src='stimuli/trees/5.png', style='max-width: 30%;'> </img> <p><strong>你是否选择发射武器？</strong></p>","0",""
"","","","","","html-keyboard-response","16","122306","0.0-4.0-0.6","47","1","2022-11-27 09:50:35","7b1eb8be57ff77859c7d9ac988e43411","39.144.168.61","Mozilla/5.0 (Linux; Android 12; PEPM00 Build/SP1A.210812.016; wv) AppleWebKit/537.36 (KHTML, like Gecko) Version/4.0 Chrome/86.0.4240.99 XWEB/4343 MMWEBSDK/20220903 Mobile Safari/537.36 MMWEBID/1322 MicroMessenger/8.0.28.2240(0x28001C57) WeChat/arm64 Weixin NetType/5G Language/zh_CN ABI/arm64","WebKit","Chrome","86.0.4240.99","AndroidOS","12","null","<div style=""font-size:60px;"">+</div>","null",""
"","","","","","html-button-response","17","125732","0.0-4.0-1.6","47","1","2022-11-27 09:50:35","7b1eb8be57ff77859c7d9ac988e43411","39.144.168.61","Mozilla/5.0 (Linux; Android 12; PEPM00 Build/SP1A.210812.016; wv) AppleWebKit/537.36 (KHTML, like Gecko) Version/4.0 Chrome/86.0.4240.99 XWEB/4343 MMWEBSDK/20220903 Mobile Safari/537.36 MMWEBID/1322 MicroMessenger/8.0.28.2240(0x28001C57) WeChat/arm64 Weixin NetType/5G Language/zh_CN ABI/arm64","WebKit","Chrome","86.0.4240.99","AndroidOS","12","3417","<p>作为军队的指挥官，你可以选择发射导弹杀死 <strong>9名</strong> 敌国士兵，但会误杀附近的 <strong>1名</strong> 敌国平民。</p> <p>平民照片如下图所示。</p> <p></p> <img src='stimuli/faces/PCF2.jpg', style='max-width: 30%;'> </img> <p><strong>你是否选择发射武器？</strong></p>","1",""
"","","","","","html-keyboard-response","18","126739","0.0-4.0-0.7","47","1","2022-11-27 09:50:35","7b1eb8be57ff77859c7d9ac988e43411","39.144.168.61","Mozilla/5.0 (Linux; Android 12; PEPM00 Build/SP1A.210812.016; wv) AppleWebKit/537.36 (KHTML, like Gecko) Version/4.0 Chrome/86.0.4240.99 XWEB/4343 MMWEBSDK/20220903 Mobile Safari/537.36 MMWEBID/1322 MicroMessenger/8.0.28.2240(0x28001C57) WeChat/arm64 Weixin NetType/5G Language/zh_CN ABI/arm64","WebKit","Chrome","86.0.4240.99","AndroidOS","12","null","<div style=""font-size:60px;"">+</div>","null",""
"","","","","","html-button-response","19","133387","0.0-4.0-1.7","47","1","2022-11-27 09:50:35","7b1eb8be57ff77859c7d9ac988e43411","39.144.168.61","Mozilla/5.0 (Linux; Android 12; PEPM00 Build/SP1A.210812.016; wv) AppleWebKit/537.36 (KHTML, like Gecko) Version/4.0 Chrome/86.0.4240.99 XWEB/4343 MMWEBSDK/20220903 Mobile Safari/537.36 MMWEBID/1322 MicroMessenger/8.0.28.2240(0x28001C57) WeChat/arm64 Weixin NetType/5G Language/zh_CN ABI/arm64","WebKit","Chrome","86.0.4240.99","AndroidOS","12","6628","<p>作为军队的指挥官，你可以选择发射导弹杀死 <strong>3名</strong> 敌国士兵，但会误杀附近的 <strong>1名</strong> 敌国平民。</p> <p>平民照片如下图所示。</p> <p></p> <img src='stimuli/faces/PCM4.jpg', style='max-width: 30%;'> </img> <p><strong>你是否选择发射武器？</strong></p>","1",""
"","","","","","html-keyboard-response","20","134394","0.0-4.0-0.8","47","1","2022-11-27 09:50:35","7b1eb8be57ff77859c7d9ac988e43411","39.144.168.61","Mozilla/5.0 (Linux; Android 12; PEPM00 Build/SP1A.210812.016; wv) AppleWebKit/537.36 (KHTML, like Gecko) Version/4.0 Chrome/86.0.4240.99 XWEB/4343 MMWEBSDK/20220903 Mobile Safari/537.36 MMWEBID/1322 MicroMessenger/8.0.28.2240(0x28001C57) WeChat/arm64 Weixin NetType/5G Language/zh_CN ABI/arm64","WebKit","Chrome","86.0.4240.99","AndroidOS","12","null","<div style=""font-size:60px;"">+</div>","null",""
"","","","","","html-button-response","21","139377","0.0-4.0-1.8","47","1","2022-11-27 09:50:35","7b1eb8be57ff77859c7d9ac988e43411","39.144.168.61","Mozilla/5.0 (Linux; Android 12; PEPM00 Build/SP1A.210812.016; wv) AppleWebKit/537.36 (KHTML, like Gecko) Version/4.0 Chrome/86.0.4240.99 XWEB/4343 MMWEBSDK/20220903 Mobile Safari/537.36 MMWEBID/1322 MicroMessenger/8.0.28.2240(0x28001C57) WeChat/arm64 Weixin NetType/5G Language/zh_CN ABI/arm64","WebKit","Chrome","86.0.4240.99","AndroidOS","12","4957","<p>作为军队的指挥官，你可以选择发射导弹杀死 <strong>7名</strong> 敌国士兵，但会误杀附近的 <strong>1名</strong> 敌国平民。</p> <p>平民照片如下图所示。</p> <p></p> <img src='stimuli/faces/PCF1.jpg', style='max-width: 30%;'> </img> <p><strong>你是否选择发射武器？</strong></p>","1",""
"","","","","","html-keyboard-response","22","140386","0.0-4.0-0.9","47","1","2022-11-27 09:50:35","7b1eb8be57ff77859c7d9ac988e43411","39.144.168.61","Mozilla/5.0 (Linux; Android 12; PEPM00 Build/SP1A.210812.016; wv) AppleWebKit/537.36 (KHTML, like Gecko) Version/4.0 Chrome/86.0.4240.99 XWEB/4343 MMWEBSDK/20220903 Mobile Safari/537.36 MMWEBID/1322 MicroMessenger/8.0.28.2240(0x28001C57) WeChat/arm64 Weixin NetType/5G Language/zh_CN ABI/arm64","WebKit","Chrome","86.0.4240.99","AndroidOS","12","null","<div style=""font-size:60px;"">+</div>","null",""
"","","","","","html-button-response","23","147068","0.0-4.0-1.9","47","1","2022-11-27 09:50:35","7b1eb8be57ff77859c7d9ac988e43411","39.144.168.61","Mozilla/5.0 (Linux; Android 12; PEPM00 Build/SP1A.210812.016; wv) AppleWebKit/537.36 (KHTML, like Gecko) Version/4.0 Chrome/86.0.4240.99 XWEB/4343 MMWEBSDK/20220903 Mobile Safari/537.36 MMWEBID/1322 MicroMessenger/8.0.28.2240(0x28001C57) WeChat/arm64 Weixin NetType/5G Language/zh_CN ABI/arm64","WebKit","Chrome","86.0.4240.99","AndroidOS","12","6652","<p>作为军队的指挥官，你可以选择发射导弹杀死 <strong>4名</strong> 敌国士兵，但会炸毁附近的 <strong>1棵</strong> 敌国树木。</p> <p>树木的照片如下图所示。</p> <p></p> <img src='stimuli/trees/14.png', style='max-width: 30%;'> </img> <p><strong>你是否选择发射武器？</strong></p>","0",""
"","","","","","html-keyboard-response","24","148077","0.0-4.0-0.10","47","1","2022-11-27 09:50:35","7b1eb8be57ff77859c7d9ac988e43411","39.144.168.61","Mozilla/5.0 (Linux; Android 12; PEPM00 Build/SP1A.210812.016; wv) AppleWebKit/537.36 (KHTML, like Gecko) Version/4.0 Chrome/86.0.4240.99 XWEB/4343 MMWEBSDK/20220903 Mobile Safari/537.36 MMWEBID/1322 MicroMessenger/8.0.28.2240(0x28001C57) WeChat/arm64 Weixin NetType/5G Language/zh_CN ABI/arm64","WebKit","Chrome","86.0.4240.99","AndroidOS","12","null","<div style=""font-size:60px;"">+</div>","null",""
"","","","","","html-button-response","25","152583","0.0-4.0-1.10","47","1","2022-11-27 09:50:35","7b1eb8be57ff77859c7d9ac988e43411","39.144.168.61","Mozilla/5.0 (Linux; Android 12; PEPM00 Build/SP1A.210812.016; wv) AppleWebKit/537.36 (KHTML, like Gecko) Version/4.0 Chrome/86.0.4240.99 XWEB/4343 MMWEBSDK/20220903 Mobile Safari/537.36 MMWEBID/1322 MicroMessenger/8.0.28.2240(0x28001C57) WeChat/arm64 Weixin NetType/5G Language/zh_CN ABI/arm64","WebKit","Chrome","86.0.4240.99","AndroidOS","12","4479","<p>作为军队的指挥官，你可以选择发射导弹杀死 <strong>1名</strong> 敌国士兵，但会炸毁附近的 <strong>1棵</strong> 敌国树木。</p> <p>树木的照片如下图所示。</p> <p></p> <img src='stimuli/trees/3.png', style='max-width: 30%;'> </img> <p><strong>你是否选择发射武器？</strong></p>","0",""
"","","","","","html-keyboard-response","26","153594","0.0-4.0-0.11","47","1","2022-11-27 09:50:35","7b1eb8be57ff77859c7d9ac988e43411","39.144.168.61","Mozilla/5.0 (Linux; Android 12; PEPM00 Build/SP1A.210812.016; wv) AppleWebKit/537.36 (KHTML, like Gecko) Version/4.0 Chrome/86.0.4240.99 XWEB/4343 MMWEBSDK/20220903 Mobile Safari/537.36 MMWEBID/1322 MicroMessenger/8.0.28.2240(0x28001C57) WeChat/arm64 Weixin NetType/5G Language/zh_CN ABI/arm64","WebKit","Chrome","86.0.4240.99","AndroidOS","12","null","<div style=""font-size:60px;"">+</div>","null",""
"","","","","","html-button-response","27","156332","0.0-4.0-1.11","47","1","2022-11-27 09:50:35","7b1eb8be57ff77859c7d9ac988e43411","39.144.168.61","Mozilla/5.0 (Linux; Android 12; PEPM00 Build/SP1A.210812.016; wv) AppleWebKit/537.36 (KHTML, like Gecko) Version/4.0 Chrome/86.0.4240.99 XWEB/4343 MMWEBSDK/20220903 Mobile Safari/537.36 MMWEBID/1322 MicroMessenger/8.0.28.2240(0x28001C57) WeChat/arm64 Weixin NetType/5G Language/zh_CN ABI/arm64","WebKit","Chrome","86.0.4240.99","AndroidOS","12","2718","<p>作为军队的指挥官，你可以选择发射导弹杀死 <strong>3名</strong> 敌国士兵，但会误杀附近的 <strong>1名</strong> 敌国平民。</p> <p>平民照片如下图所示。</p> <p></p> <img src='stimuli/faces/PCF4.jpg', style='max-width: 30%;'> </img> <p><strong>你是否选择发射武器？</strong></p>","1",""
"","","","","","html-keyboard-response","28","157338","0.0-4.0-0.12","47","1","2022-11-27 09:50:35","7b1eb8be57ff77859c7d9ac988e43411","39.144.168.61","Mozilla/5.0 (Linux; Android 12; PEPM00 Build/SP1A.210812.016; wv) AppleWebKit/537.36 (KHTML, like Gecko) Version/4.0 Chrome/86.0.4240.99 XWEB/4343 MMWEBSDK/20220903 Mobile Safari/537.36 MMWEBID/1322 MicroMessenger/8.0.28.2240(0x28001C57) WeChat/arm64 Weixin NetType/5G Language/zh_CN ABI/arm64","WebKit","Chrome","86.0.4240.99","AndroidOS","12","null","<div style=""font-size:60px;"">+</div>","null",""
"","","","","","html-button-response","29","159635","0.0-4.0-1.12","47","1","2022-11-27 09:50:35","7b1eb8be57ff77859c7d9ac988e43411","39.144.168.61","Mozilla/5.0 (Linux; Android 12; PEPM00 Build/SP1A.210812.016; wv) AppleWebKit/537.36 (KHTML, like Gecko) Version/4.0 Chrome/86.0.4240.99 XWEB/4343 MMWEBSDK/20220903 Mobile Safari/537.36 MMWEBID/1322 MicroMessenger/8.0.28.2240(0x28001C57) WeChat/arm64 Weixin NetType/5G Language/zh_CN ABI/arm64","WebKit","Chrome","86.0.4240.99","AndroidOS","12","2275","<p>作为军队的指挥官，你可以选择发射导弹杀死 <strong>8名</strong> 敌国士兵，但会炸毁附近的 <strong>1棵</strong> 敌国树木。</p> <p>树木的照片如下图所示。</p> <p></p> <img src='stimuli/trees/15.png', style='max-width: 30%;'> </img> <p><strong>你是否选择发射武器？</strong></p>","0",""
"","","","","","html-keyboard-response","30","160649","0.0-4.0-0.13","47","1","2022-11-27 09:50:35","7b1eb8be57ff77859c7d9ac988e43411","39.144.168.61","Mozilla/5.0 (Linux; Android 12; PEPM00 Build/SP1A.210812.016; wv) AppleWebKit/537.36 (KHTML, like Gecko) Version/4.0 Chrome/86.0.4240.99 XWEB/4343 MMWEBSDK/20220903 Mobile Safari/537.36 MMWEBID/1322 MicroMessenger/8.0.28.2240(0x28001C57) WeChat/arm64 Weixin NetType/5G Language/zh_CN ABI/arm64","WebKit","Chrome","86.0.4240.99","AndroidOS","12","null","<div style=""font-size:60px;"">+</div>","null",""
"","","","","","html-button-response","31","165557","0.0-4.0-1.13","47","1","2022-11-27 09:50:35","7b1eb8be57ff77859c7d9ac988e43411","39.144.168.61","Mozilla/5.0 (Linux; Android 12; PEPM00 Build/SP1A.210812.016; wv) AppleWebKit/537.36 (KHTML, like Gecko) Version/4.0 Chrome/86.0.4240.99 XWEB/4343 MMWEBSDK/20220903 Mobile Safari/537.36 MMWEBID/1322 MicroMessenger/8.0.28.2240(0x28001C57) WeChat/arm64 Weixin NetType/5G Language/zh_CN ABI/arm64","WebKit","Chrome","86.0.4240.99","AndroidOS","12","4893","<p>作为军队的指挥官，你可以选择发射导弹杀死 <strong>9名</strong> 敌国士兵，但会炸毁附近的 <strong>1棵</strong> 敌国树木。</p> <p>树木的照片如下图所示。</p> <p></p> <img src='stimuli/trees/8.png', style='max-width: 30%;'> </img> <p><strong>你是否选择发射武器？</strong></p>","0",""
"","","","","","html-keyboard-response","32","166568","0.0-4.0-0.14","47","1","2022-11-27 09:50:35","7b1eb8be57ff77859c7d9ac988e43411","39.144.168.61","Mozilla/5.0 (Linux; Android 12; PEPM00 Build/SP1A.210812.016; wv) AppleWebKit/537.36 (KHTML, like Gecko) Version/4.0 Chrome/86.0.4240.99 XWEB/4343 MMWEBSDK/20220903 Mobile Safari/537.36 MMWEBID/1322 MicroMessenger/8.0.28.2240(0x28001C57) WeChat/arm64 Weixin NetType/5G Language/zh_CN ABI/arm64","WebKit","Chrome","86.0.4240.99","AndroidOS","12","null","<div style=""font-size:60px;"">+</div>","null",""
"","","","","","html-button-response","33","171103","0.0-4.0-1.14","47","1","2022-11-27 09:50:35","7b1eb8be57ff77859c7d9ac988e43411","39.144.168.61","Mozilla/5.0 (Linux; Android 12; PEPM00 Build/SP1A.210812.016; wv) AppleWebKit/537.36 (KHTML, like Gecko) Version/4.0 Chrome/86.0.4240.99 XWEB/4343 MMWEBSDK/20220903 Mobile Safari/537.36 MMWEBID/1322 MicroMessenger/8.0.28.2240(0x28001C57) WeChat/arm64 Weixin NetType/5G Language/zh_CN ABI/arm64","WebKit","Chrome","86.0.4240.99","AndroidOS","12","4511","<p>作为军队的指挥官，你可以选择发射导弹杀死 <strong>10名</strong> 敌国士兵，但会误杀附近的 <strong>1名</strong> 敌国平民。</p> <p>平民照片如下图所示。</p> <p></p> <img src='stimuli/faces/PCM1.jpg', style='max-width: 30%;'> </img> <p><strong>你是否选择发射武器？</strong></p>","1",""
"","","","","","html-keyboard-response","34","172119","0.0-4.0-0.15","47","1","2022-11-27 09:50:35","7b1eb8be57ff77859c7d9ac988e43411","39.144.168.61","Mozilla/5.0 (Linux; Android 12; PEPM00 Build/SP1A.210812.016; wv) AppleWebKit/537.36 (KHTML, like Gecko) Version/4.0 Chrome/86.0.4240.99 XWEB/4343 MMWEBSDK/20220903 Mobile Safari/537.36 MMWEBID/1322 MicroMessenger/8.0.28.2240(0x28001C57) WeChat/arm64 Weixin NetType/5G Language/zh_CN ABI/arm64","WebKit","Chrome","86.0.4240.99","AndroidOS","12","null","<div style=""font-size:60px;"">+</div>","null",""
"","","","","","html-button-response","35","175353","0.0-4.0-1.15","47","1","2022-11-27 09:50:35","7b1eb8be57ff77859c7d9ac988e43411","39.144.168.61","Mozilla/5.0 (Linux; Android 12; PEPM00 Build/SP1A.210812.016; wv) AppleWebKit/537.36 (KHTML, like Gecko) Version/4.0 Chrome/86.0.4240.99 XWEB/4343 MMWEBSDK/20220903 Mobile Safari/537.36 MMWEBID/1322 MicroMessenger/8.0.28.2240(0x28001C57) WeChat/arm64 Weixin NetType/5G Language/zh_CN ABI/arm64","WebKit","Chrome","86.0.4240.99","AndroidOS","12","3220","<p>作为军队的指挥官，你可以选择发射导弹杀死 <strong>3名</strong> 敌国士兵，但会误杀附近的 <strong>1名</strong> 敌国平民。</p> <p>平民照片如下图所示。</p> <p></p> <img src='stimuli/faces/PCF6.jpg', style='max-width: 30%;'> </img> <p><strong>你是否选择发射武器？</strong></p>","1",""
"","","","","","html-keyboard-response","36","176363","0.0-4.0-0.16","47","1","2022-11-27 09:50:35","7b1eb8be57ff77859c7d9ac988e43411","39.144.168.61","Mozilla/5.0 (Linux; Android 12; PEPM00 Build/SP1A.210812.016; wv) AppleWebKit/537.36 (KHTML, like Gecko) Version/4.0 Chrome/86.0.4240.99 XWEB/4343 MMWEBSDK/20220903 Mobile Safari/537.36 MMWEBID/1322 MicroMessenger/8.0.28.2240(0x28001C57) WeChat/arm64 Weixin NetType/5G Language/zh_CN ABI/arm64","WebKit","Chrome","86.0.4240.99","AndroidOS","12","null","<div style=""font-size:60px;"">+</div>","null",""
"","","","","","html-button-response","37","178696","0.0-4.0-1.16","47","1","2022-11-27 09:50:35","7b1eb8be57ff77859c7d9ac988e43411","39.144.168.61","Mozilla/5.0 (Linux; Android 12; PEPM00 Build/SP1A.210812.016; wv) AppleWebKit/537.36 (KHTML, like Gecko) Version/4.0 Chrome/86.0.4240.99 XWEB/4343 MMWEBSDK/20220903 Mobile Safari/537.36 MMWEBID/1322 MicroMessenger/8.0.28.2240(0x28001C57) WeChat/arm64 Weixin NetType/5G Language/zh_CN ABI/arm64","WebKit","Chrome","86.0.4240.99","AndroidOS","12","2312","<p>作为军队的指挥官，你可以选择发射导弹杀死 <strong>3名</strong> 敌国士兵，但会炸毁附近的 <strong>1棵</strong> 敌国树木。</p> <p>树木的照片如下图所示。</p> <p></p> <img src='stimuli/trees/12.png', style='max-width: 30%;'> </img> <p><strong>你是否选择发射武器？</strong></p>","0",""
"","","","","","html-keyboard-response","38","179705","0.0-4.0-0.17","47","1","2022-11-27 09:50:35","7b1eb8be57ff77859c7d9ac988e43411","39.144.168.61","Mozilla/5.0 (Linux; Android 12; PEPM00 Build/SP1A.210812.016; wv) AppleWebKit/537.36 (KHTML, like Gecko) Version/4.0 Chrome/86.0.4240.99 XWEB/4343 MMWEBSDK/20220903 Mobile Safari/537.36 MMWEBID/1322 MicroMessenger/8.0.28.2240(0x28001C57) WeChat/arm64 Weixin NetType/5G Language/zh_CN ABI/arm64","WebKit","Chrome","86.0.4240.99","AndroidOS","12","null","<div style=""font-size:60px;"">+</div>","null",""
"","","","","","html-button-response","39","181819","0.0-4.0-1.17","47","1","2022-11-27 09:50:35","7b1eb8be57ff77859c7d9ac988e43411","39.144.168.61","Mozilla/5.0 (Linux; Android 12; PEPM00 Build/SP1A.210812.016; wv) AppleWebKit/537.36 (KHTML, like Gecko) Version/4.0 Chrome/86.0.4240.99 XWEB/4343 MMWEBSDK/20220903 Mobile Safari/537.36 MMWEBID/1322 MicroMessenger/8.0.28.2240(0x28001C57) WeChat/arm64 Weixin NetType/5G Language/zh_CN ABI/arm64","WebKit","Chrome","86.0.4240.99","AndroidOS","12","2093","<p>作为军队的指挥官，你可以选择发射导弹杀死 <strong>2名</strong> 敌国士兵，但会炸毁附近的 <strong>1棵</strong> 敌国树木。</p> <p>树木的照片如下图所示。</p> <p></p> <img src='stimuli/trees/16.png', style='max-width: 30%;'> </img> <p><strong>你是否选择发射武器？</strong></p>","0",""
"","","","","","html-keyboard-response","40","182829","0.0-4.0-0.18","47","1","2022-11-27 09:50:35","7b1eb8be57ff77859c7d9ac988e43411","39.144.168.61","Mozilla/5.0 (Linux; Android 12; PEPM00 Build/SP1A.210812.016; wv) AppleWebKit/537.36 (KHTML, like Gecko) Version/4.0 Chrome/86.0.4240.99 XWEB/4343 MMWEBSDK/20220903 Mobile Safari/537.36 MMWEBID/1322 MicroMessenger/8.0.28.2240(0x28001C57) WeChat/arm64 Weixin NetType/5G Language/zh_CN ABI/arm64","WebKit","Chrome","86.0.4240.99","AndroidOS","12","null","<div style=""font-size:60px;"">+</div>","null",""
"","","","","","html-button-response","41","184594","0.0-4.0-1.18","47","1","2022-11-27 09:50:35","7b1eb8be57ff77859c7d9ac988e43411","39.144.168.61","Mozilla/5.0 (Linux; Android 12; PEPM00 Build/SP1A.210812.016; wv) AppleWebKit/537.36 (KHTML, like Gecko) Version/4.0 Chrome/86.0.4240.99 XWEB/4343 MMWEBSDK/20220903 Mobile Safari/537.36 MMWEBID/1322 MicroMessenger/8.0.28.2240(0x28001C57) WeChat/arm64 Weixin NetType/5G Language/zh_CN ABI/arm64","WebKit","Chrome","86.0.4240.99","AndroidOS","12","1748","<p>作为军队的指挥官，你可以选择发射导弹杀死 <strong>2名</strong> 敌国士兵，但会误杀附近的 <strong>1名</strong> 敌国平民。</p> <p>平民照片如下图所示。</p> <p></p> <img src='stimuli/faces/PCM7.jpg', style='max-width: 30%;'> </img> <p><strong>你是否选择发射武器？</strong></p>","1",""
"","","","","","html-keyboard-response","42","185606","0.0-4.0-0.19","47","1","2022-11-27 09:50:35","7b1eb8be57ff77859c7d9ac988e43411","39.144.168.61","Mozilla/5.0 (Linux; Android 12; PEPM00 Build/SP1A.210812.016; wv) AppleWebKit/537.36 (KHTML, like Gecko) Version/4.0 Chrome/86.0.4240.99 XWEB/4343 MMWEBSDK/20220903 Mobile Safari/537.36 MMWEBID/1322 MicroMessenger/8.0.28.2240(0x28001C57) WeChat/arm64 Weixin NetType/5G Language/zh_CN ABI/arm64","WebKit","Chrome","86.0.4240.99","AndroidOS","12","null","<div style=""font-size:60px;"">+</div>","null",""
"","","","","","html-button-response","43","189962","0.0-4.0-1.19","47","1","2022-11-27 09:50:35","7b1eb8be57ff77859c7d9ac988e43411","39.144.168.61","Mozilla/5.0 (Linux; Android 12; PEPM00 Build/SP1A.210812.016; wv) AppleWebKit/537.36 (KHTML, like Gecko) Version/4.0 Chrome/86.0.4240.99 XWEB/4343 MMWEBSDK/20220903 Mobile Safari/537.36 MMWEBID/1322 MicroMessenger/8.0.28.2240(0x28001C57) WeChat/arm64 Weixin NetType/5G Language/zh_CN ABI/arm64","WebKit","Chrome","86.0.4240.99","AndroidOS","12","4330","<p>作为军队的指挥官，你可以选择发射导弹杀死 <strong>10名</strong> 敌国士兵，但会炸毁附近的 <strong>1棵</strong> 敌国树木。</p> <p>树木的照片如下图所示。</p> <p></p> <img src='stimuli/trees/11.png', style='max-width: 30%;'> </img> <p><strong>你是否选择发射武器？</strong></p>","0",""
"","","","","","html-keyboard-response","44","190968","0.0-4.0-0.20","47","1","2022-11-27 09:50:35","7b1eb8be57ff77859c7d9ac988e43411","39.144.168.61","Mozilla/5.0 (Linux; Android 12; PEPM00 Build/SP1A.210812.016; wv) AppleWebKit/537.36 (KHTML, like Gecko) Version/4.0 Chrome/86.0.4240.99 XWEB/4343 MMWEBSDK/20220903 Mobile Safari/537.36 MMWEBID/1322 MicroMessenger/8.0.28.2240(0x28001C57) WeChat/arm64 Weixin NetType/5G Language/zh_CN ABI/arm64","WebKit","Chrome","86.0.4240.99","AndroidOS","12","null","<div style=""font-size:60px;"">+</div>","null",""
"","","","","","html-button-response","45","193345","0.0-4.0-1.20","47","1","2022-11-27 09:50:35","7b1eb8be57ff77859c7d9ac988e43411","39.144.168.61","Mozilla/5.0 (Linux; Android 12; PEPM00 Build/SP1A.210812.016; wv) AppleWebKit/537.36 (KHTML, like Gecko) Version/4.0 Chrome/86.0.4240.99 XWEB/4343 MMWEBSDK/20220903 Mobile Safari/537.36 MMWEBID/1322 MicroMessenger/8.0.28.2240(0x28001C57) WeChat/arm64 Weixin NetType/5G Language/zh_CN ABI/arm64","WebKit","Chrome","86.0.4240.99","AndroidOS","12","2350","<p>作为军队的指挥官，你可以选择发射导弹杀死 <strong>6名</strong> 敌国士兵，但会误杀附近的 <strong>1名</strong> 敌国平民。</p> <p>平民照片如下图所示。</p> <p></p> <img src='stimuli/faces/PCM6.jpg', style='max-width: 30%;'> </img> <p><strong>你是否选择发射武器？</strong></p>","1",""
"","","","","","html-keyboard-response","46","194352","0.0-4.0-0.21","47","1","2022-11-27 09:50:35","7b1eb8be57ff77859c7d9ac988e43411","39.144.168.61","Mozilla/5.0 (Linux; Android 12; PEPM00 Build/SP1A.210812.016; wv) AppleWebKit/537.36 (KHTML, like Gecko) Version/4.0 Chrome/86.0.4240.99 XWEB/4343 MMWEBSDK/20220903 Mobile Safari/537.36 MMWEBID/1322 MicroMessenger/8.0.28.2240(0x28001C57) WeChat/arm64 Weixin NetType/5G Language/zh_CN ABI/arm64","WebKit","Chrome","86.0.4240.99","AndroidOS","12","null","<div style=""font-size:60px;"">+</div>","null",""
"","","","","","html-button-response","47","196136","0.0-4.0-1.21","47","1","2022-11-27 09:50:35","7b1eb8be57ff77859c7d9ac988e43411","39.144.168.61","Mozilla/5.0 (Linux; Android 12; PEPM00 Build/SP1A.210812.016; wv) AppleWebKit/537.36 (KHTML, like Gecko) Version/4.0 Chrome/86.0.4240.99 XWEB/4343 MMWEBSDK/20220903 Mobile Safari/537.36 MMWEBID/1322 MicroMessenger/8.0.28.2240(0x28001C57) WeChat/arm64 Weixin NetType/5G Language/zh_CN ABI/arm64","WebKit","Chrome","86.0.4240.99","AndroidOS","12","1768","<p>作为军队的指挥官，你可以选择发射导弹杀死 <strong>5名</strong> 敌国士兵，但会误杀附近的 <strong>1名</strong> 敌国平民。</p> <p>平民照片如下图所示。</p> <p></p> <img src='stimuli/faces/PCF2.jpg', style='max-width: 30%;'> </img> <p><strong>你是否选择发射武器？</strong></p>","1",""
"","","","","","html-keyboard-response","48","197150","0.0-4.0-0.22","47","1","2022-11-27 09:50:35","7b1eb8be57ff77859c7d9ac988e43411","39.144.168.61","Mozilla/5.0 (Linux; Android 12; PEPM00 Build/SP1A.210812.016; wv) AppleWebKit/537.36 (KHTML, like Gecko) Version/4.0 Chrome/86.0.4240.99 XWEB/4343 MMWEBSDK/20220903 Mobile Safari/537.36 MMWEBID/1322 MicroMessenger/8.0.28.2240(0x28001C57) WeChat/arm64 Weixin NetType/5G Language/zh_CN ABI/arm64","WebKit","Chrome","86.0.4240.99","AndroidOS","12","null","<div style=""font-size:60px;"">+</div>","null",""
"","","","","","html-button-response","49","199764","0.0-4.0-1.22","47","1","2022-11-27 09:50:35","7b1eb8be57ff77859c7d9ac988e43411","39.144.168.61","Mozilla/5.0 (Linux; Android 12; PEPM00 Build/SP1A.210812.016; wv) AppleWebKit/537.36 (KHTML, like Gecko) Version/4.0 Chrome/86.0.4240.99 XWEB/4343 MMWEBSDK/20220903 Mobile Safari/537.36 MMWEBID/1322 MicroMessenger/8.0.28.2240(0x28001C57) WeChat/arm64 Weixin NetType/5G Language/zh_CN ABI/arm64","WebKit","Chrome","86.0.4240.99","AndroidOS","12","2602","<p>作为军队的指挥官，你可以选择发射导弹杀死 <strong>6名</strong> 敌国士兵，但会误杀附近的 <strong>1名</strong> 敌国平民。</p> <p>平民照片如下图所示。</p> <p></p> <img src='stimuli/faces/PCF5.jpg', style='max-width: 30%;'> </img> <p><strong>你是否选择发射武器？</strong></p>","1",""
"","","","","","html-keyboard-response","50","200779","0.0-4.0-0.23","47","1","2022-11-27 09:50:35","7b1eb8be57ff77859c7d9ac988e43411","39.144.168.61","Mozilla/5.0 (Linux; Android 12; PEPM00 Build/SP1A.210812.016; wv) AppleWebKit/537.36 (KHTML, like Gecko) Version/4.0 Chrome/86.0.4240.99 XWEB/4343 MMWEBSDK/20220903 Mobile Safari/537.36 MMWEBID/1322 MicroMessenger/8.0.28.2240(0x28001C57) WeChat/arm64 Weixin NetType/5G Language/zh_CN ABI/arm64","WebKit","Chrome","86.0.4240.99","AndroidOS","12","null","<div style=""font-size:60px;"">+</div>","null",""
"","","","","","html-button-response","51","203355","0.0-4.0-1.23","47","1","2022-11-27 09:50:35","7b1eb8be57ff77859c7d9ac988e43411","39.144.168.61","Mozilla/5.0 (Linux; Android 12; PEPM00 Build/SP1A.210812.016; wv) AppleWebKit/537.36 (KHTML, like Gecko) Version/4.0 Chrome/86.0.4240.99 XWEB/4343 MMWEBSDK/20220903 Mobile Safari/537.36 MMWEBID/1322 MicroMessenger/8.0.28.2240(0x28001C57) WeChat/arm64 Weixin NetType/5G Language/zh_CN ABI/arm64","WebKit","Chrome","86.0.4240.99","AndroidOS","12","2555","<p>作为军队的指挥官，你可以选择发射导弹杀死 <strong>8名</strong> 敌国士兵，但会误杀附近的 <strong>1名</strong> 敌国平民。</p> <p>平民照片如下图所示。</p> <p></p> <img src='stimuli/faces/PCM4.jpg', style='max-width: 30%;'> </img> <p><strong>你是否选择发射武器？</strong></p>","1",""
"","","","","","html-keyboard-response","52","204370","0.0-4.0-0.24","47","1","2022-11-27 09:50:35","7b1eb8be57ff77859c7d9ac988e43411","39.144.168.61","Mozilla/5.0 (Linux; Android 12; PEPM00 Build/SP1A.210812.016; wv) AppleWebKit/537.36 (KHTML, like Gecko) Version/4.0 Chrome/86.0.4240.99 XWEB/4343 MMWEBSDK/20220903 Mobile Safari/537.36 MMWEBID/1322 MicroMessenger/8.0.28.2240(0x28001C57) WeChat/arm64 Weixin NetType/5G Language/zh_CN ABI/arm64","WebKit","Chrome","86.0.4240.99","AndroidOS","12","null","<div style=""font-size:60px;"">+</div>","null",""
"","","","","","html-button-response","53","205943","0.0-4.0-1.24","47","1","2022-11-27 09:50:35","7b1eb8be57ff77859c7d9ac988e43411","39.144.168.61","Mozilla/5.0 (Linux; Android 12; PEPM00 Build/SP1A.210812.016; wv) AppleWebKit/537.36 (KHTML, like Gecko) Version/4.0 Chrome/86.0.4240.99 XWEB/4343 MMWEBSDK/20220903 Mobile Safari/537.36 MMWEBID/1322 MicroMessenger/8.0.28.2240(0x28001C57) WeChat/arm64 Weixin NetType/5G Language/zh_CN ABI/arm64","WebKit","Chrome","86.0.4240.99","AndroidOS","12","1552","<p>作为军队的指挥官，你可以选择发射导弹杀死 <strong>5名</strong> 敌国士兵，但会炸毁附近的 <strong>1棵</strong> 敌国树木。</p> <p>树木的照片如下图所示。</p> <p></p> <img src='stimuli/trees/9.png', style='max-width: 30%;'> </img> <p><strong>你是否选择发射武器？</strong></p>","0",""
"","","","","","html-keyboard-response","54","206957","0.0-4.0-0.25","47","1","2022-11-27 09:50:35","7b1eb8be57ff77859c7d9ac988e43411","39.144.168.61","Mozilla/5.0 (Linux; Android 12; PEPM00 Build/SP1A.210812.016; wv) AppleWebKit/537.36 (KHTML, like Gecko) Version/4.0 Chrome/86.0.4240.99 XWEB/4343 MMWEBSDK/20220903 Mobile Safari/537.36 MMWEBID/1322 MicroMessenger/8.0.28.2240(0x28001C57) WeChat/arm64 Weixin NetType/5G Language/zh_CN ABI/arm64","WebKit","Chrome","86.0.4240.99","AndroidOS","12","null","<div style=""font-size:60px;"">+</div>","null",""
"","","","","","html-button-response","55","212650","0.0-4.0-1.25","47","1","2022-11-27 09:50:35","7b1eb8be57ff77859c7d9ac988e43411","39.144.168.61","Mozilla/5.0 (Linux; Android 12; PEPM00 Build/SP1A.210812.016; wv) AppleWebKit/537.36 (KHTML, like Gecko) Version/4.0 Chrome/86.0.4240.99 XWEB/4343 MMWEBSDK/20220903 Mobile Safari/537.36 MMWEBID/1322 MicroMessenger/8.0.28.2240(0x28001C57) WeChat/arm64 Weixin NetType/5G Language/zh_CN ABI/arm64","WebKit","Chrome","86.0.4240.99","AndroidOS","12","5675","<p>作为军队的指挥官，你可以选择发射导弹杀死 <strong>2名</strong> 敌国士兵，但会误杀附近的 <strong>1名</strong> 敌国平民。</p> <p>平民照片如下图所示。</p> <p></p> <img src='stimuli/faces/PCM3.jpg', style='max-width: 30%;'> </img> <p><strong>你是否选择发射武器？</strong></p>","1",""
"","","","","","html-keyboard-response","56","213655","0.0-4.0-0.26","47","1","2022-11-27 09:50:35","7b1eb8be57ff77859c7d9ac988e43411","39.144.168.61","Mozilla/5.0 (Linux; Android 12; PEPM00 Build/SP1A.210812.016; wv) AppleWebKit/537.36 (KHTML, like Gecko) Version/4.0 Chrome/86.0.4240.99 XWEB/4343 MMWEBSDK/20220903 Mobile Safari/537.36 MMWEBID/1322 MicroMessenger/8.0.28.2240(0x28001C57) WeChat/arm64 Weixin NetType/5G Language/zh_CN ABI/arm64","WebKit","Chrome","86.0.4240.99","AndroidOS","12","null","<div style=""font-size:60px;"">+</div>","null",""
"","","","","","html-button-response","57","215607","0.0-4.0-1.26","47","1","2022-11-27 09:50:35","7b1eb8be57ff77859c7d9ac988e43411","39.144.168.61","Mozilla/5.0 (Linux; Android 12; PEPM00 Build/SP1A.210812.016; wv) AppleWebKit/537.36 (KHTML, like Gecko) Version/4.0 Chrome/86.0.4240.99 XWEB/4343 MMWEBSDK/20220903 Mobile Safari/537.36 MMWEBID/1322 MicroMessenger/8.0.28.2240(0x28001C57) WeChat/arm64 Weixin NetType/5G Language/zh_CN ABI/arm64","WebKit","Chrome","86.0.4240.99","AndroidOS","12","1933","<p>作为军队的指挥官，你可以选择发射导弹杀死 <strong>5名</strong> 敌国士兵，但会炸毁附近的 <strong>1棵</strong> 敌国树木。</p> <p>树木的照片如下图所示。</p> <p></p> <img src='stimuli/trees/6.png', style='max-width: 30%;'> </img> <p><strong>你是否选择发射武器？</strong></p>","0",""
"","","","","","html-keyboard-response","58","216620","0.0-4.0-0.27","47","1","2022-11-27 09:50:35","7b1eb8be57ff77859c7d9ac988e43411","39.144.168.61","Mozilla/5.0 (Linux; Android 12; PEPM00 Build/SP1A.210812.016; wv) AppleWebKit/537.36 (KHTML, like Gecko) Version/4.0 Chrome/86.0.4240.99 XWEB/4343 MMWEBSDK/20220903 Mobile Safari/537.36 MMWEBID/1322 MicroMessenger/8.0.28.2240(0x28001C57) WeChat/arm64 Weixin NetType/5G Language/zh_CN ABI/arm64","WebKit","Chrome","86.0.4240.99","AndroidOS","12","null","<div style=""font-size:60px;"">+</div>","null",""
"","","","","","html-button-response","59","217783","0.0-4.0-1.27","47","1","2022-11-27 09:50:35","7b1eb8be57ff77859c7d9ac988e43411","39.144.168.61","Mozilla/5.0 (Linux; Android 12; PEPM00 Build/SP1A.210812.016; wv) AppleWebKit/537.36 (KHTML, like Gecko) Version/4.0 Chrome/86.0.4240.99 XWEB/4343 MMWEBSDK/20220903 Mobile Safari/537.36 MMWEBID/1322 MicroMessenger/8.0.28.2240(0x28001C57) WeChat/arm64 Weixin NetType/5G Language/zh_CN ABI/arm64","WebKit","Chrome","86.0.4240.99","AndroidOS","12","1150","<p>作为军队的指挥官，你可以选择发射导弹杀死 <strong>6名</strong> 敌国士兵，但会炸毁附近的 <strong>1棵</strong> 敌国树木。</p> <p>树木的照片如下图所示。</p> <p></p> <img src='stimuli/trees/4.png', style='max-width: 30%;'> </img> <p><strong>你是否选择发射武器？</strong></p>","0",""
"","","","","","html-keyboard-response","60","218788","0.0-4.0-0.28","47","1","2022-11-27 09:50:35","7b1eb8be57ff77859c7d9ac988e43411","39.144.168.61","Mozilla/5.0 (Linux; Android 12; PEPM00 Build/SP1A.210812.016; wv) AppleWebKit/537.36 (KHTML, like Gecko) Version/4.0 Chrome/86.0.4240.99 XWEB/4343 MMWEBSDK/20220903 Mobile Safari/537.36 MMWEBID/1322 MicroMessenger/8.0.28.2240(0x28001C57) WeChat/arm64 Weixin NetType/5G Language/zh_CN ABI/arm64","WebKit","Chrome","86.0.4240.99","AndroidOS","12","null","<div style=""font-size:60px;"">+</div>","null",""
"","","","","","html-button-response","61","219996","0.0-4.0-1.28","47","1","2022-11-27 09:50:35","7b1eb8be57ff77859c7d9ac988e43411","39.144.168.61","Mozilla/5.0 (Linux; Android 12; PEPM00 Build/SP1A.210812.016; wv) AppleWebKit/537.36 (KHTML, like Gecko) Version/4.0 Chrome/86.0.4240.99 XWEB/4343 MMWEBSDK/20220903 Mobile Safari/537.36 MMWEBID/1322 MicroMessenger/8.0.28.2240(0x28001C57) WeChat/arm64 Weixin NetType/5G Language/zh_CN ABI/arm64","WebKit","Chrome","86.0.4240.99","AndroidOS","12","1197","<p>作为军队的指挥官，你可以选择发射导弹杀死 <strong>4名</strong> 敌国士兵，但会误杀附近的 <strong>1名</strong> 敌国平民。</p> <p>平民照片如下图所示。</p> <p></p> <img src='stimuli/faces/PCM2.jpg', style='max-width: 30%;'> </img> <p><strong>你是否选择发射武器？</strong></p>","1",""
"","","","","","html-keyboard-response","62","221007","0.0-4.0-0.29","47","1","2022-11-27 09:50:35","7b1eb8be57ff77859c7d9ac988e43411","39.144.168.61","Mozilla/5.0 (Linux; Android 12; PEPM00 Build/SP1A.210812.016; wv) AppleWebKit/537.36 (KHTML, like Gecko) Version/4.0 Chrome/86.0.4240.99 XWEB/4343 MMWEBSDK/20220903 Mobile Safari/537.36 MMWEBID/1322 MicroMessenger/8.0.28.2240(0x28001C57) WeChat/arm64 Weixin NetType/5G Language/zh_CN ABI/arm64","WebKit","Chrome","86.0.4240.99","AndroidOS","12","null","<div style=""font-size:60px;"">+</div>","null",""
"","","","","","html-button-response","63","222519","0.0-4.0-1.29","47","1","2022-11-27 09:50:35","7b1eb8be57ff77859c7d9ac988e43411","39.144.168.61","Mozilla/5.0 (Linux; Android 12; PEPM00 Build/SP1A.210812.016; wv) AppleWebKit/537.36 (KHTML, like Gecko) Version/4.0 Chrome/86.0.4240.99 XWEB/4343 MMWEBSDK/20220903 Mobile Safari/537.36 MMWEBID/1322 MicroMessenger/8.0.28.2240(0x28001C57) WeChat/arm64 Weixin NetType/5G Language/zh_CN ABI/arm64","WebKit","Chrome","86.0.4240.99","AndroidOS","12","1501","<p>作为军队的指挥官，你可以选择发射导弹杀死 <strong>8名</strong> 敌国士兵，但会炸毁附近的 <strong>1棵</strong> 敌国树木。</p> <p>树木的照片如下图所示。</p> <p></p> <img src='stimuli/trees/1.png', style='max-width: 30%;'> </img> <p><strong>你是否选择发射武器？</strong></p>","0",""
"","","","","","html-keyboard-response","64","223529","0.0-4.0-0.30","47","1","2022-11-27 09:50:35","7b1eb8be57ff77859c7d9ac988e43411","39.144.168.61","Mozilla/5.0 (Linux; Android 12; PEPM00 Build/SP1A.210812.016; wv) AppleWebKit/537.36 (KHTML, like Gecko) Version/4.0 Chrome/86.0.4240.99 XWEB/4343 MMWEBSDK/20220903 Mobile Safari/537.36 MMWEBID/1322 MicroMessenger/8.0.28.2240(0x28001C57) WeChat/arm64 Weixin NetType/5G Language/zh_CN ABI/arm64","WebKit","Chrome","86.0.4240.99","AndroidOS","12","null","<div style=""font-size:60px;"">+</div>","null",""
"","","","","","html-button-response","65","224721","0.0-4.0-1.30","47","1","2022-11-27 09:50:35","7b1eb8be57ff77859c7d9ac988e43411","39.144.168.61","Mozilla/5.0 (Linux; Android 12; PEPM00 Build/SP1A.210812.016; wv) AppleWebKit/537.36 (KHTML, like Gecko) Version/4.0 Chrome/86.0.4240.99 XWEB/4343 MMWEBSDK/20220903 Mobile Safari/537.36 MMWEBID/1322 MicroMessenger/8.0.28.2240(0x28001C57) WeChat/arm64 Weixin NetType/5G Language/zh_CN ABI/arm64","WebKit","Chrome","86.0.4240.99","AndroidOS","12","1177","<p>作为军队的指挥官，你可以选择发射导弹杀死 <strong>10名</strong> 敌国士兵，但会炸毁附近的 <strong>1棵</strong> 敌国树木。</p> <p>树木的照片如下图所示。</p> <p></p> <img src='stimuli/trees/16.png', style='max-width: 30%;'> </img> <p><strong>你是否选择发射武器？</strong></p>","0",""
"","","","","","html-keyboard-response","66","225736","0.0-4.0-0.31","47","1","2022-11-27 09:50:35","7b1eb8be57ff77859c7d9ac988e43411","39.144.168.61","Mozilla/5.0 (Linux; Android 12; PEPM00 Build/SP1A.210812.016; wv) AppleWebKit/537.36 (KHTML, like Gecko) Version/4.0 Chrome/86.0.4240.99 XWEB/4343 MMWEBSDK/20220903 Mobile Safari/537.36 MMWEBID/1322 MicroMessenger/8.0.28.2240(0x28001C57) WeChat/arm64 Weixin NetType/5G Language/zh_CN ABI/arm64","WebKit","Chrome","86.0.4240.99","AndroidOS","12","null","<div style=""font-size:60px;"">+</div>","null",""
"","","","","","html-button-response","67","227841","0.0-4.0-1.31","47","1","2022-11-27 09:50:35","7b1eb8be57ff77859c7d9ac988e43411","39.144.168.61","Mozilla/5.0 (Linux; Android 12; PEPM00 Build/SP1A.210812.016; wv) AppleWebKit/537.36 (KHTML, like Gecko) Version/4.0 Chrome/86.0.4240.99 XWEB/4343 MMWEBSDK/20220903 Mobile Safari/537.36 MMWEBID/1322 MicroMessenger/8.0.28.2240(0x28001C57) WeChat/arm64 Weixin NetType/5G Language/zh_CN ABI/arm64","WebKit","Chrome","86.0.4240.99","AndroidOS","12","2084","<p>作为军队的指挥官，你可以选择发射导弹杀死 <strong>5名</strong> 敌国士兵，但会误杀附近的 <strong>1名</strong> 敌国平民。</p> <p>平民照片如下图所示。</p> <p></p> <img src='stimuli/faces/PCF7.jpg', style='max-width: 30%;'> </img> <p><strong>你是否选择发射武器？</strong></p>","1",""
"","","","","","html-keyboard-response","68","228851","0.0-4.0-0.32","47","1","2022-11-27 09:50:35","7b1eb8be57ff77859c7d9ac988e43411","39.144.168.61","Mozilla/5.0 (Linux; Android 12; PEPM00 Build/SP1A.210812.016; wv) AppleWebKit/537.36 (KHTML, like Gecko) Version/4.0 Chrome/86.0.4240.99 XWEB/4343 MMWEBSDK/20220903 Mobile Safari/537.36 MMWEBID/1322 MicroMessenger/8.0.28.2240(0x28001C57) WeChat/arm64 Weixin NetType/5G Language/zh_CN ABI/arm64","WebKit","Chrome","86.0.4240.99","AndroidOS","12","null","<div style=""font-size:60px;"">+</div>","null",""
"","","","","","html-button-response","69","230521","0.0-4.0-1.32","47","1","2022-11-27 09:50:35","7b1eb8be57ff77859c7d9ac988e43411","39.144.168.61","Mozilla/5.0 (Linux; Android 12; PEPM00 Build/SP1A.210812.016; wv) AppleWebKit/537.36 (KHTML, like Gecko) Version/4.0 Chrome/86.0.4240.99 XWEB/4343 MMWEBSDK/20220903 Mobile Safari/537.36 MMWEBID/1322 MicroMessenger/8.0.28.2240(0x28001C57) WeChat/arm64 Weixin NetType/5G Language/zh_CN ABI/arm64","WebKit","Chrome","86.0.4240.99","AndroidOS","12","1645","<p>作为军队的指挥官，你可以选择发射导弹杀死 <strong>3名</strong> 敌国士兵，但会炸毁附近的 <strong>1棵</strong> 敌国树木。</p> <p>树木的照片如下图所示。</p> <p></p> <img src='stimuli/trees/15.png', style='max-width: 30%;'> </img> <p><strong>你是否选择发射武器？</strong></p>","0",""
"","","","","","html-keyboard-response","70","231535","0.0-4.0-0.33","47","1","2022-11-27 09:50:35","7b1eb8be57ff77859c7d9ac988e43411","39.144.168.61","Mozilla/5.0 (Linux; Android 12; PEPM00 Build/SP1A.210812.016; wv) AppleWebKit/537.36 (KHTML, like Gecko) Version/4.0 Chrome/86.0.4240.99 XWEB/4343 MMWEBSDK/20220903 Mobile Safari/537.36 MMWEBID/1322 MicroMessenger/8.0.28.2240(0x28001C57) WeChat/arm64 Weixin NetType/5G Language/zh_CN ABI/arm64","WebKit","Chrome","86.0.4240.99","AndroidOS","12","null","<div style=""font-size:60px;"">+</div>","null",""
"","","","","","html-button-response","71","232619","0.0-4.0-1.33","47","1","2022-11-27 09:50:35","7b1eb8be57ff77859c7d9ac988e43411","39.144.168.61","Mozilla/5.0 (Linux; Android 12; PEPM00 Build/SP1A.210812.016; wv) AppleWebKit/537.36 (KHTML, like Gecko) Version/4.0 Chrome/86.0.4240.99 XWEB/4343 MMWEBSDK/20220903 Mobile Safari/537.36 MMWEBID/1322 MicroMessenger/8.0.28.2240(0x28001C57) WeChat/arm64 Weixin NetType/5G Language/zh_CN ABI/arm64","WebKit","Chrome","86.0.4240.99","AndroidOS","12","1057","<p>作为军队的指挥官，你可以选择发射导弹杀死 <strong>10名</strong> 敌国士兵，但会炸毁附近的 <strong>1棵</strong> 敌国树木。</p> <p>树木的照片如下图所示。</p> <p></p> <img src='stimuli/trees/14.png', style='max-width: 30%;'> </img> <p><strong>你是否选择发射武器？</strong></p>","0",""
"","","","","","html-keyboard-response","72","233630","0.0-4.0-0.34","47","1","2022-11-27 09:50:35","7b1eb8be57ff77859c7d9ac988e43411","39.144.168.61","Mozilla/5.0 (Linux; Android 12; PEPM00 Build/SP1A.210812.016; wv) AppleWebKit/537.36 (KHTML, like Gecko) Version/4.0 Chrome/86.0.4240.99 XWEB/4343 MMWEBSDK/20220903 Mobile Safari/537.36 MMWEBID/1322 MicroMessenger/8.0.28.2240(0x28001C57) WeChat/arm64 Weixin NetType/5G Language/zh_CN ABI/arm64","WebKit","Chrome","86.0.4240.99","AndroidOS","12","null","<div style=""font-size:60px;"">+</div>","null",""
"","","","","","html-button-response","73","235802","0.0-4.0-1.34","47","1","2022-11-27 09:50:35","7b1eb8be57ff77859c7d9ac988e43411","39.144.168.61","Mozilla/5.0 (Linux; Android 12; PEPM00 Build/SP1A.210812.016; wv) AppleWebKit/537.36 (KHTML, like Gecko) Version/4.0 Chrome/86.0.4240.99 XWEB/4343 MMWEBSDK/20220903 Mobile Safari/537.36 MMWEBID/1322 MicroMessenger/8.0.28.2240(0x28001C57) WeChat/arm64 Weixin NetType/5G Language/zh_CN ABI/arm64","WebKit","Chrome","86.0.4240.99","AndroidOS","12","2153","<p>作为军队的指挥官，你可以选择发射导弹杀死 <strong>9名</strong> 敌国士兵，但会炸毁附近的 <strong>1棵</strong> 敌国树木。</p> <p>树木的照片如下图所示。</p> <p></p> <img src='stimuli/trees/12.png', style='max-width: 30%;'> </img> <p><strong>你是否选择发射武器？</strong></p>","0",""
"","","","","","html-keyboard-response","74","236816","0.0-4.0-0.35","47","1","2022-11-27 09:50:35","7b1eb8be57ff77859c7d9ac988e43411","39.144.168.61","Mozilla/5.0 (Linux; Android 12; PEPM00 Build/SP1A.210812.016; wv) AppleWebKit/537.36 (KHTML, like Gecko) Version/4.0 Chrome/86.0.4240.99 XWEB/4343 MMWEBSDK/20220903 Mobile Safari/537.36 MMWEBID/1322 MicroMessenger/8.0.28.2240(0x28001C57) WeChat/arm64 Weixin NetType/5G Language/zh_CN ABI/arm64","WebKit","Chrome","86.0.4240.99","AndroidOS","12","null","<div style=""font-size:60px;"">+</div>","null",""
"","","","","","html-button-response","75","238986","0.0-4.0-1.35","47","1","2022-11-27 09:50:35","7b1eb8be57ff77859c7d9ac988e43411","39.144.168.61","Mozilla/5.0 (Linux; Android 12; PEPM00 Build/SP1A.210812.016; wv) AppleWebKit/537.36 (KHTML, like Gecko) Version/4.0 Chrome/86.0.4240.99 XWEB/4343 MMWEBSDK/20220903 Mobile Safari/537.36 MMWEBID/1322 MicroMessenger/8.0.28.2240(0x28001C57) WeChat/arm64 Weixin NetType/5G Language/zh_CN ABI/arm64","WebKit","Chrome","86.0.4240.99","AndroidOS","12","2144","<p>作为军队的指挥官，你可以选择发射导弹杀死 <strong>1名</strong> 敌国士兵，但会误杀附近的 <strong>1名</strong> 敌国平民。</p> <p>平民照片如下图所示。</p> <p></p> <img src='stimuli/faces/PCF1.jpg', style='max-width: 30%;'> </img> <p><strong>你是否选择发射武器？</strong></p>","1",""
"","","","","","html-keyboard-response","76","240004","0.0-4.0-0.36","47","1","2022-11-27 09:50:35","7b1eb8be57ff77859c7d9ac988e43411","39.144.168.61","Mozilla/5.0 (Linux; Android 12; PEPM00 Build/SP1A.210812.016; wv) AppleWebKit/537.36 (KHTML, like Gecko) Version/4.0 Chrome/86.0.4240.99 XWEB/4343 MMWEBSDK/20220903 Mobile Safari/537.36 MMWEBID/1322 MicroMessenger/8.0.28.2240(0x28001C57) WeChat/arm64 Weixin NetType/5G Language/zh_CN ABI/arm64","WebKit","Chrome","86.0.4240.99","AndroidOS","12","null","<div style=""font-size:60px;"">+</div>","null",""
"","","","","","html-button-response","77","241177","0.0-4.0-1.36","47","1","2022-11-27 09:50:35","7b1eb8be57ff77859c7d9ac988e43411","39.144.168.61","Mozilla/5.0 (Linux; Android 12; PEPM00 Build/SP1A.210812.016; wv) AppleWebKit/537.36 (KHTML, like Gecko) Version/4.0 Chrome/86.0.4240.99 XWEB/4343 MMWEBSDK/20220903 Mobile Safari/537.36 MMWEBID/1322 MicroMessenger/8.0.28.2240(0x28001C57) WeChat/arm64 Weixin NetType/5G Language/zh_CN ABI/arm64","WebKit","Chrome","86.0.4240.99","AndroidOS","12","1139","<p>作为军队的指挥官，你可以选择发射导弹杀死 <strong>1名</strong> 敌国士兵，但会炸毁附近的 <strong>1棵</strong> 敌国树木。</p> <p>树木的照片如下图所示。</p> <p></p> <img src='stimuli/trees/10.png', style='max-width: 30%;'> </img> <p><strong>你是否选择发射武器？</strong></p>","0",""
"","","","","","html-keyboard-response","78","242193","0.0-4.0-0.37","47","1","2022-11-27 09:50:35","7b1eb8be57ff77859c7d9ac988e43411","39.144.168.61","Mozilla/5.0 (Linux; Android 12; PEPM00 Build/SP1A.210812.016; wv) AppleWebKit/537.36 (KHTML, like Gecko) Version/4.0 Chrome/86.0.4240.99 XWEB/4343 MMWEBSDK/20220903 Mobile Safari/537.36 MMWEBID/1322 MicroMessenger/8.0.28.2240(0x28001C57) WeChat/arm64 Weixin NetType/5G Language/zh_CN ABI/arm64","WebKit","Chrome","86.0.4240.99","AndroidOS","12","null","<div style=""font-size:60px;"">+</div>","null",""
"","","","","","html-button-response","79","243486","0.0-4.0-1.37","47","1","2022-11-27 09:50:35","7b1eb8be57ff77859c7d9ac988e43411","39.144.168.61","Mozilla/5.0 (Linux; Android 12; PEPM00 Build/SP1A.210812.016; wv) AppleWebKit/537.36 (KHTML, like Gecko) Version/4.0 Chrome/86.0.4240.99 XWEB/4343 MMWEBSDK/20220903 Mobile Safari/537.36 MMWEBID/1322 MicroMessenger/8.0.28.2240(0x28001C57) WeChat/arm64 Weixin NetType/5G Language/zh_CN ABI/arm64","WebKit","Chrome","86.0.4240.99","AndroidOS","12","1270","<p>作为军队的指挥官，你可以选择发射导弹杀死 <strong>8名</strong> 敌国士兵，但会误杀附近的 <strong>1名</strong> 敌国平民。</p> <p>平民照片如下图所示。</p> <p></p> <img src='stimuli/faces/PCF7.jpg', style='max-width: 30%;'> </img> <p><strong>你是否选择发射武器？</strong></p>","1",""
"","","","","","html-keyboard-response","80","244497","0.0-4.0-0.38","47","1","2022-11-27 09:50:35","7b1eb8be57ff77859c7d9ac988e43411","39.144.168.61","Mozilla/5.0 (Linux; Android 12; PEPM00 Build/SP1A.210812.016; wv) AppleWebKit/537.36 (KHTML, like Gecko) Version/4.0 Chrome/86.0.4240.99 XWEB/4343 MMWEBSDK/20220903 Mobile Safari/537.36 MMWEBID/1322 MicroMessenger/8.0.28.2240(0x28001C57) WeChat/arm64 Weixin NetType/5G Language/zh_CN ABI/arm64","WebKit","Chrome","86.0.4240.99","AndroidOS","12","null","<div style=""font-size:60px;"">+</div>","null",""
"","","","","","html-button-response","81","246115","0.0-4.0-1.38","47","1","2022-11-27 09:50:35","7b1eb8be57ff77859c7d9ac988e43411","39.144.168.61","Mozilla/5.0 (Linux; Android 12; PEPM00 Build/SP1A.210812.016; wv) AppleWebKit/537.36 (KHTML, like Gecko) Version/4.0 Chrome/86.0.4240.99 XWEB/4343 MMWEBSDK/20220903 Mobile Safari/537.36 MMWEBID/1322 MicroMessenger/8.0.28.2240(0x28001C57) WeChat/arm64 Weixin NetType/5G Language/zh_CN ABI/arm64","WebKit","Chrome","86.0.4240.99","AndroidOS","12","1594","<p>作为军队的指挥官，你可以选择发射导弹杀死 <strong>5名</strong> 敌国士兵，但会炸毁附近的 <strong>1棵</strong> 敌国树木。</p> <p>树木的照片如下图所示。</p> <p></p> <img src='stimuli/trees/7.png', style='max-width: 30%;'> </img> <p><strong>你是否选择发射武器？</strong></p>","0",""
"","","","","","html-keyboard-response","82","247129","0.0-4.0-0.39","47","1","2022-11-27 09:50:35","7b1eb8be57ff77859c7d9ac988e43411","39.144.168.61","Mozilla/5.0 (Linux; Android 12; PEPM00 Build/SP1A.210812.016; wv) AppleWebKit/537.36 (KHTML, like Gecko) Version/4.0 Chrome/86.0.4240.99 XWEB/4343 MMWEBSDK/20220903 Mobile Safari/537.36 MMWEBID/1322 MicroMessenger/8.0.28.2240(0x28001C57) WeChat/arm64 Weixin NetType/5G Language/zh_CN ABI/arm64","WebKit","Chrome","86.0.4240.99","AndroidOS","12","null","<div style=""font-size:60px;"">+</div>","null",""
"","","","","","html-button-response","83","248790","0.0-4.0-1.39","47","1","2022-11-27 09:50:35","7b1eb8be57ff77859c7d9ac988e43411","39.144.168.61","Mozilla/5.0 (Linux; Android 12; PEPM00 Build/SP1A.210812.016; wv) AppleWebKit/537.36 (KHTML, like Gecko) Version/4.0 Chrome/86.0.4240.99 XWEB/4343 MMWEBSDK/20220903 Mobile Safari/537.36 MMWEBID/1322 MicroMessenger/8.0.28.2240(0x28001C57) WeChat/arm64 Weixin NetType/5G Language/zh_CN ABI/arm64","WebKit","Chrome","86.0.4240.99","AndroidOS","12","1635","<p>作为军队的指挥官，你可以选择发射导弹杀死 <strong>6名</strong> 敌国士兵，但会误杀附近的 <strong>1名</strong> 敌国平民。</p> <p>平民照片如下图所示。</p> <p></p> <img src='stimuli/faces/PCM8.jpg', style='max-width: 30%;'> </img> <p><strong>你是否选择发射武器？</strong></p>","1",""
"","","","","","html-keyboard-response","84","249813","0.0-4.0-0.40","47","1","2022-11-27 09:50:35","7b1eb8be57ff77859c7d9ac988e43411","39.144.168.61","Mozilla/5.0 (Linux; Android 12; PEPM00 Build/SP1A.210812.016; wv) AppleWebKit/537.36 (KHTML, like Gecko) Version/4.0 Chrome/86.0.4240.99 XWEB/4343 MMWEBSDK/20220903 Mobile Safari/537.36 MMWEBID/1322 MicroMessenger/8.0.28.2240(0x28001C57) WeChat/arm64 Weixin NetType/5G Language/zh_CN ABI/arm64","WebKit","Chrome","86.0.4240.99","AndroidOS","12","null","<div style=""font-size:60px;"">+</div>","null",""
"","","","","","html-button-response","85","252550","0.0-4.0-1.40","47","1","2022-11-27 09:50:35","7b1eb8be57ff77859c7d9ac988e43411","39.144.168.61","Mozilla/5.0 (Linux; Android 12; PEPM00 Build/SP1A.210812.016; wv) AppleWebKit/537.36 (KHTML, like Gecko) Version/4.0 Chrome/86.0.4240.99 XWEB/4343 MMWEBSDK/20220903 Mobile Safari/537.36 MMWEBID/1322 MicroMessenger/8.0.28.2240(0x28001C57) WeChat/arm64 Weixin NetType/5G Language/zh_CN ABI/arm64","WebKit","Chrome","86.0.4240.99","AndroidOS","12","2703","<p>作为军队的指挥官，你可以选择发射导弹杀死 <strong>6名</strong> 敌国士兵，但会误杀附近的 <strong>1名</strong> 敌国平民。</p> <p>平民照片如下图所示。</p> <p></p> <img src='stimuli/faces/PCM3.jpg', style='max-width: 30%;'> </img> <p><strong>你是否选择发射武器？</strong></p>","1",""
"","","","","","html-keyboard-response","86","253559","0.0-4.0-0.41","47","1","2022-11-27 09:50:35","7b1eb8be57ff77859c7d9ac988e43411","39.144.168.61","Mozilla/5.0 (Linux; Android 12; PEPM00 Build/SP1A.210812.016; wv) AppleWebKit/537.36 (KHTML, like Gecko) Version/4.0 Chrome/86.0.4240.99 XWEB/4343 MMWEBSDK/20220903 Mobile Safari/537.36 MMWEBID/1322 MicroMessenger/8.0.28.2240(0x28001C57) WeChat/arm64 Weixin NetType/5G Language/zh_CN ABI/arm64","WebKit","Chrome","86.0.4240.99","AndroidOS","12","null","<div style=""font-size:60px;"">+</div>","null",""
"","","","","","html-button-response","87","255431","0.0-4.0-1.41","47","1","2022-11-27 09:50:35","7b1eb8be57ff77859c7d9ac988e43411","39.144.168.61","Mozilla/5.0 (Linux; Android 12; PEPM00 Build/SP1A.210812.016; wv) AppleWebKit/537.36 (KHTML, like Gecko) Version/4.0 Chrome/86.0.4240.99 XWEB/4343 MMWEBSDK/20220903 Mobile Safari/537.36 MMWEBID/1322 MicroMessenger/8.0.28.2240(0x28001C57) WeChat/arm64 Weixin NetType/5G Language/zh_CN ABI/arm64","WebKit","Chrome","86.0.4240.99","AndroidOS","12","1843","<p>作为军队的指挥官，你可以选择发射导弹杀死 <strong>5名</strong> 敌国士兵，但会误杀附近的 <strong>1名</strong> 敌国平民。</p> <p>平民照片如下图所示。</p> <p></p> <img src='stimuli/faces/PCF8.jpg', style='max-width: 30%;'> </img> <p><strong>你是否选择发射武器？</strong></p>","1",""
"","","","","","html-keyboard-response","88","256446","0.0-4.0-0.42","47","1","2022-11-27 09:50:35","7b1eb8be57ff77859c7d9ac988e43411","39.144.168.61","Mozilla/5.0 (Linux; Android 12; PEPM00 Build/SP1A.210812.016; wv) AppleWebKit/537.36 (KHTML, like Gecko) Version/4.0 Chrome/86.0.4240.99 XWEB/4343 MMWEBSDK/20220903 Mobile Safari/537.36 MMWEBID/1322 MicroMessenger/8.0.28.2240(0x28001C57) WeChat/arm64 Weixin NetType/5G Language/zh_CN ABI/arm64","WebKit","Chrome","86.0.4240.99","AndroidOS","12","null","<div style=""font-size:60px;"">+</div>","null",""
"","","","","","html-button-response","89","259951","0.0-4.0-1.42","47","1","2022-11-27 09:50:35","7b1eb8be57ff77859c7d9ac988e43411","39.144.168.61","Mozilla/5.0 (Linux; Android 12; PEPM00 Build/SP1A.210812.016; wv) AppleWebKit/537.36 (KHTML, like Gecko) Version/4.0 Chrome/86.0.4240.99 XWEB/4343 MMWEBSDK/20220903 Mobile Safari/537.36 MMWEBID/1322 MicroMessenger/8.0.28.2240(0x28001C57) WeChat/arm64 Weixin NetType/5G Language/zh_CN ABI/arm64","WebKit","Chrome","86.0.4240.99","AndroidOS","12","3481","<p>作为军队的指挥官，你可以选择发射导弹杀死 <strong>10名</strong> 敌国士兵，但会误杀附近的 <strong>1名</strong> 敌国平民。</p> <p>平民照片如下图所示。</p> <p></p> <img src='stimuli/faces/PCF4.jpg', style='max-width: 30%;'> </img> <p><strong>你是否选择发射武器？</strong></p>","1",""
"","","","","","html-keyboard-response","90","260966","0.0-4.0-0.43","47","1","2022-11-27 09:50:35","7b1eb8be57ff77859c7d9ac988e43411","39.144.168.61","Mozilla/5.0 (Linux; Android 12; PEPM00 Build/SP1A.210812.016; wv) AppleWebKit/537.36 (KHTML, like Gecko) Version/4.0 Chrome/86.0.4240.99 XWEB/4343 MMWEBSDK/20220903 Mobile Safari/537.36 MMWEBID/1322 MicroMessenger/8.0.28.2240(0x28001C57) WeChat/arm64 Weixin NetType/5G Language/zh_CN ABI/arm64","WebKit","Chrome","86.0.4240.99","AndroidOS","12","null","<div style=""font-size:60px;"">+</div>","null",""
"","","","","","html-button-response","91","262604","0.0-4.0-1.43","47","1","2022-11-27 09:50:35","7b1eb8be57ff77859c7d9ac988e43411","39.144.168.61","Mozilla/5.0 (Linux; Android 12; PEPM00 Build/SP1A.210812.016; wv) AppleWebKit/537.36 (KHTML, like Gecko) Version/4.0 Chrome/86.0.4240.99 XWEB/4343 MMWEBSDK/20220903 Mobile Safari/537.36 MMWEBID/1322 MicroMessenger/8.0.28.2240(0x28001C57) WeChat/arm64 Weixin NetType/5G Language/zh_CN ABI/arm64","WebKit","Chrome","86.0.4240.99","AndroidOS","12","1623","<p>作为军队的指挥官，你可以选择发射导弹杀死 <strong>8名</strong> 敌国士兵，但会炸毁附近的 <strong>1棵</strong> 敌国树木。</p> <p>树木的照片如下图所示。</p> <p></p> <img src='stimuli/trees/7.png', style='max-width: 30%;'> </img> <p><strong>你是否选择发射武器？</strong></p>","0",""
"","","","","","html-keyboard-response","92","263618","0.0-4.0-0.44","47","1","2022-11-27 09:50:35","7b1eb8be57ff77859c7d9ac988e43411","39.144.168.61","Mozilla/5.0 (Linux; Android 12; PEPM00 Build/SP1A.210812.016; wv) AppleWebKit/537.36 (KHTML, like Gecko) Version/4.0 Chrome/86.0.4240.99 XWEB/4343 MMWEBSDK/20220903 Mobile Safari/537.36 MMWEBID/1322 MicroMessenger/8.0.28.2240(0x28001C57) WeChat/arm64 Weixin NetType/5G Language/zh_CN ABI/arm64","WebKit","Chrome","86.0.4240.99","AndroidOS","12","null","<div style=""font-size:60px;"">+</div>","null",""
"","","","","","html-button-response","93","265119","0.0-4.0-1.44","47","1","2022-11-27 09:50:35","7b1eb8be57ff77859c7d9ac988e43411","39.144.168.61","Mozilla/5.0 (Linux; Android 12; PEPM00 Build/SP1A.210812.016; wv) AppleWebKit/537.36 (KHTML, like Gecko) Version/4.0 Chrome/86.0.4240.99 XWEB/4343 MMWEBSDK/20220903 Mobile Safari/537.36 MMWEBID/1322 MicroMessenger/8.0.28.2240(0x28001C57) WeChat/arm64 Weixin NetType/5G Language/zh_CN ABI/arm64","WebKit","Chrome","86.0.4240.99","AndroidOS","12","1465","<p>作为军队的指挥官，你可以选择发射导弹杀死 <strong>6名</strong> 敌国士兵，但会误杀附近的 <strong>1名</strong> 敌国平民。</p> <p>平民照片如下图所示。</p> <p></p> <img src='stimuli/faces/PCM7.jpg', style='max-width: 30%;'> </img> <p><strong>你是否选择发射武器？</strong></p>","1",""
"","","","","","html-keyboard-response","94","266136","0.0-4.0-0.45","47","1","2022-11-27 09:50:35","7b1eb8be57ff77859c7d9ac988e43411","39.144.168.61","Mozilla/5.0 (Linux; Android 12; PEPM00 Build/SP1A.210812.016; wv) AppleWebKit/537.36 (KHTML, like Gecko) Version/4.0 Chrome/86.0.4240.99 XWEB/4343 MMWEBSDK/20220903 Mobile Safari/537.36 MMWEBID/1322 MicroMessenger/8.0.28.2240(0x28001C57) WeChat/arm64 Weixin NetType/5G Language/zh_CN ABI/arm64","WebKit","Chrome","86.0.4240.99","AndroidOS","12","null","<div style=""font-size:60px;"">+</div>","null",""
"","","","","","html-button-response","95","267128","0.0-4.0-1.45","47","1","2022-11-27 09:50:35","7b1eb8be57ff77859c7d9ac988e43411","39.144.168.61","Mozilla/5.0 (Linux; Android 12; PEPM00 Build/SP1A.210812.016; wv) AppleWebKit/537.36 (KHTML, like Gecko) Version/4.0 Chrome/86.0.4240.99 XWEB/4343 MMWEBSDK/20220903 Mobile Safari/537.36 MMWEBID/1322 MicroMessenger/8.0.28.2240(0x28001C57) WeChat/arm64 Weixin NetType/5G Language/zh_CN ABI/arm64","WebKit","Chrome","86.0.4240.99","AndroidOS","12","966","<p>作为军队的指挥官，你可以选择发射导弹杀死 <strong>6名</strong> 敌国士兵，但会炸毁附近的 <strong>1棵</strong> 敌国树木。</p> <p>树木的照片如下图所示。</p> <p></p> <img src='stimuli/trees/10.png', style='max-width: 30%;'> </img> <p><strong>你是否选择发射武器？</strong></p>","0",""
"","","","","","html-keyboard-response","96","268139","0.0-4.0-0.46","47","1","2022-11-27 09:50:35","7b1eb8be57ff77859c7d9ac988e43411","39.144.168.61","Mozilla/5.0 (Linux; Android 12; PEPM00 Build/SP1A.210812.016; wv) AppleWebKit/537.36 (KHTML, like Gecko) Version/4.0 Chrome/86.0.4240.99 XWEB/4343 MMWEBSDK/20220903 Mobile Safari/537.36 MMWEBID/1322 MicroMessenger/8.0.28.2240(0x28001C57) WeChat/arm64 Weixin NetType/5G Language/zh_CN ABI/arm64","WebKit","Chrome","86.0.4240.99","AndroidOS","12","null","<div style=""font-size:60px;"">+</div>","null",""
"","","","","","html-button-response","97","269998","0.0-4.0-1.46","47","1","2022-11-27 09:50:35","7b1eb8be57ff77859c7d9ac988e43411","39.144.168.61","Mozilla/5.0 (Linux; Android 12; PEPM00 Build/SP1A.210812.016; wv) AppleWebKit/537.36 (KHTML, like Gecko) Version/4.0 Chrome/86.0.4240.99 XWEB/4343 MMWEBSDK/20220903 Mobile Safari/537.36 MMWEBID/1322 MicroMessenger/8.0.28.2240(0x28001C57) WeChat/arm64 Weixin NetType/5G Language/zh_CN ABI/arm64","WebKit","Chrome","86.0.4240.99","AndroidOS","12","1832","<p>作为军队的指挥官，你可以选择发射导弹杀死 <strong>3名</strong> 敌国士兵，但会炸毁附近的 <strong>1棵</strong> 敌国树木。</p> <p>树木的照片如下图所示。</p> <p></p> <img src='stimuli/trees/2.png', style='max-width: 30%;'> </img> <p><strong>你是否选择发射武器？</strong></p>","0",""
"","","","","","html-keyboard-response","98","271016","0.0-4.0-0.47","47","1","2022-11-27 09:50:35","7b1eb8be57ff77859c7d9ac988e43411","39.144.168.61","Mozilla/5.0 (Linux; Android 12; PEPM00 Build/SP1A.210812.016; wv) AppleWebKit/537.36 (KHTML, like Gecko) Version/4.0 Chrome/86.0.4240.99 XWEB/4343 MMWEBSDK/20220903 Mobile Safari/537.36 MMWEBID/1322 MicroMessenger/8.0.28.2240(0x28001C57) WeChat/arm64 Weixin NetType/5G Language/zh_CN ABI/arm64","WebKit","Chrome","86.0.4240.99","AndroidOS","12","null","<div style=""font-size:60px;"">+</div>","null",""
"","","","","","html-button-response","99","279723","0.0-4.0-1.47","47","1","2022-11-27 09:50:35","7b1eb8be57ff77859c7d9ac988e43411","39.144.168.61","Mozilla/5.0 (Linux; Android 12; PEPM00 Build/SP1A.210812.016; wv) AppleWebKit/537.36 (KHTML, like Gecko) Version/4.0 Chrome/86.0.4240.99 XWEB/4343 MMWEBSDK/20220903 Mobile Safari/537.36 MMWEBID/1322 MicroMessenger/8.0.28.2240(0x28001C57) WeChat/arm64 Weixin NetType/5G Language/zh_CN ABI/arm64","WebKit","Chrome","86.0.4240.99","AndroidOS","12","8678","<p>作为军队的指挥官，你可以选择发射导弹杀死 <strong>3名</strong> 敌国士兵，但会炸毁附近的 <strong>1棵</strong> 敌国树木。</p> <p>树木的照片如下图所示。</p> <p></p> <img src='stimuli/trees/11.png', style='max-width: 30%;'> </img> <p><strong>你是否选择发射武器？</strong></p>","0",""
"","","","","","html-keyboard-response","100","280732","0.0-4.0-0.48","47","1","2022-11-27 09:50:35","7b1eb8be57ff77859c7d9ac988e43411","39.144.168.61","Mozilla/5.0 (Linux; Android 12; PEPM00 Build/SP1A.210812.016; wv) AppleWebKit/537.36 (KHTML, like Gecko) Version/4.0 Chrome/86.0.4240.99 XWEB/4343 MMWEBSDK/20220903 Mobile Safari/537.36 MMWEBID/1322 MicroMessenger/8.0.28.2240(0x28001C57) WeChat/arm64 Weixin NetType/5G Language/zh_CN ABI/arm64","WebKit","Chrome","86.0.4240.99","AndroidOS","12","null","<div style=""font-size:60px;"">+</div>","null",""
"","","","","","html-button-response","101","281658","0.0-4.0-1.48","47","1","2022-11-27 09:50:35","7b1eb8be57ff77859c7d9ac988e43411","39.144.168.61","Mozilla/5.0 (Linux; Android 12; PEPM00 Build/SP1A.210812.016; wv) AppleWebKit/537.36 (KHTML, like Gecko) Version/4.0 Chrome/86.0.4240.99 XWEB/4343 MMWEBSDK/20220903 Mobile Safari/537.36 MMWEBID/1322 MicroMessenger/8.0.28.2240(0x28001C57) WeChat/arm64 Weixin NetType/5G Language/zh_CN ABI/arm64","WebKit","Chrome","86.0.4240.99","AndroidOS","12","897","<p>作为军队的指挥官，你可以选择发射导弹杀死 <strong>3名</strong> 敌国士兵，但会误杀附近的 <strong>1名</strong> 敌国平民。</p> <p>平民照片如下图所示。</p> <p></p> <img src='stimuli/faces/PCM8.jpg', style='max-width: 30%;'> </img> <p><strong>你是否选择发射武器？</strong></p>","1",""
"","","","","","html-keyboard-response","102","282675","0.0-4.0-0.49","47","1","2022-11-27 09:50:35","7b1eb8be57ff77859c7d9ac988e43411","39.144.168.61","Mozilla/5.0 (Linux; Android 12; PEPM00 Build/SP1A.210812.016; wv) AppleWebKit/537.36 (KHTML, like Gecko) Version/4.0 Chrome/86.0.4240.99 XWEB/4343 MMWEBSDK/20220903 Mobile Safari/537.36 MMWEBID/1322 MicroMessenger/8.0.28.2240(0x28001C57) WeChat/arm64 Weixin NetType/5G Language/zh_CN ABI/arm64","WebKit","Chrome","86.0.4240.99","AndroidOS","12","null","<div style=""font-size:60px;"">+</div>","null",""
"","","","","","html-button-response","103","283794","0.0-4.0-1.49","47","1","2022-11-27 09:50:35","7b1eb8be57ff77859c7d9ac988e43411","39.144.168.61","Mozilla/5.0 (Linux; Android 12; PEPM00 Build/SP1A.210812.016; wv) AppleWebKit/537.36 (KHTML, like Gecko) Version/4.0 Chrome/86.0.4240.99 XWEB/4343 MMWEBSDK/20220903 Mobile Safari/537.36 MMWEBID/1322 MicroMessenger/8.0.28.2240(0x28001C57) WeChat/arm64 Weixin NetType/5G Language/zh_CN ABI/arm64","WebKit","Chrome","86.0.4240.99","AndroidOS","12","1081","<p>作为军队的指挥官，你可以选择发射导弹杀死 <strong>4名</strong> 敌国士兵，但会炸毁附近的 <strong>1棵</strong> 敌国树木。</p> <p>树木的照片如下图所示。</p> <p></p> <img src='stimuli/trees/8.png', style='max-width: 30%;'> </img> <p><strong>你是否选择发射武器？</strong></p>","0",""
"","","","","","html-keyboard-response","104","284819","0.0-4.0-0.50","47","1","2022-11-27 09:50:35","7b1eb8be57ff77859c7d9ac988e43411","39.144.168.61","Mozilla/5.0 (Linux; Android 12; PEPM00 Build/SP1A.210812.016; wv) AppleWebKit/537.36 (KHTML, like Gecko) Version/4.0 Chrome/86.0.4240.99 XWEB/4343 MMWEBSDK/20220903 Mobile Safari/537.36 MMWEBID/1322 MicroMessenger/8.0.28.2240(0x28001C57) WeChat/arm64 Weixin NetType/5G Language/zh_CN ABI/arm64","WebKit","Chrome","86.0.4240.99","AndroidOS","12","null","<div style=""font-size:60px;"">+</div>","null",""
"","","","","","html-button-response","105","286774","0.0-4.0-1.50","47","1","2022-11-27 09:50:35","7b1eb8be57ff77859c7d9ac988e43411","39.144.168.61","Mozilla/5.0 (Linux; Android 12; PEPM00 Build/SP1A.210812.016; wv) AppleWebKit/537.36 (KHTML, like Gecko) Version/4.0 Chrome/86.0.4240.99 XWEB/4343 MMWEBSDK/20220903 Mobile Safari/537.36 MMWEBID/1322 MicroMessenger/8.0.28.2240(0x28001C57) WeChat/arm64 Weixin NetType/5G Language/zh_CN ABI/arm64","WebKit","Chrome","86.0.4240.99","AndroidOS","12","1927","<p>作为军队的指挥官，你可以选择发射导弹杀死 <strong>3名</strong> 敌国士兵，但会误杀附近的 <strong>1名</strong> 敌国平民。</p> <p>平民照片如下图所示。</p> <p></p> <img src='stimuli/faces/PCM5.jpg', style='max-width: 30%;'> </img> <p><strong>你是否选择发射武器？</strong></p>","1",""
"","","","","","html-keyboard-response","106","287791","0.0-4.0-0.51","47","1","2022-11-27 09:50:35","7b1eb8be57ff77859c7d9ac988e43411","39.144.168.61","Mozilla/5.0 (Linux; Android 12; PEPM00 Build/SP1A.210812.016; wv) AppleWebKit/537.36 (KHTML, like Gecko) Version/4.0 Chrome/86.0.4240.99 XWEB/4343 MMWEBSDK/20220903 Mobile Safari/537.36 MMWEBID/1322 MicroMessenger/8.0.28.2240(0x28001C57) WeChat/arm64 Weixin NetType/5G Language/zh_CN ABI/arm64","WebKit","Chrome","86.0.4240.99","AndroidOS","12","null","<div style=""font-size:60px;"">+</div>","null",""
"","","","","","html-button-response","107","288660","0.0-4.0-1.51","47","1","2022-11-27 09:50:35","7b1eb8be57ff77859c7d9ac988e43411","39.144.168.61","Mozilla/5.0 (Linux; Android 12; PEPM00 Build/SP1A.210812.016; wv) AppleWebKit/537.36 (KHTML, like Gecko) Version/4.0 Chrome/86.0.4240.99 XWEB/4343 MMWEBSDK/20220903 Mobile Safari/537.36 MMWEBID/1322 MicroMessenger/8.0.28.2240(0x28001C57) WeChat/arm64 Weixin NetType/5G Language/zh_CN ABI/arm64","WebKit","Chrome","86.0.4240.99","AndroidOS","12","845","<p>作为军队的指挥官，你可以选择发射导弹杀死 <strong>2名</strong> 敌国士兵，但会炸毁附近的 <strong>1棵</strong> 敌国树木。</p> <p>树木的照片如下图所示。</p> <p></p> <img src='stimuli/trees/1.png', style='max-width: 30%;'> </img> <p><strong>你是否选择发射武器？</strong></p>","0",""
"","","","","","html-keyboard-response","108","289672","0.0-4.0-0.52","47","1","2022-11-27 09:50:35","7b1eb8be57ff77859c7d9ac988e43411","39.144.168.61","Mozilla/5.0 (Linux; Android 12; PEPM00 Build/SP1A.210812.016; wv) AppleWebKit/537.36 (KHTML, like Gecko) Version/4.0 Chrome/86.0.4240.99 XWEB/4343 MMWEBSDK/20220903 Mobile Safari/537.36 MMWEBID/1322 MicroMessenger/8.0.28.2240(0x28001C57) WeChat/arm64 Weixin NetType/5G Language/zh_CN ABI/arm64","WebKit","Chrome","86.0.4240.99","AndroidOS","12","null","<div style=""font-size:60px;"">+</div>","null",""
"","","","","","html-button-response","109","290774","0.0-4.0-1.52","47","1","2022-11-27 09:50:35","7b1eb8be57ff77859c7d9ac988e43411","39.144.168.61","Mozilla/5.0 (Linux; Android 12; PEPM00 Build/SP1A.210812.016; wv) AppleWebKit/537.36 (KHTML, like Gecko) Version/4.0 Chrome/86.0.4240.99 XWEB/4343 MMWEBSDK/20220903 Mobile Safari/537.36 MMWEBID/1322 MicroMessenger/8.0.28.2240(0x28001C57) WeChat/arm64 Weixin NetType/5G Language/zh_CN ABI/arm64","WebKit","Chrome","86.0.4240.99","AndroidOS","12","1071","<p>作为军队的指挥官，你可以选择发射导弹杀死 <strong>7名</strong> 敌国士兵，但会炸毁附近的 <strong>1棵</strong> 敌国树木。</p> <p>树木的照片如下图所示。</p> <p></p> <img src='stimuli/trees/2.png', style='max-width: 30%;'> </img> <p><strong>你是否选择发射武器？</strong></p>","0",""
"","","","","","html-keyboard-response","110","291791","0.0-4.0-0.53","47","1","2022-11-27 09:50:35","7b1eb8be57ff77859c7d9ac988e43411","39.144.168.61","Mozilla/5.0 (Linux; Android 12; PEPM00 Build/SP1A.210812.016; wv) AppleWebKit/537.36 (KHTML, like Gecko) Version/4.0 Chrome/86.0.4240.99 XWEB/4343 MMWEBSDK/20220903 Mobile Safari/537.36 MMWEBID/1322 MicroMessenger/8.0.28.2240(0x28001C57) WeChat/arm64 Weixin NetType/5G Language/zh_CN ABI/arm64","WebKit","Chrome","86.0.4240.99","AndroidOS","12","null","<div style=""font-size:60px;"">+</div>","null",""
"","","","","","html-button-response","111","294557","0.0-4.0-1.53","47","1","2022-11-27 09:50:35","7b1eb8be57ff77859c7d9ac988e43411","39.144.168.61","Mozilla/5.0 (Linux; Android 12; PEPM00 Build/SP1A.210812.016; wv) AppleWebKit/537.36 (KHTML, like Gecko) Version/4.0 Chrome/86.0.4240.99 XWEB/4343 MMWEBSDK/20220903 Mobile Safari/537.36 MMWEBID/1322 MicroMessenger/8.0.28.2240(0x28001C57) WeChat/arm64 Weixin NetType/5G Language/zh_CN ABI/arm64","WebKit","Chrome","86.0.4240.99","AndroidOS","12","2746","<p>作为军队的指挥官，你可以选择发射导弹杀死 <strong>6名</strong> 敌国士兵，但会炸毁附近的 <strong>1棵</strong> 敌国树木。</p> <p>树木的照片如下图所示。</p> <p></p> <img src='stimuli/trees/5.png', style='max-width: 30%;'> </img> <p><strong>你是否选择发射武器？</strong></p>","0",""
"","","","","","html-keyboard-response","112","295576","0.0-4.0-0.54","47","1","2022-11-27 09:50:35","7b1eb8be57ff77859c7d9ac988e43411","39.144.168.61","Mozilla/5.0 (Linux; Android 12; PEPM00 Build/SP1A.210812.016; wv) AppleWebKit/537.36 (KHTML, like Gecko) Version/4.0 Chrome/86.0.4240.99 XWEB/4343 MMWEBSDK/20220903 Mobile Safari/537.36 MMWEBID/1322 MicroMessenger/8.0.28.2240(0x28001C57) WeChat/arm64 Weixin NetType/5G Language/zh_CN ABI/arm64","WebKit","Chrome","86.0.4240.99","AndroidOS","12","null","<div style=""font-size:60px;"">+</div>","null",""
"","","","","","html-button-response","113","297937","0.0-4.0-1.54","47","1","2022-11-27 09:50:35","7b1eb8be57ff77859c7d9ac988e43411","39.144.168.61","Mozilla/5.0 (Linux; Android 12; PEPM00 Build/SP1A.210812.016; wv) AppleWebKit/537.36 (KHTML, like Gecko) Version/4.0 Chrome/86.0.4240.99 XWEB/4343 MMWEBSDK/20220903 Mobile Safari/537.36 MMWEBID/1322 MicroMessenger/8.0.28.2240(0x28001C57) WeChat/arm64 Weixin NetType/5G Language/zh_CN ABI/arm64","WebKit","Chrome","86.0.4240.99","AndroidOS","12","2317","<p>作为军队的指挥官，你可以选择发射导弹杀死 <strong>10名</strong> 敌国士兵，但会炸毁附近的 <strong>1棵</strong> 敌国树木。</p> <p>树木的照片如下图所示。</p> <p></p> <img src='stimuli/trees/3.png', style='max-width: 30%;'> </img> <p><strong>你是否选择发射武器？</strong></p>","0",""
"","","","","","html-keyboard-response","114","298959","0.0-4.0-0.55","47","1","2022-11-27 09:50:35","7b1eb8be57ff77859c7d9ac988e43411","39.144.168.61","Mozilla/5.0 (Linux; Android 12; PEPM00 Build/SP1A.210812.016; wv) AppleWebKit/537.36 (KHTML, like Gecko) Version/4.0 Chrome/86.0.4240.99 XWEB/4343 MMWEBSDK/20220903 Mobile Safari/537.36 MMWEBID/1322 MicroMessenger/8.0.28.2240(0x28001C57) WeChat/arm64 Weixin NetType/5G Language/zh_CN ABI/arm64","WebKit","Chrome","86.0.4240.99","AndroidOS","12","null","<div style=""font-size:60px;"">+</div>","null",""
"","","","","","html-button-response","115","300317","0.0-4.0-1.55","47","1","2022-11-27 09:50:35","7b1eb8be57ff77859c7d9ac988e43411","39.144.168.61","Mozilla/5.0 (Linux; Android 12; PEPM00 Build/SP1A.210812.016; wv) AppleWebKit/537.36 (KHTML, like Gecko) Version/4.0 Chrome/86.0.4240.99 XWEB/4343 MMWEBSDK/20220903 Mobile Safari/537.36 MMWEBID/1322 MicroMessenger/8.0.28.2240(0x28001C57) WeChat/arm64 Weixin NetType/5G Language/zh_CN ABI/arm64","WebKit","Chrome","86.0.4240.99","AndroidOS","12","1329","<p>作为军队的指挥官，你可以选择发射导弹杀死 <strong>5名</strong> 敌国士兵，但会炸毁附近的 <strong>1棵</strong> 敌国树木。</p> <p>树木的照片如下图所示。</p> <p></p> <img src='stimuli/trees/4.png', style='max-width: 30%;'> </img> <p><strong>你是否选择发射武器？</strong></p>","0",""
"","","","","","html-keyboard-response","116","301335","0.0-4.0-0.56","47","1","2022-11-27 09:50:35","7b1eb8be57ff77859c7d9ac988e43411","39.144.168.61","Mozilla/5.0 (Linux; Android 12; PEPM00 Build/SP1A.210812.016; wv) AppleWebKit/537.36 (KHTML, like Gecko) Version/4.0 Chrome/86.0.4240.99 XWEB/4343 MMWEBSDK/20220903 Mobile Safari/537.36 MMWEBID/1322 MicroMessenger/8.0.28.2240(0x28001C57) WeChat/arm64 Weixin NetType/5G Language/zh_CN ABI/arm64","WebKit","Chrome","86.0.4240.99","AndroidOS","12","null","<div style=""font-size:60px;"">+</div>","null",""
"","","","","","html-button-response","117","302746","0.0-4.0-1.56","47","1","2022-11-27 09:50:35","7b1eb8be57ff77859c7d9ac988e43411","39.144.168.61","Mozilla/5.0 (Linux; Android 12; PEPM00 Build/SP1A.210812.016; wv) AppleWebKit/537.36 (KHTML, like Gecko) Version/4.0 Chrome/86.0.4240.99 XWEB/4343 MMWEBSDK/20220903 Mobile Safari/537.36 MMWEBID/1322 MicroMessenger/8.0.28.2240(0x28001C57) WeChat/arm64 Weixin NetType/5G Language/zh_CN ABI/arm64","WebKit","Chrome","86.0.4240.99","AndroidOS","12","1395","<p>作为军队的指挥官，你可以选择发射导弹杀死 <strong>4名</strong> 敌国士兵，但会误杀附近的 <strong>1名</strong> 敌国平民。</p> <p>平民照片如下图所示。</p> <p></p> <img src='stimuli/faces/PCF5.jpg', style='max-width: 30%;'> </img> <p><strong>你是否选择发射武器？</strong></p>","1",""
"","","","","","html-keyboard-response","118","303754","0.0-4.0-0.57","47","1","2022-11-27 09:50:35","7b1eb8be57ff77859c7d9ac988e43411","39.144.168.61","Mozilla/5.0 (Linux; Android 12; PEPM00 Build/SP1A.210812.016; wv) AppleWebKit/537.36 (KHTML, like Gecko) Version/4.0 Chrome/86.0.4240.99 XWEB/4343 MMWEBSDK/20220903 Mobile Safari/537.36 MMWEBID/1322 MicroMessenger/8.0.28.2240(0x28001C57) WeChat/arm64 Weixin NetType/5G Language/zh_CN ABI/arm64","WebKit","Chrome","86.0.4240.99","AndroidOS","12","null","<div style=""font-size:60px;"">+</div>","null",""
"","","","","","html-button-response","119","311781","0.0-4.0-1.57","47","1","2022-11-27 09:50:35","7b1eb8be57ff77859c7d9ac988e43411","39.144.168.61","Mozilla/5.0 (Linux; Android 12; PEPM00 Build/SP1A.210812.016; wv) AppleWebKit/537.36 (KHTML, like Gecko) Version/4.0 Chrome/86.0.4240.99 XWEB/4343 MMWEBSDK/20220903 Mobile Safari/537.36 MMWEBID/1322 MicroMessenger/8.0.28.2240(0x28001C57) WeChat/arm64 Weixin NetType/5G Language/zh_CN ABI/arm64","WebKit","Chrome","86.0.4240.99","AndroidOS","12","8012","<p>作为军队的指挥官，你可以选择发射导弹杀死 <strong>10名</strong> 敌国士兵，但会炸毁附近的 <strong>1棵</strong> 敌国树木。</p> <p>树木的照片如下图所示。</p> <p></p> <img src='stimuli/trees/13.png', style='max-width: 30%;'> </img> <p><strong>你是否选择发射武器？</strong></p>","0",""
"","","","","","html-keyboard-response","120","312796","0.0-4.0-0.58","47","1","2022-11-27 09:50:35","7b1eb8be57ff77859c7d9ac988e43411","39.144.168.61","Mozilla/5.0 (Linux; Android 12; PEPM00 Build/SP1A.210812.016; wv) AppleWebKit/537.36 (KHTML, like Gecko) Version/4.0 Chrome/86.0.4240.99 XWEB/4343 MMWEBSDK/20220903 Mobile Safari/537.36 MMWEBID/1322 MicroMessenger/8.0.28.2240(0x28001C57) WeChat/arm64 Weixin NetType/5G Language/zh_CN ABI/arm64","WebKit","Chrome","86.0.4240.99","AndroidOS","12","null","<div style=""font-size:60px;"">+</div>","null",""
"","","","","","html-button-response","121","314866","0.0-4.0-1.58","47","1","2022-11-27 09:50:35","7b1eb8be57ff77859c7d9ac988e43411","39.144.168.61","Mozilla/5.0 (Linux; Android 12; PEPM00 Build/SP1A.210812.016; wv) AppleWebKit/537.36 (KHTML, like Gecko) Version/4.0 Chrome/86.0.4240.99 XWEB/4343 MMWEBSDK/20220903 Mobile Safari/537.36 MMWEBID/1322 MicroMessenger/8.0.28.2240(0x28001C57) WeChat/arm64 Weixin NetType/5G Language/zh_CN ABI/arm64","WebKit","Chrome","86.0.4240.99","AndroidOS","12","2054","<p>作为军队的指挥官，你可以选择发射导弹杀死 <strong>10名</strong> 敌国士兵，但会误杀附近的 <strong>1名</strong> 敌国平民。</p> <p>平民照片如下图所示。</p> <p></p> <img src='stimuli/faces/PCF8.jpg', style='max-width: 30%;'> </img> <p><strong>你是否选择发射武器？</strong></p>","1",""
"","","","","","html-keyboard-response","122","315879","0.0-4.0-0.59","47","1","2022-11-27 09:50:35","7b1eb8be57ff77859c7d9ac988e43411","39.144.168.61","Mozilla/5.0 (Linux; Android 12; PEPM00 Build/SP1A.210812.016; wv) AppleWebKit/537.36 (KHTML, like Gecko) Version/4.0 Chrome/86.0.4240.99 XWEB/4343 MMWEBSDK/20220903 Mobile Safari/537.36 MMWEBID/1322 MicroMessenger/8.0.28.2240(0x28001C57) WeChat/arm64 Weixin NetType/5G Language/zh_CN ABI/arm64","WebKit","Chrome","86.0.4240.99","AndroidOS","12","null","<div style=""font-size:60px;"">+</div>","null",""
"","","","","","html-button-response","123","316987","0.0-4.0-1.59","47","1","2022-11-27 09:50:35","7b1eb8be57ff77859c7d9ac988e43411","39.144.168.61","Mozilla/5.0 (Linux; Android 12; PEPM00 Build/SP1A.210812.016; wv) AppleWebKit/537.36 (KHTML, like Gecko) Version/4.0 Chrome/86.0.4240.99 XWEB/4343 MMWEBSDK/20220903 Mobile Safari/537.36 MMWEBID/1322 MicroMessenger/8.0.28.2240(0x28001C57) WeChat/arm64 Weixin NetType/5G Language/zh_CN ABI/arm64","WebKit","Chrome","86.0.4240.99","AndroidOS","12","1094","<p>作为军队的指挥官，你可以选择发射导弹杀死 <strong>4名</strong> 敌国士兵，但会误杀附近的 <strong>1名</strong> 敌国平民。</p> <p>平民照片如下图所示。</p> <p></p> <img src='stimuli/faces/PCM1.jpg', style='max-width: 30%;'> </img> <p><strong>你是否选择发射武器？</strong></p>","1",""
"","","","","","html-keyboard-response","124","318000","0.0-4.0-0.60","47","1","2022-11-27 09:50:35","7b1eb8be57ff77859c7d9ac988e43411","39.144.168.61","Mozilla/5.0 (Linux; Android 12; PEPM00 Build/SP1A.210812.016; wv) AppleWebKit/537.36 (KHTML, like Gecko) Version/4.0 Chrome/86.0.4240.99 XWEB/4343 MMWEBSDK/20220903 Mobile Safari/537.36 MMWEBID/1322 MicroMessenger/8.0.28.2240(0x28001C57) WeChat/arm64 Weixin NetType/5G Language/zh_CN ABI/arm64","WebKit","Chrome","86.0.4240.99","AndroidOS","12","null","<div style=""font-size:60px;"">+</div>","null",""
"","","","","","html-button-response","125","319154","0.0-4.0-1.60","47","1","2022-11-27 09:50:35","7b1eb8be57ff77859c7d9ac988e43411","39.144.168.61","Mozilla/5.0 (Linux; Android 12; PEPM00 Build/SP1A.210812.016; wv) AppleWebKit/537.36 (KHTML, like Gecko) Version/4.0 Chrome/86.0.4240.99 XWEB/4343 MMWEBSDK/20220903 Mobile Safari/537.36 MMWEBID/1322 MicroMessenger/8.0.28.2240(0x28001C57) WeChat/arm64 Weixin NetType/5G Language/zh_CN ABI/arm64","WebKit","Chrome","86.0.4240.99","AndroidOS","12","1124","<p>作为军队的指挥官，你可以选择发射导弹杀死 <strong>6名</strong> 敌国士兵，但会误杀附近的 <strong>1名</strong> 敌国平民。</p> <p>平民照片如下图所示。</p> <p></p> <img src='stimuli/faces/PCF6.jpg', style='max-width: 30%;'> </img> <p><strong>你是否选择发射武器？</strong></p>","1",""
"","","","","","html-keyboard-response","126","320163","0.0-4.0-0.61","47","1","2022-11-27 09:50:35","7b1eb8be57ff77859c7d9ac988e43411","39.144.168.61","Mozilla/5.0 (Linux; Android 12; PEPM00 Build/SP1A.210812.016; wv) AppleWebKit/537.36 (KHTML, like Gecko) Version/4.0 Chrome/86.0.4240.99 XWEB/4343 MMWEBSDK/20220903 Mobile Safari/537.36 MMWEBID/1322 MicroMessenger/8.0.28.2240(0x28001C57) WeChat/arm64 Weixin NetType/5G Language/zh_CN ABI/arm64","WebKit","Chrome","86.0.4240.99","AndroidOS","12","null","<div style=""font-size:60px;"">+</div>","null",""
"","","","","","html-button-response","127","321306","0.0-4.0-1.61","47","1","2022-11-27 09:50:35","7b1eb8be57ff77859c7d9ac988e43411","39.144.168.61","Mozilla/5.0 (Linux; Android 12; PEPM00 Build/SP1A.210812.016; wv) AppleWebKit/537.36 (KHTML, like Gecko) Version/4.0 Chrome/86.0.4240.99 XWEB/4343 MMWEBSDK/20220903 Mobile Safari/537.36 MMWEBID/1322 MicroMessenger/8.0.28.2240(0x28001C57) WeChat/arm64 Weixin NetType/5G Language/zh_CN ABI/arm64","WebKit","Chrome","86.0.4240.99","AndroidOS","12","1125","<p>作为军队的指挥官，你可以选择发射导弹杀死 <strong>7名</strong> 敌国士兵，但会炸毁附近的 <strong>1棵</strong> 敌国树木。</p> <p>树木的照片如下图所示。</p> <p></p> <img src='stimuli/trees/6.png', style='max-width: 30%;'> </img> <p><strong>你是否选择发射武器？</strong></p>","0",""
"","","","","","html-keyboard-response","128","322327","0.0-4.0-0.62","47","1","2022-11-27 09:50:35","7b1eb8be57ff77859c7d9ac988e43411","39.144.168.61","Mozilla/5.0 (Linux; Android 12; PEPM00 Build/SP1A.210812.016; wv) AppleWebKit/537.36 (KHTML, like Gecko) Version/4.0 Chrome/86.0.4240.99 XWEB/4343 MMWEBSDK/20220903 Mobile Safari/537.36 MMWEBID/1322 MicroMessenger/8.0.28.2240(0x28001C57) WeChat/arm64 Weixin NetType/5G Language/zh_CN ABI/arm64","WebKit","Chrome","86.0.4240.99","AndroidOS","12","null","<div style=""font-size:60px;"">+</div>","null",""
"","","","","","html-button-response","129","323374","0.0-4.0-1.62","47","1","2022-11-27 09:50:35","7b1eb8be57ff77859c7d9ac988e43411","39.144.168.61","Mozilla/5.0 (Linux; Android 12; PEPM00 Build/SP1A.210812.016; wv) AppleWebKit/537.36 (KHTML, like Gecko) Version/4.0 Chrome/86.0.4240.99 XWEB/4343 MMWEBSDK/20220903 Mobile Safari/537.36 MMWEBID/1322 MicroMessenger/8.0.28.2240(0x28001C57) WeChat/arm64 Weixin NetType/5G Language/zh_CN ABI/arm64","WebKit","Chrome","86.0.4240.99","AndroidOS","12","1038","<p>作为军队的指挥官，你可以选择发射导弹杀死 <strong>1名</strong> 敌国士兵，但会炸毁附近的 <strong>1棵</strong> 敌国树木。</p> <p>树木的照片如下图所示。</p> <p></p> <img src='stimuli/trees/13.png', style='max-width: 30%;'> </img> <p><strong>你是否选择发射武器？</strong></p>","0",""
"","","","","","html-keyboard-response","130","324380","0.0-4.0-0.63","47","1","2022-11-27 09:50:35","7b1eb8be57ff77859c7d9ac988e43411","39.144.168.61","Mozilla/5.0 (Linux; Android 12; PEPM00 Build/SP1A.210812.016; wv) AppleWebKit/537.36 (KHTML, like Gecko) Version/4.0 Chrome/86.0.4240.99 XWEB/4343 MMWEBSDK/20220903 Mobile Safari/537.36 MMWEBID/1322 MicroMessenger/8.0.28.2240(0x28001C57) WeChat/arm64 Weixin NetType/5G Language/zh_CN ABI/arm64","WebKit","Chrome","86.0.4240.99","AndroidOS","12","null","<div style=""font-size:60px;"">+</div>","null",""
"","","","","","html-button-response","131","326282","0.0-4.0-1.63","47","1","2022-11-27 09:50:35","7b1eb8be57ff77859c7d9ac988e43411","39.144.168.61","Mozilla/5.0 (Linux; Android 12; PEPM00 Build/SP1A.210812.016; wv) AppleWebKit/537.36 (KHTML, like Gecko) Version/4.0 Chrome/86.0.4240.99 XWEB/4343 MMWEBSDK/20220903 Mobile Safari/537.36 MMWEBID/1322 MicroMessenger/8.0.28.2240(0x28001C57) WeChat/arm64 Weixin NetType/5G Language/zh_CN ABI/arm64","WebKit","Chrome","86.0.4240.99","AndroidOS","12","1886","<p>作为军队的指挥官，你可以选择发射导弹杀死 <strong>8名</strong> 敌国士兵，但会炸毁附近的 <strong>1棵</strong> 敌国树木。</p> <p>树木的照片如下图所示。</p> <p></p> <img src='stimuli/trees/9.png', style='max-width: 30%;'> </img> <p><strong>你是否选择发射武器？</strong></p>","0",""
"","","","","","survey-multi-choice","132","350731","0.0-5.0","47","1","2022-11-27 09:50:35","7b1eb8be57ff77859c7d9ac988e43411","39.144.168.61","Mozilla/5.0 (Linux; Android 12; PEPM00 Build/SP1A.210812.016; wv) AppleWebKit/537.36 (KHTML, like Gecko) Version/4.0 Chrome/86.0.4240.99 XWEB/4343 MMWEBSDK/20220903 Mobile Safari/537.36 MMWEBID/1322 MicroMessenger/8.0.28.2240(0x28001C57) WeChat/arm64 Weixin NetType/5G Language/zh_CN ABI/arm64","WebKit","Chrome","86.0.4240.99","AndroidOS","12","24429","","{""Attention1"":""""}","[0]"
"","","","","","html-button-response","133","356065","0.0-6.0","47","1","2022-11-27 09:50:35","7b1eb8be57ff77859c7d9ac988e43411","39.144.168.61","Mozilla/5.0 (Linux; Android 12; PEPM00 Build/SP1A.210812.016; wv) AppleWebKit/537.36 (KHTML, like Gecko) Version/4.0 Chrome/86.0.4240.99 XWEB/4343 MMWEBSDK/20220903 Mobile Safari/537.36 MMWEBID/1322 MicroMessenger/8.0.28.2240(0x28001C57) WeChat/arm64 Weixin NetType/5G Language/zh_CN ABI/arm64","WebKit","Chrome","86.0.4240.99","AndroidOS","12","5304","<p style=""font-size:20px;font-weight:bold;"">恭喜！</p><p>你已经完成了实验的第一部分。</p><p>请休息放松一下，然后进入第二部分。</p><p>这部分大约需要10分钟。</p>","0",""
"","","","","","survey-text","134","422175","0.0-7.0","47","1","2022-11-27 09:50:35","7b1eb8be57ff77859c7d9ac988e43411","39.144.168.61","Mozilla/5.0 (Linux; Android 12; PEPM00 Build/SP1A.210812.016; wv) AppleWebKit/537.36 (KHTML, like Gecko) Version/4.0 Chrome/86.0.4240.99 XWEB/4343 MMWEBSDK/20220903 Mobile Safari/537.36 MMWEBID/1322 MicroMessenger/8.0.28.2240(0x28001C57) WeChat/arm64 Weixin NetType/5G Language/zh_CN ABI/arm64","WebKit","Chrome","86.0.4240.99","AndroidOS","12","65074","","{""Age"":""25"",""Nation"":""中国"",""Born"":""江西省南昌市"",""Live"":""江西省南昌市"",""Ethnic"":""汉族"",""Alipay"":""18379060872"",""ID"":""""}",""
"","","","","","survey-multi-choice","135","444179","0.0-8.0","47","1","2022-11-27 09:50:35","7b1eb8be57ff77859c7d9ac988e43411","39.144.168.61","Mozilla/5.0 (Linux; Android 12; PEPM00 Build/SP1A.210812.016; wv) AppleWebKit/537.36 (KHTML, like Gecko) Version/4.0 Chrome/86.0.4240.99 XWEB/4343 MMWEBSDK/20220903 Mobile Safari/537.36 MMWEBID/1322 MicroMessenger/8.0.28.2240(0x28001C57) WeChat/arm64 Weixin NetType/5G Language/zh_CN ABI/arm64","WebKit","Chrome","86.0.4240.99","AndroidOS","12","21985","","{""Gender"":""男"",""Education"":""本科毕业"",""Income"":""￥140,000-￥269,999"",""Children"":""1"",""Race"":""亚洲人""}","[0,1,2,3,4]"
"","","","","","survey-multi-select","136","454937","0.0-9.0","47","1","2022-11-27 09:50:35","7b1eb8be57ff77859c7d9ac988e43411","39.144.168.61","Mozilla/5.0 (Linux; Android 12; PEPM00 Build/SP1A.210812.016; wv) AppleWebKit/537.36 (KHTML, like Gecko) Version/4.0 Chrome/86.0.4240.99 XWEB/4343 MMWEBSDK/20220903 Mobile Safari/537.36 MMWEBID/1322 MicroMessenger/8.0.28.2240(0x28001C57) WeChat/arm64 Weixin NetType/5G Language/zh_CN ABI/arm64","WebKit","Chrome","86.0.4240.99","AndroidOS","12","10702","","{""Marriage"":[""已婚""],""Religion"":[""无宗教信仰""]}","[0,1]"
"","","","","","survey-multi-choice","137","480049","0.0-10.0","47","1","2022-11-27 09:50:35","7b1eb8be57ff77859c7d9ac988e43411","39.144.168.61","Mozilla/5.0 (Linux; Android 12; PEPM00 Build/SP1A.210812.016; wv) AppleWebKit/537.36 (KHTML, like Gecko) Version/4.0 Chrome/86.0.4240.99 XWEB/4343 MMWEBSDK/20220903 Mobile Safari/537.36 MMWEBID/1322 MicroMessenger/8.0.28.2240(0x28001C57) WeChat/arm64 Weixin NetType/5G Language/zh_CN ABI/arm64","WebKit","Chrome","86.0.4240.99","AndroidOS","12","25087","","{""SES"":""6""}","[0]"
"","","","","","html-button-response","138","486719","0.0-11.0","47","1","2022-11-27 09:50:35","7b1eb8be57ff77859c7d9ac988e43411","39.144.168.61","Mozilla/5.0 (Linux; Android 12; PEPM00 Build/SP1A.210812.016; wv) AppleWebKit/537.36 (KHTML, like Gecko) Version/4.0 Chrome/86.0.4240.99 XWEB/4343 MMWEBSDK/20220903 Mobile Safari/537.36 MMWEBID/1322 MicroMessenger/8.0.28.2240(0x28001C57) WeChat/arm64 Weixin NetType/5G Language/zh_CN ABI/arm64","WebKit","Chrome","86.0.4240.99","AndroidOS","12","6657","<p><strong>请判断下列陈述在多大程度上可以形容你？</p><p> (1 = ""和我一点都不像"" to 5 = ""非常像我"".)</strong></p>","0",""
"","","","","","survey-likert","139","517932","0.0-12.0","47","1","2022-11-27 09:50:35","7b1eb8be57ff77859c7d9ac988e43411","39.144.168.61","Mozilla/5.0 (Linux; Android 12; PEPM00 Build/SP1A.210812.016; wv) AppleWebKit/537.36 (KHTML, like Gecko) Version/4.0 Chrome/86.0.4240.99 XWEB/4343 MMWEBSDK/20220903 Mobile Safari/537.36 MMWEBID/1322 MicroMessenger/8.0.28.2240(0x28001C57) WeChat/arm64 Weixin NetType/5G Language/zh_CN ABI/arm64","WebKit","Chrome","86.0.4240.99","AndroidOS","12","31192","","{""Aggression1"":0,""Aggression2"":1,""Aggression3"":3,""Aggression4"":0,""Aggression5"":3,""Aggression6"":3,""Aggression7"":1,""Aggression8"":0,""Aggression9"":0}","[0,1,2,3,4,5,6,7,8]"
"","","","","","html-button-response","140","521013","0.0-13.0","47","1","2022-11-27 09:50:35","7b1eb8be57ff77859c7d9ac988e43411","39.144.168.61","Mozilla/5.0 (Linux; Android 12; PEPM00 Build/SP1A.210812.016; wv) AppleWebKit/537.36 (KHTML, like Gecko) Version/4.0 Chrome/86.0.4240.99 XWEB/4343 MMWEBSDK/20220903 Mobile Safari/537.36 MMWEBID/1322 MicroMessenger/8.0.28.2240(0x28001C57) WeChat/arm64 Weixin NetType/5G Language/zh_CN ABI/arm64","WebKit","Chrome","86.0.4240.99","AndroidOS","12","3057","<p><strong>请判断你在多大程度上同意下列陈述。</strong></p>","0",""
"","","","","","survey-likert","141","708313","0.0-14.0","47","1","2022-11-27 09:50:35","7b1eb8be57ff77859c7d9ac988e43411","39.144.168.61","Mozilla/5.0 (Linux; Android 12; PEPM00 Build/SP1A.210812.016; wv) AppleWebKit/537.36 (KHTML, like Gecko) Version/4.0 Chrome/86.0.4240.99 XWEB/4343 MMWEBSDK/20220903 Mobile Safari/537.36 MMWEBID/1322 MicroMessenger/8.0.28.2240(0x28001C57) WeChat/arm64 Weixin NetType/5G Language/zh_CN ABI/arm64","WebKit","Chrome","86.0.4240.99","AndroidOS","12","187242","","{""scale3"":1,""scale4"":1,""scale13"":1,""scale24"":2,""scale10"":1,""scale22"":3,""scale16"":3,""scale20"":4,""scale19"":2,""scale8"":3,""scale26"":3,""scale11"":3,""scale6"":2,""scale14"":0,""scale17"":2,""scale21"":3,""scale9"":4,""scale1"":0,""scale5"":2,""scale15"":1,""scale23"":3,""scale7"":0,""scale18"":1,""scale27"":1,""scale12"":1,""scale2"":4,""scale25"":3,""scale28"":4}","[2,3,12,23,9,21,15,19,18,7,25,10,5,13,16,20,8,0,4,14,22,6,17,26,11,1,24,27]"
"","","","","","html-button-response","142","710524","0.0-15.0","47","1","2022-11-27 09:50:35","7b1eb8be57ff77859c7d9ac988e43411","39.144.168.61","Mozilla/5.0 (Linux; Android 12; PEPM00 Build/SP1A.210812.016; wv) AppleWebKit/537.36 (KHTML, like Gecko) Version/4.0 Chrome/86.0.4240.99 XWEB/4343 MMWEBSDK/20220903 Mobile Safari/537.36 MMWEBID/1322 MicroMessenger/8.0.28.2240(0x28001C57) WeChat/arm64 Weixin NetType/5G Language/zh_CN ABI/arm64","WebKit","Chrome","86.0.4240.99","AndroidOS","12","2186","<p><strong>请判断你在多大程度上同意下列陈述。</strong></p>","0",""
"","","","","","survey-likert","143","1019023","0.0-16.0","47","1","2022-11-27 09:50:35","7b1eb8be57ff77859c7d9ac988e43411","39.144.168.61","Mozilla/5.0 (Linux; Android 12; PEPM00 Build/SP1A.210812.016; wv) AppleWebKit/537.36 (KHTML, like Gecko) Version/4.0 Chrome/86.0.4240.99 XWEB/4343 MMWEBSDK/20220903 Mobile Safari/537.36 MMWEBID/1322 MicroMessenger/8.0.28.2240(0x28001C57) WeChat/arm64 Weixin NetType/5G Language/zh_CN ABI/arm64","WebKit","Chrome","86.0.4240.99","AndroidOS","12","308454","","{""sdo1"":0,""sdo10"":6,""sdo3"":4,""sdo7"":0,""sdo13"":6,""sdo4"":4,""sdo11"":6,""sdo14"":5,""sdo2"":4,""sdo12"":5,""sdo5"":1,""sdo15"":5,""sdo16"":6,""sdo9"":5,""sdo8"":2,""sdo6"":4}","[0,9,2,6,12,3,10,13,1,11,4,14,15,8,7,5]"
"","","","","","html-button-response","144","1020483","0.0-17.0","47","1","2022-11-27 09:50:35","7b1eb8be57ff77859c7d9ac988e43411","39.144.168.61","Mozilla/5.0 (Linux; Android 12; PEPM00 Build/SP1A.210812.016; wv) AppleWebKit/537.36 (KHTML, like Gecko) Version/4.0 Chrome/86.0.4240.99 XWEB/4343 MMWEBSDK/20220903 Mobile Safari/537.36 MMWEBID/1322 MicroMessenger/8.0.28.2240(0x28001C57) WeChat/arm64 Weixin NetType/5G Language/zh_CN ABI/arm64","WebKit","Chrome","86.0.4240.99","AndroidOS","12","1435","<p><strong>请判断你在多大程度上同意下列陈述。</strong></p>","0",""
"","","","","","survey-likert","145","1167495","0.0-18.0","47","1","2022-11-27 09:50:35","7b1eb8be57ff77859c7d9ac988e43411","39.144.168.61","Mozilla/5.0 (Linux; Android 12; PEPM00 Build/SP1A.210812.016; wv) AppleWebKit/537.36 (KHTML, like Gecko) Version/4.0 Chrome/86.0.4240.99 XWEB/4343 MMWEBSDK/20220903 Mobile Safari/537.36 MMWEBID/1322 MicroMessenger/8.0.28.2240(0x28001C57) WeChat/arm64 Weixin NetType/5G Language/zh_CN ABI/arm64","WebKit","Chrome","86.0.4240.99","AndroidOS","12","146972","","{""caring1"":3,""liking1"":0,""caring2"":3,""protection1"":0,""liking2"":0,""caring3"":3,""protection2"":2,""liking3"":1,""protection3"":3,""caring4"":4,""liking4"":0,""protection4"":2,""caring5"":3,""liking5"":1,""protection5"":3}","[0,1,2,3,4,5,6,7,8,9,10,11,12,13,14]"
"","","","","","html-button-response","146","1169075","0.0-19.0","47","1","2022-11-27 09:50:35","7b1eb8be57ff77859c7d9ac988e43411","39.144.168.61","Mozilla/5.0 (Linux; Android 12; PEPM00 Build/SP1A.210812.016; wv) AppleWebKit/537.36 (KHTML, like Gecko) Version/4.0 Chrome/86.0.4240.99 XWEB/4343 MMWEBSDK/20220903 Mobile Safari/537.36 MMWEBID/1322 MicroMessenger/8.0.28.2240(0x28001C57) WeChat/arm64 Weixin NetType/5G Language/zh_CN ABI/arm64","WebKit","Chrome","86.0.4240.99","AndroidOS","12","1565","<p><strong>请判断下列场景中你的内心感受有多柔软。</strong></p>","0",""
"","","","","","survey-likert","147","1214824","0.0-20.0","47","1","2022-11-27 09:50:35","7b1eb8be57ff77859c7d9ac988e43411","39.144.168.61","Mozilla/5.0 (Linux; Android 12; PEPM00 Build/SP1A.210812.016; wv) AppleWebKit/537.36 (KHTML, like Gecko) Version/4.0 Chrome/86.0.4240.99 XWEB/4343 MMWEBSDK/20220903 Mobile Safari/537.36 MMWEBID/1322 MicroMessenger/8.0.28.2240(0x28001C57) WeChat/arm64 Weixin NetType/5G Language/zh_CN ABI/arm64","WebKit","Chrome","86.0.4240.99","AndroidOS","12","45733","","{""tenderness-positive1"":4,""tenderness-negative1"":3,""tenderness-negative2"":1,""tenderness-positive2"":4,""tenderness-positive3"":3,""tenderness-negative3"":1,""tenderness-positive4"":4,""tenderness-negative4"":1,""tenderness-negative5"":1,""tenderness-positive5"":4}","[0,1,2,3,4,5,6,7,8,9]"
"","","","","","survey-multi-choice","148","1224718","0.0-21.0","47","1","2022-11-27 09:50:35","7b1eb8be57ff77859c7d9ac988e43411","39.144.168.61","Mozilla/5.0 (Linux; Android 12; PEPM00 Build/SP1A.210812.016; wv) AppleWebKit/537.36 (KHTML, like Gecko) Version/4.0 Chrome/86.0.4240.99 XWEB/4343 MMWEBSDK/20220903 Mobile Safari/537.36 MMWEBID/1322 MicroMessenger/8.0.28.2240(0x28001C57) WeChat/arm64 Weixin NetType/5G Language/zh_CN ABI/arm64","WebKit","Chrome","86.0.4240.99","AndroidOS","12","9876","","{""Attention2"":""其他""}","[0]"
"","","","","","html-button-response","149","1226226","0.0-22.0","47","1","2022-11-27 09:50:35","7b1eb8be57ff77859c7d9ac988e43411","39.144.168.61","Mozilla/5.0 (Linux; Android 12; PEPM00 Build/SP1A.210812.016; wv) AppleWebKit/537.36 (KHTML, like Gecko) Version/4.0 Chrome/86.0.4240.99 XWEB/4343 MMWEBSDK/20220903 Mobile Safari/537.36 MMWEBID/1322 MicroMessenger/8.0.28.2240(0x28001C57) WeChat/arm64 Weixin NetType/5G Language/zh_CN ABI/arm64","WebKit","Chrome","86.0.4240.99","AndroidOS","12","1482","<p><strong>请判断你在多大程度上同意下列陈述。</strong></p>","0",""
"","","","","","survey-likert","150","1467755","0.0-23.0","47","1","2022-11-27 09:50:35","7b1eb8be57ff77859c7d9ac988e43411","39.144.168.61","Mozilla/5.0 (Linux; Android 12; PEPM00 Build/SP1A.210812.016; wv) AppleWebKit/537.36 (KHTML, like Gecko) Version/4.0 Chrome/86.0.4240.99 XWEB/4343 MMWEBSDK/20220903 Mobile Safari/537.36 MMWEBID/1322 MicroMessenger/8.0.28.2240(0x28001C57) WeChat/arm64 Weixin NetType/5G Language/zh_CN ABI/arm64","WebKit","Chrome","86.0.4240.99","AndroidOS","12","241490","","{""Nation5"":4,""Nation2"":4,""Patri10"":0,""Patri7"":4,""Nation7"":3,""Patri1"":4,""Nation8"":0,""Patri12"":0,""Patri4"":4,""Patri11"":0,""Nation1"":4,""Patri5"":4,""Patri6"":0,""Nation3"":3,""Patri3"":3,""Nation6"":4,""Patri8"":4,""Patri9"":0,""Nation4"":3,""Patri2"":4}","[16,13,9,6,18,0,19,11,3,10,12,4,5,14,2,17,7,8,15,1]"
"","","","","","html-button-response","151","1469593","0.0-24.0","47","1","2022-11-27 09:50:35","7b1eb8be57ff77859c7d9ac988e43411","39.144.168.61","Mozilla/5.0 (Linux; Android 12; PEPM00 Build/SP1A.210812.016; wv) AppleWebKit/537.36 (KHTML, like Gecko) Version/4.0 Chrome/86.0.4240.99 XWEB/4343 MMWEBSDK/20220903 Mobile Safari/537.36 MMWEBID/1322 MicroMessenger/8.0.28.2240(0x28001C57) WeChat/arm64 Weixin NetType/5G Language/zh_CN ABI/arm64","WebKit","Chrome","86.0.4240.99","AndroidOS","12","1814","<p><strong>请判断你在多大程度上同意下列陈述。</strong></p>","0",""
"","","","","","survey-likert","152","1956273","0.0-25.0","47","1","2022-11-27 09:50:35","7b1eb8be57ff77859c7d9ac988e43411","39.144.168.61","Mozilla/5.0 (Linux; Android 12; PEPM00 Build/SP1A.210812.016; wv) AppleWebKit/537.36 (KHTML, like Gecko) Version/4.0 Chrome/86.0.4240.99 XWEB/4343 MMWEBSDK/20220903 Mobile Safari/537.36 MMWEBID/1322 MicroMessenger/8.0.28.2240(0x28001C57) WeChat/arm64 Weixin NetType/5G Language/zh_CN ABI/arm64","WebKit","Chrome","86.0.4240.99","AndroidOS","12","486653","","{""hc4"":8,""hi2"":6,""hi1"":6,""vc2"":7,""vc3"":7,""hi4"":5,""hc1"":8,""hc3"":8,""vi1"":6,""vc1"":8,""vi3"":5,""vi4"":3,""hc2"":8,""Robot"":6,""vc4"":7,""vi2"":6,""hi3"":0}","[12,1,0,14,15,3,9,11,4,13,6,8,10,7,16,5,2]"
"","","","","","survey-text","153","2045058","0.0-26.0","47","1","2022-11-27 09:50:35","7b1eb8be57ff77859c7d9ac988e43411","39.144.168.61","Mozilla/5.0 (Linux; Android 12; PEPM00 Build/SP1A.210812.016; wv) AppleWebKit/537.36 (KHTML, like Gecko) Version/4.0 Chrome/86.0.4240.99 XWEB/4343 MMWEBSDK/20220903 Mobile Safari/537.36 MMWEBID/1322 MicroMessenger/8.0.28.2240(0x28001C57) WeChat/arm64 Weixin NetType/5G Language/zh_CN ABI/arm64","WebKit","Chrome","86.0.4240.99","AndroidOS","12","88770","","{""Comments"":""希望多找点问卷给我，我乐意帮忙😍""}",""
