"success","timeout","failed_images","failed_audio","failed_video","trial_type","trial_index","time_elapsed","internal_node_id","run_id","condition","recorded_at","source_code_version","ip","user_agent","device","browser","browser_version","platform","platform_version","rt","stimulus","response","question_order"
"true","false","[]","[]","[]","preload","0","19624","0.0-0.0","50","1","2022-11-27 09:54:18","7b1eb8be57ff77859c7d9ac988e43411","111.32.123.213","Mozilla/5.0 (Windows NT 6.1) AppleWebKit/537.36 (KHTML, like Gecko) Chrome/94.0.4606.71 Safari/537.36 Core/1.94.186.400 QQBrowser/11.3.5195.400","WebKit","Chrome","94.0.4606.71","Windows","6.1","","","",""
"true","","","","","fullscreen","1","212042","0.0-1.0","50","1","2022-11-27 09:54:18","7b1eb8be57ff77859c7d9ac988e43411","111.32.123.213","Mozilla/5.0 (Windows NT 6.1) AppleWebKit/537.36 (KHTML, like Gecko) Chrome/94.0.4606.71 Safari/537.36 Core/1.94.186.400 QQBrowser/11.3.5195.400","WebKit","Chrome","94.0.4606.71","Windows","6.1","","","",""
"","","","","","html-button-response","2","232680","0.0-2.0","50","1","2022-11-27 09:54:18","7b1eb8be57ff77859c7d9ac988e43411","111.32.123.213","Mozilla/5.0 (Windows NT 6.1) AppleWebKit/537.36 (KHTML, like Gecko) Chrome/94.0.4606.71 Safari/537.36 Core/1.94.186.400 QQBrowser/11.3.5195.400","WebKit","Chrome","94.0.4606.71","Windows","6.1","20636","<p style=""font-size:20px;font-weight:bold;"">实验知情同意书</p><p style=""text-align:left;""><strong>实验名称：</strong>社会冲突研究</p><p style=""text-align:left;""><strong>主要研究者：</strong>韩晓春副教授（北京师范大学心理学部）</p><p style=""text-align:left;""><strong>联系方式：</strong>发送邮件至xiaochun.han@bnu.edu.cn</p><p style=""text-align:left;""><strong>研究目的：</strong>研究旨在了解人类面对群体冲突时的决策方式，以及相关的心理学特质。实验调查大约需要20分钟。</p><p style=""text-align:left;""><strong>实验流程：</strong>实验包含两部分。第一部分呈现一系列群体冲突场景，请你决定如何对这些冲突进行反应，大约需要10分钟完成。第二部分包含一系列人口统计学信息收集和心理学问卷，大约需要10分钟完成。</p><p style=""text-align:left;""><strong>参加及退出规则：</strong>参加本实验完全取决于您的个人意愿。在参与过程中，您可以随时退出，并且不用承担任何后果。</p><p style=""text-align:left;""><strong>隐私：</strong>本实验完全匿名进行，不会收集您的姓名或其他能够识别您身份的信息。实验中收集的作答仅用作科学研究使用，可能会在学术期刊/书籍上发表，或者用于教学，您的数据未来可能会和其他研究者或实验室分享，但您的个人身份不会被识别。</p><p style=""text-align:left;""><strong>实验报酬：</strong>实验完成后，您将获得15元人民币报酬，以感谢您的时间和努力。调查问卷中包含几道题目用以测验您作答时的认真度。只有完成全部实验，并且正确回答认真度测验的被试才能获得实验报酬。实验报酬将通过支付宝转账发放。</p><p style=""text-align:left;font-size:20px;""><strong>如果您同意以上实验知情同意书的内容，请点击'同意并且开始实验'按钮；否则请关闭浏览器界面，退出实验。</strong></p>","0",""
"","","","","","html-button-response","3","242711","0.0-3.0","50","1","2022-11-27 09:54:18","7b1eb8be57ff77859c7d9ac988e43411","111.32.123.213","Mozilla/5.0 (Windows NT 6.1) AppleWebKit/537.36 (KHTML, like Gecko) Chrome/94.0.4606.71 Safari/537.36 Core/1.94.186.400 QQBrowser/11.3.5195.400","WebKit","Chrome","94.0.4606.71","Windows","6.1","10030","<p ><strong>实验任务一：</strong></p><p>请想象你的国家与另一个国家发生了军事冲突。</p><p>你是国家军队的指挥官，你将如何在冲突中进行决策。</p><p>具体来说，作为军队指挥官，请你决定是否发射导弹进行打击。</p><p>接下来，你会面对一系列场景，请仔细阅读每个场景，然后进行决策。</p><p>这部分实验任务大约需要10分钟。</p><p><strong>实验过程中，请集中注意力。</strong></p>","0",""
"","","","","","html-keyboard-response","4","243713","0.0-4.0-0.0","50","1","2022-11-27 09:54:18","7b1eb8be57ff77859c7d9ac988e43411","111.32.123.213","Mozilla/5.0 (Windows NT 6.1) AppleWebKit/537.36 (KHTML, like Gecko) Chrome/94.0.4606.71 Safari/537.36 Core/1.94.186.400 QQBrowser/11.3.5195.400","WebKit","Chrome","94.0.4606.71","Windows","6.1","null","<div style=""font-size:60px;"">+</div>","null",""
"","","","","","html-button-response","5","256287","0.0-4.0-1.0","50","1","2022-11-27 09:54:18","7b1eb8be57ff77859c7d9ac988e43411","111.32.123.213","Mozilla/5.0 (Windows NT 6.1) AppleWebKit/537.36 (KHTML, like Gecko) Chrome/94.0.4606.71 Safari/537.36 Core/1.94.186.400 QQBrowser/11.3.5195.400","WebKit","Chrome","94.0.4606.71","Windows","6.1","12571","<p>作为军队的指挥官，你可以选择发射导弹杀死 <strong>3名</strong> 敌国士兵，但会误杀附近的 <strong>1名</strong> 敌国平民。</p> <p>平民照片如下图所示。</p> <p></p> <img src='stimuli/faces/PCF7.jpg', style='max-width: 30%;'> </img> <p><strong>你是否选择发射武器？</strong></p>","1",""
"","","","","","html-keyboard-response","6","257290","0.0-4.0-0.1","50","1","2022-11-27 09:54:18","7b1eb8be57ff77859c7d9ac988e43411","111.32.123.213","Mozilla/5.0 (Windows NT 6.1) AppleWebKit/537.36 (KHTML, like Gecko) Chrome/94.0.4606.71 Safari/537.36 Core/1.94.186.400 QQBrowser/11.3.5195.400","WebKit","Chrome","94.0.4606.71","Windows","6.1","null","<div style=""font-size:60px;"">+</div>","null",""
"","","","","","html-button-response","7","267798","0.0-4.0-1.1","50","1","2022-11-27 09:54:18","7b1eb8be57ff77859c7d9ac988e43411","111.32.123.213","Mozilla/5.0 (Windows NT 6.1) AppleWebKit/537.36 (KHTML, like Gecko) Chrome/94.0.4606.71 Safari/537.36 Core/1.94.186.400 QQBrowser/11.3.5195.400","WebKit","Chrome","94.0.4606.71","Windows","6.1","10507","<p>作为军队的指挥官，你可以选择发射导弹杀死 <strong>1名</strong> 敌国士兵，但会炸毁附近的 <strong>1棵</strong> 敌国树木。</p> <p>树木的照片如下图所示。</p> <p></p> <img src='stimuli/trees/6.png', style='max-width: 30%;'> </img> <p><strong>你是否选择发射武器？</strong></p>","0",""
"","","","","","html-keyboard-response","8","268800","0.0-4.0-0.2","50","1","2022-11-27 09:54:18","7b1eb8be57ff77859c7d9ac988e43411","111.32.123.213","Mozilla/5.0 (Windows NT 6.1) AppleWebKit/537.36 (KHTML, like Gecko) Chrome/94.0.4606.71 Safari/537.36 Core/1.94.186.400 QQBrowser/11.3.5195.400","WebKit","Chrome","94.0.4606.71","Windows","6.1","null","<div style=""font-size:60px;"">+</div>","null",""
"","","","","","html-button-response","9","275922","0.0-4.0-1.2","50","1","2022-11-27 09:54:18","7b1eb8be57ff77859c7d9ac988e43411","111.32.123.213","Mozilla/5.0 (Windows NT 6.1) AppleWebKit/537.36 (KHTML, like Gecko) Chrome/94.0.4606.71 Safari/537.36 Core/1.94.186.400 QQBrowser/11.3.5195.400","WebKit","Chrome","94.0.4606.71","Windows","6.1","7116","<p>作为军队的指挥官，你可以选择发射导弹杀死 <strong>10名</strong> 敌国士兵，但会误杀附近的 <strong>1名</strong> 敌国平民。</p> <p>平民照片如下图所示。</p> <p></p> <img src='stimuli/faces/PCF1.jpg', style='max-width: 30%;'> </img> <p><strong>你是否选择发射武器？</strong></p>","0",""
"","","","","","html-keyboard-response","10","276925","0.0-4.0-0.3","50","1","2022-11-27 09:54:18","7b1eb8be57ff77859c7d9ac988e43411","111.32.123.213","Mozilla/5.0 (Windows NT 6.1) AppleWebKit/537.36 (KHTML, like Gecko) Chrome/94.0.4606.71 Safari/537.36 Core/1.94.186.400 QQBrowser/11.3.5195.400","WebKit","Chrome","94.0.4606.71","Windows","6.1","null","<div style=""font-size:60px;"">+</div>","null",""
"","","","","","html-button-response","11","280769","0.0-4.0-1.3","50","1","2022-11-27 09:54:18","7b1eb8be57ff77859c7d9ac988e43411","111.32.123.213","Mozilla/5.0 (Windows NT 6.1) AppleWebKit/537.36 (KHTML, like Gecko) Chrome/94.0.4606.71 Safari/537.36 Core/1.94.186.400 QQBrowser/11.3.5195.400","WebKit","Chrome","94.0.4606.71","Windows","6.1","3843","<p>作为军队的指挥官，你可以选择发射导弹杀死 <strong>4名</strong> 敌国士兵，但会炸毁附近的 <strong>1棵</strong> 敌国树木。</p> <p>树木的照片如下图所示。</p> <p></p> <img src='stimuli/trees/9.png', style='max-width: 30%;'> </img> <p><strong>你是否选择发射武器？</strong></p>","0",""
"","","","","","html-keyboard-response","12","281771","0.0-4.0-0.4","50","1","2022-11-27 09:54:18","7b1eb8be57ff77859c7d9ac988e43411","111.32.123.213","Mozilla/5.0 (Windows NT 6.1) AppleWebKit/537.36 (KHTML, like Gecko) Chrome/94.0.4606.71 Safari/537.36 Core/1.94.186.400 QQBrowser/11.3.5195.400","WebKit","Chrome","94.0.4606.71","Windows","6.1","null","<div style=""font-size:60px;"">+</div>","null",""
"","","","","","html-button-response","13","285825","0.0-4.0-1.4","50","1","2022-11-27 09:54:18","7b1eb8be57ff77859c7d9ac988e43411","111.32.123.213","Mozilla/5.0 (Windows NT 6.1) AppleWebKit/537.36 (KHTML, like Gecko) Chrome/94.0.4606.71 Safari/537.36 Core/1.94.186.400 QQBrowser/11.3.5195.400","WebKit","Chrome","94.0.4606.71","Windows","6.1","4052","<p>作为军队的指挥官，你可以选择发射导弹杀死 <strong>4名</strong> 敌国士兵，但会炸毁附近的 <strong>1棵</strong> 敌国树木。</p> <p>树木的照片如下图所示。</p> <p></p> <img src='stimuli/trees/11.png', style='max-width: 30%;'> </img> <p><strong>你是否选择发射武器？</strong></p>","0",""
"","","","","","html-keyboard-response","14","286853","0.0-4.0-0.5","50","1","2022-11-27 09:54:18","7b1eb8be57ff77859c7d9ac988e43411","111.32.123.213","Mozilla/5.0 (Windows NT 6.1) AppleWebKit/537.36 (KHTML, like Gecko) Chrome/94.0.4606.71 Safari/537.36 Core/1.94.186.400 QQBrowser/11.3.5195.400","WebKit","Chrome","94.0.4606.71","Windows","6.1","null","<div style=""font-size:60px;"">+</div>","null",""
"","","","","","html-button-response","15","289377","0.0-4.0-1.5","50","1","2022-11-27 09:54:18","7b1eb8be57ff77859c7d9ac988e43411","111.32.123.213","Mozilla/5.0 (Windows NT 6.1) AppleWebKit/537.36 (KHTML, like Gecko) Chrome/94.0.4606.71 Safari/537.36 Core/1.94.186.400 QQBrowser/11.3.5195.400","WebKit","Chrome","94.0.4606.71","Windows","6.1","2522","<p>作为军队的指挥官，你可以选择发射导弹杀死 <strong>4名</strong> 敌国士兵，但会误杀附近的 <strong>1名</strong> 敌国平民。</p> <p>平民照片如下图所示。</p> <p></p> <img src='stimuli/faces/PCM5.jpg', style='max-width: 30%;'> </img> <p><strong>你是否选择发射武器？</strong></p>","0",""
"","","","","","html-keyboard-response","16","290379","0.0-4.0-0.6","50","1","2022-11-27 09:54:18","7b1eb8be57ff77859c7d9ac988e43411","111.32.123.213","Mozilla/5.0 (Windows NT 6.1) AppleWebKit/537.36 (KHTML, like Gecko) Chrome/94.0.4606.71 Safari/537.36 Core/1.94.186.400 QQBrowser/11.3.5195.400","WebKit","Chrome","94.0.4606.71","Windows","6.1","null","<div style=""font-size:60px;"">+</div>","null",""
"","","","","","html-button-response","17","292497","0.0-4.0-1.6","50","1","2022-11-27 09:54:18","7b1eb8be57ff77859c7d9ac988e43411","111.32.123.213","Mozilla/5.0 (Windows NT 6.1) AppleWebKit/537.36 (KHTML, like Gecko) Chrome/94.0.4606.71 Safari/537.36 Core/1.94.186.400 QQBrowser/11.3.5195.400","WebKit","Chrome","94.0.4606.71","Windows","6.1","2116","<p>作为军队的指挥官，你可以选择发射导弹杀死 <strong>8名</strong> 敌国士兵，但会误杀附近的 <strong>1名</strong> 敌国平民。</p> <p>平民照片如下图所示。</p> <p></p> <img src='stimuli/faces/PCM3.jpg', style='max-width: 30%;'> </img> <p><strong>你是否选择发射武器？</strong></p>","0",""
"","","","","","html-keyboard-response","18","293499","0.0-4.0-0.7","50","1","2022-11-27 09:54:18","7b1eb8be57ff77859c7d9ac988e43411","111.32.123.213","Mozilla/5.0 (Windows NT 6.1) AppleWebKit/537.36 (KHTML, like Gecko) Chrome/94.0.4606.71 Safari/537.36 Core/1.94.186.400 QQBrowser/11.3.5195.400","WebKit","Chrome","94.0.4606.71","Windows","6.1","null","<div style=""font-size:60px;"">+</div>","null",""
"","","","","","html-button-response","19","295505","0.0-4.0-1.7","50","1","2022-11-27 09:54:18","7b1eb8be57ff77859c7d9ac988e43411","111.32.123.213","Mozilla/5.0 (Windows NT 6.1) AppleWebKit/537.36 (KHTML, like Gecko) Chrome/94.0.4606.71 Safari/537.36 Core/1.94.186.400 QQBrowser/11.3.5195.400","WebKit","Chrome","94.0.4606.71","Windows","6.1","2004","<p>作为军队的指挥官，你可以选择发射导弹杀死 <strong>4名</strong> 敌国士兵，但会炸毁附近的 <strong>1棵</strong> 敌国树木。</p> <p>树木的照片如下图所示。</p> <p></p> <img src='stimuli/trees/3.png', style='max-width: 30%;'> </img> <p><strong>你是否选择发射武器？</strong></p>","0",""
"","","","","","html-keyboard-response","20","296507","0.0-4.0-0.8","50","1","2022-11-27 09:54:18","7b1eb8be57ff77859c7d9ac988e43411","111.32.123.213","Mozilla/5.0 (Windows NT 6.1) AppleWebKit/537.36 (KHTML, like Gecko) Chrome/94.0.4606.71 Safari/537.36 Core/1.94.186.400 QQBrowser/11.3.5195.400","WebKit","Chrome","94.0.4606.71","Windows","6.1","null","<div style=""font-size:60px;"">+</div>","null",""
"","","","","","html-button-response","21","298561","0.0-4.0-1.8","50","1","2022-11-27 09:54:18","7b1eb8be57ff77859c7d9ac988e43411","111.32.123.213","Mozilla/5.0 (Windows NT 6.1) AppleWebKit/537.36 (KHTML, like Gecko) Chrome/94.0.4606.71 Safari/537.36 Core/1.94.186.400 QQBrowser/11.3.5195.400","WebKit","Chrome","94.0.4606.71","Windows","6.1","2052","<p>作为军队的指挥官，你可以选择发射导弹杀死 <strong>8名</strong> 敌国士兵，但会炸毁附近的 <strong>1棵</strong> 敌国树木。</p> <p>树木的照片如下图所示。</p> <p></p> <img src='stimuli/trees/2.png', style='max-width: 30%;'> </img> <p><strong>你是否选择发射武器？</strong></p>","0",""
"","","","","","html-keyboard-response","22","299563","0.0-4.0-0.9","50","1","2022-11-27 09:54:18","7b1eb8be57ff77859c7d9ac988e43411","111.32.123.213","Mozilla/5.0 (Windows NT 6.1) AppleWebKit/537.36 (KHTML, like Gecko) Chrome/94.0.4606.71 Safari/537.36 Core/1.94.186.400 QQBrowser/11.3.5195.400","WebKit","Chrome","94.0.4606.71","Windows","6.1","null","<div style=""font-size:60px;"">+</div>","null",""
"","","","","","html-button-response","23","302761","0.0-4.0-1.9","50","1","2022-11-27 09:54:18","7b1eb8be57ff77859c7d9ac988e43411","111.32.123.213","Mozilla/5.0 (Windows NT 6.1) AppleWebKit/537.36 (KHTML, like Gecko) Chrome/94.0.4606.71 Safari/537.36 Core/1.94.186.400 QQBrowser/11.3.5195.400","WebKit","Chrome","94.0.4606.71","Windows","6.1","3196","<p>作为军队的指挥官，你可以选择发射导弹杀死 <strong>10名</strong> 敌国士兵，但会误杀附近的 <strong>1名</strong> 敌国平民。</p> <p>平民照片如下图所示。</p> <p></p> <img src='stimuli/faces/PCF2.jpg', style='max-width: 30%;'> </img> <p><strong>你是否选择发射武器？</strong></p>","0",""
"","","","","","html-keyboard-response","24","303762","0.0-4.0-0.10","50","1","2022-11-27 09:54:18","7b1eb8be57ff77859c7d9ac988e43411","111.32.123.213","Mozilla/5.0 (Windows NT 6.1) AppleWebKit/537.36 (KHTML, like Gecko) Chrome/94.0.4606.71 Safari/537.36 Core/1.94.186.400 QQBrowser/11.3.5195.400","WebKit","Chrome","94.0.4606.71","Windows","6.1","null","<div style=""font-size:60px;"">+</div>","null",""
"","","","","","html-button-response","25","305937","0.0-4.0-1.10","50","1","2022-11-27 09:54:18","7b1eb8be57ff77859c7d9ac988e43411","111.32.123.213","Mozilla/5.0 (Windows NT 6.1) AppleWebKit/537.36 (KHTML, like Gecko) Chrome/94.0.4606.71 Safari/537.36 Core/1.94.186.400 QQBrowser/11.3.5195.400","WebKit","Chrome","94.0.4606.71","Windows","6.1","2172","<p>作为军队的指挥官，你可以选择发射导弹杀死 <strong>9名</strong> 敌国士兵，但会炸毁附近的 <strong>1棵</strong> 敌国树木。</p> <p>树木的照片如下图所示。</p> <p></p> <img src='stimuli/trees/16.png', style='max-width: 30%;'> </img> <p><strong>你是否选择发射武器？</strong></p>","0",""
"","","","","","html-keyboard-response","26","306938","0.0-4.0-0.11","50","1","2022-11-27 09:54:18","7b1eb8be57ff77859c7d9ac988e43411","111.32.123.213","Mozilla/5.0 (Windows NT 6.1) AppleWebKit/537.36 (KHTML, like Gecko) Chrome/94.0.4606.71 Safari/537.36 Core/1.94.186.400 QQBrowser/11.3.5195.400","WebKit","Chrome","94.0.4606.71","Windows","6.1","null","<div style=""font-size:60px;"">+</div>","null",""
"","","","","","html-button-response","27","310496","0.0-4.0-1.11","50","1","2022-11-27 09:54:18","7b1eb8be57ff77859c7d9ac988e43411","111.32.123.213","Mozilla/5.0 (Windows NT 6.1) AppleWebKit/537.36 (KHTML, like Gecko) Chrome/94.0.4606.71 Safari/537.36 Core/1.94.186.400 QQBrowser/11.3.5195.400","WebKit","Chrome","94.0.4606.71","Windows","6.1","3556","<p>作为军队的指挥官，你可以选择发射导弹杀死 <strong>9名</strong> 敌国士兵，但会炸毁附近的 <strong>1棵</strong> 敌国树木。</p> <p>树木的照片如下图所示。</p> <p></p> <img src='stimuli/trees/4.png', style='max-width: 30%;'> </img> <p><strong>你是否选择发射武器？</strong></p>","1",""
"","","","","","html-keyboard-response","28","311498","0.0-4.0-0.12","50","1","2022-11-27 09:54:18","7b1eb8be57ff77859c7d9ac988e43411","111.32.123.213","Mozilla/5.0 (Windows NT 6.1) AppleWebKit/537.36 (KHTML, like Gecko) Chrome/94.0.4606.71 Safari/537.36 Core/1.94.186.400 QQBrowser/11.3.5195.400","WebKit","Chrome","94.0.4606.71","Windows","6.1","null","<div style=""font-size:60px;"">+</div>","null",""
"","","","","","html-button-response","29","313384","0.0-4.0-1.12","50","1","2022-11-27 09:54:18","7b1eb8be57ff77859c7d9ac988e43411","111.32.123.213","Mozilla/5.0 (Windows NT 6.1) AppleWebKit/537.36 (KHTML, like Gecko) Chrome/94.0.4606.71 Safari/537.36 Core/1.94.186.400 QQBrowser/11.3.5195.400","WebKit","Chrome","94.0.4606.71","Windows","6.1","1884","<p>作为军队的指挥官，你可以选择发射导弹杀死 <strong>2名</strong> 敌国士兵，但会炸毁附近的 <strong>1棵</strong> 敌国树木。</p> <p>树木的照片如下图所示。</p> <p></p> <img src='stimuli/trees/14.png', style='max-width: 30%;'> </img> <p><strong>你是否选择发射武器？</strong></p>","1",""
"","","","","","html-keyboard-response","30","314386","0.0-4.0-0.13","50","1","2022-11-27 09:54:18","7b1eb8be57ff77859c7d9ac988e43411","111.32.123.213","Mozilla/5.0 (Windows NT 6.1) AppleWebKit/537.36 (KHTML, like Gecko) Chrome/94.0.4606.71 Safari/537.36 Core/1.94.186.400 QQBrowser/11.3.5195.400","WebKit","Chrome","94.0.4606.71","Windows","6.1","null","<div style=""font-size:60px;"">+</div>","null",""
"","","","","","html-button-response","31","317640","0.0-4.0-1.13","50","1","2022-11-27 09:54:18","7b1eb8be57ff77859c7d9ac988e43411","111.32.123.213","Mozilla/5.0 (Windows NT 6.1) AppleWebKit/537.36 (KHTML, like Gecko) Chrome/94.0.4606.71 Safari/537.36 Core/1.94.186.400 QQBrowser/11.3.5195.400","WebKit","Chrome","94.0.4606.71","Windows","6.1","3252","<p>作为军队的指挥官，你可以选择发射导弹杀死 <strong>7名</strong> 敌国士兵，但会炸毁附近的 <strong>1棵</strong> 敌国树木。</p> <p>树木的照片如下图所示。</p> <p></p> <img src='stimuli/trees/7.png', style='max-width: 30%;'> </img> <p><strong>你是否选择发射武器？</strong></p>","0",""
"","","","","","html-keyboard-response","32","318642","0.0-4.0-0.14","50","1","2022-11-27 09:54:18","7b1eb8be57ff77859c7d9ac988e43411","111.32.123.213","Mozilla/5.0 (Windows NT 6.1) AppleWebKit/537.36 (KHTML, like Gecko) Chrome/94.0.4606.71 Safari/537.36 Core/1.94.186.400 QQBrowser/11.3.5195.400","WebKit","Chrome","94.0.4606.71","Windows","6.1","null","<div style=""font-size:60px;"">+</div>","null",""
"","","","","","html-button-response","33","323455","0.0-4.0-1.14","50","1","2022-11-27 09:54:18","7b1eb8be57ff77859c7d9ac988e43411","111.32.123.213","Mozilla/5.0 (Windows NT 6.1) AppleWebKit/537.36 (KHTML, like Gecko) Chrome/94.0.4606.71 Safari/537.36 Core/1.94.186.400 QQBrowser/11.3.5195.400","WebKit","Chrome","94.0.4606.71","Windows","6.1","4811","<p>作为军队的指挥官，你可以选择发射导弹杀死 <strong>10名</strong> 敌国士兵，但会误杀附近的 <strong>1名</strong> 敌国平民。</p> <p>平民照片如下图所示。</p> <p></p> <img src='stimuli/faces/PCF4.jpg', style='max-width: 30%;'> </img> <p><strong>你是否选择发射武器？</strong></p>","0",""
"","","","","","html-keyboard-response","34","324457","0.0-4.0-0.15","50","1","2022-11-27 09:54:18","7b1eb8be57ff77859c7d9ac988e43411","111.32.123.213","Mozilla/5.0 (Windows NT 6.1) AppleWebKit/537.36 (KHTML, like Gecko) Chrome/94.0.4606.71 Safari/537.36 Core/1.94.186.400 QQBrowser/11.3.5195.400","WebKit","Chrome","94.0.4606.71","Windows","6.1","null","<div style=""font-size:60px;"">+</div>","null",""
"","","","","","html-button-response","35","325880","0.0-4.0-1.15","50","1","2022-11-27 09:54:18","7b1eb8be57ff77859c7d9ac988e43411","111.32.123.213","Mozilla/5.0 (Windows NT 6.1) AppleWebKit/537.36 (KHTML, like Gecko) Chrome/94.0.4606.71 Safari/537.36 Core/1.94.186.400 QQBrowser/11.3.5195.400","WebKit","Chrome","94.0.4606.71","Windows","6.1","1420","<p>作为军队的指挥官，你可以选择发射导弹杀死 <strong>2名</strong> 敌国士兵，但会炸毁附近的 <strong>1棵</strong> 敌国树木。</p> <p>树木的照片如下图所示。</p> <p></p> <img src='stimuli/trees/16.png', style='max-width: 30%;'> </img> <p><strong>你是否选择发射武器？</strong></p>","1",""
"","","","","","html-keyboard-response","36","326882","0.0-4.0-0.16","50","1","2022-11-27 09:54:18","7b1eb8be57ff77859c7d9ac988e43411","111.32.123.213","Mozilla/5.0 (Windows NT 6.1) AppleWebKit/537.36 (KHTML, like Gecko) Chrome/94.0.4606.71 Safari/537.36 Core/1.94.186.400 QQBrowser/11.3.5195.400","WebKit","Chrome","94.0.4606.71","Windows","6.1","null","<div style=""font-size:60px;"">+</div>","null",""
"","","","","","html-button-response","37","330623","0.0-4.0-1.16","50","1","2022-11-27 09:54:18","7b1eb8be57ff77859c7d9ac988e43411","111.32.123.213","Mozilla/5.0 (Windows NT 6.1) AppleWebKit/537.36 (KHTML, like Gecko) Chrome/94.0.4606.71 Safari/537.36 Core/1.94.186.400 QQBrowser/11.3.5195.400","WebKit","Chrome","94.0.4606.71","Windows","6.1","3739","<p>作为军队的指挥官，你可以选择发射导弹杀死 <strong>1名</strong> 敌国士兵，但会误杀附近的 <strong>1名</strong> 敌国平民。</p> <p>平民照片如下图所示。</p> <p></p> <img src='stimuli/faces/PCF5.jpg', style='max-width: 30%;'> </img> <p><strong>你是否选择发射武器？</strong></p>","1",""
"","","","","","html-keyboard-response","38","331625","0.0-4.0-0.17","50","1","2022-11-27 09:54:18","7b1eb8be57ff77859c7d9ac988e43411","111.32.123.213","Mozilla/5.0 (Windows NT 6.1) AppleWebKit/537.36 (KHTML, like Gecko) Chrome/94.0.4606.71 Safari/537.36 Core/1.94.186.400 QQBrowser/11.3.5195.400","WebKit","Chrome","94.0.4606.71","Windows","6.1","null","<div style=""font-size:60px;"">+</div>","null",""
"","","","","","html-button-response","39","333264","0.0-4.0-1.17","50","1","2022-11-27 09:54:18","7b1eb8be57ff77859c7d9ac988e43411","111.32.123.213","Mozilla/5.0 (Windows NT 6.1) AppleWebKit/537.36 (KHTML, like Gecko) Chrome/94.0.4606.71 Safari/537.36 Core/1.94.186.400 QQBrowser/11.3.5195.400","WebKit","Chrome","94.0.4606.71","Windows","6.1","1636","<p>作为军队的指挥官，你可以选择发射导弹杀死 <strong>9名</strong> 敌国士兵，但会误杀附近的 <strong>1名</strong> 敌国平民。</p> <p>平民照片如下图所示。</p> <p></p> <img src='stimuli/faces/PCM1.jpg', style='max-width: 30%;'> </img> <p><strong>你是否选择发射武器？</strong></p>","0",""
"","","","","","html-keyboard-response","40","334265","0.0-4.0-0.18","50","1","2022-11-27 09:54:18","7b1eb8be57ff77859c7d9ac988e43411","111.32.123.213","Mozilla/5.0 (Windows NT 6.1) AppleWebKit/537.36 (KHTML, like Gecko) Chrome/94.0.4606.71 Safari/537.36 Core/1.94.186.400 QQBrowser/11.3.5195.400","WebKit","Chrome","94.0.4606.71","Windows","6.1","null","<div style=""font-size:60px;"">+</div>","null",""
"","","","","","html-button-response","41","336002","0.0-4.0-1.18","50","1","2022-11-27 09:54:18","7b1eb8be57ff77859c7d9ac988e43411","111.32.123.213","Mozilla/5.0 (Windows NT 6.1) AppleWebKit/537.36 (KHTML, like Gecko) Chrome/94.0.4606.71 Safari/537.36 Core/1.94.186.400 QQBrowser/11.3.5195.400","WebKit","Chrome","94.0.4606.71","Windows","6.1","1732","<p>作为军队的指挥官，你可以选择发射导弹杀死 <strong>7名</strong> 敌国士兵，但会误杀附近的 <strong>1名</strong> 敌国平民。</p> <p>平民照片如下图所示。</p> <p></p> <img src='stimuli/faces/PCM8.jpg', style='max-width: 30%;'> </img> <p><strong>你是否选择发射武器？</strong></p>","0",""
"","","","","","html-keyboard-response","42","337003","0.0-4.0-0.19","50","1","2022-11-27 09:54:18","7b1eb8be57ff77859c7d9ac988e43411","111.32.123.213","Mozilla/5.0 (Windows NT 6.1) AppleWebKit/537.36 (KHTML, like Gecko) Chrome/94.0.4606.71 Safari/537.36 Core/1.94.186.400 QQBrowser/11.3.5195.400","WebKit","Chrome","94.0.4606.71","Windows","6.1","null","<div style=""font-size:60px;"">+</div>","null",""
"","","","","","html-button-response","43","338673","0.0-4.0-1.19","50","1","2022-11-27 09:54:18","7b1eb8be57ff77859c7d9ac988e43411","111.32.123.213","Mozilla/5.0 (Windows NT 6.1) AppleWebKit/537.36 (KHTML, like Gecko) Chrome/94.0.4606.71 Safari/537.36 Core/1.94.186.400 QQBrowser/11.3.5195.400","WebKit","Chrome","94.0.4606.71","Windows","6.1","1668","<p>作为军队的指挥官，你可以选择发射导弹杀死 <strong>10名</strong> 敌国士兵，但会炸毁附近的 <strong>1棵</strong> 敌国树木。</p> <p>树木的照片如下图所示。</p> <p></p> <img src='stimuli/trees/1.png', style='max-width: 30%;'> </img> <p><strong>你是否选择发射武器？</strong></p>","0",""
"","","","","","html-keyboard-response","44","339675","0.0-4.0-0.20","50","1","2022-11-27 09:54:18","7b1eb8be57ff77859c7d9ac988e43411","111.32.123.213","Mozilla/5.0 (Windows NT 6.1) AppleWebKit/537.36 (KHTML, like Gecko) Chrome/94.0.4606.71 Safari/537.36 Core/1.94.186.400 QQBrowser/11.3.5195.400","WebKit","Chrome","94.0.4606.71","Windows","6.1","null","<div style=""font-size:60px;"">+</div>","null",""
"","","","","","html-button-response","45","342505","0.0-4.0-1.20","50","1","2022-11-27 09:54:18","7b1eb8be57ff77859c7d9ac988e43411","111.32.123.213","Mozilla/5.0 (Windows NT 6.1) AppleWebKit/537.36 (KHTML, like Gecko) Chrome/94.0.4606.71 Safari/537.36 Core/1.94.186.400 QQBrowser/11.3.5195.400","WebKit","Chrome","94.0.4606.71","Windows","6.1","2828","<p>作为军队的指挥官，你可以选择发射导弹杀死 <strong>6名</strong> 敌国士兵，但会误杀附近的 <strong>1名</strong> 敌国平民。</p> <p>平民照片如下图所示。</p> <p></p> <img src='stimuli/faces/PCF5.jpg', style='max-width: 30%;'> </img> <p><strong>你是否选择发射武器？</strong></p>","0",""
"","","","","","html-keyboard-response","46","343507","0.0-4.0-0.21","50","1","2022-11-27 09:54:18","7b1eb8be57ff77859c7d9ac988e43411","111.32.123.213","Mozilla/5.0 (Windows NT 6.1) AppleWebKit/537.36 (KHTML, like Gecko) Chrome/94.0.4606.71 Safari/537.36 Core/1.94.186.400 QQBrowser/11.3.5195.400","WebKit","Chrome","94.0.4606.71","Windows","6.1","null","<div style=""font-size:60px;"">+</div>","null",""
"","","","","","html-button-response","47","345673","0.0-4.0-1.21","50","1","2022-11-27 09:54:18","7b1eb8be57ff77859c7d9ac988e43411","111.32.123.213","Mozilla/5.0 (Windows NT 6.1) AppleWebKit/537.36 (KHTML, like Gecko) Chrome/94.0.4606.71 Safari/537.36 Core/1.94.186.400 QQBrowser/11.3.5195.400","WebKit","Chrome","94.0.4606.71","Windows","6.1","2163","<p>作为军队的指挥官，你可以选择发射导弹杀死 <strong>10名</strong> 敌国士兵，但会炸毁附近的 <strong>1棵</strong> 敌国树木。</p> <p>树木的照片如下图所示。</p> <p></p> <img src='stimuli/trees/11.png', style='max-width: 30%;'> </img> <p><strong>你是否选择发射武器？</strong></p>","0",""
"","","","","","html-keyboard-response","48","346675","0.0-4.0-0.22","50","1","2022-11-27 09:54:18","7b1eb8be57ff77859c7d9ac988e43411","111.32.123.213","Mozilla/5.0 (Windows NT 6.1) AppleWebKit/537.36 (KHTML, like Gecko) Chrome/94.0.4606.71 Safari/537.36 Core/1.94.186.400 QQBrowser/11.3.5195.400","WebKit","Chrome","94.0.4606.71","Windows","6.1","null","<div style=""font-size:60px;"">+</div>","null",""
"","","","","","html-button-response","49","349265","0.0-4.0-1.22","50","1","2022-11-27 09:54:18","7b1eb8be57ff77859c7d9ac988e43411","111.32.123.213","Mozilla/5.0 (Windows NT 6.1) AppleWebKit/537.36 (KHTML, like Gecko) Chrome/94.0.4606.71 Safari/537.36 Core/1.94.186.400 QQBrowser/11.3.5195.400","WebKit","Chrome","94.0.4606.71","Windows","6.1","2581","<p>作为军队的指挥官，你可以选择发射导弹杀死 <strong>8名</strong> 敌国士兵，但会误杀附近的 <strong>1名</strong> 敌国平民。</p> <p>平民照片如下图所示。</p> <p></p> <img src='stimuli/faces/PCM6.jpg', style='max-width: 30%;'> </img> <p><strong>你是否选择发射武器？</strong></p>","0",""
"","","","","","html-keyboard-response","50","350268","0.0-4.0-0.23","50","1","2022-11-27 09:54:18","7b1eb8be57ff77859c7d9ac988e43411","111.32.123.213","Mozilla/5.0 (Windows NT 6.1) AppleWebKit/537.36 (KHTML, like Gecko) Chrome/94.0.4606.71 Safari/537.36 Core/1.94.186.400 QQBrowser/11.3.5195.400","WebKit","Chrome","94.0.4606.71","Windows","6.1","null","<div style=""font-size:60px;"">+</div>","null",""
"","","","","","html-button-response","51","353769","0.0-4.0-1.23","50","1","2022-11-27 09:54:18","7b1eb8be57ff77859c7d9ac988e43411","111.32.123.213","Mozilla/5.0 (Windows NT 6.1) AppleWebKit/537.36 (KHTML, like Gecko) Chrome/94.0.4606.71 Safari/537.36 Core/1.94.186.400 QQBrowser/11.3.5195.400","WebKit","Chrome","94.0.4606.71","Windows","6.1","3499","<p>作为军队的指挥官，你可以选择发射导弹杀死 <strong>6名</strong> 敌国士兵，但会炸毁附近的 <strong>1棵</strong> 敌国树木。</p> <p>树木的照片如下图所示。</p> <p></p> <img src='stimuli/trees/10.png', style='max-width: 30%;'> </img> <p><strong>你是否选择发射武器？</strong></p>","0",""
"","","","","","html-keyboard-response","52","354772","0.0-4.0-0.24","50","1","2022-11-27 09:54:18","7b1eb8be57ff77859c7d9ac988e43411","111.32.123.213","Mozilla/5.0 (Windows NT 6.1) AppleWebKit/537.36 (KHTML, like Gecko) Chrome/94.0.4606.71 Safari/537.36 Core/1.94.186.400 QQBrowser/11.3.5195.400","WebKit","Chrome","94.0.4606.71","Windows","6.1","null","<div style=""font-size:60px;"">+</div>","null",""
"","","","","","html-button-response","53","356784","0.0-4.0-1.24","50","1","2022-11-27 09:54:18","7b1eb8be57ff77859c7d9ac988e43411","111.32.123.213","Mozilla/5.0 (Windows NT 6.1) AppleWebKit/537.36 (KHTML, like Gecko) Chrome/94.0.4606.71 Safari/537.36 Core/1.94.186.400 QQBrowser/11.3.5195.400","WebKit","Chrome","94.0.4606.71","Windows","6.1","2010","<p>作为军队的指挥官，你可以选择发射导弹杀死 <strong>6名</strong> 敌国士兵，但会误杀附近的 <strong>1名</strong> 敌国平民。</p> <p>平民照片如下图所示。</p> <p></p> <img src='stimuli/faces/PCF8.jpg', style='max-width: 30%;'> </img> <p><strong>你是否选择发射武器？</strong></p>","0",""
"","","","","","html-keyboard-response","54","357788","0.0-4.0-0.25","50","1","2022-11-27 09:54:18","7b1eb8be57ff77859c7d9ac988e43411","111.32.123.213","Mozilla/5.0 (Windows NT 6.1) AppleWebKit/537.36 (KHTML, like Gecko) Chrome/94.0.4606.71 Safari/537.36 Core/1.94.186.400 QQBrowser/11.3.5195.400","WebKit","Chrome","94.0.4606.71","Windows","6.1","null","<div style=""font-size:60px;"">+</div>","null",""
"","","","","","html-button-response","55","359359","0.0-4.0-1.25","50","1","2022-11-27 09:54:18","7b1eb8be57ff77859c7d9ac988e43411","111.32.123.213","Mozilla/5.0 (Windows NT 6.1) AppleWebKit/537.36 (KHTML, like Gecko) Chrome/94.0.4606.71 Safari/537.36 Core/1.94.186.400 QQBrowser/11.3.5195.400","WebKit","Chrome","94.0.4606.71","Windows","6.1","1570","<p>作为军队的指挥官，你可以选择发射导弹杀死 <strong>1名</strong> 敌国士兵，但会误杀附近的 <strong>1名</strong> 敌国平民。</p> <p>平民照片如下图所示。</p> <p></p> <img src='stimuli/faces/PCM4.jpg', style='max-width: 30%;'> </img> <p><strong>你是否选择发射武器？</strong></p>","1",""
"","","","","","html-keyboard-response","56","360362","0.0-4.0-0.26","50","1","2022-11-27 09:54:18","7b1eb8be57ff77859c7d9ac988e43411","111.32.123.213","Mozilla/5.0 (Windows NT 6.1) AppleWebKit/537.36 (KHTML, like Gecko) Chrome/94.0.4606.71 Safari/537.36 Core/1.94.186.400 QQBrowser/11.3.5195.400","WebKit","Chrome","94.0.4606.71","Windows","6.1","null","<div style=""font-size:60px;"">+</div>","null",""
"","","","","","html-button-response","57","363864","0.0-4.0-1.26","50","1","2022-11-27 09:54:18","7b1eb8be57ff77859c7d9ac988e43411","111.32.123.213","Mozilla/5.0 (Windows NT 6.1) AppleWebKit/537.36 (KHTML, like Gecko) Chrome/94.0.4606.71 Safari/537.36 Core/1.94.186.400 QQBrowser/11.3.5195.400","WebKit","Chrome","94.0.4606.71","Windows","6.1","3500","<p>作为军队的指挥官，你可以选择发射导弹杀死 <strong>4名</strong> 敌国士兵，但会炸毁附近的 <strong>1棵</strong> 敌国树木。</p> <p>树木的照片如下图所示。</p> <p></p> <img src='stimuli/trees/15.png', style='max-width: 30%;'> </img> <p><strong>你是否选择发射武器？</strong></p>","1",""
"","","","","","html-keyboard-response","58","364867","0.0-4.0-0.27","50","1","2022-11-27 09:54:18","7b1eb8be57ff77859c7d9ac988e43411","111.32.123.213","Mozilla/5.0 (Windows NT 6.1) AppleWebKit/537.36 (KHTML, like Gecko) Chrome/94.0.4606.71 Safari/537.36 Core/1.94.186.400 QQBrowser/11.3.5195.400","WebKit","Chrome","94.0.4606.71","Windows","6.1","null","<div style=""font-size:60px;"">+</div>","null",""
"","","","","","html-button-response","59","366072","0.0-4.0-1.27","50","1","2022-11-27 09:54:18","7b1eb8be57ff77859c7d9ac988e43411","111.32.123.213","Mozilla/5.0 (Windows NT 6.1) AppleWebKit/537.36 (KHTML, like Gecko) Chrome/94.0.4606.71 Safari/537.36 Core/1.94.186.400 QQBrowser/11.3.5195.400","WebKit","Chrome","94.0.4606.71","Windows","6.1","1202","<p>作为军队的指挥官，你可以选择发射导弹杀死 <strong>2名</strong> 敌国士兵，但会炸毁附近的 <strong>1棵</strong> 敌国树木。</p> <p>树木的照片如下图所示。</p> <p></p> <img src='stimuli/trees/13.png', style='max-width: 30%;'> </img> <p><strong>你是否选择发射武器？</strong></p>","1",""
"","","","","","html-keyboard-response","60","367075","0.0-4.0-0.28","50","1","2022-11-27 09:54:18","7b1eb8be57ff77859c7d9ac988e43411","111.32.123.213","Mozilla/5.0 (Windows NT 6.1) AppleWebKit/537.36 (KHTML, like Gecko) Chrome/94.0.4606.71 Safari/537.36 Core/1.94.186.400 QQBrowser/11.3.5195.400","WebKit","Chrome","94.0.4606.71","Windows","6.1","null","<div style=""font-size:60px;"">+</div>","null",""
"","","","","","html-button-response","61","368368","0.0-4.0-1.28","50","1","2022-11-27 09:54:18","7b1eb8be57ff77859c7d9ac988e43411","111.32.123.213","Mozilla/5.0 (Windows NT 6.1) AppleWebKit/537.36 (KHTML, like Gecko) Chrome/94.0.4606.71 Safari/537.36 Core/1.94.186.400 QQBrowser/11.3.5195.400","WebKit","Chrome","94.0.4606.71","Windows","6.1","1291","<p>作为军队的指挥官，你可以选择发射导弹杀死 <strong>7名</strong> 敌国士兵，但会炸毁附近的 <strong>1棵</strong> 敌国树木。</p> <p>树木的照片如下图所示。</p> <p></p> <img src='stimuli/trees/5.png', style='max-width: 30%;'> </img> <p><strong>你是否选择发射武器？</strong></p>","0",""
"","","","","","html-keyboard-response","62","369371","0.0-4.0-0.29","50","1","2022-11-27 09:54:18","7b1eb8be57ff77859c7d9ac988e43411","111.32.123.213","Mozilla/5.0 (Windows NT 6.1) AppleWebKit/537.36 (KHTML, like Gecko) Chrome/94.0.4606.71 Safari/537.36 Core/1.94.186.400 QQBrowser/11.3.5195.400","WebKit","Chrome","94.0.4606.71","Windows","6.1","null","<div style=""font-size:60px;"">+</div>","null",""
"","","","","","html-button-response","63","371608","0.0-4.0-1.29","50","1","2022-11-27 09:54:18","7b1eb8be57ff77859c7d9ac988e43411","111.32.123.213","Mozilla/5.0 (Windows NT 6.1) AppleWebKit/537.36 (KHTML, like Gecko) Chrome/94.0.4606.71 Safari/537.36 Core/1.94.186.400 QQBrowser/11.3.5195.400","WebKit","Chrome","94.0.4606.71","Windows","6.1","2235","<p>作为军队的指挥官，你可以选择发射导弹杀死 <strong>4名</strong> 敌国士兵，但会误杀附近的 <strong>1名</strong> 敌国平民。</p> <p>平民照片如下图所示。</p> <p></p> <img src='stimuli/faces/PCM8.jpg', style='max-width: 30%;'> </img> <p><strong>你是否选择发射武器？</strong></p>","0",""
"","","","","","html-keyboard-response","64","372610","0.0-4.0-0.30","50","1","2022-11-27 09:54:18","7b1eb8be57ff77859c7d9ac988e43411","111.32.123.213","Mozilla/5.0 (Windows NT 6.1) AppleWebKit/537.36 (KHTML, like Gecko) Chrome/94.0.4606.71 Safari/537.36 Core/1.94.186.400 QQBrowser/11.3.5195.400","WebKit","Chrome","94.0.4606.71","Windows","6.1","null","<div style=""font-size:60px;"">+</div>","null",""
"","","","","","html-button-response","65","373864","0.0-4.0-1.30","50","1","2022-11-27 09:54:18","7b1eb8be57ff77859c7d9ac988e43411","111.32.123.213","Mozilla/5.0 (Windows NT 6.1) AppleWebKit/537.36 (KHTML, like Gecko) Chrome/94.0.4606.71 Safari/537.36 Core/1.94.186.400 QQBrowser/11.3.5195.400","WebKit","Chrome","94.0.4606.71","Windows","6.1","1252","<p>作为军队的指挥官，你可以选择发射导弹杀死 <strong>9名</strong> 敌国士兵，但会炸毁附近的 <strong>1棵</strong> 敌国树木。</p> <p>树木的照片如下图所示。</p> <p></p> <img src='stimuli/trees/14.png', style='max-width: 30%;'> </img> <p><strong>你是否选择发射武器？</strong></p>","0",""
"","","","","","html-keyboard-response","66","374867","0.0-4.0-0.31","50","1","2022-11-27 09:54:18","7b1eb8be57ff77859c7d9ac988e43411","111.32.123.213","Mozilla/5.0 (Windows NT 6.1) AppleWebKit/537.36 (KHTML, like Gecko) Chrome/94.0.4606.71 Safari/537.36 Core/1.94.186.400 QQBrowser/11.3.5195.400","WebKit","Chrome","94.0.4606.71","Windows","6.1","null","<div style=""font-size:60px;"">+</div>","null",""
"","","","","","html-button-response","67","376375","0.0-4.0-1.31","50","1","2022-11-27 09:54:18","7b1eb8be57ff77859c7d9ac988e43411","111.32.123.213","Mozilla/5.0 (Windows NT 6.1) AppleWebKit/537.36 (KHTML, like Gecko) Chrome/94.0.4606.71 Safari/537.36 Core/1.94.186.400 QQBrowser/11.3.5195.400","WebKit","Chrome","94.0.4606.71","Windows","6.1","1506","<p>作为军队的指挥官，你可以选择发射导弹杀死 <strong>5名</strong> 敌国士兵，但会误杀附近的 <strong>1名</strong> 敌国平民。</p> <p>平民照片如下图所示。</p> <p></p> <img src='stimuli/faces/PCM1.jpg', style='max-width: 30%;'> </img> <p><strong>你是否选择发射武器？</strong></p>","0",""
"","","","","","html-keyboard-response","68","377379","0.0-4.0-0.32","50","1","2022-11-27 09:54:18","7b1eb8be57ff77859c7d9ac988e43411","111.32.123.213","Mozilla/5.0 (Windows NT 6.1) AppleWebKit/537.36 (KHTML, like Gecko) Chrome/94.0.4606.71 Safari/537.36 Core/1.94.186.400 QQBrowser/11.3.5195.400","WebKit","Chrome","94.0.4606.71","Windows","6.1","null","<div style=""font-size:60px;"">+</div>","null",""
"","","","","","html-button-response","69","378951","0.0-4.0-1.32","50","1","2022-11-27 09:54:18","7b1eb8be57ff77859c7d9ac988e43411","111.32.123.213","Mozilla/5.0 (Windows NT 6.1) AppleWebKit/537.36 (KHTML, like Gecko) Chrome/94.0.4606.71 Safari/537.36 Core/1.94.186.400 QQBrowser/11.3.5195.400","WebKit","Chrome","94.0.4606.71","Windows","6.1","1570","<p>作为军队的指挥官，你可以选择发射导弹杀死 <strong>7名</strong> 敌国士兵，但会误杀附近的 <strong>1名</strong> 敌国平民。</p> <p>平民照片如下图所示。</p> <p></p> <img src='stimuli/faces/PCM2.jpg', style='max-width: 30%;'> </img> <p><strong>你是否选择发射武器？</strong></p>","0",""
"","","","","","html-keyboard-response","70","379954","0.0-4.0-0.33","50","1","2022-11-27 09:54:18","7b1eb8be57ff77859c7d9ac988e43411","111.32.123.213","Mozilla/5.0 (Windows NT 6.1) AppleWebKit/537.36 (KHTML, like Gecko) Chrome/94.0.4606.71 Safari/537.36 Core/1.94.186.400 QQBrowser/11.3.5195.400","WebKit","Chrome","94.0.4606.71","Windows","6.1","null","<div style=""font-size:60px;"">+</div>","null",""
"","","","","","html-button-response","71","386783","0.0-4.0-1.33","50","1","2022-11-27 09:54:18","7b1eb8be57ff77859c7d9ac988e43411","111.32.123.213","Mozilla/5.0 (Windows NT 6.1) AppleWebKit/537.36 (KHTML, like Gecko) Chrome/94.0.4606.71 Safari/537.36 Core/1.94.186.400 QQBrowser/11.3.5195.400","WebKit","Chrome","94.0.4606.71","Windows","6.1","6827","<p>作为军队的指挥官，你可以选择发射导弹杀死 <strong>4名</strong> 敌国士兵，但会误杀附近的 <strong>1名</strong> 敌国平民。</p> <p>平民照片如下图所示。</p> <p></p> <img src='stimuli/faces/PCF2.jpg', style='max-width: 30%;'> </img> <p><strong>你是否选择发射武器？</strong></p>","1",""
"","","","","","html-keyboard-response","72","387786","0.0-4.0-0.34","50","1","2022-11-27 09:54:18","7b1eb8be57ff77859c7d9ac988e43411","111.32.123.213","Mozilla/5.0 (Windows NT 6.1) AppleWebKit/537.36 (KHTML, like Gecko) Chrome/94.0.4606.71 Safari/537.36 Core/1.94.186.400 QQBrowser/11.3.5195.400","WebKit","Chrome","94.0.4606.71","Windows","6.1","null","<div style=""font-size:60px;"">+</div>","null",""
"","","","","","html-button-response","73","388999","0.0-4.0-1.34","50","1","2022-11-27 09:54:18","7b1eb8be57ff77859c7d9ac988e43411","111.32.123.213","Mozilla/5.0 (Windows NT 6.1) AppleWebKit/537.36 (KHTML, like Gecko) Chrome/94.0.4606.71 Safari/537.36 Core/1.94.186.400 QQBrowser/11.3.5195.400","WebKit","Chrome","94.0.4606.71","Windows","6.1","1210","<p>作为军队的指挥官，你可以选择发射导弹杀死 <strong>1名</strong> 敌国士兵，但会炸毁附近的 <strong>1棵</strong> 敌国树木。</p> <p>树木的照片如下图所示。</p> <p></p> <img src='stimuli/trees/8.png', style='max-width: 30%;'> </img> <p><strong>你是否选择发射武器？</strong></p>","1",""
"","","","","","html-keyboard-response","74","390002","0.0-4.0-0.35","50","1","2022-11-27 09:54:18","7b1eb8be57ff77859c7d9ac988e43411","111.32.123.213","Mozilla/5.0 (Windows NT 6.1) AppleWebKit/537.36 (KHTML, like Gecko) Chrome/94.0.4606.71 Safari/537.36 Core/1.94.186.400 QQBrowser/11.3.5195.400","WebKit","Chrome","94.0.4606.71","Windows","6.1","null","<div style=""font-size:60px;"">+</div>","null",""
"","","","","","html-button-response","75","390967","0.0-4.0-1.35","50","1","2022-11-27 09:54:18","7b1eb8be57ff77859c7d9ac988e43411","111.32.123.213","Mozilla/5.0 (Windows NT 6.1) AppleWebKit/537.36 (KHTML, like Gecko) Chrome/94.0.4606.71 Safari/537.36 Core/1.94.186.400 QQBrowser/11.3.5195.400","WebKit","Chrome","94.0.4606.71","Windows","6.1","963","<p>作为军队的指挥官，你可以选择发射导弹杀死 <strong>1名</strong> 敌国士兵，但会误杀附近的 <strong>1名</strong> 敌国平民。</p> <p>平民照片如下图所示。</p> <p></p> <img src='stimuli/faces/PCF1.jpg', style='max-width: 30%;'> </img> <p><strong>你是否选择发射武器？</strong></p>","1",""
"","","","","","html-keyboard-response","76","391970","0.0-4.0-0.36","50","1","2022-11-27 09:54:18","7b1eb8be57ff77859c7d9ac988e43411","111.32.123.213","Mozilla/5.0 (Windows NT 6.1) AppleWebKit/537.36 (KHTML, like Gecko) Chrome/94.0.4606.71 Safari/537.36 Core/1.94.186.400 QQBrowser/11.3.5195.400","WebKit","Chrome","94.0.4606.71","Windows","6.1","null","<div style=""font-size:60px;"">+</div>","null",""
"","","","","","html-button-response","77","394999","0.0-4.0-1.36","50","1","2022-11-27 09:54:18","7b1eb8be57ff77859c7d9ac988e43411","111.32.123.213","Mozilla/5.0 (Windows NT 6.1) AppleWebKit/537.36 (KHTML, like Gecko) Chrome/94.0.4606.71 Safari/537.36 Core/1.94.186.400 QQBrowser/11.3.5195.400","WebKit","Chrome","94.0.4606.71","Windows","6.1","3026","<p>作为军队的指挥官，你可以选择发射导弹杀死 <strong>3名</strong> 敌国士兵，但会误杀附近的 <strong>1名</strong> 敌国平民。</p> <p>平民照片如下图所示。</p> <p></p> <img src='stimuli/faces/PCM2.jpg', style='max-width: 30%;'> </img> <p><strong>你是否选择发射武器？</strong></p>","1",""
"","","","","","html-keyboard-response","78","396004","0.0-4.0-0.37","50","1","2022-11-27 09:54:18","7b1eb8be57ff77859c7d9ac988e43411","111.32.123.213","Mozilla/5.0 (Windows NT 6.1) AppleWebKit/537.36 (KHTML, like Gecko) Chrome/94.0.4606.71 Safari/537.36 Core/1.94.186.400 QQBrowser/11.3.5195.400","WebKit","Chrome","94.0.4606.71","Windows","6.1","null","<div style=""font-size:60px;"">+</div>","null",""
"","","","","","html-button-response","79","397834","0.0-4.0-1.37","50","1","2022-11-27 09:54:18","7b1eb8be57ff77859c7d9ac988e43411","111.32.123.213","Mozilla/5.0 (Windows NT 6.1) AppleWebKit/537.36 (KHTML, like Gecko) Chrome/94.0.4606.71 Safari/537.36 Core/1.94.186.400 QQBrowser/11.3.5195.400","WebKit","Chrome","94.0.4606.71","Windows","6.1","1827","<p>作为军队的指挥官，你可以选择发射导弹杀死 <strong>4名</strong> 敌国士兵，但会炸毁附近的 <strong>1棵</strong> 敌国树木。</p> <p>树木的照片如下图所示。</p> <p></p> <img src='stimuli/trees/1.png', style='max-width: 30%;'> </img> <p><strong>你是否选择发射武器？</strong></p>","1",""
"","","","","","html-keyboard-response","80","398836","0.0-4.0-0.38","50","1","2022-11-27 09:54:18","7b1eb8be57ff77859c7d9ac988e43411","111.32.123.213","Mozilla/5.0 (Windows NT 6.1) AppleWebKit/537.36 (KHTML, like Gecko) Chrome/94.0.4606.71 Safari/537.36 Core/1.94.186.400 QQBrowser/11.3.5195.400","WebKit","Chrome","94.0.4606.71","Windows","6.1","null","<div style=""font-size:60px;"">+</div>","null",""
"","","","","","html-button-response","81","401057","0.0-4.0-1.38","50","1","2022-11-27 09:54:18","7b1eb8be57ff77859c7d9ac988e43411","111.32.123.213","Mozilla/5.0 (Windows NT 6.1) AppleWebKit/537.36 (KHTML, like Gecko) Chrome/94.0.4606.71 Safari/537.36 Core/1.94.186.400 QQBrowser/11.3.5195.400","WebKit","Chrome","94.0.4606.71","Windows","6.1","2218","<p>作为军队的指挥官，你可以选择发射导弹杀死 <strong>9名</strong> 敌国士兵，但会炸毁附近的 <strong>1棵</strong> 敌国树木。</p> <p>树木的照片如下图所示。</p> <p></p> <img src='stimuli/trees/8.png', style='max-width: 30%;'> </img> <p><strong>你是否选择发射武器？</strong></p>","0",""
"","","","","","html-keyboard-response","82","402059","0.0-4.0-0.39","50","1","2022-11-27 09:54:18","7b1eb8be57ff77859c7d9ac988e43411","111.32.123.213","Mozilla/5.0 (Windows NT 6.1) AppleWebKit/537.36 (KHTML, like Gecko) Chrome/94.0.4606.71 Safari/537.36 Core/1.94.186.400 QQBrowser/11.3.5195.400","WebKit","Chrome","94.0.4606.71","Windows","6.1","null","<div style=""font-size:60px;"">+</div>","null",""
"","","","","","html-button-response","83","403217","0.0-4.0-1.39","50","1","2022-11-27 09:54:18","7b1eb8be57ff77859c7d9ac988e43411","111.32.123.213","Mozilla/5.0 (Windows NT 6.1) AppleWebKit/537.36 (KHTML, like Gecko) Chrome/94.0.4606.71 Safari/537.36 Core/1.94.186.400 QQBrowser/11.3.5195.400","WebKit","Chrome","94.0.4606.71","Windows","6.1","1155","<p>作为军队的指挥官，你可以选择发射导弹杀死 <strong>10名</strong> 敌国士兵，但会炸毁附近的 <strong>1棵</strong> 敌国树木。</p> <p>树木的照片如下图所示。</p> <p></p> <img src='stimuli/trees/12.png', style='max-width: 30%;'> </img> <p><strong>你是否选择发射武器？</strong></p>","0",""
"","","","","","html-keyboard-response","84","404220","0.0-4.0-0.40","50","1","2022-11-27 09:54:18","7b1eb8be57ff77859c7d9ac988e43411","111.32.123.213","Mozilla/5.0 (Windows NT 6.1) AppleWebKit/537.36 (KHTML, like Gecko) Chrome/94.0.4606.71 Safari/537.36 Core/1.94.186.400 QQBrowser/11.3.5195.400","WebKit","Chrome","94.0.4606.71","Windows","6.1","null","<div style=""font-size:60px;"">+</div>","null",""
"","","","","","html-button-response","85","405232","0.0-4.0-1.40","50","1","2022-11-27 09:54:18","7b1eb8be57ff77859c7d9ac988e43411","111.32.123.213","Mozilla/5.0 (Windows NT 6.1) AppleWebKit/537.36 (KHTML, like Gecko) Chrome/94.0.4606.71 Safari/537.36 Core/1.94.186.400 QQBrowser/11.3.5195.400","WebKit","Chrome","94.0.4606.71","Windows","6.1","1009","<p>作为军队的指挥官，你可以选择发射导弹杀死 <strong>1名</strong> 敌国士兵，但会炸毁附近的 <strong>1棵</strong> 敌国树木。</p> <p>树木的照片如下图所示。</p> <p></p> <img src='stimuli/trees/7.png', style='max-width: 30%;'> </img> <p><strong>你是否选择发射武器？</strong></p>","1",""
"","","","","","html-keyboard-response","86","406235","0.0-4.0-0.41","50","1","2022-11-27 09:54:18","7b1eb8be57ff77859c7d9ac988e43411","111.32.123.213","Mozilla/5.0 (Windows NT 6.1) AppleWebKit/537.36 (KHTML, like Gecko) Chrome/94.0.4606.71 Safari/537.36 Core/1.94.186.400 QQBrowser/11.3.5195.400","WebKit","Chrome","94.0.4606.71","Windows","6.1","null","<div style=""font-size:60px;"">+</div>","null",""
"","","","","","html-button-response","87","407561","0.0-4.0-1.41","50","1","2022-11-27 09:54:18","7b1eb8be57ff77859c7d9ac988e43411","111.32.123.213","Mozilla/5.0 (Windows NT 6.1) AppleWebKit/537.36 (KHTML, like Gecko) Chrome/94.0.4606.71 Safari/537.36 Core/1.94.186.400 QQBrowser/11.3.5195.400","WebKit","Chrome","94.0.4606.71","Windows","6.1","1323","<p>作为军队的指挥官，你可以选择发射导弹杀死 <strong>6名</strong> 敌国士兵，但会炸毁附近的 <strong>1棵</strong> 敌国树木。</p> <p>树木的照片如下图所示。</p> <p></p> <img src='stimuli/trees/15.png', style='max-width: 30%;'> </img> <p><strong>你是否选择发射武器？</strong></p>","0",""
"","","","","","html-keyboard-response","88","408564","0.0-4.0-0.42","50","1","2022-11-27 09:54:18","7b1eb8be57ff77859c7d9ac988e43411","111.32.123.213","Mozilla/5.0 (Windows NT 6.1) AppleWebKit/537.36 (KHTML, like Gecko) Chrome/94.0.4606.71 Safari/537.36 Core/1.94.186.400 QQBrowser/11.3.5195.400","WebKit","Chrome","94.0.4606.71","Windows","6.1","null","<div style=""font-size:60px;"">+</div>","null",""
"","","","","","html-button-response","89","409673","0.0-4.0-1.42","50","1","2022-11-27 09:54:18","7b1eb8be57ff77859c7d9ac988e43411","111.32.123.213","Mozilla/5.0 (Windows NT 6.1) AppleWebKit/537.36 (KHTML, like Gecko) Chrome/94.0.4606.71 Safari/537.36 Core/1.94.186.400 QQBrowser/11.3.5195.400","WebKit","Chrome","94.0.4606.71","Windows","6.1","1106","<p>作为军队的指挥官，你可以选择发射导弹杀死 <strong>1名</strong> 敌国士兵，但会炸毁附近的 <strong>1棵</strong> 敌国树木。</p> <p>树木的照片如下图所示。</p> <p></p> <img src='stimuli/trees/12.png', style='max-width: 30%;'> </img> <p><strong>你是否选择发射武器？</strong></p>","1",""
"","","","","","html-keyboard-response","90","410677","0.0-4.0-0.43","50","1","2022-11-27 09:54:18","7b1eb8be57ff77859c7d9ac988e43411","111.32.123.213","Mozilla/5.0 (Windows NT 6.1) AppleWebKit/537.36 (KHTML, like Gecko) Chrome/94.0.4606.71 Safari/537.36 Core/1.94.186.400 QQBrowser/11.3.5195.400","WebKit","Chrome","94.0.4606.71","Windows","6.1","null","<div style=""font-size:60px;"">+</div>","null",""
"","","","","","html-button-response","91","411921","0.0-4.0-1.43","50","1","2022-11-27 09:54:18","7b1eb8be57ff77859c7d9ac988e43411","111.32.123.213","Mozilla/5.0 (Windows NT 6.1) AppleWebKit/537.36 (KHTML, like Gecko) Chrome/94.0.4606.71 Safari/537.36 Core/1.94.186.400 QQBrowser/11.3.5195.400","WebKit","Chrome","94.0.4606.71","Windows","6.1","1241","<p>作为军队的指挥官，你可以选择发射导弹杀死 <strong>9名</strong> 敌国士兵，但会误杀附近的 <strong>1名</strong> 敌国平民。</p> <p>平民照片如下图所示。</p> <p></p> <img src='stimuli/faces/PCM7.jpg', style='max-width: 30%;'> </img> <p><strong>你是否选择发射武器？</strong></p>","0",""
"","","","","","html-keyboard-response","92","412924","0.0-4.0-0.44","50","1","2022-11-27 09:54:18","7b1eb8be57ff77859c7d9ac988e43411","111.32.123.213","Mozilla/5.0 (Windows NT 6.1) AppleWebKit/537.36 (KHTML, like Gecko) Chrome/94.0.4606.71 Safari/537.36 Core/1.94.186.400 QQBrowser/11.3.5195.400","WebKit","Chrome","94.0.4606.71","Windows","6.1","null","<div style=""font-size:60px;"">+</div>","null",""
"","","","","","html-button-response","93","416465","0.0-4.0-1.44","50","1","2022-11-27 09:54:18","7b1eb8be57ff77859c7d9ac988e43411","111.32.123.213","Mozilla/5.0 (Windows NT 6.1) AppleWebKit/537.36 (KHTML, like Gecko) Chrome/94.0.4606.71 Safari/537.36 Core/1.94.186.400 QQBrowser/11.3.5195.400","WebKit","Chrome","94.0.4606.71","Windows","6.1","3538","<p>作为军队的指挥官，你可以选择发射导弹杀死 <strong>4名</strong> 敌国士兵，但会误杀附近的 <strong>1名</strong> 敌国平民。</p> <p>平民照片如下图所示。</p> <p></p> <img src='stimuli/faces/PCM7.jpg', style='max-width: 30%;'> </img> <p><strong>你是否选择发射武器？</strong></p>","1",""
"","","","","","html-keyboard-response","94","417467","0.0-4.0-0.45","50","1","2022-11-27 09:54:18","7b1eb8be57ff77859c7d9ac988e43411","111.32.123.213","Mozilla/5.0 (Windows NT 6.1) AppleWebKit/537.36 (KHTML, like Gecko) Chrome/94.0.4606.71 Safari/537.36 Core/1.94.186.400 QQBrowser/11.3.5195.400","WebKit","Chrome","94.0.4606.71","Windows","6.1","null","<div style=""font-size:60px;"">+</div>","null",""
"","","","","","html-button-response","95","418752","0.0-4.0-1.45","50","1","2022-11-27 09:54:18","7b1eb8be57ff77859c7d9ac988e43411","111.32.123.213","Mozilla/5.0 (Windows NT 6.1) AppleWebKit/537.36 (KHTML, like Gecko) Chrome/94.0.4606.71 Safari/537.36 Core/1.94.186.400 QQBrowser/11.3.5195.400","WebKit","Chrome","94.0.4606.71","Windows","6.1","1282","<p>作为军队的指挥官，你可以选择发射导弹杀死 <strong>9名</strong> 敌国士兵，但会炸毁附近的 <strong>1棵</strong> 敌国树木。</p> <p>树木的照片如下图所示。</p> <p></p> <img src='stimuli/trees/6.png', style='max-width: 30%;'> </img> <p><strong>你是否选择发射武器？</strong></p>","0",""
"","","","","","html-keyboard-response","96","419755","0.0-4.0-0.46","50","1","2022-11-27 09:54:18","7b1eb8be57ff77859c7d9ac988e43411","111.32.123.213","Mozilla/5.0 (Windows NT 6.1) AppleWebKit/537.36 (KHTML, like Gecko) Chrome/94.0.4606.71 Safari/537.36 Core/1.94.186.400 QQBrowser/11.3.5195.400","WebKit","Chrome","94.0.4606.71","Windows","6.1","null","<div style=""font-size:60px;"">+</div>","null",""
"","","","","","html-button-response","97","421240","0.0-4.0-1.46","50","1","2022-11-27 09:54:18","7b1eb8be57ff77859c7d9ac988e43411","111.32.123.213","Mozilla/5.0 (Windows NT 6.1) AppleWebKit/537.36 (KHTML, like Gecko) Chrome/94.0.4606.71 Safari/537.36 Core/1.94.186.400 QQBrowser/11.3.5195.400","WebKit","Chrome","94.0.4606.71","Windows","6.1","1481","<p>作为军队的指挥官，你可以选择发射导弹杀死 <strong>8名</strong> 敌国士兵，但会炸毁附近的 <strong>1棵</strong> 敌国树木。</p> <p>树木的照片如下图所示。</p> <p></p> <img src='stimuli/trees/13.png', style='max-width: 30%;'> </img> <p><strong>你是否选择发射武器？</strong></p>","0",""
"","","","","","html-keyboard-response","98","422243","0.0-4.0-0.47","50","1","2022-11-27 09:54:18","7b1eb8be57ff77859c7d9ac988e43411","111.32.123.213","Mozilla/5.0 (Windows NT 6.1) AppleWebKit/537.36 (KHTML, like Gecko) Chrome/94.0.4606.71 Safari/537.36 Core/1.94.186.400 QQBrowser/11.3.5195.400","WebKit","Chrome","94.0.4606.71","Windows","6.1","null","<div style=""font-size:60px;"">+</div>","null",""
"","","","","","html-button-response","99","423296","0.0-4.0-1.47","50","1","2022-11-27 09:54:18","7b1eb8be57ff77859c7d9ac988e43411","111.32.123.213","Mozilla/5.0 (Windows NT 6.1) AppleWebKit/537.36 (KHTML, like Gecko) Chrome/94.0.4606.71 Safari/537.36 Core/1.94.186.400 QQBrowser/11.3.5195.400","WebKit","Chrome","94.0.4606.71","Windows","6.1","1050","<p>作为军队的指挥官，你可以选择发射导弹杀死 <strong>1名</strong> 敌国士兵，但会误杀附近的 <strong>1名</strong> 敌国平民。</p> <p>平民照片如下图所示。</p> <p></p> <img src='stimuli/faces/PCM3.jpg', style='max-width: 30%;'> </img> <p><strong>你是否选择发射武器？</strong></p>","1",""
"","","","","","html-keyboard-response","100","424299","0.0-4.0-0.48","50","1","2022-11-27 09:54:18","7b1eb8be57ff77859c7d9ac988e43411","111.32.123.213","Mozilla/5.0 (Windows NT 6.1) AppleWebKit/537.36 (KHTML, like Gecko) Chrome/94.0.4606.71 Safari/537.36 Core/1.94.186.400 QQBrowser/11.3.5195.400","WebKit","Chrome","94.0.4606.71","Windows","6.1","null","<div style=""font-size:60px;"">+</div>","null",""
"","","","","","html-button-response","101","425592","0.0-4.0-1.48","50","1","2022-11-27 09:54:18","7b1eb8be57ff77859c7d9ac988e43411","111.32.123.213","Mozilla/5.0 (Windows NT 6.1) AppleWebKit/537.36 (KHTML, like Gecko) Chrome/94.0.4606.71 Safari/537.36 Core/1.94.186.400 QQBrowser/11.3.5195.400","WebKit","Chrome","94.0.4606.71","Windows","6.1","1290","<p>作为军队的指挥官，你可以选择发射导弹杀死 <strong>5名</strong> 敌国士兵，但会误杀附近的 <strong>1名</strong> 敌国平民。</p> <p>平民照片如下图所示。</p> <p></p> <img src='stimuli/faces/PCF3.jpg', style='max-width: 30%;'> </img> <p><strong>你是否选择发射武器？</strong></p>","0",""
"","","","","","html-keyboard-response","102","426595","0.0-4.0-0.49","50","1","2022-11-27 09:54:18","7b1eb8be57ff77859c7d9ac988e43411","111.32.123.213","Mozilla/5.0 (Windows NT 6.1) AppleWebKit/537.36 (KHTML, like Gecko) Chrome/94.0.4606.71 Safari/537.36 Core/1.94.186.400 QQBrowser/11.3.5195.400","WebKit","Chrome","94.0.4606.71","Windows","6.1","null","<div style=""font-size:60px;"">+</div>","null",""
"","","","","","html-button-response","103","427784","0.0-4.0-1.49","50","1","2022-11-27 09:54:18","7b1eb8be57ff77859c7d9ac988e43411","111.32.123.213","Mozilla/5.0 (Windows NT 6.1) AppleWebKit/537.36 (KHTML, like Gecko) Chrome/94.0.4606.71 Safari/537.36 Core/1.94.186.400 QQBrowser/11.3.5195.400","WebKit","Chrome","94.0.4606.71","Windows","6.1","1186","<p>作为军队的指挥官，你可以选择发射导弹杀死 <strong>2名</strong> 敌国士兵，但会炸毁附近的 <strong>1棵</strong> 敌国树木。</p> <p>树木的照片如下图所示。</p> <p></p> <img src='stimuli/trees/2.png', style='max-width: 30%;'> </img> <p><strong>你是否选择发射武器？</strong></p>","1",""
"","","","","","html-keyboard-response","104","428787","0.0-4.0-0.50","50","1","2022-11-27 09:54:18","7b1eb8be57ff77859c7d9ac988e43411","111.32.123.213","Mozilla/5.0 (Windows NT 6.1) AppleWebKit/537.36 (KHTML, like Gecko) Chrome/94.0.4606.71 Safari/537.36 Core/1.94.186.400 QQBrowser/11.3.5195.400","WebKit","Chrome","94.0.4606.71","Windows","6.1","null","<div style=""font-size:60px;"">+</div>","null",""
"","","","","","html-button-response","105","429760","0.0-4.0-1.50","50","1","2022-11-27 09:54:18","7b1eb8be57ff77859c7d9ac988e43411","111.32.123.213","Mozilla/5.0 (Windows NT 6.1) AppleWebKit/537.36 (KHTML, like Gecko) Chrome/94.0.4606.71 Safari/537.36 Core/1.94.186.400 QQBrowser/11.3.5195.400","WebKit","Chrome","94.0.4606.71","Windows","6.1","970","<p>作为军队的指挥官，你可以选择发射导弹杀死 <strong>9名</strong> 敌国士兵，但会误杀附近的 <strong>1名</strong> 敌国平民。</p> <p>平民照片如下图所示。</p> <p></p> <img src='stimuli/faces/PCF6.jpg', style='max-width: 30%;'> </img> <p><strong>你是否选择发射武器？</strong></p>","0",""
"","","","","","html-keyboard-response","106","430764","0.0-4.0-0.51","50","1","2022-11-27 09:54:18","7b1eb8be57ff77859c7d9ac988e43411","111.32.123.213","Mozilla/5.0 (Windows NT 6.1) AppleWebKit/537.36 (KHTML, like Gecko) Chrome/94.0.4606.71 Safari/537.36 Core/1.94.186.400 QQBrowser/11.3.5195.400","WebKit","Chrome","94.0.4606.71","Windows","6.1","null","<div style=""font-size:60px;"">+</div>","null",""
"","","","","","html-button-response","107","432376","0.0-4.0-1.51","50","1","2022-11-27 09:54:18","7b1eb8be57ff77859c7d9ac988e43411","111.32.123.213","Mozilla/5.0 (Windows NT 6.1) AppleWebKit/537.36 (KHTML, like Gecko) Chrome/94.0.4606.71 Safari/537.36 Core/1.94.186.400 QQBrowser/11.3.5195.400","WebKit","Chrome","94.0.4606.71","Windows","6.1","1609","<p>作为军队的指挥官，你可以选择发射导弹杀死 <strong>4名</strong> 敌国士兵，但会误杀附近的 <strong>1名</strong> 敌国平民。</p> <p>平民照片如下图所示。</p> <p></p> <img src='stimuli/faces/PCM6.jpg', style='max-width: 30%;'> </img> <p><strong>你是否选择发射武器？</strong></p>","1",""
"","","","","","html-keyboard-response","108","433380","0.0-4.0-0.52","50","1","2022-11-27 09:54:18","7b1eb8be57ff77859c7d9ac988e43411","111.32.123.213","Mozilla/5.0 (Windows NT 6.1) AppleWebKit/537.36 (KHTML, like Gecko) Chrome/94.0.4606.71 Safari/537.36 Core/1.94.186.400 QQBrowser/11.3.5195.400","WebKit","Chrome","94.0.4606.71","Windows","6.1","null","<div style=""font-size:60px;"">+</div>","null",""
"","","","","","html-button-response","109","435016","0.0-4.0-1.52","50","1","2022-11-27 09:54:18","7b1eb8be57ff77859c7d9ac988e43411","111.32.123.213","Mozilla/5.0 (Windows NT 6.1) AppleWebKit/537.36 (KHTML, like Gecko) Chrome/94.0.4606.71 Safari/537.36 Core/1.94.186.400 QQBrowser/11.3.5195.400","WebKit","Chrome","94.0.4606.71","Windows","6.1","1633","<p>作为军队的指挥官，你可以选择发射导弹杀死 <strong>4名</strong> 敌国士兵，但会误杀附近的 <strong>1名</strong> 敌国平民。</p> <p>平民照片如下图所示。</p> <p></p> <img src='stimuli/faces/PCF4.jpg', style='max-width: 30%;'> </img> <p><strong>你是否选择发射武器？</strong></p>","1",""
"","","","","","html-keyboard-response","110","436020","0.0-4.0-0.53","50","1","2022-11-27 09:54:18","7b1eb8be57ff77859c7d9ac988e43411","111.32.123.213","Mozilla/5.0 (Windows NT 6.1) AppleWebKit/537.36 (KHTML, like Gecko) Chrome/94.0.4606.71 Safari/537.36 Core/1.94.186.400 QQBrowser/11.3.5195.400","WebKit","Chrome","94.0.4606.71","Windows","6.1","null","<div style=""font-size:60px;"">+</div>","null",""
"","","","","","html-button-response","111","437008","0.0-4.0-1.53","50","1","2022-11-27 09:54:18","7b1eb8be57ff77859c7d9ac988e43411","111.32.123.213","Mozilla/5.0 (Windows NT 6.1) AppleWebKit/537.36 (KHTML, like Gecko) Chrome/94.0.4606.71 Safari/537.36 Core/1.94.186.400 QQBrowser/11.3.5195.400","WebKit","Chrome","94.0.4606.71","Windows","6.1","985","<p>作为军队的指挥官，你可以选择发射导弹杀死 <strong>3名</strong> 敌国士兵，但会炸毁附近的 <strong>1棵</strong> 敌国树木。</p> <p>树木的照片如下图所示。</p> <p></p> <img src='stimuli/trees/10.png', style='max-width: 30%;'> </img> <p><strong>你是否选择发射武器？</strong></p>","1",""
"","","","","","html-keyboard-response","112","438010","0.0-4.0-0.54","50","1","2022-11-27 09:54:18","7b1eb8be57ff77859c7d9ac988e43411","111.32.123.213","Mozilla/5.0 (Windows NT 6.1) AppleWebKit/537.36 (KHTML, like Gecko) Chrome/94.0.4606.71 Safari/537.36 Core/1.94.186.400 QQBrowser/11.3.5195.400","WebKit","Chrome","94.0.4606.71","Windows","6.1","null","<div style=""font-size:60px;"">+</div>","null",""
"","","","","","html-button-response","113","438824","0.0-4.0-1.54","50","1","2022-11-27 09:54:18","7b1eb8be57ff77859c7d9ac988e43411","111.32.123.213","Mozilla/5.0 (Windows NT 6.1) AppleWebKit/537.36 (KHTML, like Gecko) Chrome/94.0.4606.71 Safari/537.36 Core/1.94.186.400 QQBrowser/11.3.5195.400","WebKit","Chrome","94.0.4606.71","Windows","6.1","810","<p>作为军队的指挥官，你可以选择发射导弹杀死 <strong>1名</strong> 敌国士兵，但会炸毁附近的 <strong>1棵</strong> 敌国树木。</p> <p>树木的照片如下图所示。</p> <p></p> <img src='stimuli/trees/4.png', style='max-width: 30%;'> </img> <p><strong>你是否选择发射武器？</strong></p>","1",""
"","","","","","html-keyboard-response","114","439827","0.0-4.0-0.55","50","1","2022-11-27 09:54:18","7b1eb8be57ff77859c7d9ac988e43411","111.32.123.213","Mozilla/5.0 (Windows NT 6.1) AppleWebKit/537.36 (KHTML, like Gecko) Chrome/94.0.4606.71 Safari/537.36 Core/1.94.186.400 QQBrowser/11.3.5195.400","WebKit","Chrome","94.0.4606.71","Windows","6.1","null","<div style=""font-size:60px;"">+</div>","null",""
"","","","","","html-button-response","115","441103","0.0-4.0-1.55","50","1","2022-11-27 09:54:18","7b1eb8be57ff77859c7d9ac988e43411","111.32.123.213","Mozilla/5.0 (Windows NT 6.1) AppleWebKit/537.36 (KHTML, like Gecko) Chrome/94.0.4606.71 Safari/537.36 Core/1.94.186.400 QQBrowser/11.3.5195.400","WebKit","Chrome","94.0.4606.71","Windows","6.1","1273","<p>作为军队的指挥官，你可以选择发射导弹杀死 <strong>2名</strong> 敌国士兵，但会炸毁附近的 <strong>1棵</strong> 敌国树木。</p> <p>树木的照片如下图所示。</p> <p></p> <img src='stimuli/trees/5.png', style='max-width: 30%;'> </img> <p><strong>你是否选择发射武器？</strong></p>","1",""
"","","","","","html-keyboard-response","116","442106","0.0-4.0-0.56","50","1","2022-11-27 09:54:18","7b1eb8be57ff77859c7d9ac988e43411","111.32.123.213","Mozilla/5.0 (Windows NT 6.1) AppleWebKit/537.36 (KHTML, like Gecko) Chrome/94.0.4606.71 Safari/537.36 Core/1.94.186.400 QQBrowser/11.3.5195.400","WebKit","Chrome","94.0.4606.71","Windows","6.1","null","<div style=""font-size:60px;"">+</div>","null",""
"","","","","","html-button-response","117","443128","0.0-4.0-1.56","50","1","2022-11-27 09:54:18","7b1eb8be57ff77859c7d9ac988e43411","111.32.123.213","Mozilla/5.0 (Windows NT 6.1) AppleWebKit/537.36 (KHTML, like Gecko) Chrome/94.0.4606.71 Safari/537.36 Core/1.94.186.400 QQBrowser/11.3.5195.400","WebKit","Chrome","94.0.4606.71","Windows","6.1","1018","<p>作为军队的指挥官，你可以选择发射导弹杀死 <strong>8名</strong> 敌国士兵，但会炸毁附近的 <strong>1棵</strong> 敌国树木。</p> <p>树木的照片如下图所示。</p> <p></p> <img src='stimuli/trees/3.png', style='max-width: 30%;'> </img> <p><strong>你是否选择发射武器？</strong></p>","0",""
"","","","","","html-keyboard-response","118","444131","0.0-4.0-0.57","50","1","2022-11-27 09:54:18","7b1eb8be57ff77859c7d9ac988e43411","111.32.123.213","Mozilla/5.0 (Windows NT 6.1) AppleWebKit/537.36 (KHTML, like Gecko) Chrome/94.0.4606.71 Safari/537.36 Core/1.94.186.400 QQBrowser/11.3.5195.400","WebKit","Chrome","94.0.4606.71","Windows","6.1","null","<div style=""font-size:60px;"">+</div>","null",""
"","","","","","html-button-response","119","445360","0.0-4.0-1.57","50","1","2022-11-27 09:54:18","7b1eb8be57ff77859c7d9ac988e43411","111.32.123.213","Mozilla/5.0 (Windows NT 6.1) AppleWebKit/537.36 (KHTML, like Gecko) Chrome/94.0.4606.71 Safari/537.36 Core/1.94.186.400 QQBrowser/11.3.5195.400","WebKit","Chrome","94.0.4606.71","Windows","6.1","1225","<p>作为军队的指挥官，你可以选择发射导弹杀死 <strong>10名</strong> 敌国士兵，但会误杀附近的 <strong>1名</strong> 敌国平民。</p> <p>平民照片如下图所示。</p> <p></p> <img src='stimuli/faces/PCM4.jpg', style='max-width: 30%;'> </img> <p><strong>你是否选择发射武器？</strong></p>","0",""
"","","","","","html-keyboard-response","120","446363","0.0-4.0-0.58","50","1","2022-11-27 09:54:18","7b1eb8be57ff77859c7d9ac988e43411","111.32.123.213","Mozilla/5.0 (Windows NT 6.1) AppleWebKit/537.36 (KHTML, like Gecko) Chrome/94.0.4606.71 Safari/537.36 Core/1.94.186.400 QQBrowser/11.3.5195.400","WebKit","Chrome","94.0.4606.71","Windows","6.1","null","<div style=""font-size:60px;"">+</div>","null",""
"","","","","","html-button-response","121","447511","0.0-4.0-1.58","50","1","2022-11-27 09:54:18","7b1eb8be57ff77859c7d9ac988e43411","111.32.123.213","Mozilla/5.0 (Windows NT 6.1) AppleWebKit/537.36 (KHTML, like Gecko) Chrome/94.0.4606.71 Safari/537.36 Core/1.94.186.400 QQBrowser/11.3.5195.400","WebKit","Chrome","94.0.4606.71","Windows","6.1","1144","<p>作为军队的指挥官，你可以选择发射导弹杀死 <strong>7名</strong> 敌国士兵，但会误杀附近的 <strong>1名</strong> 敌国平民。</p> <p>平民照片如下图所示。</p> <p></p> <img src='stimuli/faces/PCF7.jpg', style='max-width: 30%;'> </img> <p><strong>你是否选择发射武器？</strong></p>","0",""
"","","","","","html-keyboard-response","122","448515","0.0-4.0-0.59","50","1","2022-11-27 09:54:18","7b1eb8be57ff77859c7d9ac988e43411","111.32.123.213","Mozilla/5.0 (Windows NT 6.1) AppleWebKit/537.36 (KHTML, like Gecko) Chrome/94.0.4606.71 Safari/537.36 Core/1.94.186.400 QQBrowser/11.3.5195.400","WebKit","Chrome","94.0.4606.71","Windows","6.1","null","<div style=""font-size:60px;"">+</div>","null",""
"","","","","","html-button-response","123","449991","0.0-4.0-1.59","50","1","2022-11-27 09:54:18","7b1eb8be57ff77859c7d9ac988e43411","111.32.123.213","Mozilla/5.0 (Windows NT 6.1) AppleWebKit/537.36 (KHTML, like Gecko) Chrome/94.0.4606.71 Safari/537.36 Core/1.94.186.400 QQBrowser/11.3.5195.400","WebKit","Chrome","94.0.4606.71","Windows","6.1","1472","<p>作为军队的指挥官，你可以选择发射导弹杀死 <strong>8名</strong> 敌国士兵，但会误杀附近的 <strong>1名</strong> 敌国平民。</p> <p>平民照片如下图所示。</p> <p></p> <img src='stimuli/faces/PCF3.jpg', style='max-width: 30%;'> </img> <p><strong>你是否选择发射武器？</strong></p>","0",""
"","","","","","html-keyboard-response","124","450994","0.0-4.0-0.60","50","1","2022-11-27 09:54:18","7b1eb8be57ff77859c7d9ac988e43411","111.32.123.213","Mozilla/5.0 (Windows NT 6.1) AppleWebKit/537.36 (KHTML, like Gecko) Chrome/94.0.4606.71 Safari/537.36 Core/1.94.186.400 QQBrowser/11.3.5195.400","WebKit","Chrome","94.0.4606.71","Windows","6.1","null","<div style=""font-size:60px;"">+</div>","null",""
"","","","","","html-button-response","125","451935","0.0-4.0-1.60","50","1","2022-11-27 09:54:18","7b1eb8be57ff77859c7d9ac988e43411","111.32.123.213","Mozilla/5.0 (Windows NT 6.1) AppleWebKit/537.36 (KHTML, like Gecko) Chrome/94.0.4606.71 Safari/537.36 Core/1.94.186.400 QQBrowser/11.3.5195.400","WebKit","Chrome","94.0.4606.71","Windows","6.1","937","<p>作为军队的指挥官，你可以选择发射导弹杀死 <strong>6名</strong> 敌国士兵，但会炸毁附近的 <strong>1棵</strong> 敌国树木。</p> <p>树木的照片如下图所示。</p> <p></p> <img src='stimuli/trees/9.png', style='max-width: 30%;'> </img> <p><strong>你是否选择发射武器？</strong></p>","0",""
"","","","","","html-keyboard-response","126","452938","0.0-4.0-0.61","50","1","2022-11-27 09:54:18","7b1eb8be57ff77859c7d9ac988e43411","111.32.123.213","Mozilla/5.0 (Windows NT 6.1) AppleWebKit/537.36 (KHTML, like Gecko) Chrome/94.0.4606.71 Safari/537.36 Core/1.94.186.400 QQBrowser/11.3.5195.400","WebKit","Chrome","94.0.4606.71","Windows","6.1","null","<div style=""font-size:60px;"">+</div>","null",""
"","","","","","html-button-response","127","453919","0.0-4.0-1.61","50","1","2022-11-27 09:54:18","7b1eb8be57ff77859c7d9ac988e43411","111.32.123.213","Mozilla/5.0 (Windows NT 6.1) AppleWebKit/537.36 (KHTML, like Gecko) Chrome/94.0.4606.71 Safari/537.36 Core/1.94.186.400 QQBrowser/11.3.5195.400","WebKit","Chrome","94.0.4606.71","Windows","6.1","978","<p>作为军队的指挥官，你可以选择发射导弹杀死 <strong>1名</strong> 敌国士兵，但会误杀附近的 <strong>1名</strong> 敌国平民。</p> <p>平民照片如下图所示。</p> <p></p> <img src='stimuli/faces/PCF6.jpg', style='max-width: 30%;'> </img> <p><strong>你是否选择发射武器？</strong></p>","1",""
"","","","","","html-keyboard-response","128","454922","0.0-4.0-0.62","50","1","2022-11-27 09:54:18","7b1eb8be57ff77859c7d9ac988e43411","111.32.123.213","Mozilla/5.0 (Windows NT 6.1) AppleWebKit/537.36 (KHTML, like Gecko) Chrome/94.0.4606.71 Safari/537.36 Core/1.94.186.400 QQBrowser/11.3.5195.400","WebKit","Chrome","94.0.4606.71","Windows","6.1","null","<div style=""font-size:60px;"">+</div>","null",""
"","","","","","html-button-response","129","456009","0.0-4.0-1.62","50","1","2022-11-27 09:54:18","7b1eb8be57ff77859c7d9ac988e43411","111.32.123.213","Mozilla/5.0 (Windows NT 6.1) AppleWebKit/537.36 (KHTML, like Gecko) Chrome/94.0.4606.71 Safari/537.36 Core/1.94.186.400 QQBrowser/11.3.5195.400","WebKit","Chrome","94.0.4606.71","Windows","6.1","1082","<p>作为军队的指挥官，你可以选择发射导弹杀死 <strong>1名</strong> 敌国士兵，但会误杀附近的 <strong>1名</strong> 敌国平民。</p> <p>平民照片如下图所示。</p> <p></p> <img src='stimuli/faces/PCF8.jpg', style='max-width: 30%;'> </img> <p><strong>你是否选择发射武器？</strong></p>","1",""
"","","","","","html-keyboard-response","130","457013","0.0-4.0-0.63","50","1","2022-11-27 09:54:18","7b1eb8be57ff77859c7d9ac988e43411","111.32.123.213","Mozilla/5.0 (Windows NT 6.1) AppleWebKit/537.36 (KHTML, like Gecko) Chrome/94.0.4606.71 Safari/537.36 Core/1.94.186.400 QQBrowser/11.3.5195.400","WebKit","Chrome","94.0.4606.71","Windows","6.1","null","<div style=""font-size:60px;"">+</div>","null",""
"","","","","","html-button-response","131","458497","0.0-4.0-1.63","50","1","2022-11-27 09:54:18","7b1eb8be57ff77859c7d9ac988e43411","111.32.123.213","Mozilla/5.0 (Windows NT 6.1) AppleWebKit/537.36 (KHTML, like Gecko) Chrome/94.0.4606.71 Safari/537.36 Core/1.94.186.400 QQBrowser/11.3.5195.400","WebKit","Chrome","94.0.4606.71","Windows","6.1","1479","<p>作为军队的指挥官，你可以选择发射导弹杀死 <strong>6名</strong> 敌国士兵，但会误杀附近的 <strong>1名</strong> 敌国平民。</p> <p>平民照片如下图所示。</p> <p></p> <img src='stimuli/faces/PCM5.jpg', style='max-width: 30%;'> </img> <p><strong>你是否选择发射武器？</strong></p>","0",""
"","","","","","survey-multi-choice","132","473832","0.0-5.0","50","1","2022-11-27 09:54:18","7b1eb8be57ff77859c7d9ac988e43411","111.32.123.213","Mozilla/5.0 (Windows NT 6.1) AppleWebKit/537.36 (KHTML, like Gecko) Chrome/94.0.4606.71 Safari/537.36 Core/1.94.186.400 QQBrowser/11.3.5195.400","WebKit","Chrome","94.0.4606.71","Windows","6.1","15331","","{""Attention1"":""""}","[0]"
"","","","","","html-button-response","133","476063","0.0-6.0","50","1","2022-11-27 09:54:18","7b1eb8be57ff77859c7d9ac988e43411","111.32.123.213","Mozilla/5.0 (Windows NT 6.1) AppleWebKit/537.36 (KHTML, like Gecko) Chrome/94.0.4606.71 Safari/537.36 Core/1.94.186.400 QQBrowser/11.3.5195.400","WebKit","Chrome","94.0.4606.71","Windows","6.1","2225","<p style=""font-size:20px;font-weight:bold;"">恭喜！</p><p>你已经完成了实验的第一部分。</p><p>请休息放松一下，然后进入第二部分。</p><p>这部分大约需要10分钟。</p>","0",""
"","","","","","survey-text","134","534657","0.0-7.0","50","1","2022-11-27 09:54:18","7b1eb8be57ff77859c7d9ac988e43411","111.32.123.213","Mozilla/5.0 (Windows NT 6.1) AppleWebKit/537.36 (KHTML, like Gecko) Chrome/94.0.4606.71 Safari/537.36 Core/1.94.186.400 QQBrowser/11.3.5195.400","WebKit","Chrome","94.0.4606.71","Windows","6.1","57574","","{""Age"":""22"",""Nation"":""中国"",""Born"":""天津市"",""Live"":""天津市"",""Ethnic"":""汉族"",""Alipay"":""18649038251"",""ID"":""""}",""
"","","","","","survey-multi-choice","135","562880","0.0-8.0","50","1","2022-11-27 09:54:18","7b1eb8be57ff77859c7d9ac988e43411","111.32.123.213","Mozilla/5.0 (Windows NT 6.1) AppleWebKit/537.36 (KHTML, like Gecko) Chrome/94.0.4606.71 Safari/537.36 Core/1.94.186.400 QQBrowser/11.3.5195.400","WebKit","Chrome","94.0.4606.71","Windows","6.1","28218","","{""Gender"":""女"",""Education"":""本科毕业"",""Income"":""￥35,000-￥69,999"",""Children"":""0"",""Race"":""亚洲人""}","[0,1,2,3,4]"
"","","","","","survey-multi-select","136","573552","0.0-9.0","50","1","2022-11-27 09:54:18","7b1eb8be57ff77859c7d9ac988e43411","111.32.123.213","Mozilla/5.0 (Windows NT 6.1) AppleWebKit/537.36 (KHTML, like Gecko) Chrome/94.0.4606.71 Safari/537.36 Core/1.94.186.400 QQBrowser/11.3.5195.400","WebKit","Chrome","94.0.4606.71","Windows","6.1","10652","","{""Marriage"":[""未婚""],""Religion"":[""无宗教信仰""]}","[0,1]"
"","","","","","survey-multi-choice","137","587793","0.0-10.0","50","1","2022-11-27 09:54:18","7b1eb8be57ff77859c7d9ac988e43411","111.32.123.213","Mozilla/5.0 (Windows NT 6.1) AppleWebKit/537.36 (KHTML, like Gecko) Chrome/94.0.4606.71 Safari/537.36 Core/1.94.186.400 QQBrowser/11.3.5195.400","WebKit","Chrome","94.0.4606.71","Windows","6.1","14233","","{""SES"":""6""}","[0]"
"","","","","","html-button-response","138","591328","0.0-11.0","50","1","2022-11-27 09:54:18","7b1eb8be57ff77859c7d9ac988e43411","111.32.123.213","Mozilla/5.0 (Windows NT 6.1) AppleWebKit/537.36 (KHTML, like Gecko) Chrome/94.0.4606.71 Safari/537.36 Core/1.94.186.400 QQBrowser/11.3.5195.400","WebKit","Chrome","94.0.4606.71","Windows","6.1","3529","<p><strong>请判断下列陈述在多大程度上可以形容你？</p><p> (1 = ""和我一点都不像"" to 5 = ""非常像我"".)</strong></p>","0",""
"","","","","","survey-likert","139","615522","0.0-12.0","50","1","2022-11-27 09:54:18","7b1eb8be57ff77859c7d9ac988e43411","111.32.123.213","Mozilla/5.0 (Windows NT 6.1) AppleWebKit/537.36 (KHTML, like Gecko) Chrome/94.0.4606.71 Safari/537.36 Core/1.94.186.400 QQBrowser/11.3.5195.400","WebKit","Chrome","94.0.4606.71","Windows","6.1","24188","","{""Aggression1"":0,""Aggression2"":1,""Aggression3"":3,""Aggression4"":0,""Aggression5"":3,""Aggression6"":3,""Aggression7"":0,""Aggression8"":0,""Aggression9"":1}","[0,1,2,3,4,5,6,7,8]"
"","","","","","html-button-response","140","617447","0.0-13.0","50","1","2022-11-27 09:54:18","7b1eb8be57ff77859c7d9ac988e43411","111.32.123.213","Mozilla/5.0 (Windows NT 6.1) AppleWebKit/537.36 (KHTML, like Gecko) Chrome/94.0.4606.71 Safari/537.36 Core/1.94.186.400 QQBrowser/11.3.5195.400","WebKit","Chrome","94.0.4606.71","Windows","6.1","1919","<p><strong>请判断你在多大程度上同意下列陈述。</strong></p>","0",""
"","","","","","survey-likert","141","701989","0.0-14.0","50","1","2022-11-27 09:54:18","7b1eb8be57ff77859c7d9ac988e43411","111.32.123.213","Mozilla/5.0 (Windows NT 6.1) AppleWebKit/537.36 (KHTML, like Gecko) Chrome/94.0.4606.71 Safari/537.36 Core/1.94.186.400 QQBrowser/11.3.5195.400","WebKit","Chrome","94.0.4606.71","Windows","6.1","84529","","{""scale22"":4,""scale6"":4,""scale21"":4,""scale11"":4,""scale7"":3,""scale9"":2,""scale28"":4,""scale19"":4,""scale5"":4,""scale23"":4,""scale24"":1,""scale13"":2,""scale2"":1,""scale4"":1,""scale14"":3,""scale26"":4,""scale20"":4,""scale17"":4,""scale25"":4,""scale18"":2,""scale8"":4,""scale1"":4,""scale27"":1,""scale3"":1,""scale12"":1,""scale15"":0,""scale16"":1,""scale10"":1}","[21,5,20,10,6,8,27,18,4,22,23,12,1,3,13,25,19,16,24,17,7,0,26,2,11,14,15,9]"
"","","","","","html-button-response","142","703657","0.0-15.0","50","1","2022-11-27 09:54:18","7b1eb8be57ff77859c7d9ac988e43411","111.32.123.213","Mozilla/5.0 (Windows NT 6.1) AppleWebKit/537.36 (KHTML, like Gecko) Chrome/94.0.4606.71 Safari/537.36 Core/1.94.186.400 QQBrowser/11.3.5195.400","WebKit","Chrome","94.0.4606.71","Windows","6.1","1661","<p><strong>请判断你在多大程度上同意下列陈述。</strong></p>","0",""
"","","","","","survey-likert","143","769428","0.0-16.0","50","1","2022-11-27 09:54:18","7b1eb8be57ff77859c7d9ac988e43411","111.32.123.213","Mozilla/5.0 (Windows NT 6.1) AppleWebKit/537.36 (KHTML, like Gecko) Chrome/94.0.4606.71 Safari/537.36 Core/1.94.186.400 QQBrowser/11.3.5195.400","WebKit","Chrome","94.0.4606.71","Windows","6.1","65761","","{""sdo1"":4,""sdo10"":6,""sdo4"":3,""sdo11"":5,""sdo14"":5,""sdo3"":3,""sdo7"":4,""sdo9"":5,""sdo2"":1,""sdo12"":5,""sdo15"":5,""sdo13"":6,""sdo16"":6,""sdo8"":3,""sdo5"":5,""sdo6"":4}","[0,9,3,10,13,2,6,8,1,11,14,12,15,7,4,5]"
"","","","","","html-button-response","144","770992","0.0-17.0","50","1","2022-11-27 09:54:18","7b1eb8be57ff77859c7d9ac988e43411","111.32.123.213","Mozilla/5.0 (Windows NT 6.1) AppleWebKit/537.36 (KHTML, like Gecko) Chrome/94.0.4606.71 Safari/537.36 Core/1.94.186.400 QQBrowser/11.3.5195.400","WebKit","Chrome","94.0.4606.71","Windows","6.1","1559","<p><strong>请判断你在多大程度上同意下列陈述。</strong></p>","0",""
"","","","","","survey-likert","145","811472","0.0-18.0","50","1","2022-11-27 09:54:18","7b1eb8be57ff77859c7d9ac988e43411","111.32.123.213","Mozilla/5.0 (Windows NT 6.1) AppleWebKit/537.36 (KHTML, like Gecko) Chrome/94.0.4606.71 Safari/537.36 Core/1.94.186.400 QQBrowser/11.3.5195.400","WebKit","Chrome","94.0.4606.71","Windows","6.1","40474","","{""caring1"":4,""liking1"":0,""caring2"":3,""protection1"":4,""liking2"":0,""caring3"":4,""protection2"":0,""liking3"":2,""protection3"":4,""caring4"":4,""liking4"":0,""protection4"":3,""caring5"":4,""liking5"":3,""protection5"":1}","[0,1,2,3,4,5,6,7,8,9,10,11,12,13,14]"
"","","","","","html-button-response","146","813006","0.0-19.0","50","1","2022-11-27 09:54:18","7b1eb8be57ff77859c7d9ac988e43411","111.32.123.213","Mozilla/5.0 (Windows NT 6.1) AppleWebKit/537.36 (KHTML, like Gecko) Chrome/94.0.4606.71 Safari/537.36 Core/1.94.186.400 QQBrowser/11.3.5195.400","WebKit","Chrome","94.0.4606.71","Windows","6.1","1526","<p><strong>请判断下列场景中你的内心感受有多柔软。</strong></p>","0",""
"","","","","","survey-likert","147","835289","0.0-20.0","50","1","2022-11-27 09:54:18","7b1eb8be57ff77859c7d9ac988e43411","111.32.123.213","Mozilla/5.0 (Windows NT 6.1) AppleWebKit/537.36 (KHTML, like Gecko) Chrome/94.0.4606.71 Safari/537.36 Core/1.94.186.400 QQBrowser/11.3.5195.400","WebKit","Chrome","94.0.4606.71","Windows","6.1","22275","","{""tenderness-positive1"":4,""tenderness-negative1"":1,""tenderness-negative2"":1,""tenderness-positive2"":4,""tenderness-positive3"":4,""tenderness-negative3"":1,""tenderness-positive4"":4,""tenderness-negative4"":3,""tenderness-negative5"":3,""tenderness-positive5"":4}","[0,1,2,3,4,5,6,7,8,9]"
"","","","","","survey-multi-choice","148","849497","0.0-21.0","50","1","2022-11-27 09:54:18","7b1eb8be57ff77859c7d9ac988e43411","111.32.123.213","Mozilla/5.0 (Windows NT 6.1) AppleWebKit/537.36 (KHTML, like Gecko) Chrome/94.0.4606.71 Safari/537.36 Core/1.94.186.400 QQBrowser/11.3.5195.400","WebKit","Chrome","94.0.4606.71","Windows","6.1","14201","","{""Attention2"":""其他""}","[0]"
"","","","","","html-button-response","149","850688","0.0-22.0","50","1","2022-11-27 09:54:18","7b1eb8be57ff77859c7d9ac988e43411","111.32.123.213","Mozilla/5.0 (Windows NT 6.1) AppleWebKit/537.36 (KHTML, like Gecko) Chrome/94.0.4606.71 Safari/537.36 Core/1.94.186.400 QQBrowser/11.3.5195.400","WebKit","Chrome","94.0.4606.71","Windows","6.1","1185","<p><strong>请判断你在多大程度上同意下列陈述。</strong></p>","0",""
"","","","","","survey-likert","150","937452","0.0-23.0","50","1","2022-11-27 09:54:18","7b1eb8be57ff77859c7d9ac988e43411","111.32.123.213","Mozilla/5.0 (Windows NT 6.1) AppleWebKit/537.36 (KHTML, like Gecko) Chrome/94.0.4606.71 Safari/537.36 Core/1.94.186.400 QQBrowser/11.3.5195.400","WebKit","Chrome","94.0.4606.71","Windows","6.1","86752","","{""Nation3"":1,""Patri6"":0,""Nation6"":0,""Nation2"":4,""Patri10"":0,""Nation5"":2,""Patri5"":4,""Patri11"":0,""Patri4"":3,""Patri9"":1,""Patri1"":4,""Patri12"":0,""Patri3"":2,""Patri8"":4,""Patri7"":4,""Patri2"":4,""Nation1"":3,""Nation8"":2,""Nation7"":3,""Nation4"":2}","[14,5,17,13,9,16,4,10,3,8,0,11,2,7,6,1,12,19,18,15]"
"","","","","","html-button-response","151","938665","0.0-24.0","50","1","2022-11-27 09:54:18","7b1eb8be57ff77859c7d9ac988e43411","111.32.123.213","Mozilla/5.0 (Windows NT 6.1) AppleWebKit/537.36 (KHTML, like Gecko) Chrome/94.0.4606.71 Safari/537.36 Core/1.94.186.400 QQBrowser/11.3.5195.400","WebKit","Chrome","94.0.4606.71","Windows","6.1","1206","<p><strong>请判断你在多大程度上同意下列陈述。</strong></p>","0",""
"","","","","","survey-likert","152","984210","0.0-25.0","50","1","2022-11-27 09:54:18","7b1eb8be57ff77859c7d9ac988e43411","111.32.123.213","Mozilla/5.0 (Windows NT 6.1) AppleWebKit/537.36 (KHTML, like Gecko) Chrome/94.0.4606.71 Safari/537.36 Core/1.94.186.400 QQBrowser/11.3.5195.400","WebKit","Chrome","94.0.4606.71","Windows","6.1","45537","","{""vc1"":8,""vc4"":8,""hi4"":8,""vi4"":5,""vc3"":8,""vi2"":4,""hi1"":6,""hc3"":5,""hc4"":7,""vc2"":6,""hc1"":8,""hc2"":8,""vi3"":6,""Robot"":6,""hi3"":1,""hi2"":4,""vi1"":4}","[13,16,3,8,15,5,0,11,12,14,9,10,6,7,2,1,4]"
"","","","","","survey-text","153","1023937","0.0-26.0","50","1","2022-11-27 09:54:18","7b1eb8be57ff77859c7d9ac988e43411","111.32.123.213","Mozilla/5.0 (Windows NT 6.1) AppleWebKit/537.36 (KHTML, like Gecko) Chrome/94.0.4606.71 Safari/537.36 Core/1.94.186.400 QQBrowser/11.3.5195.400","WebKit","Chrome","94.0.4606.71","Windows","6.1","39693","","{""Comments"":""实验很不错，很大程度的检验了我自己的一些想法，更全面了解我自己了""}",""
"","","","","","html-button-response","154","1025064","0.0-27.0","50","1","2022-11-27 09:54:18","7b1eb8be57ff77859c7d9ac988e43411","111.32.123.213","Mozilla/5.0 (Windows NT 6.1) AppleWebKit/537.36 (KHTML, like Gecko) Chrome/94.0.4606.71 Safari/537.36 Core/1.94.186.400 QQBrowser/11.3.5195.400","WebKit","Chrome","94.0.4606.71","Windows","6.1","1124","<strong><p>恭喜你完成了实验！</p><p>感谢您的参与。</p></strong>","0",""
