"success","timeout","failed_images","failed_audio","failed_video","trial_type","trial_index","time_elapsed","internal_node_id","run_id","condition","recorded_at","source_code_version","ip","user_agent","device","browser","browser_version","platform","platform_version","rt","stimulus","response","question_order"
"true","false","[]","[]","[]","preload","0","2423","0.0-0.0","52","1","2022-11-27 09:56:02","7b1eb8be57ff77859c7d9ac988e43411","36.5.62.19","Mozilla/5.0 (Windows NT 10.0; Win64; x64) AppleWebKit/537.36 (KHTML, like Gecko) Chrome/107.0.0.0 Safari/537.36 Edg/107.0.1418.56","WebKit","Edge","107.0.1418.56","Windows","10.0","","","",""
"true","","","","","fullscreen","1","6487","0.0-1.0","52","1","2022-11-27 09:56:02","7b1eb8be57ff77859c7d9ac988e43411","36.5.62.19","Mozilla/5.0 (Windows NT 10.0; Win64; x64) AppleWebKit/537.36 (KHTML, like Gecko) Chrome/107.0.0.0 Safari/537.36 Edg/107.0.1418.56","WebKit","Edge","107.0.1418.56","Windows","10.0","","","",""
"","","","","","html-button-response","2","18625","0.0-2.0","52","1","2022-11-27 09:56:02","7b1eb8be57ff77859c7d9ac988e43411","36.5.62.19","Mozilla/5.0 (Windows NT 10.0; Win64; x64) AppleWebKit/537.36 (KHTML, like Gecko) Chrome/107.0.0.0 Safari/537.36 Edg/107.0.1418.56","WebKit","Edge","107.0.1418.56","Windows","10.0","12137","<p style=""font-size:20px;font-weight:bold;"">实验知情同意书</p><p style=""text-align:left;""><strong>实验名称：</strong>社会冲突研究</p><p style=""text-align:left;""><strong>主要研究者：</strong>韩晓春副教授（北京师范大学心理学部）</p><p style=""text-align:left;""><strong>联系方式：</strong>发送邮件至xiaochun.han@bnu.edu.cn</p><p style=""text-align:left;""><strong>研究目的：</strong>研究旨在了解人类面对群体冲突时的决策方式，以及相关的心理学特质。实验调查大约需要20分钟。</p><p style=""text-align:left;""><strong>实验流程：</strong>实验包含两部分。第一部分呈现一系列群体冲突场景，请你决定如何对这些冲突进行反应，大约需要10分钟完成。第二部分包含一系列人口统计学信息收集和心理学问卷，大约需要10分钟完成。</p><p style=""text-align:left;""><strong>参加及退出规则：</strong>参加本实验完全取决于您的个人意愿。在参与过程中，您可以随时退出，并且不用承担任何后果。</p><p style=""text-align:left;""><strong>隐私：</strong>本实验完全匿名进行，不会收集您的姓名或其他能够识别您身份的信息。实验中收集的作答仅用作科学研究使用，可能会在学术期刊/书籍上发表，或者用于教学，您的数据未来可能会和其他研究者或实验室分享，但您的个人身份不会被识别。</p><p style=""text-align:left;""><strong>实验报酬：</strong>实验完成后，您将获得15元人民币报酬，以感谢您的时间和努力。调查问卷中包含几道题目用以测验您作答时的认真度。只有完成全部实验，并且正确回答认真度测验的被试才能获得实验报酬。实验报酬将通过支付宝转账发放。</p><p style=""text-align:left;font-size:20px;""><strong>如果您同意以上实验知情同意书的内容，请点击'同意并且开始实验'按钮；否则请关闭浏览器界面，退出实验。</strong></p>","0",""
"","","","","","html-button-response","3","30084","0.0-3.0","52","1","2022-11-27 09:56:02","7b1eb8be57ff77859c7d9ac988e43411","36.5.62.19","Mozilla/5.0 (Windows NT 10.0; Win64; x64) AppleWebKit/537.36 (KHTML, like Gecko) Chrome/107.0.0.0 Safari/537.36 Edg/107.0.1418.56","WebKit","Edge","107.0.1418.56","Windows","10.0","11457","<p ><strong>实验任务一：</strong></p><p>请想象你的国家与另一个国家发生了军事冲突。</p><p>你是国家军队的指挥官，你将如何在冲突中进行决策。</p><p>具体来说，作为军队指挥官，请你决定是否发射导弹进行打击。</p><p>接下来，你会面对一系列场景，请仔细阅读每个场景，然后进行决策。</p><p>这部分实验任务大约需要10分钟。</p><p><strong>实验过程中，请集中注意力。</strong></p>","0",""
"","","","","","html-keyboard-response","4","31087","0.0-4.0-0.0","52","1","2022-11-27 09:56:02","7b1eb8be57ff77859c7d9ac988e43411","36.5.62.19","Mozilla/5.0 (Windows NT 10.0; Win64; x64) AppleWebKit/537.36 (KHTML, like Gecko) Chrome/107.0.0.0 Safari/537.36 Edg/107.0.1418.56","WebKit","Edge","107.0.1418.56","Windows","10.0","null","<div style=""font-size:60px;"">+</div>","null",""
"","","","","","html-button-response","5","43213","0.0-4.0-1.0","52","1","2022-11-27 09:56:02","7b1eb8be57ff77859c7d9ac988e43411","36.5.62.19","Mozilla/5.0 (Windows NT 10.0; Win64; x64) AppleWebKit/537.36 (KHTML, like Gecko) Chrome/107.0.0.0 Safari/537.36 Edg/107.0.1418.56","WebKit","Edge","107.0.1418.56","Windows","10.0","12124","<p>作为军队的指挥官，你可以选择发射导弹杀死 <strong>9名</strong> 敌国士兵，但会误杀附近的 <strong>1名</strong> 敌国平民。</p> <p>平民照片如下图所示。</p> <p></p> <img src='stimuli/faces/PCF3.jpg', style='max-width: 30%;'> </img> <p><strong>你是否选择发射武器？</strong></p>","0",""
"","","","","","html-keyboard-response","6","44231","0.0-4.0-0.1","52","1","2022-11-27 09:56:02","7b1eb8be57ff77859c7d9ac988e43411","36.5.62.19","Mozilla/5.0 (Windows NT 10.0; Win64; x64) AppleWebKit/537.36 (KHTML, like Gecko) Chrome/107.0.0.0 Safari/537.36 Edg/107.0.1418.56","WebKit","Edge","107.0.1418.56","Windows","10.0","null","<div style=""font-size:60px;"">+</div>","null",""
"","","","","","html-button-response","7","50325","0.0-4.0-1.1","52","1","2022-11-27 09:56:02","7b1eb8be57ff77859c7d9ac988e43411","36.5.62.19","Mozilla/5.0 (Windows NT 10.0; Win64; x64) AppleWebKit/537.36 (KHTML, like Gecko) Chrome/107.0.0.0 Safari/537.36 Edg/107.0.1418.56","WebKit","Edge","107.0.1418.56","Windows","10.0","6092","<p>作为军队的指挥官，你可以选择发射导弹杀死 <strong>9名</strong> 敌国士兵，但会误杀附近的 <strong>1名</strong> 敌国平民。</p> <p>平民照片如下图所示。</p> <p></p> <img src='stimuli/faces/PCM2.jpg', style='max-width: 30%;'> </img> <p><strong>你是否选择发射武器？</strong></p>","0",""
"","","","","","html-keyboard-response","8","51330","0.0-4.0-0.2","52","1","2022-11-27 09:56:02","7b1eb8be57ff77859c7d9ac988e43411","36.5.62.19","Mozilla/5.0 (Windows NT 10.0; Win64; x64) AppleWebKit/537.36 (KHTML, like Gecko) Chrome/107.0.0.0 Safari/537.36 Edg/107.0.1418.56","WebKit","Edge","107.0.1418.56","Windows","10.0","null","<div style=""font-size:60px;"">+</div>","null",""
"","","","","","html-button-response","9","53351","0.0-4.0-1.2","52","1","2022-11-27 09:56:02","7b1eb8be57ff77859c7d9ac988e43411","36.5.62.19","Mozilla/5.0 (Windows NT 10.0; Win64; x64) AppleWebKit/537.36 (KHTML, like Gecko) Chrome/107.0.0.0 Safari/537.36 Edg/107.0.1418.56","WebKit","Edge","107.0.1418.56","Windows","10.0","2019","<p>作为军队的指挥官，你可以选择发射导弹杀死 <strong>4名</strong> 敌国士兵，但会炸毁附近的 <strong>1棵</strong> 敌国树木。</p> <p>树木的照片如下图所示。</p> <p></p> <img src='stimuli/trees/6.png', style='max-width: 30%;'> </img> <p><strong>你是否选择发射武器？</strong></p>","1",""
"","","","","","html-keyboard-response","10","54353","0.0-4.0-0.3","52","1","2022-11-27 09:56:02","7b1eb8be57ff77859c7d9ac988e43411","36.5.62.19","Mozilla/5.0 (Windows NT 10.0; Win64; x64) AppleWebKit/537.36 (KHTML, like Gecko) Chrome/107.0.0.0 Safari/537.36 Edg/107.0.1418.56","WebKit","Edge","107.0.1418.56","Windows","10.0","null","<div style=""font-size:60px;"">+</div>","null",""
"","","","","","html-button-response","11","55730","0.0-4.0-1.3","52","1","2022-11-27 09:56:02","7b1eb8be57ff77859c7d9ac988e43411","36.5.62.19","Mozilla/5.0 (Windows NT 10.0; Win64; x64) AppleWebKit/537.36 (KHTML, like Gecko) Chrome/107.0.0.0 Safari/537.36 Edg/107.0.1418.56","WebKit","Edge","107.0.1418.56","Windows","10.0","1374","<p>作为军队的指挥官，你可以选择发射导弹杀死 <strong>7名</strong> 敌国士兵，但会误杀附近的 <strong>1名</strong> 敌国平民。</p> <p>平民照片如下图所示。</p> <p></p> <img src='stimuli/faces/PCM1.jpg', style='max-width: 30%;'> </img> <p><strong>你是否选择发射武器？</strong></p>","0",""
"","","","","","html-keyboard-response","12","56736","0.0-4.0-0.4","52","1","2022-11-27 09:56:02","7b1eb8be57ff77859c7d9ac988e43411","36.5.62.19","Mozilla/5.0 (Windows NT 10.0; Win64; x64) AppleWebKit/537.36 (KHTML, like Gecko) Chrome/107.0.0.0 Safari/537.36 Edg/107.0.1418.56","WebKit","Edge","107.0.1418.56","Windows","10.0","null","<div style=""font-size:60px;"">+</div>","null",""
"","","","","","html-button-response","13","57624","0.0-4.0-1.4","52","1","2022-11-27 09:56:02","7b1eb8be57ff77859c7d9ac988e43411","36.5.62.19","Mozilla/5.0 (Windows NT 10.0; Win64; x64) AppleWebKit/537.36 (KHTML, like Gecko) Chrome/107.0.0.0 Safari/537.36 Edg/107.0.1418.56","WebKit","Edge","107.0.1418.56","Windows","10.0","886","<p>作为军队的指挥官，你可以选择发射导弹杀死 <strong>6名</strong> 敌国士兵，但会炸毁附近的 <strong>1棵</strong> 敌国树木。</p> <p>树木的照片如下图所示。</p> <p></p> <img src='stimuli/trees/3.png', style='max-width: 30%;'> </img> <p><strong>你是否选择发射武器？</strong></p>","1",""
"","","","","","html-keyboard-response","14","58631","0.0-4.0-0.5","52","1","2022-11-27 09:56:02","7b1eb8be57ff77859c7d9ac988e43411","36.5.62.19","Mozilla/5.0 (Windows NT 10.0; Win64; x64) AppleWebKit/537.36 (KHTML, like Gecko) Chrome/107.0.0.0 Safari/537.36 Edg/107.0.1418.56","WebKit","Edge","107.0.1418.56","Windows","10.0","null","<div style=""font-size:60px;"">+</div>","null",""
"","","","","","html-button-response","15","59502","0.0-4.0-1.5","52","1","2022-11-27 09:56:02","7b1eb8be57ff77859c7d9ac988e43411","36.5.62.19","Mozilla/5.0 (Windows NT 10.0; Win64; x64) AppleWebKit/537.36 (KHTML, like Gecko) Chrome/107.0.0.0 Safari/537.36 Edg/107.0.1418.56","WebKit","Edge","107.0.1418.56","Windows","10.0","869","<p>作为军队的指挥官，你可以选择发射导弹杀死 <strong>9名</strong> 敌国士兵，但会误杀附近的 <strong>1名</strong> 敌国平民。</p> <p>平民照片如下图所示。</p> <p></p> <img src='stimuli/faces/PCM5.jpg', style='max-width: 30%;'> </img> <p><strong>你是否选择发射武器？</strong></p>","0",""
"","","","","","html-keyboard-response","16","60504","0.0-4.0-0.6","52","1","2022-11-27 09:56:02","7b1eb8be57ff77859c7d9ac988e43411","36.5.62.19","Mozilla/5.0 (Windows NT 10.0; Win64; x64) AppleWebKit/537.36 (KHTML, like Gecko) Chrome/107.0.0.0 Safari/537.36 Edg/107.0.1418.56","WebKit","Edge","107.0.1418.56","Windows","10.0","null","<div style=""font-size:60px;"">+</div>","null",""
"","","","","","html-button-response","17","61375","0.0-4.0-1.6","52","1","2022-11-27 09:56:02","7b1eb8be57ff77859c7d9ac988e43411","36.5.62.19","Mozilla/5.0 (Windows NT 10.0; Win64; x64) AppleWebKit/537.36 (KHTML, like Gecko) Chrome/107.0.0.0 Safari/537.36 Edg/107.0.1418.56","WebKit","Edge","107.0.1418.56","Windows","10.0","870","<p>作为军队的指挥官，你可以选择发射导弹杀死 <strong>8名</strong> 敌国士兵，但会炸毁附近的 <strong>1棵</strong> 敌国树木。</p> <p>树木的照片如下图所示。</p> <p></p> <img src='stimuli/trees/15.png', style='max-width: 30%;'> </img> <p><strong>你是否选择发射武器？</strong></p>","0",""
"","","","","","html-keyboard-response","18","62383","0.0-4.0-0.7","52","1","2022-11-27 09:56:02","7b1eb8be57ff77859c7d9ac988e43411","36.5.62.19","Mozilla/5.0 (Windows NT 10.0; Win64; x64) AppleWebKit/537.36 (KHTML, like Gecko) Chrome/107.0.0.0 Safari/537.36 Edg/107.0.1418.56","WebKit","Edge","107.0.1418.56","Windows","10.0","null","<div style=""font-size:60px;"">+</div>","null",""
"","","","","","html-button-response","19","63444","0.0-4.0-1.7","52","1","2022-11-27 09:56:02","7b1eb8be57ff77859c7d9ac988e43411","36.5.62.19","Mozilla/5.0 (Windows NT 10.0; Win64; x64) AppleWebKit/537.36 (KHTML, like Gecko) Chrome/107.0.0.0 Safari/537.36 Edg/107.0.1418.56","WebKit","Edge","107.0.1418.56","Windows","10.0","1060","<p>作为军队的指挥官，你可以选择发射导弹杀死 <strong>8名</strong> 敌国士兵，但会炸毁附近的 <strong>1棵</strong> 敌国树木。</p> <p>树木的照片如下图所示。</p> <p></p> <img src='stimuli/trees/5.png', style='max-width: 30%;'> </img> <p><strong>你是否选择发射武器？</strong></p>","1",""
"","","","","","html-keyboard-response","20","64447","0.0-4.0-0.8","52","1","2022-11-27 09:56:02","7b1eb8be57ff77859c7d9ac988e43411","36.5.62.19","Mozilla/5.0 (Windows NT 10.0; Win64; x64) AppleWebKit/537.36 (KHTML, like Gecko) Chrome/107.0.0.0 Safari/537.36 Edg/107.0.1418.56","WebKit","Edge","107.0.1418.56","Windows","10.0","null","<div style=""font-size:60px;"">+</div>","null",""
"","","","","","html-button-response","21","65433","0.0-4.0-1.8","52","1","2022-11-27 09:56:02","7b1eb8be57ff77859c7d9ac988e43411","36.5.62.19","Mozilla/5.0 (Windows NT 10.0; Win64; x64) AppleWebKit/537.36 (KHTML, like Gecko) Chrome/107.0.0.0 Safari/537.36 Edg/107.0.1418.56","WebKit","Edge","107.0.1418.56","Windows","10.0","985","<p>作为军队的指挥官，你可以选择发射导弹杀死 <strong>8名</strong> 敌国士兵，但会炸毁附近的 <strong>1棵</strong> 敌国树木。</p> <p>树木的照片如下图所示。</p> <p></p> <img src='stimuli/trees/7.png', style='max-width: 30%;'> </img> <p><strong>你是否选择发射武器？</strong></p>","0",""
"","","","","","html-keyboard-response","22","66442","0.0-4.0-0.9","52","1","2022-11-27 09:56:02","7b1eb8be57ff77859c7d9ac988e43411","36.5.62.19","Mozilla/5.0 (Windows NT 10.0; Win64; x64) AppleWebKit/537.36 (KHTML, like Gecko) Chrome/107.0.0.0 Safari/537.36 Edg/107.0.1418.56","WebKit","Edge","107.0.1418.56","Windows","10.0","null","<div style=""font-size:60px;"">+</div>","null",""
"","","","","","html-button-response","23","68394","0.0-4.0-1.9","52","1","2022-11-27 09:56:02","7b1eb8be57ff77859c7d9ac988e43411","36.5.62.19","Mozilla/5.0 (Windows NT 10.0; Win64; x64) AppleWebKit/537.36 (KHTML, like Gecko) Chrome/107.0.0.0 Safari/537.36 Edg/107.0.1418.56","WebKit","Edge","107.0.1418.56","Windows","10.0","1950","<p>作为军队的指挥官，你可以选择发射导弹杀死 <strong>10名</strong> 敌国士兵，但会炸毁附近的 <strong>1棵</strong> 敌国树木。</p> <p>树木的照片如下图所示。</p> <p></p> <img src='stimuli/trees/14.png', style='max-width: 30%;'> </img> <p><strong>你是否选择发射武器？</strong></p>","1",""
"","","","","","html-keyboard-response","24","69399","0.0-4.0-0.10","52","1","2022-11-27 09:56:02","7b1eb8be57ff77859c7d9ac988e43411","36.5.62.19","Mozilla/5.0 (Windows NT 10.0; Win64; x64) AppleWebKit/537.36 (KHTML, like Gecko) Chrome/107.0.0.0 Safari/537.36 Edg/107.0.1418.56","WebKit","Edge","107.0.1418.56","Windows","10.0","null","<div style=""font-size:60px;"">+</div>","null",""
"","","","","","html-button-response","25","70421","0.0-4.0-1.10","52","1","2022-11-27 09:56:02","7b1eb8be57ff77859c7d9ac988e43411","36.5.62.19","Mozilla/5.0 (Windows NT 10.0; Win64; x64) AppleWebKit/537.36 (KHTML, like Gecko) Chrome/107.0.0.0 Safari/537.36 Edg/107.0.1418.56","WebKit","Edge","107.0.1418.56","Windows","10.0","1020","<p>作为军队的指挥官，你可以选择发射导弹杀死 <strong>10名</strong> 敌国士兵，但会炸毁附近的 <strong>1棵</strong> 敌国树木。</p> <p>树木的照片如下图所示。</p> <p></p> <img src='stimuli/trees/8.png', style='max-width: 30%;'> </img> <p><strong>你是否选择发射武器？</strong></p>","0",""
"","","","","","html-keyboard-response","26","71423","0.0-4.0-0.11","52","1","2022-11-27 09:56:02","7b1eb8be57ff77859c7d9ac988e43411","36.5.62.19","Mozilla/5.0 (Windows NT 10.0; Win64; x64) AppleWebKit/537.36 (KHTML, like Gecko) Chrome/107.0.0.0 Safari/537.36 Edg/107.0.1418.56","WebKit","Edge","107.0.1418.56","Windows","10.0","null","<div style=""font-size:60px;"">+</div>","null",""
"","","","","","html-button-response","27","73971","0.0-4.0-1.11","52","1","2022-11-27 09:56:02","7b1eb8be57ff77859c7d9ac988e43411","36.5.62.19","Mozilla/5.0 (Windows NT 10.0; Win64; x64) AppleWebKit/537.36 (KHTML, like Gecko) Chrome/107.0.0.0 Safari/537.36 Edg/107.0.1418.56","WebKit","Edge","107.0.1418.56","Windows","10.0","2545","<p>作为军队的指挥官，你可以选择发射导弹杀死 <strong>3名</strong> 敌国士兵，但会炸毁附近的 <strong>1棵</strong> 敌国树木。</p> <p>树木的照片如下图所示。</p> <p></p> <img src='stimuli/trees/1.png', style='max-width: 30%;'> </img> <p><strong>你是否选择发射武器？</strong></p>","0",""
"","","","","","html-keyboard-response","28","74976","0.0-4.0-0.12","52","1","2022-11-27 09:56:02","7b1eb8be57ff77859c7d9ac988e43411","36.5.62.19","Mozilla/5.0 (Windows NT 10.0; Win64; x64) AppleWebKit/537.36 (KHTML, like Gecko) Chrome/107.0.0.0 Safari/537.36 Edg/107.0.1418.56","WebKit","Edge","107.0.1418.56","Windows","10.0","null","<div style=""font-size:60px;"">+</div>","null",""
"","","","","","html-button-response","29","75906","0.0-4.0-1.12","52","1","2022-11-27 09:56:02","7b1eb8be57ff77859c7d9ac988e43411","36.5.62.19","Mozilla/5.0 (Windows NT 10.0; Win64; x64) AppleWebKit/537.36 (KHTML, like Gecko) Chrome/107.0.0.0 Safari/537.36 Edg/107.0.1418.56","WebKit","Edge","107.0.1418.56","Windows","10.0","927","<p>作为军队的指挥官，你可以选择发射导弹杀死 <strong>1名</strong> 敌国士兵，但会炸毁附近的 <strong>1棵</strong> 敌国树木。</p> <p>树木的照片如下图所示。</p> <p></p> <img src='stimuli/trees/15.png', style='max-width: 30%;'> </img> <p><strong>你是否选择发射武器？</strong></p>","1",""
"","","","","","html-keyboard-response","30","76912","0.0-4.0-0.13","52","1","2022-11-27 09:56:02","7b1eb8be57ff77859c7d9ac988e43411","36.5.62.19","Mozilla/5.0 (Windows NT 10.0; Win64; x64) AppleWebKit/537.36 (KHTML, like Gecko) Chrome/107.0.0.0 Safari/537.36 Edg/107.0.1418.56","WebKit","Edge","107.0.1418.56","Windows","10.0","null","<div style=""font-size:60px;"">+</div>","null",""
"","","","","","html-button-response","31","83495","0.0-4.0-1.13","52","1","2022-11-27 09:56:02","7b1eb8be57ff77859c7d9ac988e43411","36.5.62.19","Mozilla/5.0 (Windows NT 10.0; Win64; x64) AppleWebKit/537.36 (KHTML, like Gecko) Chrome/107.0.0.0 Safari/537.36 Edg/107.0.1418.56","WebKit","Edge","107.0.1418.56","Windows","10.0","6581","<p>作为军队的指挥官，你可以选择发射导弹杀死 <strong>3名</strong> 敌国士兵，但会误杀附近的 <strong>1名</strong> 敌国平民。</p> <p>平民照片如下图所示。</p> <p></p> <img src='stimuli/faces/PCM3.jpg', style='max-width: 30%;'> </img> <p><strong>你是否选择发射武器？</strong></p>","0",""
"","","","","","html-keyboard-response","32","84516","0.0-4.0-0.14","52","1","2022-11-27 09:56:02","7b1eb8be57ff77859c7d9ac988e43411","36.5.62.19","Mozilla/5.0 (Windows NT 10.0; Win64; x64) AppleWebKit/537.36 (KHTML, like Gecko) Chrome/107.0.0.0 Safari/537.36 Edg/107.0.1418.56","WebKit","Edge","107.0.1418.56","Windows","10.0","null","<div style=""font-size:60px;"">+</div>","null",""
"","","","","","html-button-response","33","85175","0.0-4.0-1.14","52","1","2022-11-27 09:56:02","7b1eb8be57ff77859c7d9ac988e43411","36.5.62.19","Mozilla/5.0 (Windows NT 10.0; Win64; x64) AppleWebKit/537.36 (KHTML, like Gecko) Chrome/107.0.0.0 Safari/537.36 Edg/107.0.1418.56","WebKit","Edge","107.0.1418.56","Windows","10.0","656","<p>作为军队的指挥官，你可以选择发射导弹杀死 <strong>9名</strong> 敌国士兵，但会误杀附近的 <strong>1名</strong> 敌国平民。</p> <p>平民照片如下图所示。</p> <p></p> <img src='stimuli/faces/PCF5.jpg', style='max-width: 30%;'> </img> <p><strong>你是否选择发射武器？</strong></p>","0",""
"","","","","","html-keyboard-response","34","86191","0.0-4.0-0.15","52","1","2022-11-27 09:56:02","7b1eb8be57ff77859c7d9ac988e43411","36.5.62.19","Mozilla/5.0 (Windows NT 10.0; Win64; x64) AppleWebKit/537.36 (KHTML, like Gecko) Chrome/107.0.0.0 Safari/537.36 Edg/107.0.1418.56","WebKit","Edge","107.0.1418.56","Windows","10.0","null","<div style=""font-size:60px;"">+</div>","null",""
"","","","","","html-button-response","35","86850","0.0-4.0-1.15","52","1","2022-11-27 09:56:02","7b1eb8be57ff77859c7d9ac988e43411","36.5.62.19","Mozilla/5.0 (Windows NT 10.0; Win64; x64) AppleWebKit/537.36 (KHTML, like Gecko) Chrome/107.0.0.0 Safari/537.36 Edg/107.0.1418.56","WebKit","Edge","107.0.1418.56","Windows","10.0","657","<p>作为军队的指挥官，你可以选择发射导弹杀死 <strong>10名</strong> 敌国士兵，但会炸毁附近的 <strong>1棵</strong> 敌国树木。</p> <p>树木的照片如下图所示。</p> <p></p> <img src='stimuli/trees/9.png', style='max-width: 30%;'> </img> <p><strong>你是否选择发射武器？</strong></p>","0",""
"","","","","","html-keyboard-response","36","87855","0.0-4.0-0.16","52","1","2022-11-27 09:56:02","7b1eb8be57ff77859c7d9ac988e43411","36.5.62.19","Mozilla/5.0 (Windows NT 10.0; Win64; x64) AppleWebKit/537.36 (KHTML, like Gecko) Chrome/107.0.0.0 Safari/537.36 Edg/107.0.1418.56","WebKit","Edge","107.0.1418.56","Windows","10.0","null","<div style=""font-size:60px;"">+</div>","null",""
"","","","","","html-button-response","37","88470","0.0-4.0-1.16","52","1","2022-11-27 09:56:02","7b1eb8be57ff77859c7d9ac988e43411","36.5.62.19","Mozilla/5.0 (Windows NT 10.0; Win64; x64) AppleWebKit/537.36 (KHTML, like Gecko) Chrome/107.0.0.0 Safari/537.36 Edg/107.0.1418.56","WebKit","Edge","107.0.1418.56","Windows","10.0","612","<p>作为军队的指挥官，你可以选择发射导弹杀死 <strong>5名</strong> 敌国士兵，但会炸毁附近的 <strong>1棵</strong> 敌国树木。</p> <p>树木的照片如下图所示。</p> <p></p> <img src='stimuli/trees/5.png', style='max-width: 30%;'> </img> <p><strong>你是否选择发射武器？</strong></p>","0",""
"","","","","","html-keyboard-response","38","89476","0.0-4.0-0.17","52","1","2022-11-27 09:56:02","7b1eb8be57ff77859c7d9ac988e43411","36.5.62.19","Mozilla/5.0 (Windows NT 10.0; Win64; x64) AppleWebKit/537.36 (KHTML, like Gecko) Chrome/107.0.0.0 Safari/537.36 Edg/107.0.1418.56","WebKit","Edge","107.0.1418.56","Windows","10.0","null","<div style=""font-size:60px;"">+</div>","null",""
"","","","","","html-button-response","39","91186","0.0-4.0-1.17","52","1","2022-11-27 09:56:02","7b1eb8be57ff77859c7d9ac988e43411","36.5.62.19","Mozilla/5.0 (Windows NT 10.0; Win64; x64) AppleWebKit/537.36 (KHTML, like Gecko) Chrome/107.0.0.0 Safari/537.36 Edg/107.0.1418.56","WebKit","Edge","107.0.1418.56","Windows","10.0","1708","<p>作为军队的指挥官，你可以选择发射导弹杀死 <strong>8名</strong> 敌国士兵，但会炸毁附近的 <strong>1棵</strong> 敌国树木。</p> <p>树木的照片如下图所示。</p> <p></p> <img src='stimuli/trees/1.png', style='max-width: 30%;'> </img> <p><strong>你是否选择发射武器？</strong></p>","1",""
"","","","","","html-keyboard-response","40","92192","0.0-4.0-0.18","52","1","2022-11-27 09:56:02","7b1eb8be57ff77859c7d9ac988e43411","36.5.62.19","Mozilla/5.0 (Windows NT 10.0; Win64; x64) AppleWebKit/537.36 (KHTML, like Gecko) Chrome/107.0.0.0 Safari/537.36 Edg/107.0.1418.56","WebKit","Edge","107.0.1418.56","Windows","10.0","null","<div style=""font-size:60px;"">+</div>","null",""
"","","","","","html-button-response","41","93905","0.0-4.0-1.18","52","1","2022-11-27 09:56:02","7b1eb8be57ff77859c7d9ac988e43411","36.5.62.19","Mozilla/5.0 (Windows NT 10.0; Win64; x64) AppleWebKit/537.36 (KHTML, like Gecko) Chrome/107.0.0.0 Safari/537.36 Edg/107.0.1418.56","WebKit","Edge","107.0.1418.56","Windows","10.0","1711","<p>作为军队的指挥官，你可以选择发射导弹杀死 <strong>2名</strong> 敌国士兵，但会误杀附近的 <strong>1名</strong> 敌国平民。</p> <p>平民照片如下图所示。</p> <p></p> <img src='stimuli/faces/PCF5.jpg', style='max-width: 30%;'> </img> <p><strong>你是否选择发射武器？</strong></p>","0",""
"","","","","","html-keyboard-response","42","94927","0.0-4.0-0.19","52","1","2022-11-27 09:56:02","7b1eb8be57ff77859c7d9ac988e43411","36.5.62.19","Mozilla/5.0 (Windows NT 10.0; Win64; x64) AppleWebKit/537.36 (KHTML, like Gecko) Chrome/107.0.0.0 Safari/537.36 Edg/107.0.1418.56","WebKit","Edge","107.0.1418.56","Windows","10.0","null","<div style=""font-size:60px;"">+</div>","null",""
"","","","","","html-button-response","43","95473","0.0-4.0-1.19","52","1","2022-11-27 09:56:02","7b1eb8be57ff77859c7d9ac988e43411","36.5.62.19","Mozilla/5.0 (Windows NT 10.0; Win64; x64) AppleWebKit/537.36 (KHTML, like Gecko) Chrome/107.0.0.0 Safari/537.36 Edg/107.0.1418.56","WebKit","Edge","107.0.1418.56","Windows","10.0","544","<p>作为军队的指挥官，你可以选择发射导弹杀死 <strong>3名</strong> 敌国士兵，但会误杀附近的 <strong>1名</strong> 敌国平民。</p> <p>平民照片如下图所示。</p> <p></p> <img src='stimuli/faces/PCF7.jpg', style='max-width: 30%;'> </img> <p><strong>你是否选择发射武器？</strong></p>","0",""
"","","","","","html-keyboard-response","44","96492","0.0-4.0-0.20","52","1","2022-11-27 09:56:02","7b1eb8be57ff77859c7d9ac988e43411","36.5.62.19","Mozilla/5.0 (Windows NT 10.0; Win64; x64) AppleWebKit/537.36 (KHTML, like Gecko) Chrome/107.0.0.0 Safari/537.36 Edg/107.0.1418.56","WebKit","Edge","107.0.1418.56","Windows","10.0","null","<div style=""font-size:60px;"">+</div>","null",""
"","","","","","html-button-response","45","97040","0.0-4.0-1.20","52","1","2022-11-27 09:56:02","7b1eb8be57ff77859c7d9ac988e43411","36.5.62.19","Mozilla/5.0 (Windows NT 10.0; Win64; x64) AppleWebKit/537.36 (KHTML, like Gecko) Chrome/107.0.0.0 Safari/537.36 Edg/107.0.1418.56","WebKit","Edge","107.0.1418.56","Windows","10.0","545","<p>作为军队的指挥官，你可以选择发射导弹杀死 <strong>4名</strong> 敌国士兵，但会炸毁附近的 <strong>1棵</strong> 敌国树木。</p> <p>树木的照片如下图所示。</p> <p></p> <img src='stimuli/trees/4.png', style='max-width: 30%;'> </img> <p><strong>你是否选择发射武器？</strong></p>","0",""
"","","","","","html-keyboard-response","46","98047","0.0-4.0-0.21","52","1","2022-11-27 09:56:02","7b1eb8be57ff77859c7d9ac988e43411","36.5.62.19","Mozilla/5.0 (Windows NT 10.0; Win64; x64) AppleWebKit/537.36 (KHTML, like Gecko) Chrome/107.0.0.0 Safari/537.36 Edg/107.0.1418.56","WebKit","Edge","107.0.1418.56","Windows","10.0","null","<div style=""font-size:60px;"">+</div>","null",""
"","","","","","html-button-response","47","98594","0.0-4.0-1.21","52","1","2022-11-27 09:56:02","7b1eb8be57ff77859c7d9ac988e43411","36.5.62.19","Mozilla/5.0 (Windows NT 10.0; Win64; x64) AppleWebKit/537.36 (KHTML, like Gecko) Chrome/107.0.0.0 Safari/537.36 Edg/107.0.1418.56","WebKit","Edge","107.0.1418.56","Windows","10.0","545","<p>作为军队的指挥官，你可以选择发射导弹杀死 <strong>8名</strong> 敌国士兵，但会炸毁附近的 <strong>1棵</strong> 敌国树木。</p> <p>树木的照片如下图所示。</p> <p></p> <img src='stimuli/trees/2.png', style='max-width: 30%;'> </img> <p><strong>你是否选择发射武器？</strong></p>","1",""
"","","","","","html-keyboard-response","48","99613","0.0-4.0-0.22","52","1","2022-11-27 09:56:02","7b1eb8be57ff77859c7d9ac988e43411","36.5.62.19","Mozilla/5.0 (Windows NT 10.0; Win64; x64) AppleWebKit/537.36 (KHTML, like Gecko) Chrome/107.0.0.0 Safari/537.36 Edg/107.0.1418.56","WebKit","Edge","107.0.1418.56","Windows","10.0","null","<div style=""font-size:60px;"">+</div>","null",""
"","","","","","html-button-response","49","100190","0.0-4.0-1.22","52","1","2022-11-27 09:56:02","7b1eb8be57ff77859c7d9ac988e43411","36.5.62.19","Mozilla/5.0 (Windows NT 10.0; Win64; x64) AppleWebKit/537.36 (KHTML, like Gecko) Chrome/107.0.0.0 Safari/537.36 Edg/107.0.1418.56","WebKit","Edge","107.0.1418.56","Windows","10.0","574","<p>作为军队的指挥官，你可以选择发射导弹杀死 <strong>2名</strong> 敌国士兵，但会误杀附近的 <strong>1名</strong> 敌国平民。</p> <p>平民照片如下图所示。</p> <p></p> <img src='stimuli/faces/PCF3.jpg', style='max-width: 30%;'> </img> <p><strong>你是否选择发射武器？</strong></p>","0",""
"","","","","","html-keyboard-response","50","101213","0.0-4.0-0.23","52","1","2022-11-27 09:56:02","7b1eb8be57ff77859c7d9ac988e43411","36.5.62.19","Mozilla/5.0 (Windows NT 10.0; Win64; x64) AppleWebKit/537.36 (KHTML, like Gecko) Chrome/107.0.0.0 Safari/537.36 Edg/107.0.1418.56","WebKit","Edge","107.0.1418.56","Windows","10.0","null","<div style=""font-size:60px;"">+</div>","null",""
"","","","","","html-button-response","51","101761","0.0-4.0-1.23","52","1","2022-11-27 09:56:02","7b1eb8be57ff77859c7d9ac988e43411","36.5.62.19","Mozilla/5.0 (Windows NT 10.0; Win64; x64) AppleWebKit/537.36 (KHTML, like Gecko) Chrome/107.0.0.0 Safari/537.36 Edg/107.0.1418.56","WebKit","Edge","107.0.1418.56","Windows","10.0","545","<p>作为军队的指挥官，你可以选择发射导弹杀死 <strong>10名</strong> 敌国士兵，但会误杀附近的 <strong>1名</strong> 敌国平民。</p> <p>平民照片如下图所示。</p> <p></p> <img src='stimuli/faces/PCF7.jpg', style='max-width: 30%;'> </img> <p><strong>你是否选择发射武器？</strong></p>","1",""
"","","","","","html-keyboard-response","52","102781","0.0-4.0-0.24","52","1","2022-11-27 09:56:02","7b1eb8be57ff77859c7d9ac988e43411","36.5.62.19","Mozilla/5.0 (Windows NT 10.0; Win64; x64) AppleWebKit/537.36 (KHTML, like Gecko) Chrome/107.0.0.0 Safari/537.36 Edg/107.0.1418.56","WebKit","Edge","107.0.1418.56","Windows","10.0","null","<div style=""font-size:60px;"">+</div>","null",""
"","","","","","html-button-response","53","103317","0.0-4.0-1.24","52","1","2022-11-27 09:56:02","7b1eb8be57ff77859c7d9ac988e43411","36.5.62.19","Mozilla/5.0 (Windows NT 10.0; Win64; x64) AppleWebKit/537.36 (KHTML, like Gecko) Chrome/107.0.0.0 Safari/537.36 Edg/107.0.1418.56","WebKit","Edge","107.0.1418.56","Windows","10.0","533","<p>作为军队的指挥官，你可以选择发射导弹杀死 <strong>3名</strong> 敌国士兵，但会误杀附近的 <strong>1名</strong> 敌国平民。</p> <p>平民照片如下图所示。</p> <p></p> <img src='stimuli/faces/PCM2.jpg', style='max-width: 30%;'> </img> <p><strong>你是否选择发射武器？</strong></p>","0",""
"","","","","","html-keyboard-response","54","104320","0.0-4.0-0.25","52","1","2022-11-27 09:56:02","7b1eb8be57ff77859c7d9ac988e43411","36.5.62.19","Mozilla/5.0 (Windows NT 10.0; Win64; x64) AppleWebKit/537.36 (KHTML, like Gecko) Chrome/107.0.0.0 Safari/537.36 Edg/107.0.1418.56","WebKit","Edge","107.0.1418.56","Windows","10.0","null","<div style=""font-size:60px;"">+</div>","null",""
"","","","","","html-button-response","55","104906","0.0-4.0-1.25","52","1","2022-11-27 09:56:02","7b1eb8be57ff77859c7d9ac988e43411","36.5.62.19","Mozilla/5.0 (Windows NT 10.0; Win64; x64) AppleWebKit/537.36 (KHTML, like Gecko) Chrome/107.0.0.0 Safari/537.36 Edg/107.0.1418.56","WebKit","Edge","107.0.1418.56","Windows","10.0","584","<p>作为军队的指挥官，你可以选择发射导弹杀死 <strong>1名</strong> 敌国士兵，但会误杀附近的 <strong>1名</strong> 敌国平民。</p> <p>平民照片如下图所示。</p> <p></p> <img src='stimuli/faces/PCM4.jpg', style='max-width: 30%;'> </img> <p><strong>你是否选择发射武器？</strong></p>","1",""
"","","","","","html-keyboard-response","56","105926","0.0-4.0-0.26","52","1","2022-11-27 09:56:02","7b1eb8be57ff77859c7d9ac988e43411","36.5.62.19","Mozilla/5.0 (Windows NT 10.0; Win64; x64) AppleWebKit/537.36 (KHTML, like Gecko) Chrome/107.0.0.0 Safari/537.36 Edg/107.0.1418.56","WebKit","Edge","107.0.1418.56","Windows","10.0","null","<div style=""font-size:60px;"">+</div>","null",""
"","","","","","html-button-response","57","106453","0.0-4.0-1.26","52","1","2022-11-27 09:56:02","7b1eb8be57ff77859c7d9ac988e43411","36.5.62.19","Mozilla/5.0 (Windows NT 10.0; Win64; x64) AppleWebKit/537.36 (KHTML, like Gecko) Chrome/107.0.0.0 Safari/537.36 Edg/107.0.1418.56","WebKit","Edge","107.0.1418.56","Windows","10.0","525","<p>作为军队的指挥官，你可以选择发射导弹杀死 <strong>2名</strong> 敌国士兵，但会炸毁附近的 <strong>1棵</strong> 敌国树木。</p> <p>树木的照片如下图所示。</p> <p></p> <img src='stimuli/trees/9.png', style='max-width: 30%;'> </img> <p><strong>你是否选择发射武器？</strong></p>","0",""
"","","","","","html-keyboard-response","58","107461","0.0-4.0-0.27","52","1","2022-11-27 09:56:02","7b1eb8be57ff77859c7d9ac988e43411","36.5.62.19","Mozilla/5.0 (Windows NT 10.0; Win64; x64) AppleWebKit/537.36 (KHTML, like Gecko) Chrome/107.0.0.0 Safari/537.36 Edg/107.0.1418.56","WebKit","Edge","107.0.1418.56","Windows","10.0","null","<div style=""font-size:60px;"">+</div>","null",""
"","","","","","html-button-response","59","107964","0.0-4.0-1.27","52","1","2022-11-27 09:56:02","7b1eb8be57ff77859c7d9ac988e43411","36.5.62.19","Mozilla/5.0 (Windows NT 10.0; Win64; x64) AppleWebKit/537.36 (KHTML, like Gecko) Chrome/107.0.0.0 Safari/537.36 Edg/107.0.1418.56","WebKit","Edge","107.0.1418.56","Windows","10.0","501","<p>作为军队的指挥官，你可以选择发射导弹杀死 <strong>10名</strong> 敌国士兵，但会误杀附近的 <strong>1名</strong> 敌国平民。</p> <p>平民照片如下图所示。</p> <p></p> <img src='stimuli/faces/PCF8.jpg', style='max-width: 30%;'> </img> <p><strong>你是否选择发射武器？</strong></p>","0",""
"","","","","","html-keyboard-response","60","108983","0.0-4.0-0.28","52","1","2022-11-27 09:56:02","7b1eb8be57ff77859c7d9ac988e43411","36.5.62.19","Mozilla/5.0 (Windows NT 10.0; Win64; x64) AppleWebKit/537.36 (KHTML, like Gecko) Chrome/107.0.0.0 Safari/537.36 Edg/107.0.1418.56","WebKit","Edge","107.0.1418.56","Windows","10.0","null","<div style=""font-size:60px;"">+</div>","null",""
"","","","","","html-button-response","61","109544","0.0-4.0-1.28","52","1","2022-11-27 09:56:02","7b1eb8be57ff77859c7d9ac988e43411","36.5.62.19","Mozilla/5.0 (Windows NT 10.0; Win64; x64) AppleWebKit/537.36 (KHTML, like Gecko) Chrome/107.0.0.0 Safari/537.36 Edg/107.0.1418.56","WebKit","Edge","107.0.1418.56","Windows","10.0","559","<p>作为军队的指挥官，你可以选择发射导弹杀死 <strong>3名</strong> 敌国士兵，但会误杀附近的 <strong>1名</strong> 敌国平民。</p> <p>平民照片如下图所示。</p> <p></p> <img src='stimuli/faces/PCM7.jpg', style='max-width: 30%;'> </img> <p><strong>你是否选择发射武器？</strong></p>","1",""
"","","","","","html-keyboard-response","62","110562","0.0-4.0-0.29","52","1","2022-11-27 09:56:02","7b1eb8be57ff77859c7d9ac988e43411","36.5.62.19","Mozilla/5.0 (Windows NT 10.0; Win64; x64) AppleWebKit/537.36 (KHTML, like Gecko) Chrome/107.0.0.0 Safari/537.36 Edg/107.0.1418.56","WebKit","Edge","107.0.1418.56","Windows","10.0","null","<div style=""font-size:60px;"">+</div>","null",""
"","","","","","html-button-response","63","111125","0.0-4.0-1.29","52","1","2022-11-27 09:56:02","7b1eb8be57ff77859c7d9ac988e43411","36.5.62.19","Mozilla/5.0 (Windows NT 10.0; Win64; x64) AppleWebKit/537.36 (KHTML, like Gecko) Chrome/107.0.0.0 Safari/537.36 Edg/107.0.1418.56","WebKit","Edge","107.0.1418.56","Windows","10.0","560","<p>作为军队的指挥官，你可以选择发射导弹杀死 <strong>3名</strong> 敌国士兵，但会炸毁附近的 <strong>1棵</strong> 敌国树木。</p> <p>树木的照片如下图所示。</p> <p></p> <img src='stimuli/trees/13.png', style='max-width: 30%;'> </img> <p><strong>你是否选择发射武器？</strong></p>","1",""
"","","","","","html-keyboard-response","64","112146","0.0-4.0-0.30","52","1","2022-11-27 09:56:02","7b1eb8be57ff77859c7d9ac988e43411","36.5.62.19","Mozilla/5.0 (Windows NT 10.0; Win64; x64) AppleWebKit/537.36 (KHTML, like Gecko) Chrome/107.0.0.0 Safari/537.36 Edg/107.0.1418.56","WebKit","Edge","107.0.1418.56","Windows","10.0","null","<div style=""font-size:60px;"">+</div>","null",""
"","","","","","html-button-response","65","113048","0.0-4.0-1.30","52","1","2022-11-27 09:56:02","7b1eb8be57ff77859c7d9ac988e43411","36.5.62.19","Mozilla/5.0 (Windows NT 10.0; Win64; x64) AppleWebKit/537.36 (KHTML, like Gecko) Chrome/107.0.0.0 Safari/537.36 Edg/107.0.1418.56","WebKit","Edge","107.0.1418.56","Windows","10.0","900","<p>作为军队的指挥官，你可以选择发射导弹杀死 <strong>6名</strong> 敌国士兵，但会炸毁附近的 <strong>1棵</strong> 敌国树木。</p> <p>树木的照片如下图所示。</p> <p></p> <img src='stimuli/trees/11.png', style='max-width: 30%;'> </img> <p><strong>你是否选择发射武器？</strong></p>","0",""
"","","","","","html-keyboard-response","66","114069","0.0-4.0-0.31","52","1","2022-11-27 09:56:02","7b1eb8be57ff77859c7d9ac988e43411","36.5.62.19","Mozilla/5.0 (Windows NT 10.0; Win64; x64) AppleWebKit/537.36 (KHTML, like Gecko) Chrome/107.0.0.0 Safari/537.36 Edg/107.0.1418.56","WebKit","Edge","107.0.1418.56","Windows","10.0","null","<div style=""font-size:60px;"">+</div>","null",""
"","","","","","html-button-response","67","114587","0.0-4.0-1.31","52","1","2022-11-27 09:56:02","7b1eb8be57ff77859c7d9ac988e43411","36.5.62.19","Mozilla/5.0 (Windows NT 10.0; Win64; x64) AppleWebKit/537.36 (KHTML, like Gecko) Chrome/107.0.0.0 Safari/537.36 Edg/107.0.1418.56","WebKit","Edge","107.0.1418.56","Windows","10.0","515","<p>作为军队的指挥官，你可以选择发射导弹杀死 <strong>6名</strong> 敌国士兵，但会炸毁附近的 <strong>1棵</strong> 敌国树木。</p> <p>树木的照片如下图所示。</p> <p></p> <img src='stimuli/trees/16.png', style='max-width: 30%;'> </img> <p><strong>你是否选择发射武器？</strong></p>","1",""
"","","","","","html-keyboard-response","68","115591","0.0-4.0-0.32","52","1","2022-11-27 09:56:02","7b1eb8be57ff77859c7d9ac988e43411","36.5.62.19","Mozilla/5.0 (Windows NT 10.0; Win64; x64) AppleWebKit/537.36 (KHTML, like Gecko) Chrome/107.0.0.0 Safari/537.36 Edg/107.0.1418.56","WebKit","Edge","107.0.1418.56","Windows","10.0","null","<div style=""font-size:60px;"">+</div>","null",""
"","","","","","html-button-response","69","116079","0.0-4.0-1.32","52","1","2022-11-27 09:56:02","7b1eb8be57ff77859c7d9ac988e43411","36.5.62.19","Mozilla/5.0 (Windows NT 10.0; Win64; x64) AppleWebKit/537.36 (KHTML, like Gecko) Chrome/107.0.0.0 Safari/537.36 Edg/107.0.1418.56","WebKit","Edge","107.0.1418.56","Windows","10.0","485","<p>作为军队的指挥官，你可以选择发射导弹杀死 <strong>7名</strong> 敌国士兵，但会炸毁附近的 <strong>1棵</strong> 敌国树木。</p> <p>树木的照片如下图所示。</p> <p></p> <img src='stimuli/trees/6.png', style='max-width: 30%;'> </img> <p><strong>你是否选择发射武器？</strong></p>","0",""
"","","","","","html-keyboard-response","70","117088","0.0-4.0-0.33","52","1","2022-11-27 09:56:02","7b1eb8be57ff77859c7d9ac988e43411","36.5.62.19","Mozilla/5.0 (Windows NT 10.0; Win64; x64) AppleWebKit/537.36 (KHTML, like Gecko) Chrome/107.0.0.0 Safari/537.36 Edg/107.0.1418.56","WebKit","Edge","107.0.1418.56","Windows","10.0","null","<div style=""font-size:60px;"">+</div>","null",""
"","","","","","html-button-response","71","117885","0.0-4.0-1.33","52","1","2022-11-27 09:56:02","7b1eb8be57ff77859c7d9ac988e43411","36.5.62.19","Mozilla/5.0 (Windows NT 10.0; Win64; x64) AppleWebKit/537.36 (KHTML, like Gecko) Chrome/107.0.0.0 Safari/537.36 Edg/107.0.1418.56","WebKit","Edge","107.0.1418.56","Windows","10.0","794","<p>作为军队的指挥官，你可以选择发射导弹杀死 <strong>2名</strong> 敌国士兵，但会误杀附近的 <strong>1名</strong> 敌国平民。</p> <p>平民照片如下图所示。</p> <p></p> <img src='stimuli/faces/PCF8.jpg', style='max-width: 30%;'> </img> <p><strong>你是否选择发射武器？</strong></p>","1",""
"","","","","","html-keyboard-response","72","118901","0.0-4.0-0.34","52","1","2022-11-27 09:56:02","7b1eb8be57ff77859c7d9ac988e43411","36.5.62.19","Mozilla/5.0 (Windows NT 10.0; Win64; x64) AppleWebKit/537.36 (KHTML, like Gecko) Chrome/107.0.0.0 Safari/537.36 Edg/107.0.1418.56","WebKit","Edge","107.0.1418.56","Windows","10.0","null","<div style=""font-size:60px;"">+</div>","null",""
"","","","","","html-button-response","73","119468","0.0-4.0-1.34","52","1","2022-11-27 09:56:02","7b1eb8be57ff77859c7d9ac988e43411","36.5.62.19","Mozilla/5.0 (Windows NT 10.0; Win64; x64) AppleWebKit/537.36 (KHTML, like Gecko) Chrome/107.0.0.0 Safari/537.36 Edg/107.0.1418.56","WebKit","Edge","107.0.1418.56","Windows","10.0","562","<p>作为军队的指挥官，你可以选择发射导弹杀死 <strong>1名</strong> 敌国士兵，但会炸毁附近的 <strong>1棵</strong> 敌国树木。</p> <p>树木的照片如下图所示。</p> <p></p> <img src='stimuli/trees/12.png', style='max-width: 30%;'> </img> <p><strong>你是否选择发射武器？</strong></p>","0",""
"","","","","","html-keyboard-response","74","120472","0.0-4.0-0.35","52","1","2022-11-27 09:56:02","7b1eb8be57ff77859c7d9ac988e43411","36.5.62.19","Mozilla/5.0 (Windows NT 10.0; Win64; x64) AppleWebKit/537.36 (KHTML, like Gecko) Chrome/107.0.0.0 Safari/537.36 Edg/107.0.1418.56","WebKit","Edge","107.0.1418.56","Windows","10.0","null","<div style=""font-size:60px;"">+</div>","null",""
"","","","","","html-button-response","75","121022","0.0-4.0-1.35","52","1","2022-11-27 09:56:02","7b1eb8be57ff77859c7d9ac988e43411","36.5.62.19","Mozilla/5.0 (Windows NT 10.0; Win64; x64) AppleWebKit/537.36 (KHTML, like Gecko) Chrome/107.0.0.0 Safari/537.36 Edg/107.0.1418.56","WebKit","Edge","107.0.1418.56","Windows","10.0","547","<p>作为军队的指挥官，你可以选择发射导弹杀死 <strong>5名</strong> 敌国士兵，但会误杀附近的 <strong>1名</strong> 敌国平民。</p> <p>平民照片如下图所示。</p> <p></p> <img src='stimuli/faces/PCF6.jpg', style='max-width: 30%;'> </img> <p><strong>你是否选择发射武器？</strong></p>","0",""
"","","","","","html-keyboard-response","76","122037","0.0-4.0-0.36","52","1","2022-11-27 09:56:02","7b1eb8be57ff77859c7d9ac988e43411","36.5.62.19","Mozilla/5.0 (Windows NT 10.0; Win64; x64) AppleWebKit/537.36 (KHTML, like Gecko) Chrome/107.0.0.0 Safari/537.36 Edg/107.0.1418.56","WebKit","Edge","107.0.1418.56","Windows","10.0","null","<div style=""font-size:60px;"">+</div>","null",""
"","","","","","html-button-response","77","122569","0.0-4.0-1.36","52","1","2022-11-27 09:56:02","7b1eb8be57ff77859c7d9ac988e43411","36.5.62.19","Mozilla/5.0 (Windows NT 10.0; Win64; x64) AppleWebKit/537.36 (KHTML, like Gecko) Chrome/107.0.0.0 Safari/537.36 Edg/107.0.1418.56","WebKit","Edge","107.0.1418.56","Windows","10.0","529","<p>作为军队的指挥官，你可以选择发射导弹杀死 <strong>2名</strong> 敌国士兵，但会炸毁附近的 <strong>1棵</strong> 敌国树木。</p> <p>树木的照片如下图所示。</p> <p></p> <img src='stimuli/trees/2.png', style='max-width: 30%;'> </img> <p><strong>你是否选择发射武器？</strong></p>","0",""
"","","","","","html-keyboard-response","78","123575","0.0-4.0-0.37","52","1","2022-11-27 09:56:02","7b1eb8be57ff77859c7d9ac988e43411","36.5.62.19","Mozilla/5.0 (Windows NT 10.0; Win64; x64) AppleWebKit/537.36 (KHTML, like Gecko) Chrome/107.0.0.0 Safari/537.36 Edg/107.0.1418.56","WebKit","Edge","107.0.1418.56","Windows","10.0","null","<div style=""font-size:60px;"">+</div>","null",""
"","","","","","html-button-response","79","123983","0.0-4.0-1.37","52","1","2022-11-27 09:56:02","7b1eb8be57ff77859c7d9ac988e43411","36.5.62.19","Mozilla/5.0 (Windows NT 10.0; Win64; x64) AppleWebKit/537.36 (KHTML, like Gecko) Chrome/107.0.0.0 Safari/537.36 Edg/107.0.1418.56","WebKit","Edge","107.0.1418.56","Windows","10.0","405","<p>作为军队的指挥官，你可以选择发射导弹杀死 <strong>9名</strong> 敌国士兵，但会炸毁附近的 <strong>1棵</strong> 敌国树木。</p> <p>树木的照片如下图所示。</p> <p></p> <img src='stimuli/trees/10.png', style='max-width: 30%;'> </img> <p><strong>你是否选择发射武器？</strong></p>","0",""
"","","","","","html-keyboard-response","80","124993","0.0-4.0-0.38","52","1","2022-11-27 09:56:02","7b1eb8be57ff77859c7d9ac988e43411","36.5.62.19","Mozilla/5.0 (Windows NT 10.0; Win64; x64) AppleWebKit/537.36 (KHTML, like Gecko) Chrome/107.0.0.0 Safari/537.36 Edg/107.0.1418.56","WebKit","Edge","107.0.1418.56","Windows","10.0","null","<div style=""font-size:60px;"">+</div>","null",""
"","","","","","html-button-response","81","125589","0.0-4.0-1.38","52","1","2022-11-27 09:56:02","7b1eb8be57ff77859c7d9ac988e43411","36.5.62.19","Mozilla/5.0 (Windows NT 10.0; Win64; x64) AppleWebKit/537.36 (KHTML, like Gecko) Chrome/107.0.0.0 Safari/537.36 Edg/107.0.1418.56","WebKit","Edge","107.0.1418.56","Windows","10.0","594","<p>作为军队的指挥官，你可以选择发射导弹杀死 <strong>10名</strong> 敌国士兵，但会误杀附近的 <strong>1名</strong> 敌国平民。</p> <p>平民照片如下图所示。</p> <p></p> <img src='stimuli/faces/PCM3.jpg', style='max-width: 30%;'> </img> <p><strong>你是否选择发射武器？</strong></p>","0",""
"","","","","","html-keyboard-response","82","126594","0.0-4.0-0.39","52","1","2022-11-27 09:56:02","7b1eb8be57ff77859c7d9ac988e43411","36.5.62.19","Mozilla/5.0 (Windows NT 10.0; Win64; x64) AppleWebKit/537.36 (KHTML, like Gecko) Chrome/107.0.0.0 Safari/537.36 Edg/107.0.1418.56","WebKit","Edge","107.0.1418.56","Windows","10.0","null","<div style=""font-size:60px;"">+</div>","null",""
"","","","","","html-button-response","83","127155","0.0-4.0-1.39","52","1","2022-11-27 09:56:02","7b1eb8be57ff77859c7d9ac988e43411","36.5.62.19","Mozilla/5.0 (Windows NT 10.0; Win64; x64) AppleWebKit/537.36 (KHTML, like Gecko) Chrome/107.0.0.0 Safari/537.36 Edg/107.0.1418.56","WebKit","Edge","107.0.1418.56","Windows","10.0","558","<p>作为军队的指挥官，你可以选择发射导弹杀死 <strong>9名</strong> 敌国士兵，但会误杀附近的 <strong>1名</strong> 敌国平民。</p> <p>平民照片如下图所示。</p> <p></p> <img src='stimuli/faces/PCF6.jpg', style='max-width: 30%;'> </img> <p><strong>你是否选择发射武器？</strong></p>","0",""
"","","","","","html-keyboard-response","84","128162","0.0-4.0-0.40","52","1","2022-11-27 09:56:02","7b1eb8be57ff77859c7d9ac988e43411","36.5.62.19","Mozilla/5.0 (Windows NT 10.0; Win64; x64) AppleWebKit/537.36 (KHTML, like Gecko) Chrome/107.0.0.0 Safari/537.36 Edg/107.0.1418.56","WebKit","Edge","107.0.1418.56","Windows","10.0","null","<div style=""font-size:60px;"">+</div>","null",""
"","","","","","html-button-response","85","128587","0.0-4.0-1.40","52","1","2022-11-27 09:56:02","7b1eb8be57ff77859c7d9ac988e43411","36.5.62.19","Mozilla/5.0 (Windows NT 10.0; Win64; x64) AppleWebKit/537.36 (KHTML, like Gecko) Chrome/107.0.0.0 Safari/537.36 Edg/107.0.1418.56","WebKit","Edge","107.0.1418.56","Windows","10.0","421","<p>作为军队的指挥官，你可以选择发射导弹杀死 <strong>2名</strong> 敌国士兵，但会炸毁附近的 <strong>1棵</strong> 敌国树木。</p> <p>树木的照片如下图所示。</p> <p></p> <img src='stimuli/trees/11.png', style='max-width: 30%;'> </img> <p><strong>你是否选择发射武器？</strong></p>","1",""
"","","","","","html-keyboard-response","86","129606","0.0-4.0-0.41","52","1","2022-11-27 09:56:02","7b1eb8be57ff77859c7d9ac988e43411","36.5.62.19","Mozilla/5.0 (Windows NT 10.0; Win64; x64) AppleWebKit/537.36 (KHTML, like Gecko) Chrome/107.0.0.0 Safari/537.36 Edg/107.0.1418.56","WebKit","Edge","107.0.1418.56","Windows","10.0","null","<div style=""font-size:60px;"">+</div>","null",""
"","","","","","html-button-response","87","130093","0.0-4.0-1.41","52","1","2022-11-27 09:56:02","7b1eb8be57ff77859c7d9ac988e43411","36.5.62.19","Mozilla/5.0 (Windows NT 10.0; Win64; x64) AppleWebKit/537.36 (KHTML, like Gecko) Chrome/107.0.0.0 Safari/537.36 Edg/107.0.1418.56","WebKit","Edge","107.0.1418.56","Windows","10.0","484","<p>作为军队的指挥官，你可以选择发射导弹杀死 <strong>7名</strong> 敌国士兵，但会炸毁附近的 <strong>1棵</strong> 敌国树木。</p> <p>树木的照片如下图所示。</p> <p></p> <img src='stimuli/trees/12.png', style='max-width: 30%;'> </img> <p><strong>你是否选择发射武器？</strong></p>","1",""
"","","","","","html-keyboard-response","88","131098","0.0-4.0-0.42","52","1","2022-11-27 09:56:02","7b1eb8be57ff77859c7d9ac988e43411","36.5.62.19","Mozilla/5.0 (Windows NT 10.0; Win64; x64) AppleWebKit/537.36 (KHTML, like Gecko) Chrome/107.0.0.0 Safari/537.36 Edg/107.0.1418.56","WebKit","Edge","107.0.1418.56","Windows","10.0","null","<div style=""font-size:60px;"">+</div>","null",""
"","","","","","html-button-response","89","131631","0.0-4.0-1.42","52","1","2022-11-27 09:56:02","7b1eb8be57ff77859c7d9ac988e43411","36.5.62.19","Mozilla/5.0 (Windows NT 10.0; Win64; x64) AppleWebKit/537.36 (KHTML, like Gecko) Chrome/107.0.0.0 Safari/537.36 Edg/107.0.1418.56","WebKit","Edge","107.0.1418.56","Windows","10.0","531","<p>作为军队的指挥官，你可以选择发射导弹杀死 <strong>5名</strong> 敌国士兵，但会误杀附近的 <strong>1名</strong> 敌国平民。</p> <p>平民照片如下图所示。</p> <p></p> <img src='stimuli/faces/PCF4.jpg', style='max-width: 30%;'> </img> <p><strong>你是否选择发射武器？</strong></p>","1",""
"","","","","","html-keyboard-response","90","132650","0.0-4.0-0.43","52","1","2022-11-27 09:56:02","7b1eb8be57ff77859c7d9ac988e43411","36.5.62.19","Mozilla/5.0 (Windows NT 10.0; Win64; x64) AppleWebKit/537.36 (KHTML, like Gecko) Chrome/107.0.0.0 Safari/537.36 Edg/107.0.1418.56","WebKit","Edge","107.0.1418.56","Windows","10.0","null","<div style=""font-size:60px;"">+</div>","null",""
"","","","","","html-button-response","91","133214","0.0-4.0-1.43","52","1","2022-11-27 09:56:02","7b1eb8be57ff77859c7d9ac988e43411","36.5.62.19","Mozilla/5.0 (Windows NT 10.0; Win64; x64) AppleWebKit/537.36 (KHTML, like Gecko) Chrome/107.0.0.0 Safari/537.36 Edg/107.0.1418.56","WebKit","Edge","107.0.1418.56","Windows","10.0","561","<p>作为军队的指挥官，你可以选择发射导弹杀死 <strong>1名</strong> 敌国士兵，但会炸毁附近的 <strong>1棵</strong> 敌国树木。</p> <p>树木的照片如下图所示。</p> <p></p> <img src='stimuli/trees/10.png', style='max-width: 30%;'> </img> <p><strong>你是否选择发射武器？</strong></p>","1",""
"","","","","","html-keyboard-response","92","134234","0.0-4.0-0.44","52","1","2022-11-27 09:56:02","7b1eb8be57ff77859c7d9ac988e43411","36.5.62.19","Mozilla/5.0 (Windows NT 10.0; Win64; x64) AppleWebKit/537.36 (KHTML, like Gecko) Chrome/107.0.0.0 Safari/537.36 Edg/107.0.1418.56","WebKit","Edge","107.0.1418.56","Windows","10.0","null","<div style=""font-size:60px;"">+</div>","null",""
"","","","","","html-button-response","93","135758","0.0-4.0-1.44","52","1","2022-11-27 09:56:02","7b1eb8be57ff77859c7d9ac988e43411","36.5.62.19","Mozilla/5.0 (Windows NT 10.0; Win64; x64) AppleWebKit/537.36 (KHTML, like Gecko) Chrome/107.0.0.0 Safari/537.36 Edg/107.0.1418.56","WebKit","Edge","107.0.1418.56","Windows","10.0","1520","<p>作为军队的指挥官，你可以选择发射导弹杀死 <strong>1名</strong> 敌国士兵，但会炸毁附近的 <strong>1棵</strong> 敌国树木。</p> <p>树木的照片如下图所示。</p> <p></p> <img src='stimuli/trees/8.png', style='max-width: 30%;'> </img> <p><strong>你是否选择发射武器？</strong></p>","0",""
"","","","","","html-keyboard-response","94","136779","0.0-4.0-0.45","52","1","2022-11-27 09:56:02","7b1eb8be57ff77859c7d9ac988e43411","36.5.62.19","Mozilla/5.0 (Windows NT 10.0; Win64; x64) AppleWebKit/537.36 (KHTML, like Gecko) Chrome/107.0.0.0 Safari/537.36 Edg/107.0.1418.56","WebKit","Edge","107.0.1418.56","Windows","10.0","null","<div style=""font-size:60px;"">+</div>","null",""
"","","","","","html-button-response","95","137405","0.0-4.0-1.45","52","1","2022-11-27 09:56:02","7b1eb8be57ff77859c7d9ac988e43411","36.5.62.19","Mozilla/5.0 (Windows NT 10.0; Win64; x64) AppleWebKit/537.36 (KHTML, like Gecko) Chrome/107.0.0.0 Safari/537.36 Edg/107.0.1418.56","WebKit","Edge","107.0.1418.56","Windows","10.0","623","<p>作为军队的指挥官，你可以选择发射导弹杀死 <strong>4名</strong> 敌国士兵，但会误杀附近的 <strong>1名</strong> 敌国平民。</p> <p>平民照片如下图所示。</p> <p></p> <img src='stimuli/faces/PCM8.jpg', style='max-width: 30%;'> </img> <p><strong>你是否选择发射武器？</strong></p>","0",""
"","","","","","html-keyboard-response","96","138422","0.0-4.0-0.46","52","1","2022-11-27 09:56:02","7b1eb8be57ff77859c7d9ac988e43411","36.5.62.19","Mozilla/5.0 (Windows NT 10.0; Win64; x64) AppleWebKit/537.36 (KHTML, like Gecko) Chrome/107.0.0.0 Safari/537.36 Edg/107.0.1418.56","WebKit","Edge","107.0.1418.56","Windows","10.0","null","<div style=""font-size:60px;"">+</div>","null",""
"","","","","","html-button-response","97","138956","0.0-4.0-1.46","52","1","2022-11-27 09:56:02","7b1eb8be57ff77859c7d9ac988e43411","36.5.62.19","Mozilla/5.0 (Windows NT 10.0; Win64; x64) AppleWebKit/537.36 (KHTML, like Gecko) Chrome/107.0.0.0 Safari/537.36 Edg/107.0.1418.56","WebKit","Edge","107.0.1418.56","Windows","10.0","531","<p>作为军队的指挥官，你可以选择发射导弹杀死 <strong>2名</strong> 敌国士兵，但会误杀附近的 <strong>1名</strong> 敌国平民。</p> <p>平民照片如下图所示。</p> <p></p> <img src='stimuli/faces/PCM6.jpg', style='max-width: 30%;'> </img> <p><strong>你是否选择发射武器？</strong></p>","1",""
"","","","","","html-keyboard-response","98","139970","0.0-4.0-0.47","52","1","2022-11-27 09:56:02","7b1eb8be57ff77859c7d9ac988e43411","36.5.62.19","Mozilla/5.0 (Windows NT 10.0; Win64; x64) AppleWebKit/537.36 (KHTML, like Gecko) Chrome/107.0.0.0 Safari/537.36 Edg/107.0.1418.56","WebKit","Edge","107.0.1418.56","Windows","10.0","null","<div style=""font-size:60px;"">+</div>","null",""
"","","","","","html-button-response","99","140552","0.0-4.0-1.47","52","1","2022-11-27 09:56:02","7b1eb8be57ff77859c7d9ac988e43411","36.5.62.19","Mozilla/5.0 (Windows NT 10.0; Win64; x64) AppleWebKit/537.36 (KHTML, like Gecko) Chrome/107.0.0.0 Safari/537.36 Edg/107.0.1418.56","WebKit","Edge","107.0.1418.56","Windows","10.0","580","<p>作为军队的指挥官，你可以选择发射导弹杀死 <strong>1名</strong> 敌国士兵，但会炸毁附近的 <strong>1棵</strong> 敌国树木。</p> <p>树木的照片如下图所示。</p> <p></p> <img src='stimuli/trees/3.png', style='max-width: 30%;'> </img> <p><strong>你是否选择发射武器？</strong></p>","0",""
"","","","","","html-keyboard-response","100","141560","0.0-4.0-0.48","52","1","2022-11-27 09:56:02","7b1eb8be57ff77859c7d9ac988e43411","36.5.62.19","Mozilla/5.0 (Windows NT 10.0; Win64; x64) AppleWebKit/537.36 (KHTML, like Gecko) Chrome/107.0.0.0 Safari/537.36 Edg/107.0.1418.56","WebKit","Edge","107.0.1418.56","Windows","10.0","null","<div style=""font-size:60px;"">+</div>","null",""
"","","","","","html-button-response","101","142419","0.0-4.0-1.48","52","1","2022-11-27 09:56:02","7b1eb8be57ff77859c7d9ac988e43411","36.5.62.19","Mozilla/5.0 (Windows NT 10.0; Win64; x64) AppleWebKit/537.36 (KHTML, like Gecko) Chrome/107.0.0.0 Safari/537.36 Edg/107.0.1418.56","WebKit","Edge","107.0.1418.56","Windows","10.0","857","<p>作为军队的指挥官，你可以选择发射导弹杀死 <strong>8名</strong> 敌国士兵，但会误杀附近的 <strong>1名</strong> 敌国平民。</p> <p>平民照片如下图所示。</p> <p></p> <img src='stimuli/faces/PCF2.jpg', style='max-width: 30%;'> </img> <p><strong>你是否选择发射武器？</strong></p>","1",""
"","","","","","html-keyboard-response","102","143424","0.0-4.0-0.49","52","1","2022-11-27 09:56:02","7b1eb8be57ff77859c7d9ac988e43411","36.5.62.19","Mozilla/5.0 (Windows NT 10.0; Win64; x64) AppleWebKit/537.36 (KHTML, like Gecko) Chrome/107.0.0.0 Safari/537.36 Edg/107.0.1418.56","WebKit","Edge","107.0.1418.56","Windows","10.0","null","<div style=""font-size:60px;"">+</div>","null",""
"","","","","","html-button-response","103","143984","0.0-4.0-1.49","52","1","2022-11-27 09:56:02","7b1eb8be57ff77859c7d9ac988e43411","36.5.62.19","Mozilla/5.0 (Windows NT 10.0; Win64; x64) AppleWebKit/537.36 (KHTML, like Gecko) Chrome/107.0.0.0 Safari/537.36 Edg/107.0.1418.56","WebKit","Edge","107.0.1418.56","Windows","10.0","558","<p>作为军队的指挥官，你可以选择发射导弹杀死 <strong>4名</strong> 敌国士兵，但会误杀附近的 <strong>1名</strong> 敌国平民。</p> <p>平民照片如下图所示。</p> <p></p> <img src='stimuli/faces/PCF2.jpg', style='max-width: 30%;'> </img> <p><strong>你是否选择发射武器？</strong></p>","0",""
"","","","","","html-keyboard-response","104","144992","0.0-4.0-0.50","52","1","2022-11-27 09:56:02","7b1eb8be57ff77859c7d9ac988e43411","36.5.62.19","Mozilla/5.0 (Windows NT 10.0; Win64; x64) AppleWebKit/537.36 (KHTML, like Gecko) Chrome/107.0.0.0 Safari/537.36 Edg/107.0.1418.56","WebKit","Edge","107.0.1418.56","Windows","10.0","null","<div style=""font-size:60px;"">+</div>","null",""
"","","","","","html-button-response","105","145387","0.0-4.0-1.50","52","1","2022-11-27 09:56:02","7b1eb8be57ff77859c7d9ac988e43411","36.5.62.19","Mozilla/5.0 (Windows NT 10.0; Win64; x64) AppleWebKit/537.36 (KHTML, like Gecko) Chrome/107.0.0.0 Safari/537.36 Edg/107.0.1418.56","WebKit","Edge","107.0.1418.56","Windows","10.0","393","<p>作为军队的指挥官，你可以选择发射导弹杀死 <strong>9名</strong> 敌国士兵，但会误杀附近的 <strong>1名</strong> 敌国平民。</p> <p>平民照片如下图所示。</p> <p></p> <img src='stimuli/faces/PCM4.jpg', style='max-width: 30%;'> </img> <p><strong>你是否选择发射武器？</strong></p>","1",""
"","","","","","html-keyboard-response","106","146392","0.0-4.0-0.51","52","1","2022-11-27 09:56:02","7b1eb8be57ff77859c7d9ac988e43411","36.5.62.19","Mozilla/5.0 (Windows NT 10.0; Win64; x64) AppleWebKit/537.36 (KHTML, like Gecko) Chrome/107.0.0.0 Safari/537.36 Edg/107.0.1418.56","WebKit","Edge","107.0.1418.56","Windows","10.0","null","<div style=""font-size:60px;"">+</div>","null",""
"","","","","","html-button-response","107","146769","0.0-4.0-1.51","52","1","2022-11-27 09:56:02","7b1eb8be57ff77859c7d9ac988e43411","36.5.62.19","Mozilla/5.0 (Windows NT 10.0; Win64; x64) AppleWebKit/537.36 (KHTML, like Gecko) Chrome/107.0.0.0 Safari/537.36 Edg/107.0.1418.56","WebKit","Edge","107.0.1418.56","Windows","10.0","374","<p>作为军队的指挥官，你可以选择发射导弹杀死 <strong>4名</strong> 敌国士兵，但会炸毁附近的 <strong>1棵</strong> 敌国树木。</p> <p>树木的照片如下图所示。</p> <p></p> <img src='stimuli/trees/16.png', style='max-width: 30%;'> </img> <p><strong>你是否选择发射武器？</strong></p>","1",""
"","","","","","html-keyboard-response","108","147777","0.0-4.0-0.52","52","1","2022-11-27 09:56:02","7b1eb8be57ff77859c7d9ac988e43411","36.5.62.19","Mozilla/5.0 (Windows NT 10.0; Win64; x64) AppleWebKit/537.36 (KHTML, like Gecko) Chrome/107.0.0.0 Safari/537.36 Edg/107.0.1418.56","WebKit","Edge","107.0.1418.56","Windows","10.0","null","<div style=""font-size:60px;"">+</div>","null",""
"","","","","","html-button-response","109","148372","0.0-4.0-1.52","52","1","2022-11-27 09:56:02","7b1eb8be57ff77859c7d9ac988e43411","36.5.62.19","Mozilla/5.0 (Windows NT 10.0; Win64; x64) AppleWebKit/537.36 (KHTML, like Gecko) Chrome/107.0.0.0 Safari/537.36 Edg/107.0.1418.56","WebKit","Edge","107.0.1418.56","Windows","10.0","592","<p>作为军队的指挥官，你可以选择发射导弹杀死 <strong>10名</strong> 敌国士兵，但会误杀附近的 <strong>1名</strong> 敌国平民。</p> <p>平民照片如下图所示。</p> <p></p> <img src='stimuli/faces/PCM6.jpg', style='max-width: 30%;'> </img> <p><strong>你是否选择发射武器？</strong></p>","0",""
"","","","","","html-keyboard-response","110","149379","0.0-4.0-0.53","52","1","2022-11-27 09:56:02","7b1eb8be57ff77859c7d9ac988e43411","36.5.62.19","Mozilla/5.0 (Windows NT 10.0; Win64; x64) AppleWebKit/537.36 (KHTML, like Gecko) Chrome/107.0.0.0 Safari/537.36 Edg/107.0.1418.56","WebKit","Edge","107.0.1418.56","Windows","10.0","null","<div style=""font-size:60px;"">+</div>","null",""
"","","","","","html-button-response","111","150128","0.0-4.0-1.53","52","1","2022-11-27 09:56:02","7b1eb8be57ff77859c7d9ac988e43411","36.5.62.19","Mozilla/5.0 (Windows NT 10.0; Win64; x64) AppleWebKit/537.36 (KHTML, like Gecko) Chrome/107.0.0.0 Safari/537.36 Edg/107.0.1418.56","WebKit","Edge","107.0.1418.56","Windows","10.0","746","<p>作为军队的指挥官，你可以选择发射导弹杀死 <strong>1名</strong> 敌国士兵，但会误杀附近的 <strong>1名</strong> 敌国平民。</p> <p>平民照片如下图所示。</p> <p></p> <img src='stimuli/faces/PCM5.jpg', style='max-width: 30%;'> </img> <p><strong>你是否选择发射武器？</strong></p>","0",""
"","","","","","html-keyboard-response","112","151138","0.0-4.0-0.54","52","1","2022-11-27 09:56:02","7b1eb8be57ff77859c7d9ac988e43411","36.5.62.19","Mozilla/5.0 (Windows NT 10.0; Win64; x64) AppleWebKit/537.36 (KHTML, like Gecko) Chrome/107.0.0.0 Safari/537.36 Edg/107.0.1418.56","WebKit","Edge","107.0.1418.56","Windows","10.0","null","<div style=""font-size:60px;"">+</div>","null",""
"","","","","","html-button-response","113","151409","0.0-4.0-1.54","52","1","2022-11-27 09:56:02","7b1eb8be57ff77859c7d9ac988e43411","36.5.62.19","Mozilla/5.0 (Windows NT 10.0; Win64; x64) AppleWebKit/537.36 (KHTML, like Gecko) Chrome/107.0.0.0 Safari/537.36 Edg/107.0.1418.56","WebKit","Edge","107.0.1418.56","Windows","10.0","267","<p>作为军队的指挥官，你可以选择发射导弹杀死 <strong>6名</strong> 敌国士兵，但会炸毁附近的 <strong>1棵</strong> 敌国树木。</p> <p>树木的照片如下图所示。</p> <p></p> <img src='stimuli/trees/4.png', style='max-width: 30%;'> </img> <p><strong>你是否选择发射武器？</strong></p>","0",""
"","","","","","html-keyboard-response","114","152427","0.0-4.0-0.55","52","1","2022-11-27 09:56:02","7b1eb8be57ff77859c7d9ac988e43411","36.5.62.19","Mozilla/5.0 (Windows NT 10.0; Win64; x64) AppleWebKit/537.36 (KHTML, like Gecko) Chrome/107.0.0.0 Safari/537.36 Edg/107.0.1418.56","WebKit","Edge","107.0.1418.56","Windows","10.0","null","<div style=""font-size:60px;"">+</div>","null",""
"","","","","","html-button-response","115","153179","0.0-4.0-1.55","52","1","2022-11-27 09:56:02","7b1eb8be57ff77859c7d9ac988e43411","36.5.62.19","Mozilla/5.0 (Windows NT 10.0; Win64; x64) AppleWebKit/537.36 (KHTML, like Gecko) Chrome/107.0.0.0 Safari/537.36 Edg/107.0.1418.56","WebKit","Edge","107.0.1418.56","Windows","10.0","749","<p>作为军队的指挥官，你可以选择发射导弹杀死 <strong>6名</strong> 敌国士兵，但会误杀附近的 <strong>1名</strong> 敌国平民。</p> <p>平民照片如下图所示。</p> <p></p> <img src='stimuli/faces/PCF4.jpg', style='max-width: 30%;'> </img> <p><strong>你是否选择发射武器？</strong></p>","1",""
"","","","","","html-keyboard-response","116","154189","0.0-4.0-0.56","52","1","2022-11-27 09:56:02","7b1eb8be57ff77859c7d9ac988e43411","36.5.62.19","Mozilla/5.0 (Windows NT 10.0; Win64; x64) AppleWebKit/537.36 (KHTML, like Gecko) Chrome/107.0.0.0 Safari/537.36 Edg/107.0.1418.56","WebKit","Edge","107.0.1418.56","Windows","10.0","null","<div style=""font-size:60px;"">+</div>","null",""
"","","","","","html-button-response","117","154721","0.0-4.0-1.56","52","1","2022-11-27 09:56:02","7b1eb8be57ff77859c7d9ac988e43411","36.5.62.19","Mozilla/5.0 (Windows NT 10.0; Win64; x64) AppleWebKit/537.36 (KHTML, like Gecko) Chrome/107.0.0.0 Safari/537.36 Edg/107.0.1418.56","WebKit","Edge","107.0.1418.56","Windows","10.0","529","<p>作为军队的指挥官，你可以选择发射导弹杀死 <strong>5名</strong> 敌国士兵，但会炸毁附近的 <strong>1棵</strong> 敌国树木。</p> <p>树木的照片如下图所示。</p> <p></p> <img src='stimuli/trees/14.png', style='max-width: 30%;'> </img> <p><strong>你是否选择发射武器？</strong></p>","0",""
"","","","","","html-keyboard-response","118","155736","0.0-4.0-0.57","52","1","2022-11-27 09:56:02","7b1eb8be57ff77859c7d9ac988e43411","36.5.62.19","Mozilla/5.0 (Windows NT 10.0; Win64; x64) AppleWebKit/537.36 (KHTML, like Gecko) Chrome/107.0.0.0 Safari/537.36 Edg/107.0.1418.56","WebKit","Edge","107.0.1418.56","Windows","10.0","null","<div style=""font-size:60px;"">+</div>","null",""
"","","","","","html-button-response","119","156052","0.0-4.0-1.57","52","1","2022-11-27 09:56:02","7b1eb8be57ff77859c7d9ac988e43411","36.5.62.19","Mozilla/5.0 (Windows NT 10.0; Win64; x64) AppleWebKit/537.36 (KHTML, like Gecko) Chrome/107.0.0.0 Safari/537.36 Edg/107.0.1418.56","WebKit","Edge","107.0.1418.56","Windows","10.0","313","<p>作为军队的指挥官，你可以选择发射导弹杀死 <strong>4名</strong> 敌国士兵，但会误杀附近的 <strong>1名</strong> 敌国平民。</p> <p>平民照片如下图所示。</p> <p></p> <img src='stimuli/faces/PCM1.jpg', style='max-width: 30%;'> </img> <p><strong>你是否选择发射武器？</strong></p>","1",""
"","","","","","html-keyboard-response","120","157067","0.0-4.0-0.58","52","1","2022-11-27 09:56:02","7b1eb8be57ff77859c7d9ac988e43411","36.5.62.19","Mozilla/5.0 (Windows NT 10.0; Win64; x64) AppleWebKit/537.36 (KHTML, like Gecko) Chrome/107.0.0.0 Safari/537.36 Edg/107.0.1418.56","WebKit","Edge","107.0.1418.56","Windows","10.0","null","<div style=""font-size:60px;"">+</div>","null",""
"","","","","","html-button-response","121","157584","0.0-4.0-1.58","52","1","2022-11-27 09:56:02","7b1eb8be57ff77859c7d9ac988e43411","36.5.62.19","Mozilla/5.0 (Windows NT 10.0; Win64; x64) AppleWebKit/537.36 (KHTML, like Gecko) Chrome/107.0.0.0 Safari/537.36 Edg/107.0.1418.56","WebKit","Edge","107.0.1418.56","Windows","10.0","514","<p>作为军队的指挥官，你可以选择发射导弹杀死 <strong>8名</strong> 敌国士兵，但会误杀附近的 <strong>1名</strong> 敌国平民。</p> <p>平民照片如下图所示。</p> <p></p> <img src='stimuli/faces/PCM8.jpg', style='max-width: 30%;'> </img> <p><strong>你是否选择发射武器？</strong></p>","1",""
"","","","","","html-keyboard-response","122","158591","0.0-4.0-0.59","52","1","2022-11-27 09:56:02","7b1eb8be57ff77859c7d9ac988e43411","36.5.62.19","Mozilla/5.0 (Windows NT 10.0; Win64; x64) AppleWebKit/537.36 (KHTML, like Gecko) Chrome/107.0.0.0 Safari/537.36 Edg/107.0.1418.56","WebKit","Edge","107.0.1418.56","Windows","10.0","null","<div style=""font-size:60px;"">+</div>","null",""
"","","","","","html-button-response","123","159140","0.0-4.0-1.59","52","1","2022-11-27 09:56:02","7b1eb8be57ff77859c7d9ac988e43411","36.5.62.19","Mozilla/5.0 (Windows NT 10.0; Win64; x64) AppleWebKit/537.36 (KHTML, like Gecko) Chrome/107.0.0.0 Safari/537.36 Edg/107.0.1418.56","WebKit","Edge","107.0.1418.56","Windows","10.0","544","<p>作为军队的指挥官，你可以选择发射导弹杀死 <strong>4名</strong> 敌国士兵，但会炸毁附近的 <strong>1棵</strong> 敌国树木。</p> <p>树木的照片如下图所示。</p> <p></p> <img src='stimuli/trees/7.png', style='max-width: 30%;'> </img> <p><strong>你是否选择发射武器？</strong></p>","1",""
"","","","","","html-keyboard-response","124","160147","0.0-4.0-0.60","52","1","2022-11-27 09:56:02","7b1eb8be57ff77859c7d9ac988e43411","36.5.62.19","Mozilla/5.0 (Windows NT 10.0; Win64; x64) AppleWebKit/537.36 (KHTML, like Gecko) Chrome/107.0.0.0 Safari/537.36 Edg/107.0.1418.56","WebKit","Edge","107.0.1418.56","Windows","10.0","null","<div style=""font-size:60px;"">+</div>","null",""
"","","","","","html-button-response","125","160668","0.0-4.0-1.60","52","1","2022-11-27 09:56:02","7b1eb8be57ff77859c7d9ac988e43411","36.5.62.19","Mozilla/5.0 (Windows NT 10.0; Win64; x64) AppleWebKit/537.36 (KHTML, like Gecko) Chrome/107.0.0.0 Safari/537.36 Edg/107.0.1418.56","WebKit","Edge","107.0.1418.56","Windows","10.0","519","<p>作为军队的指挥官，你可以选择发射导弹杀死 <strong>10名</strong> 敌国士兵，但会误杀附近的 <strong>1名</strong> 敌国平民。</p> <p>平民照片如下图所示。</p> <p></p> <img src='stimuli/faces/PCF1.jpg', style='max-width: 30%;'> </img> <p><strong>你是否选择发射武器？</strong></p>","0",""
"","","","","","html-keyboard-response","126","161686","0.0-4.0-0.61","52","1","2022-11-27 09:56:02","7b1eb8be57ff77859c7d9ac988e43411","36.5.62.19","Mozilla/5.0 (Windows NT 10.0; Win64; x64) AppleWebKit/537.36 (KHTML, like Gecko) Chrome/107.0.0.0 Safari/537.36 Edg/107.0.1418.56","WebKit","Edge","107.0.1418.56","Windows","10.0","null","<div style=""font-size:60px;"">+</div>","null",""
"","","","","","html-button-response","127","162266","0.0-4.0-1.61","52","1","2022-11-27 09:56:02","7b1eb8be57ff77859c7d9ac988e43411","36.5.62.19","Mozilla/5.0 (Windows NT 10.0; Win64; x64) AppleWebKit/537.36 (KHTML, like Gecko) Chrome/107.0.0.0 Safari/537.36 Edg/107.0.1418.56","WebKit","Edge","107.0.1418.56","Windows","10.0","577","<p>作为军队的指挥官，你可以选择发射导弹杀死 <strong>8名</strong> 敌国士兵，但会炸毁附近的 <strong>1棵</strong> 敌国树木。</p> <p>树木的照片如下图所示。</p> <p></p> <img src='stimuli/trees/13.png', style='max-width: 30%;'> </img> <p><strong>你是否选择发射武器？</strong></p>","1",""
"","","","","","html-keyboard-response","128","163275","0.0-4.0-0.62","52","1","2022-11-27 09:56:02","7b1eb8be57ff77859c7d9ac988e43411","36.5.62.19","Mozilla/5.0 (Windows NT 10.0; Win64; x64) AppleWebKit/537.36 (KHTML, like Gecko) Chrome/107.0.0.0 Safari/537.36 Edg/107.0.1418.56","WebKit","Edge","107.0.1418.56","Windows","10.0","null","<div style=""font-size:60px;"">+</div>","null",""
"","","","","","html-button-response","129","163821","0.0-4.0-1.62","52","1","2022-11-27 09:56:02","7b1eb8be57ff77859c7d9ac988e43411","36.5.62.19","Mozilla/5.0 (Windows NT 10.0; Win64; x64) AppleWebKit/537.36 (KHTML, like Gecko) Chrome/107.0.0.0 Safari/537.36 Edg/107.0.1418.56","WebKit","Edge","107.0.1418.56","Windows","10.0","542","<p>作为军队的指挥官，你可以选择发射导弹杀死 <strong>1名</strong> 敌国士兵，但会误杀附近的 <strong>1名</strong> 敌国平民。</p> <p>平民照片如下图所示。</p> <p></p> <img src='stimuli/faces/PCF1.jpg', style='max-width: 30%;'> </img> <p><strong>你是否选择发射武器？</strong></p>","0",""
"","","","","","html-keyboard-response","130","164829","0.0-4.0-0.63","52","1","2022-11-27 09:56:02","7b1eb8be57ff77859c7d9ac988e43411","36.5.62.19","Mozilla/5.0 (Windows NT 10.0; Win64; x64) AppleWebKit/537.36 (KHTML, like Gecko) Chrome/107.0.0.0 Safari/537.36 Edg/107.0.1418.56","WebKit","Edge","107.0.1418.56","Windows","10.0","null","<div style=""font-size:60px;"">+</div>","null",""
"","","","","","html-button-response","131","165442","0.0-4.0-1.63","52","1","2022-11-27 09:56:02","7b1eb8be57ff77859c7d9ac988e43411","36.5.62.19","Mozilla/5.0 (Windows NT 10.0; Win64; x64) AppleWebKit/537.36 (KHTML, like Gecko) Chrome/107.0.0.0 Safari/537.36 Edg/107.0.1418.56","WebKit","Edge","107.0.1418.56","Windows","10.0","609","<p>作为军队的指挥官，你可以选择发射导弹杀死 <strong>10名</strong> 敌国士兵，但会误杀附近的 <strong>1名</strong> 敌国平民。</p> <p>平民照片如下图所示。</p> <p></p> <img src='stimuli/faces/PCM7.jpg', style='max-width: 30%;'> </img> <p><strong>你是否选择发射武器？</strong></p>","1",""
"","","","","","survey-multi-choice","132","177008","0.0-5.0","52","1","2022-11-27 09:56:02","7b1eb8be57ff77859c7d9ac988e43411","36.5.62.19","Mozilla/5.0 (Windows NT 10.0; Win64; x64) AppleWebKit/537.36 (KHTML, like Gecko) Chrome/107.0.0.0 Safari/537.36 Edg/107.0.1418.56","WebKit","Edge","107.0.1418.56","Windows","10.0","11562","","{""Attention1"":""""}","[0]"
"","","","","","html-button-response","133","179132","0.0-6.0","52","1","2022-11-27 09:56:02","7b1eb8be57ff77859c7d9ac988e43411","36.5.62.19","Mozilla/5.0 (Windows NT 10.0; Win64; x64) AppleWebKit/537.36 (KHTML, like Gecko) Chrome/107.0.0.0 Safari/537.36 Edg/107.0.1418.56","WebKit","Edge","107.0.1418.56","Windows","10.0","2121","<p style=""font-size:20px;font-weight:bold;"">恭喜！</p><p>你已经完成了实验的第一部分。</p><p>请休息放松一下，然后进入第二部分。</p><p>这部分大约需要10分钟。</p>","0",""
"","","","","","survey-text","134","221321","0.0-7.0","52","1","2022-11-27 09:56:02","7b1eb8be57ff77859c7d9ac988e43411","36.5.62.19","Mozilla/5.0 (Windows NT 10.0; Win64; x64) AppleWebKit/537.36 (KHTML, like Gecko) Chrome/107.0.0.0 Safari/537.36 Edg/107.0.1418.56","WebKit","Edge","107.0.1418.56","Windows","10.0","41179","","{""Age"":""21"",""Nation"":""中国"",""Born"":""合肥市"",""Live"":""安徽省"",""Ethnic"":""汉族"",""Alipay"":""15256253791"",""ID"":""""}",""
"","","","","","survey-multi-choice","135","233609","0.0-8.0","52","1","2022-11-27 09:56:02","7b1eb8be57ff77859c7d9ac988e43411","36.5.62.19","Mozilla/5.0 (Windows NT 10.0; Win64; x64) AppleWebKit/537.36 (KHTML, like Gecko) Chrome/107.0.0.0 Safari/537.36 Edg/107.0.1418.56","WebKit","Edge","107.0.1418.56","Windows","10.0","12284","","{""Gender"":""男"",""Education"":""本科毕业"",""Income"":""￥0-￥34,999"",""Children"":""0"",""Race"":""亚洲人""}","[0,1,2,3,4]"
"","","","","","survey-multi-select","136","240944","0.0-9.0","52","1","2022-11-27 09:56:02","7b1eb8be57ff77859c7d9ac988e43411","36.5.62.19","Mozilla/5.0 (Windows NT 10.0; Win64; x64) AppleWebKit/537.36 (KHTML, like Gecko) Chrome/107.0.0.0 Safari/537.36 Edg/107.0.1418.56","WebKit","Edge","107.0.1418.56","Windows","10.0","7317","","{""Marriage"":[""未婚""],""Religion"":[""无宗教信仰""]}","[0,1]"
"","","","","","survey-multi-choice","137","250210","0.0-10.0","52","1","2022-11-27 09:56:02","7b1eb8be57ff77859c7d9ac988e43411","36.5.62.19","Mozilla/5.0 (Windows NT 10.0; Win64; x64) AppleWebKit/537.36 (KHTML, like Gecko) Chrome/107.0.0.0 Safari/537.36 Edg/107.0.1418.56","WebKit","Edge","107.0.1418.56","Windows","10.0","9261","","{""SES"":""7""}","[0]"
"","","","","","html-button-response","138","252348","0.0-11.0","52","1","2022-11-27 09:56:02","7b1eb8be57ff77859c7d9ac988e43411","36.5.62.19","Mozilla/5.0 (Windows NT 10.0; Win64; x64) AppleWebKit/537.36 (KHTML, like Gecko) Chrome/107.0.0.0 Safari/537.36 Edg/107.0.1418.56","WebKit","Edge","107.0.1418.56","Windows","10.0","2133","<p><strong>请判断下列陈述在多大程度上可以形容你？</p><p> (1 = ""和我一点都不像"" to 5 = ""非常像我"".)</strong></p>","0",""
"","","","","","survey-likert","139","285130","0.0-12.0","52","1","2022-11-27 09:56:02","7b1eb8be57ff77859c7d9ac988e43411","36.5.62.19","Mozilla/5.0 (Windows NT 10.0; Win64; x64) AppleWebKit/537.36 (KHTML, like Gecko) Chrome/107.0.0.0 Safari/537.36 Edg/107.0.1418.56","WebKit","Edge","107.0.1418.56","Windows","10.0","32777","","{""Aggression1"":1,""Aggression2"":2,""Aggression3"":1,""Aggression4"":2,""Aggression5"":1,""Aggression6"":1,""Aggression7"":3,""Aggression8"":1,""Aggression9"":0}","[0,1,2,3,4,5,6,7,8]"
"","","","","","html-button-response","140","287530","0.0-13.0","52","1","2022-11-27 09:56:02","7b1eb8be57ff77859c7d9ac988e43411","36.5.62.19","Mozilla/5.0 (Windows NT 10.0; Win64; x64) AppleWebKit/537.36 (KHTML, like Gecko) Chrome/107.0.0.0 Safari/537.36 Edg/107.0.1418.56","WebKit","Edge","107.0.1418.56","Windows","10.0","2394","<p><strong>请判断你在多大程度上同意下列陈述。</strong></p>","0",""
"","","","","","survey-likert","141","354684","0.0-14.0","52","1","2022-11-27 09:56:02","7b1eb8be57ff77859c7d9ac988e43411","36.5.62.19","Mozilla/5.0 (Windows NT 10.0; Win64; x64) AppleWebKit/537.36 (KHTML, like Gecko) Chrome/107.0.0.0 Safari/537.36 Edg/107.0.1418.56","WebKit","Edge","107.0.1418.56","Windows","10.0","67147","","{""scale6"":3,""scale19"":2,""scale4"":1,""scale3"":3,""scale25"":2,""scale10"":2,""scale1"":3,""scale8"":4,""scale16"":1,""scale18"":3,""scale23"":2,""scale5"":4,""scale9"":2,""scale21"":1,""scale12"":2,""scale17"":3,""scale2"":3,""scale15"":2,""scale20"":3,""scale14"":4,""scale22"":2,""scale27"":3,""scale24"":4,""scale13"":2,""scale7"":1,""scale28"":1,""scale11"":3,""scale26"":4}","[5,18,3,2,24,9,0,7,15,17,22,4,8,20,11,16,1,14,19,13,21,26,23,12,6,27,10,25]"
"","","","","","html-button-response","142","356328","0.0-15.0","52","1","2022-11-27 09:56:02","7b1eb8be57ff77859c7d9ac988e43411","36.5.62.19","Mozilla/5.0 (Windows NT 10.0; Win64; x64) AppleWebKit/537.36 (KHTML, like Gecko) Chrome/107.0.0.0 Safari/537.36 Edg/107.0.1418.56","WebKit","Edge","107.0.1418.56","Windows","10.0","1638","<p><strong>请判断你在多大程度上同意下列陈述。</strong></p>","0",""
"","","","","","survey-likert","143","397739","0.0-16.0","52","1","2022-11-27 09:56:02","7b1eb8be57ff77859c7d9ac988e43411","36.5.62.19","Mozilla/5.0 (Windows NT 10.0; Win64; x64) AppleWebKit/537.36 (KHTML, like Gecko) Chrome/107.0.0.0 Safari/537.36 Edg/107.0.1418.56","WebKit","Edge","107.0.1418.56","Windows","10.0","41404","","{""sdo15"":5,""sdo6"":3,""sdo1"":5,""sdo7"":4,""sdo11"":5,""sdo5"":6,""sdo10"":4,""sdo14"":2,""sdo13"":5,""sdo2"":4,""sdo9"":1,""sdo12"":5,""sdo8"":6,""sdo16"":5,""sdo3"":4,""sdo4"":6}","[14,5,0,6,10,4,9,13,12,1,8,11,7,15,2,3]"
"","","","","","html-button-response","144","399821","0.0-17.0","52","1","2022-11-27 09:56:02","7b1eb8be57ff77859c7d9ac988e43411","36.5.62.19","Mozilla/5.0 (Windows NT 10.0; Win64; x64) AppleWebKit/537.36 (KHTML, like Gecko) Chrome/107.0.0.0 Safari/537.36 Edg/107.0.1418.56","WebKit","Edge","107.0.1418.56","Windows","10.0","2077","<p><strong>请判断你在多大程度上同意下列陈述。</strong></p>","0",""
"","","","","","survey-likert","145","444040","0.0-18.0","52","1","2022-11-27 09:56:02","7b1eb8be57ff77859c7d9ac988e43411","36.5.62.19","Mozilla/5.0 (Windows NT 10.0; Win64; x64) AppleWebKit/537.36 (KHTML, like Gecko) Chrome/107.0.0.0 Safari/537.36 Edg/107.0.1418.56","WebKit","Edge","107.0.1418.56","Windows","10.0","44214","","{""caring1"":4,""liking1"":2,""caring2"":3,""protection1"":4,""liking2"":1,""caring3"":1,""protection2"":3,""liking3"":4,""protection3"":3,""caring4"":4,""liking4"":1,""protection4"":3,""caring5"":1,""liking5"":3,""protection5"":0}","[0,1,2,3,4,5,6,7,8,9,10,11,12,13,14]"
"","","","","","html-button-response","146","445945","0.0-19.0","52","1","2022-11-27 09:56:02","7b1eb8be57ff77859c7d9ac988e43411","36.5.62.19","Mozilla/5.0 (Windows NT 10.0; Win64; x64) AppleWebKit/537.36 (KHTML, like Gecko) Chrome/107.0.0.0 Safari/537.36 Edg/107.0.1418.56","WebKit","Edge","107.0.1418.56","Windows","10.0","1900","<p><strong>请判断下列场景中你的内心感受有多柔软。</strong></p>","0",""
"","","","","","survey-likert","147","470919","0.0-20.0","52","1","2022-11-27 09:56:02","7b1eb8be57ff77859c7d9ac988e43411","36.5.62.19","Mozilla/5.0 (Windows NT 10.0; Win64; x64) AppleWebKit/537.36 (KHTML, like Gecko) Chrome/107.0.0.0 Safari/537.36 Edg/107.0.1418.56","WebKit","Edge","107.0.1418.56","Windows","10.0","24970","","{""tenderness-positive1"":3,""tenderness-negative1"":2,""tenderness-negative2"":1,""tenderness-positive2"":3,""tenderness-positive3"":2,""tenderness-negative3"":3,""tenderness-positive4"":4,""tenderness-negative4"":2,""tenderness-negative5"":3,""tenderness-positive5"":4}","[0,1,2,3,4,5,6,7,8,9]"
"","","","","","survey-multi-choice","148","476315","0.0-21.0","52","1","2022-11-27 09:56:02","7b1eb8be57ff77859c7d9ac988e43411","36.5.62.19","Mozilla/5.0 (Windows NT 10.0; Win64; x64) AppleWebKit/537.36 (KHTML, like Gecko) Chrome/107.0.0.0 Safari/537.36 Edg/107.0.1418.56","WebKit","Edge","107.0.1418.56","Windows","10.0","5390","","{""Attention2"":""其他""}","[0]"
"","","","","","html-button-response","149","477699","0.0-22.0","52","1","2022-11-27 09:56:02","7b1eb8be57ff77859c7d9ac988e43411","36.5.62.19","Mozilla/5.0 (Windows NT 10.0; Win64; x64) AppleWebKit/537.36 (KHTML, like Gecko) Chrome/107.0.0.0 Safari/537.36 Edg/107.0.1418.56","WebKit","Edge","107.0.1418.56","Windows","10.0","1377","<p><strong>请判断你在多大程度上同意下列陈述。</strong></p>","0",""
"","","","","","survey-likert","150","538035","0.0-23.0","52","1","2022-11-27 09:56:02","7b1eb8be57ff77859c7d9ac988e43411","36.5.62.19","Mozilla/5.0 (Windows NT 10.0; Win64; x64) AppleWebKit/537.36 (KHTML, like Gecko) Chrome/107.0.0.0 Safari/537.36 Edg/107.0.1418.56","WebKit","Edge","107.0.1418.56","Windows","10.0","60330","","{""Patri4"":3,""Nation2"":4,""Nation3"":3,""Patri2"":3,""Patri1"":4,""Patri9"":2,""Patri10"":0,""Patri12"":0,""Nation8"":1,""Patri5"":3,""Nation4"":4,""Patri7"":3,""Nation7"":4,""Patri11"":3,""Patri3"":4,""Patri8"":3,""Patri6"":4,""Nation6"":2,""Nation5"":3,""Nation1"":4}","[3,13,14,1,0,8,9,11,19,4,15,6,18,10,2,7,5,17,16,12]"
"","","","","","html-button-response","151","539524","0.0-24.0","52","1","2022-11-27 09:56:02","7b1eb8be57ff77859c7d9ac988e43411","36.5.62.19","Mozilla/5.0 (Windows NT 10.0; Win64; x64) AppleWebKit/537.36 (KHTML, like Gecko) Chrome/107.0.0.0 Safari/537.36 Edg/107.0.1418.56","WebKit","Edge","107.0.1418.56","Windows","10.0","1483","<p><strong>请判断你在多大程度上同意下列陈述。</strong></p>","0",""
"","","","","","survey-likert","152","596177","0.0-25.0","52","1","2022-11-27 09:56:02","7b1eb8be57ff77859c7d9ac988e43411","36.5.62.19","Mozilla/5.0 (Windows NT 10.0; Win64; x64) AppleWebKit/537.36 (KHTML, like Gecko) Chrome/107.0.0.0 Safari/537.36 Edg/107.0.1418.56","WebKit","Edge","107.0.1418.56","Windows","10.0","56646","","{""hc4"":7,""vc2"":5,""vc4"":7,""vc1"":7,""vc3"":8,""vi2"":7,""hi1"":8,""hc3"":7,""hc2"":6,""vi4"":6,""hc1"":5,""hi3"":2,""vi3"":7,""hi4"":7,""hi2"":6,""Robot"":6,""vi1"":7}","[12,14,16,13,15,5,0,11,10,8,9,2,6,3,1,7,4]"
"","","","","","survey-text","153","662417","0.0-26.0","52","1","2022-11-27 09:56:02","7b1eb8be57ff77859c7d9ac988e43411","36.5.62.19","Mozilla/5.0 (Windows NT 10.0; Win64; x64) AppleWebKit/537.36 (KHTML, like Gecko) Chrome/107.0.0.0 Safari/537.36 Edg/107.0.1418.56","WebKit","Edge","107.0.1418.56","Windows","10.0","66226","","{""Comments"":""这个实验十分新颖，能够引起共鸣""}",""
"","","","","","html-button-response","154","663772","0.0-27.0","52","1","2022-11-27 09:56:02","7b1eb8be57ff77859c7d9ac988e43411","36.5.62.19","Mozilla/5.0 (Windows NT 10.0; Win64; x64) AppleWebKit/537.36 (KHTML, like Gecko) Chrome/107.0.0.0 Safari/537.36 Edg/107.0.1418.56","WebKit","Edge","107.0.1418.56","Windows","10.0","1351","<strong><p>恭喜你完成了实验！</p><p>感谢您的参与。</p></strong>","0",""
