"success","timeout","failed_images","failed_audio","failed_video","trial_type","trial_index","time_elapsed","internal_node_id","run_id","condition","recorded_at","source_code_version","ip","user_agent","device","browser","browser_version","platform","platform_version","rt","stimulus","response","question_order"
"true","false","[]","[]","[]","preload","0","100","0.0-0.0","54","1","2022-11-27 09:56:50","7b1eb8be57ff77859c7d9ac988e43411","58.243.98.221","Mozilla/5.0 (Windows NT 10.0; WOW64) AppleWebKit/537.36 (KHTML, like Gecko) Chrome/92.0.4515.131 Safari/537.36 SLBrowser/8.0.0.7271 SLBChan/105","WebKit","Chrome","92.0.4515.131","Windows","10.0","","","",""
"true","","","","","fullscreen","1","3553","0.0-1.0","54","1","2022-11-27 09:56:50","7b1eb8be57ff77859c7d9ac988e43411","58.243.98.221","Mozilla/5.0 (Windows NT 10.0; WOW64) AppleWebKit/537.36 (KHTML, like Gecko) Chrome/92.0.4515.131 Safari/537.36 SLBrowser/8.0.0.7271 SLBChan/105","WebKit","Chrome","92.0.4515.131","Windows","10.0","","","",""
"","","","","","html-button-response","2","27866","0.0-2.0","54","1","2022-11-27 09:56:50","7b1eb8be57ff77859c7d9ac988e43411","58.243.98.221","Mozilla/5.0 (Windows NT 10.0; WOW64) AppleWebKit/537.36 (KHTML, like Gecko) Chrome/92.0.4515.131 Safari/537.36 SLBrowser/8.0.0.7271 SLBChan/105","WebKit","Chrome","92.0.4515.131","Windows","10.0","24311","<p style=""font-size:20px;font-weight:bold;"">实验知情同意书</p><p style=""text-align:left;""><strong>实验名称：</strong>社会冲突研究</p><p style=""text-align:left;""><strong>主要研究者：</strong>韩晓春副教授（北京师范大学心理学部）</p><p style=""text-align:left;""><strong>联系方式：</strong>发送邮件至xiaochun.han@bnu.edu.cn</p><p style=""text-align:left;""><strong>研究目的：</strong>研究旨在了解人类面对群体冲突时的决策方式，以及相关的心理学特质。实验调查大约需要20分钟。</p><p style=""text-align:left;""><strong>实验流程：</strong>实验包含两部分。第一部分呈现一系列群体冲突场景，请你决定如何对这些冲突进行反应，大约需要10分钟完成。第二部分包含一系列人口统计学信息收集和心理学问卷，大约需要10分钟完成。</p><p style=""text-align:left;""><strong>参加及退出规则：</strong>参加本实验完全取决于您的个人意愿。在参与过程中，您可以随时退出，并且不用承担任何后果。</p><p style=""text-align:left;""><strong>隐私：</strong>本实验完全匿名进行，不会收集您的姓名或其他能够识别您身份的信息。实验中收集的作答仅用作科学研究使用，可能会在学术期刊/书籍上发表，或者用于教学，您的数据未来可能会和其他研究者或实验室分享，但您的个人身份不会被识别。</p><p style=""text-align:left;""><strong>实验报酬：</strong>实验完成后，您将获得15元人民币报酬，以感谢您的时间和努力。调查问卷中包含几道题目用以测验您作答时的认真度。只有完成全部实验，并且正确回答认真度测验的被试才能获得实验报酬。实验报酬将通过支付宝转账发放。</p><p style=""text-align:left;font-size:20px;""><strong>如果您同意以上实验知情同意书的内容，请点击'同意并且开始实验'按钮；否则请关闭浏览器界面，退出实验。</strong></p>","0",""
"","","","","","html-button-response","3","34434","0.0-3.0","54","1","2022-11-27 09:56:50","7b1eb8be57ff77859c7d9ac988e43411","58.243.98.221","Mozilla/5.0 (Windows NT 10.0; WOW64) AppleWebKit/537.36 (KHTML, like Gecko) Chrome/92.0.4515.131 Safari/537.36 SLBrowser/8.0.0.7271 SLBChan/105","WebKit","Chrome","92.0.4515.131","Windows","10.0","6551","<p ><strong>实验任务一：</strong></p><p>请想象你的国家与另一个国家发生了军事冲突。</p><p>你是国家军队的指挥官，你将如何在冲突中进行决策。</p><p>具体来说，作为军队指挥官，请你决定是否发射导弹进行打击。</p><p>接下来，你会面对一系列场景，请仔细阅读每个场景，然后进行决策。</p><p>这部分实验任务大约需要10分钟。</p><p><strong>实验过程中，请集中注意力。</strong></p>","0",""
"","","","","","html-keyboard-response","4","35439","0.0-4.0-0.0","54","1","2022-11-27 09:56:50","7b1eb8be57ff77859c7d9ac988e43411","58.243.98.221","Mozilla/5.0 (Windows NT 10.0; WOW64) AppleWebKit/537.36 (KHTML, like Gecko) Chrome/92.0.4515.131 Safari/537.36 SLBrowser/8.0.0.7271 SLBChan/105","WebKit","Chrome","92.0.4515.131","Windows","10.0","null","<div style=""font-size:60px;"">+</div>","null",""
"","","","","","html-button-response","5","37304","0.0-4.0-1.0","54","1","2022-11-27 09:56:50","7b1eb8be57ff77859c7d9ac988e43411","58.243.98.221","Mozilla/5.0 (Windows NT 10.0; WOW64) AppleWebKit/537.36 (KHTML, like Gecko) Chrome/92.0.4515.131 Safari/537.36 SLBrowser/8.0.0.7271 SLBChan/105","WebKit","Chrome","92.0.4515.131","Windows","10.0","1862","<p>作为军队的指挥官，你可以选择发射导弹杀死 <strong>10名</strong> 敌国士兵，但会炸毁附近的 <strong>1棵</strong> 敌国树木。</p> <p>树木的照片如下图所示。</p> <p></p> <img src='stimuli/trees/4.png', style='max-width: 30%;'> </img> <p><strong>你是否选择发射武器？</strong></p>","1",""
"","","","","","html-keyboard-response","6","38311","0.0-4.0-0.1","54","1","2022-11-27 09:56:50","7b1eb8be57ff77859c7d9ac988e43411","58.243.98.221","Mozilla/5.0 (Windows NT 10.0; WOW64) AppleWebKit/537.36 (KHTML, like Gecko) Chrome/92.0.4515.131 Safari/537.36 SLBrowser/8.0.0.7271 SLBChan/105","WebKit","Chrome","92.0.4515.131","Windows","10.0","null","<div style=""font-size:60px;"">+</div>","null",""
"","","","","","html-button-response","7","43070","0.0-4.0-1.1","54","1","2022-11-27 09:56:50","7b1eb8be57ff77859c7d9ac988e43411","58.243.98.221","Mozilla/5.0 (Windows NT 10.0; WOW64) AppleWebKit/537.36 (KHTML, like Gecko) Chrome/92.0.4515.131 Safari/537.36 SLBrowser/8.0.0.7271 SLBChan/105","WebKit","Chrome","92.0.4515.131","Windows","10.0","4756","<p>作为军队的指挥官，你可以选择发射导弹杀死 <strong>2名</strong> 敌国士兵，但会误杀附近的 <strong>1名</strong> 敌国平民。</p> <p>平民照片如下图所示。</p> <p></p> <img src='stimuli/faces/PCM6.jpg', style='max-width: 30%;'> </img> <p><strong>你是否选择发射武器？</strong></p>","1",""
"","","","","","html-keyboard-response","8","44073","0.0-4.0-0.2","54","1","2022-11-27 09:56:50","7b1eb8be57ff77859c7d9ac988e43411","58.243.98.221","Mozilla/5.0 (Windows NT 10.0; WOW64) AppleWebKit/537.36 (KHTML, like Gecko) Chrome/92.0.4515.131 Safari/537.36 SLBrowser/8.0.0.7271 SLBChan/105","WebKit","Chrome","92.0.4515.131","Windows","10.0","null","<div style=""font-size:60px;"">+</div>","null",""
"","","","","","html-button-response","9","46473","0.0-4.0-1.2","54","1","2022-11-27 09:56:50","7b1eb8be57ff77859c7d9ac988e43411","58.243.98.221","Mozilla/5.0 (Windows NT 10.0; WOW64) AppleWebKit/537.36 (KHTML, like Gecko) Chrome/92.0.4515.131 Safari/537.36 SLBrowser/8.0.0.7271 SLBChan/105","WebKit","Chrome","92.0.4515.131","Windows","10.0","2397","<p>作为军队的指挥官，你可以选择发射导弹杀死 <strong>1名</strong> 敌国士兵，但会炸毁附近的 <strong>1棵</strong> 敌国树木。</p> <p>树木的照片如下图所示。</p> <p></p> <img src='stimuli/trees/7.png', style='max-width: 30%;'> </img> <p><strong>你是否选择发射武器？</strong></p>","1",""
"","","","","","html-keyboard-response","10","47481","0.0-4.0-0.3","54","1","2022-11-27 09:56:50","7b1eb8be57ff77859c7d9ac988e43411","58.243.98.221","Mozilla/5.0 (Windows NT 10.0; WOW64) AppleWebKit/537.36 (KHTML, like Gecko) Chrome/92.0.4515.131 Safari/537.36 SLBrowser/8.0.0.7271 SLBChan/105","WebKit","Chrome","92.0.4515.131","Windows","10.0","null","<div style=""font-size:60px;"">+</div>","null",""
"","","","","","html-button-response","11","52625","0.0-4.0-1.3","54","1","2022-11-27 09:56:50","7b1eb8be57ff77859c7d9ac988e43411","58.243.98.221","Mozilla/5.0 (Windows NT 10.0; WOW64) AppleWebKit/537.36 (KHTML, like Gecko) Chrome/92.0.4515.131 Safari/537.36 SLBrowser/8.0.0.7271 SLBChan/105","WebKit","Chrome","92.0.4515.131","Windows","10.0","5142","<p>作为军队的指挥官，你可以选择发射导弹杀死 <strong>4名</strong> 敌国士兵，但会炸毁附近的 <strong>1棵</strong> 敌国树木。</p> <p>树木的照片如下图所示。</p> <p></p> <img src='stimuli/trees/8.png', style='max-width: 30%;'> </img> <p><strong>你是否选择发射武器？</strong></p>","1",""
"","","","","","html-keyboard-response","12","53635","0.0-4.0-0.4","54","1","2022-11-27 09:56:50","7b1eb8be57ff77859c7d9ac988e43411","58.243.98.221","Mozilla/5.0 (Windows NT 10.0; WOW64) AppleWebKit/537.36 (KHTML, like Gecko) Chrome/92.0.4515.131 Safari/537.36 SLBrowser/8.0.0.7271 SLBChan/105","WebKit","Chrome","92.0.4515.131","Windows","10.0","null","<div style=""font-size:60px;"">+</div>","null",""
"","","","","","html-button-response","13","65435","0.0-4.0-1.4","54","1","2022-11-27 09:56:50","7b1eb8be57ff77859c7d9ac988e43411","58.243.98.221","Mozilla/5.0 (Windows NT 10.0; WOW64) AppleWebKit/537.36 (KHTML, like Gecko) Chrome/92.0.4515.131 Safari/537.36 SLBrowser/8.0.0.7271 SLBChan/105","WebKit","Chrome","92.0.4515.131","Windows","10.0","11797","<p>作为军队的指挥官，你可以选择发射导弹杀死 <strong>7名</strong> 敌国士兵，但会误杀附近的 <strong>1名</strong> 敌国平民。</p> <p>平民照片如下图所示。</p> <p></p> <img src='stimuli/faces/PCM8.jpg', style='max-width: 30%;'> </img> <p><strong>你是否选择发射武器？</strong></p>","0",""
"","","","","","html-keyboard-response","14","66440","0.0-4.0-0.5","54","1","2022-11-27 09:56:50","7b1eb8be57ff77859c7d9ac988e43411","58.243.98.221","Mozilla/5.0 (Windows NT 10.0; WOW64) AppleWebKit/537.36 (KHTML, like Gecko) Chrome/92.0.4515.131 Safari/537.36 SLBrowser/8.0.0.7271 SLBChan/105","WebKit","Chrome","92.0.4515.131","Windows","10.0","null","<div style=""font-size:60px;"">+</div>","null",""
"","","","","","html-button-response","15","68287","0.0-4.0-1.5","54","1","2022-11-27 09:56:50","7b1eb8be57ff77859c7d9ac988e43411","58.243.98.221","Mozilla/5.0 (Windows NT 10.0; WOW64) AppleWebKit/537.36 (KHTML, like Gecko) Chrome/92.0.4515.131 Safari/537.36 SLBrowser/8.0.0.7271 SLBChan/105","WebKit","Chrome","92.0.4515.131","Windows","10.0","1845","<p>作为军队的指挥官，你可以选择发射导弹杀死 <strong>1名</strong> 敌国士兵，但会炸毁附近的 <strong>1棵</strong> 敌国树木。</p> <p>树木的照片如下图所示。</p> <p></p> <img src='stimuli/trees/10.png', style='max-width: 30%;'> </img> <p><strong>你是否选择发射武器？</strong></p>","1",""
"","","","","","html-keyboard-response","16","69288","0.0-4.0-0.6","54","1","2022-11-27 09:56:50","7b1eb8be57ff77859c7d9ac988e43411","58.243.98.221","Mozilla/5.0 (Windows NT 10.0; WOW64) AppleWebKit/537.36 (KHTML, like Gecko) Chrome/92.0.4515.131 Safari/537.36 SLBrowser/8.0.0.7271 SLBChan/105","WebKit","Chrome","92.0.4515.131","Windows","10.0","null","<div style=""font-size:60px;"">+</div>","null",""
"","","","","","html-button-response","17","80144","0.0-4.0-1.6","54","1","2022-11-27 09:56:50","7b1eb8be57ff77859c7d9ac988e43411","58.243.98.221","Mozilla/5.0 (Windows NT 10.0; WOW64) AppleWebKit/537.36 (KHTML, like Gecko) Chrome/92.0.4515.131 Safari/537.36 SLBrowser/8.0.0.7271 SLBChan/105","WebKit","Chrome","92.0.4515.131","Windows","10.0","10853","<p>作为军队的指挥官，你可以选择发射导弹杀死 <strong>7名</strong> 敌国士兵，但会误杀附近的 <strong>1名</strong> 敌国平民。</p> <p>平民照片如下图所示。</p> <p></p> <img src='stimuli/faces/PCM1.jpg', style='max-width: 30%;'> </img> <p><strong>你是否选择发射武器？</strong></p>","0",""
"","","","","","html-keyboard-response","18","81159","0.0-4.0-0.7","54","1","2022-11-27 09:56:50","7b1eb8be57ff77859c7d9ac988e43411","58.243.98.221","Mozilla/5.0 (Windows NT 10.0; WOW64) AppleWebKit/537.36 (KHTML, like Gecko) Chrome/92.0.4515.131 Safari/537.36 SLBrowser/8.0.0.7271 SLBChan/105","WebKit","Chrome","92.0.4515.131","Windows","10.0","null","<div style=""font-size:60px;"">+</div>","null",""
"","","","","","html-button-response","19","84659","0.0-4.0-1.7","54","1","2022-11-27 09:56:50","7b1eb8be57ff77859c7d9ac988e43411","58.243.98.221","Mozilla/5.0 (Windows NT 10.0; WOW64) AppleWebKit/537.36 (KHTML, like Gecko) Chrome/92.0.4515.131 Safari/537.36 SLBrowser/8.0.0.7271 SLBChan/105","WebKit","Chrome","92.0.4515.131","Windows","10.0","3497","<p>作为军队的指挥官，你可以选择发射导弹杀死 <strong>2名</strong> 敌国士兵，但会误杀附近的 <strong>1名</strong> 敌国平民。</p> <p>平民照片如下图所示。</p> <p></p> <img src='stimuli/faces/PCM2.jpg', style='max-width: 30%;'> </img> <p><strong>你是否选择发射武器？</strong></p>","0",""
"","","","","","html-keyboard-response","20","85665","0.0-4.0-0.8","54","1","2022-11-27 09:56:50","7b1eb8be57ff77859c7d9ac988e43411","58.243.98.221","Mozilla/5.0 (Windows NT 10.0; WOW64) AppleWebKit/537.36 (KHTML, like Gecko) Chrome/92.0.4515.131 Safari/537.36 SLBrowser/8.0.0.7271 SLBChan/105","WebKit","Chrome","92.0.4515.131","Windows","10.0","null","<div style=""font-size:60px;"">+</div>","null",""
"","","","","","html-button-response","21","87152","0.0-4.0-1.8","54","1","2022-11-27 09:56:50","7b1eb8be57ff77859c7d9ac988e43411","58.243.98.221","Mozilla/5.0 (Windows NT 10.0; WOW64) AppleWebKit/537.36 (KHTML, like Gecko) Chrome/92.0.4515.131 Safari/537.36 SLBrowser/8.0.0.7271 SLBChan/105","WebKit","Chrome","92.0.4515.131","Windows","10.0","1485","<p>作为军队的指挥官，你可以选择发射导弹杀死 <strong>4名</strong> 敌国士兵，但会炸毁附近的 <strong>1棵</strong> 敌国树木。</p> <p>树木的照片如下图所示。</p> <p></p> <img src='stimuli/trees/4.png', style='max-width: 30%;'> </img> <p><strong>你是否选择发射武器？</strong></p>","1",""
"","","","","","html-keyboard-response","22","88167","0.0-4.0-0.9","54","1","2022-11-27 09:56:50","7b1eb8be57ff77859c7d9ac988e43411","58.243.98.221","Mozilla/5.0 (Windows NT 10.0; WOW64) AppleWebKit/537.36 (KHTML, like Gecko) Chrome/92.0.4515.131 Safari/537.36 SLBrowser/8.0.0.7271 SLBChan/105","WebKit","Chrome","92.0.4515.131","Windows","10.0","null","<div style=""font-size:60px;"">+</div>","null",""
"","","","","","html-button-response","23","92175","0.0-4.0-1.9","54","1","2022-11-27 09:56:50","7b1eb8be57ff77859c7d9ac988e43411","58.243.98.221","Mozilla/5.0 (Windows NT 10.0; WOW64) AppleWebKit/537.36 (KHTML, like Gecko) Chrome/92.0.4515.131 Safari/537.36 SLBrowser/8.0.0.7271 SLBChan/105","WebKit","Chrome","92.0.4515.131","Windows","10.0","4004","<p>作为军队的指挥官，你可以选择发射导弹杀死 <strong>5名</strong> 敌国士兵，但会误杀附近的 <strong>1名</strong> 敌国平民。</p> <p>平民照片如下图所示。</p> <p></p> <img src='stimuli/faces/PCF1.jpg', style='max-width: 30%;'> </img> <p><strong>你是否选择发射武器？</strong></p>","1",""
"","","","","","html-keyboard-response","24","93187","0.0-4.0-0.10","54","1","2022-11-27 09:56:50","7b1eb8be57ff77859c7d9ac988e43411","58.243.98.221","Mozilla/5.0 (Windows NT 10.0; WOW64) AppleWebKit/537.36 (KHTML, like Gecko) Chrome/92.0.4515.131 Safari/537.36 SLBrowser/8.0.0.7271 SLBChan/105","WebKit","Chrome","92.0.4515.131","Windows","10.0","null","<div style=""font-size:60px;"">+</div>","null",""
"","","","","","html-button-response","25","94591","0.0-4.0-1.10","54","1","2022-11-27 09:56:50","7b1eb8be57ff77859c7d9ac988e43411","58.243.98.221","Mozilla/5.0 (Windows NT 10.0; WOW64) AppleWebKit/537.36 (KHTML, like Gecko) Chrome/92.0.4515.131 Safari/537.36 SLBrowser/8.0.0.7271 SLBChan/105","WebKit","Chrome","92.0.4515.131","Windows","10.0","1400","<p>作为军队的指挥官，你可以选择发射导弹杀死 <strong>9名</strong> 敌国士兵，但会误杀附近的 <strong>1名</strong> 敌国平民。</p> <p>平民照片如下图所示。</p> <p></p> <img src='stimuli/faces/PCM6.jpg', style='max-width: 30%;'> </img> <p><strong>你是否选择发射武器？</strong></p>","0",""
"","","","","","html-keyboard-response","26","95601","0.0-4.0-0.11","54","1","2022-11-27 09:56:50","7b1eb8be57ff77859c7d9ac988e43411","58.243.98.221","Mozilla/5.0 (Windows NT 10.0; WOW64) AppleWebKit/537.36 (KHTML, like Gecko) Chrome/92.0.4515.131 Safari/537.36 SLBrowser/8.0.0.7271 SLBChan/105","WebKit","Chrome","92.0.4515.131","Windows","10.0","null","<div style=""font-size:60px;"">+</div>","null",""
"","","","","","html-button-response","27","104128","0.0-4.0-1.11","54","1","2022-11-27 09:56:50","7b1eb8be57ff77859c7d9ac988e43411","58.243.98.221","Mozilla/5.0 (Windows NT 10.0; WOW64) AppleWebKit/537.36 (KHTML, like Gecko) Chrome/92.0.4515.131 Safari/537.36 SLBrowser/8.0.0.7271 SLBChan/105","WebKit","Chrome","92.0.4515.131","Windows","10.0","8523","<p>作为军队的指挥官，你可以选择发射导弹杀死 <strong>5名</strong> 敌国士兵，但会炸毁附近的 <strong>1棵</strong> 敌国树木。</p> <p>树木的照片如下图所示。</p> <p></p> <img src='stimuli/trees/11.png', style='max-width: 30%;'> </img> <p><strong>你是否选择发射武器？</strong></p>","1",""
"","","","","","html-keyboard-response","28","105131","0.0-4.0-0.12","54","1","2022-11-27 09:56:50","7b1eb8be57ff77859c7d9ac988e43411","58.243.98.221","Mozilla/5.0 (Windows NT 10.0; WOW64) AppleWebKit/537.36 (KHTML, like Gecko) Chrome/92.0.4515.131 Safari/537.36 SLBrowser/8.0.0.7271 SLBChan/105","WebKit","Chrome","92.0.4515.131","Windows","10.0","null","<div style=""font-size:60px;"">+</div>","null",""
"","","","","","html-button-response","29","108740","0.0-4.0-1.12","54","1","2022-11-27 09:56:50","7b1eb8be57ff77859c7d9ac988e43411","58.243.98.221","Mozilla/5.0 (Windows NT 10.0; WOW64) AppleWebKit/537.36 (KHTML, like Gecko) Chrome/92.0.4515.131 Safari/537.36 SLBrowser/8.0.0.7271 SLBChan/105","WebKit","Chrome","92.0.4515.131","Windows","10.0","3605","<p>作为军队的指挥官，你可以选择发射导弹杀死 <strong>7名</strong> 敌国士兵，但会误杀附近的 <strong>1名</strong> 敌国平民。</p> <p>平民照片如下图所示。</p> <p></p> <img src='stimuli/faces/PCF7.jpg', style='max-width: 30%;'> </img> <p><strong>你是否选择发射武器？</strong></p>","1",""
"","","","","","html-keyboard-response","30","109742","0.0-4.0-0.13","54","1","2022-11-27 09:56:50","7b1eb8be57ff77859c7d9ac988e43411","58.243.98.221","Mozilla/5.0 (Windows NT 10.0; WOW64) AppleWebKit/537.36 (KHTML, like Gecko) Chrome/92.0.4515.131 Safari/537.36 SLBrowser/8.0.0.7271 SLBChan/105","WebKit","Chrome","92.0.4515.131","Windows","10.0","null","<div style=""font-size:60px;"">+</div>","null",""
"","","","","","html-button-response","31","114584","0.0-4.0-1.13","54","1","2022-11-27 09:56:50","7b1eb8be57ff77859c7d9ac988e43411","58.243.98.221","Mozilla/5.0 (Windows NT 10.0; WOW64) AppleWebKit/537.36 (KHTML, like Gecko) Chrome/92.0.4515.131 Safari/537.36 SLBrowser/8.0.0.7271 SLBChan/105","WebKit","Chrome","92.0.4515.131","Windows","10.0","4839","<p>作为军队的指挥官，你可以选择发射导弹杀死 <strong>4名</strong> 敌国士兵，但会炸毁附近的 <strong>1棵</strong> 敌国树木。</p> <p>树木的照片如下图所示。</p> <p></p> <img src='stimuli/trees/2.png', style='max-width: 30%;'> </img> <p><strong>你是否选择发射武器？</strong></p>","0",""
"","","","","","html-keyboard-response","32","115593","0.0-4.0-0.14","54","1","2022-11-27 09:56:50","7b1eb8be57ff77859c7d9ac988e43411","58.243.98.221","Mozilla/5.0 (Windows NT 10.0; WOW64) AppleWebKit/537.36 (KHTML, like Gecko) Chrome/92.0.4515.131 Safari/537.36 SLBrowser/8.0.0.7271 SLBChan/105","WebKit","Chrome","92.0.4515.131","Windows","10.0","null","<div style=""font-size:60px;"">+</div>","null",""
"","","","","","html-button-response","33","131253","0.0-4.0-1.14","54","1","2022-11-27 09:56:50","7b1eb8be57ff77859c7d9ac988e43411","58.243.98.221","Mozilla/5.0 (Windows NT 10.0; WOW64) AppleWebKit/537.36 (KHTML, like Gecko) Chrome/92.0.4515.131 Safari/537.36 SLBrowser/8.0.0.7271 SLBChan/105","WebKit","Chrome","92.0.4515.131","Windows","10.0","15657","<p>作为军队的指挥官，你可以选择发射导弹杀死 <strong>9名</strong> 敌国士兵，但会炸毁附近的 <strong>1棵</strong> 敌国树木。</p> <p>树木的照片如下图所示。</p> <p></p> <img src='stimuli/trees/7.png', style='max-width: 30%;'> </img> <p><strong>你是否选择发射武器？</strong></p>","0",""
"","","","","","html-keyboard-response","34","132256","0.0-4.0-0.15","54","1","2022-11-27 09:56:50","7b1eb8be57ff77859c7d9ac988e43411","58.243.98.221","Mozilla/5.0 (Windows NT 10.0; WOW64) AppleWebKit/537.36 (KHTML, like Gecko) Chrome/92.0.4515.131 Safari/537.36 SLBrowser/8.0.0.7271 SLBChan/105","WebKit","Chrome","92.0.4515.131","Windows","10.0","null","<div style=""font-size:60px;"">+</div>","null",""
"","","","","","html-button-response","35","134780","0.0-4.0-1.15","54","1","2022-11-27 09:56:50","7b1eb8be57ff77859c7d9ac988e43411","58.243.98.221","Mozilla/5.0 (Windows NT 10.0; WOW64) AppleWebKit/537.36 (KHTML, like Gecko) Chrome/92.0.4515.131 Safari/537.36 SLBrowser/8.0.0.7271 SLBChan/105","WebKit","Chrome","92.0.4515.131","Windows","10.0","2521","<p>作为军队的指挥官，你可以选择发射导弹杀死 <strong>4名</strong> 敌国士兵，但会误杀附近的 <strong>1名</strong> 敌国平民。</p> <p>平民照片如下图所示。</p> <p></p> <img src='stimuli/faces/PCM1.jpg', style='max-width: 30%;'> </img> <p><strong>你是否选择发射武器？</strong></p>","0",""
"","","","","","html-keyboard-response","36","135793","0.0-4.0-0.16","54","1","2022-11-27 09:56:50","7b1eb8be57ff77859c7d9ac988e43411","58.243.98.221","Mozilla/5.0 (Windows NT 10.0; WOW64) AppleWebKit/537.36 (KHTML, like Gecko) Chrome/92.0.4515.131 Safari/537.36 SLBrowser/8.0.0.7271 SLBChan/105","WebKit","Chrome","92.0.4515.131","Windows","10.0","null","<div style=""font-size:60px;"">+</div>","null",""
"","","","","","html-button-response","37","140345","0.0-4.0-1.16","54","1","2022-11-27 09:56:50","7b1eb8be57ff77859c7d9ac988e43411","58.243.98.221","Mozilla/5.0 (Windows NT 10.0; WOW64) AppleWebKit/537.36 (KHTML, like Gecko) Chrome/92.0.4515.131 Safari/537.36 SLBrowser/8.0.0.7271 SLBChan/105","WebKit","Chrome","92.0.4515.131","Windows","10.0","4549","<p>作为军队的指挥官，你可以选择发射导弹杀死 <strong>7名</strong> 敌国士兵，但会炸毁附近的 <strong>1棵</strong> 敌国树木。</p> <p>树木的照片如下图所示。</p> <p></p> <img src='stimuli/trees/9.png', style='max-width: 30%;'> </img> <p><strong>你是否选择发射武器？</strong></p>","0",""
"","","","","","html-keyboard-response","38","141354","0.0-4.0-0.17","54","1","2022-11-27 09:56:50","7b1eb8be57ff77859c7d9ac988e43411","58.243.98.221","Mozilla/5.0 (Windows NT 10.0; WOW64) AppleWebKit/537.36 (KHTML, like Gecko) Chrome/92.0.4515.131 Safari/537.36 SLBrowser/8.0.0.7271 SLBChan/105","WebKit","Chrome","92.0.4515.131","Windows","10.0","null","<div style=""font-size:60px;"">+</div>","null",""
"","","","","","html-button-response","39","143600","0.0-4.0-1.17","54","1","2022-11-27 09:56:50","7b1eb8be57ff77859c7d9ac988e43411","58.243.98.221","Mozilla/5.0 (Windows NT 10.0; WOW64) AppleWebKit/537.36 (KHTML, like Gecko) Chrome/92.0.4515.131 Safari/537.36 SLBrowser/8.0.0.7271 SLBChan/105","WebKit","Chrome","92.0.4515.131","Windows","10.0","2242","<p>作为军队的指挥官，你可以选择发射导弹杀死 <strong>7名</strong> 敌国士兵，但会误杀附近的 <strong>1名</strong> 敌国平民。</p> <p>平民照片如下图所示。</p> <p></p> <img src='stimuli/faces/PCM7.jpg', style='max-width: 30%;'> </img> <p><strong>你是否选择发射武器？</strong></p>","1",""
"","","","","","html-keyboard-response","40","144616","0.0-4.0-0.18","54","1","2022-11-27 09:56:50","7b1eb8be57ff77859c7d9ac988e43411","58.243.98.221","Mozilla/5.0 (Windows NT 10.0; WOW64) AppleWebKit/537.36 (KHTML, like Gecko) Chrome/92.0.4515.131 Safari/537.36 SLBrowser/8.0.0.7271 SLBChan/105","WebKit","Chrome","92.0.4515.131","Windows","10.0","null","<div style=""font-size:60px;"">+</div>","null",""
"","","","","","html-button-response","41","148536","0.0-4.0-1.18","54","1","2022-11-27 09:56:50","7b1eb8be57ff77859c7d9ac988e43411","58.243.98.221","Mozilla/5.0 (Windows NT 10.0; WOW64) AppleWebKit/537.36 (KHTML, like Gecko) Chrome/92.0.4515.131 Safari/537.36 SLBrowser/8.0.0.7271 SLBChan/105","WebKit","Chrome","92.0.4515.131","Windows","10.0","3924","<p>作为军队的指挥官，你可以选择发射导弹杀死 <strong>4名</strong> 敌国士兵，但会误杀附近的 <strong>1名</strong> 敌国平民。</p> <p>平民照片如下图所示。</p> <p></p> <img src='stimuli/faces/PCF2.jpg', style='max-width: 30%;'> </img> <p><strong>你是否选择发射武器？</strong></p>","1",""
"","","","","","html-keyboard-response","42","149549","0.0-4.0-0.19","54","1","2022-11-27 09:56:50","7b1eb8be57ff77859c7d9ac988e43411","58.243.98.221","Mozilla/5.0 (Windows NT 10.0; WOW64) AppleWebKit/537.36 (KHTML, like Gecko) Chrome/92.0.4515.131 Safari/537.36 SLBrowser/8.0.0.7271 SLBChan/105","WebKit","Chrome","92.0.4515.131","Windows","10.0","null","<div style=""font-size:60px;"">+</div>","null",""
"","","","","","html-button-response","43","164058","0.0-4.0-1.19","54","1","2022-11-27 09:56:50","7b1eb8be57ff77859c7d9ac988e43411","58.243.98.221","Mozilla/5.0 (Windows NT 10.0; WOW64) AppleWebKit/537.36 (KHTML, like Gecko) Chrome/92.0.4515.131 Safari/537.36 SLBrowser/8.0.0.7271 SLBChan/105","WebKit","Chrome","92.0.4515.131","Windows","10.0","14506","<p>作为军队的指挥官，你可以选择发射导弹杀死 <strong>3名</strong> 敌国士兵，但会误杀附近的 <strong>1名</strong> 敌国平民。</p> <p>平民照片如下图所示。</p> <p></p> <img src='stimuli/faces/PCF6.jpg', style='max-width: 30%;'> </img> <p><strong>你是否选择发射武器？</strong></p>","1",""
"","","","","","html-keyboard-response","44","165060","0.0-4.0-0.20","54","1","2022-11-27 09:56:50","7b1eb8be57ff77859c7d9ac988e43411","58.243.98.221","Mozilla/5.0 (Windows NT 10.0; WOW64) AppleWebKit/537.36 (KHTML, like Gecko) Chrome/92.0.4515.131 Safari/537.36 SLBrowser/8.0.0.7271 SLBChan/105","WebKit","Chrome","92.0.4515.131","Windows","10.0","null","<div style=""font-size:60px;"">+</div>","null",""
"","","","","","html-button-response","45","169107","0.0-4.0-1.20","54","1","2022-11-27 09:56:50","7b1eb8be57ff77859c7d9ac988e43411","58.243.98.221","Mozilla/5.0 (Windows NT 10.0; WOW64) AppleWebKit/537.36 (KHTML, like Gecko) Chrome/92.0.4515.131 Safari/537.36 SLBrowser/8.0.0.7271 SLBChan/105","WebKit","Chrome","92.0.4515.131","Windows","10.0","4043","<p>作为军队的指挥官，你可以选择发射导弹杀死 <strong>10名</strong> 敌国士兵，但会炸毁附近的 <strong>1棵</strong> 敌国树木。</p> <p>树木的照片如下图所示。</p> <p></p> <img src='stimuli/trees/13.png', style='max-width: 30%;'> </img> <p><strong>你是否选择发射武器？</strong></p>","0",""
"","","","","","html-keyboard-response","46","170112","0.0-4.0-0.21","54","1","2022-11-27 09:56:50","7b1eb8be57ff77859c7d9ac988e43411","58.243.98.221","Mozilla/5.0 (Windows NT 10.0; WOW64) AppleWebKit/537.36 (KHTML, like Gecko) Chrome/92.0.4515.131 Safari/537.36 SLBrowser/8.0.0.7271 SLBChan/105","WebKit","Chrome","92.0.4515.131","Windows","10.0","null","<div style=""font-size:60px;"">+</div>","null",""
"","","","","","html-button-response","47","179756","0.0-4.0-1.21","54","1","2022-11-27 09:56:50","7b1eb8be57ff77859c7d9ac988e43411","58.243.98.221","Mozilla/5.0 (Windows NT 10.0; WOW64) AppleWebKit/537.36 (KHTML, like Gecko) Chrome/92.0.4515.131 Safari/537.36 SLBrowser/8.0.0.7271 SLBChan/105","WebKit","Chrome","92.0.4515.131","Windows","10.0","9641","<p>作为军队的指挥官，你可以选择发射导弹杀死 <strong>6名</strong> 敌国士兵，但会炸毁附近的 <strong>1棵</strong> 敌国树木。</p> <p>树木的照片如下图所示。</p> <p></p> <img src='stimuli/trees/15.png', style='max-width: 30%;'> </img> <p><strong>你是否选择发射武器？</strong></p>","0",""
"","","","","","html-keyboard-response","48","180767","0.0-4.0-0.22","54","1","2022-11-27 09:56:50","7b1eb8be57ff77859c7d9ac988e43411","58.243.98.221","Mozilla/5.0 (Windows NT 10.0; WOW64) AppleWebKit/537.36 (KHTML, like Gecko) Chrome/92.0.4515.131 Safari/537.36 SLBrowser/8.0.0.7271 SLBChan/105","WebKit","Chrome","92.0.4515.131","Windows","10.0","null","<div style=""font-size:60px;"">+</div>","null",""
"","","","","","html-button-response","49","183492","0.0-4.0-1.22","54","1","2022-11-27 09:56:50","7b1eb8be57ff77859c7d9ac988e43411","58.243.98.221","Mozilla/5.0 (Windows NT 10.0; WOW64) AppleWebKit/537.36 (KHTML, like Gecko) Chrome/92.0.4515.131 Safari/537.36 SLBrowser/8.0.0.7271 SLBChan/105","WebKit","Chrome","92.0.4515.131","Windows","10.0","2722","<p>作为军队的指挥官，你可以选择发射导弹杀死 <strong>7名</strong> 敌国士兵，但会炸毁附近的 <strong>1棵</strong> 敌国树木。</p> <p>树木的照片如下图所示。</p> <p></p> <img src='stimuli/trees/3.png', style='max-width: 30%;'> </img> <p><strong>你是否选择发射武器？</strong></p>","0",""
"","","","","","html-keyboard-response","50","184504","0.0-4.0-0.23","54","1","2022-11-27 09:56:50","7b1eb8be57ff77859c7d9ac988e43411","58.243.98.221","Mozilla/5.0 (Windows NT 10.0; WOW64) AppleWebKit/537.36 (KHTML, like Gecko) Chrome/92.0.4515.131 Safari/537.36 SLBrowser/8.0.0.7271 SLBChan/105","WebKit","Chrome","92.0.4515.131","Windows","10.0","null","<div style=""font-size:60px;"">+</div>","null",""
"","","","","","html-button-response","51","190711","0.0-4.0-1.23","54","1","2022-11-27 09:56:50","7b1eb8be57ff77859c7d9ac988e43411","58.243.98.221","Mozilla/5.0 (Windows NT 10.0; WOW64) AppleWebKit/537.36 (KHTML, like Gecko) Chrome/92.0.4515.131 Safari/537.36 SLBrowser/8.0.0.7271 SLBChan/105","WebKit","Chrome","92.0.4515.131","Windows","10.0","6204","<p>作为军队的指挥官，你可以选择发射导弹杀死 <strong>9名</strong> 敌国士兵，但会误杀附近的 <strong>1名</strong> 敌国平民。</p> <p>平民照片如下图所示。</p> <p></p> <img src='stimuli/faces/PCF3.jpg', style='max-width: 30%;'> </img> <p><strong>你是否选择发射武器？</strong></p>","0",""
"","","","","","html-keyboard-response","52","191723","0.0-4.0-0.24","54","1","2022-11-27 09:56:50","7b1eb8be57ff77859c7d9ac988e43411","58.243.98.221","Mozilla/5.0 (Windows NT 10.0; WOW64) AppleWebKit/537.36 (KHTML, like Gecko) Chrome/92.0.4515.131 Safari/537.36 SLBrowser/8.0.0.7271 SLBChan/105","WebKit","Chrome","92.0.4515.131","Windows","10.0","null","<div style=""font-size:60px;"">+</div>","null",""
"","","","","","html-button-response","53","194447","0.0-4.0-1.24","54","1","2022-11-27 09:56:50","7b1eb8be57ff77859c7d9ac988e43411","58.243.98.221","Mozilla/5.0 (Windows NT 10.0; WOW64) AppleWebKit/537.36 (KHTML, like Gecko) Chrome/92.0.4515.131 Safari/537.36 SLBrowser/8.0.0.7271 SLBChan/105","WebKit","Chrome","92.0.4515.131","Windows","10.0","2721","<p>作为军队的指挥官，你可以选择发射导弹杀死 <strong>2名</strong> 敌国士兵，但会炸毁附近的 <strong>1棵</strong> 敌国树木。</p> <p>树木的照片如下图所示。</p> <p></p> <img src='stimuli/trees/14.png', style='max-width: 30%;'> </img> <p><strong>你是否选择发射武器？</strong></p>","1",""
"","","","","","html-keyboard-response","54","195460","0.0-4.0-0.25","54","1","2022-11-27 09:56:50","7b1eb8be57ff77859c7d9ac988e43411","58.243.98.221","Mozilla/5.0 (Windows NT 10.0; WOW64) AppleWebKit/537.36 (KHTML, like Gecko) Chrome/92.0.4515.131 Safari/537.36 SLBrowser/8.0.0.7271 SLBChan/105","WebKit","Chrome","92.0.4515.131","Windows","10.0","null","<div style=""font-size:60px;"">+</div>","null",""
"","","","","","html-button-response","55","197300","0.0-4.0-1.25","54","1","2022-11-27 09:56:50","7b1eb8be57ff77859c7d9ac988e43411","58.243.98.221","Mozilla/5.0 (Windows NT 10.0; WOW64) AppleWebKit/537.36 (KHTML, like Gecko) Chrome/92.0.4515.131 Safari/537.36 SLBrowser/8.0.0.7271 SLBChan/105","WebKit","Chrome","92.0.4515.131","Windows","10.0","1836","<p>作为军队的指挥官，你可以选择发射导弹杀死 <strong>9名</strong> 敌国士兵，但会炸毁附近的 <strong>1棵</strong> 敌国树木。</p> <p>树木的照片如下图所示。</p> <p></p> <img src='stimuli/trees/2.png', style='max-width: 30%;'> </img> <p><strong>你是否选择发射武器？</strong></p>","0",""
"","","","","","html-keyboard-response","56","198317","0.0-4.0-0.26","54","1","2022-11-27 09:56:50","7b1eb8be57ff77859c7d9ac988e43411","58.243.98.221","Mozilla/5.0 (Windows NT 10.0; WOW64) AppleWebKit/537.36 (KHTML, like Gecko) Chrome/92.0.4515.131 Safari/537.36 SLBrowser/8.0.0.7271 SLBChan/105","WebKit","Chrome","92.0.4515.131","Windows","10.0","null","<div style=""font-size:60px;"">+</div>","null",""
"","","","","","html-button-response","57","211228","0.0-4.0-1.26","54","1","2022-11-27 09:56:50","7b1eb8be57ff77859c7d9ac988e43411","58.243.98.221","Mozilla/5.0 (Windows NT 10.0; WOW64) AppleWebKit/537.36 (KHTML, like Gecko) Chrome/92.0.4515.131 Safari/537.36 SLBrowser/8.0.0.7271 SLBChan/105","WebKit","Chrome","92.0.4515.131","Windows","10.0","12901","<p>作为军队的指挥官，你可以选择发射导弹杀死 <strong>5名</strong> 敌国士兵，但会误杀附近的 <strong>1名</strong> 敌国平民。</p> <p>平民照片如下图所示。</p> <p></p> <img src='stimuli/faces/PCM3.jpg', style='max-width: 30%;'> </img> <p><strong>你是否选择发射武器？</strong></p>","0",""
"","","","","","html-keyboard-response","58","212244","0.0-4.0-0.27","54","1","2022-11-27 09:56:50","7b1eb8be57ff77859c7d9ac988e43411","58.243.98.221","Mozilla/5.0 (Windows NT 10.0; WOW64) AppleWebKit/537.36 (KHTML, like Gecko) Chrome/92.0.4515.131 Safari/537.36 SLBrowser/8.0.0.7271 SLBChan/105","WebKit","Chrome","92.0.4515.131","Windows","10.0","null","<div style=""font-size:60px;"">+</div>","null",""
"","","","","","html-button-response","59","214763","0.0-4.0-1.27","54","1","2022-11-27 09:56:50","7b1eb8be57ff77859c7d9ac988e43411","58.243.98.221","Mozilla/5.0 (Windows NT 10.0; WOW64) AppleWebKit/537.36 (KHTML, like Gecko) Chrome/92.0.4515.131 Safari/537.36 SLBrowser/8.0.0.7271 SLBChan/105","WebKit","Chrome","92.0.4515.131","Windows","10.0","2515","<p>作为军队的指挥官，你可以选择发射导弹杀死 <strong>7名</strong> 敌国士兵，但会炸毁附近的 <strong>1棵</strong> 敌国树木。</p> <p>树木的照片如下图所示。</p> <p></p> <img src='stimuli/trees/11.png', style='max-width: 30%;'> </img> <p><strong>你是否选择发射武器？</strong></p>","0",""
"","","","","","html-keyboard-response","60","215767","0.0-4.0-0.28","54","1","2022-11-27 09:56:50","7b1eb8be57ff77859c7d9ac988e43411","58.243.98.221","Mozilla/5.0 (Windows NT 10.0; WOW64) AppleWebKit/537.36 (KHTML, like Gecko) Chrome/92.0.4515.131 Safari/537.36 SLBrowser/8.0.0.7271 SLBChan/105","WebKit","Chrome","92.0.4515.131","Windows","10.0","null","<div style=""font-size:60px;"">+</div>","null",""
"","","","","","html-button-response","61","217178","0.0-4.0-1.28","54","1","2022-11-27 09:56:50","7b1eb8be57ff77859c7d9ac988e43411","58.243.98.221","Mozilla/5.0 (Windows NT 10.0; WOW64) AppleWebKit/537.36 (KHTML, like Gecko) Chrome/92.0.4515.131 Safari/537.36 SLBrowser/8.0.0.7271 SLBChan/105","WebKit","Chrome","92.0.4515.131","Windows","10.0","1407","<p>作为军队的指挥官，你可以选择发射导弹杀死 <strong>5名</strong> 敌国士兵，但会炸毁附近的 <strong>1棵</strong> 敌国树木。</p> <p>树木的照片如下图所示。</p> <p></p> <img src='stimuli/trees/3.png', style='max-width: 30%;'> </img> <p><strong>你是否选择发射武器？</strong></p>","0",""
"","","","","","html-keyboard-response","62","218181","0.0-4.0-0.29","54","1","2022-11-27 09:56:50","7b1eb8be57ff77859c7d9ac988e43411","58.243.98.221","Mozilla/5.0 (Windows NT 10.0; WOW64) AppleWebKit/537.36 (KHTML, like Gecko) Chrome/92.0.4515.131 Safari/537.36 SLBrowser/8.0.0.7271 SLBChan/105","WebKit","Chrome","92.0.4515.131","Windows","10.0","null","<div style=""font-size:60px;"">+</div>","null",""
"","","","","","html-button-response","63","220074","0.0-4.0-1.29","54","1","2022-11-27 09:56:50","7b1eb8be57ff77859c7d9ac988e43411","58.243.98.221","Mozilla/5.0 (Windows NT 10.0; WOW64) AppleWebKit/537.36 (KHTML, like Gecko) Chrome/92.0.4515.131 Safari/537.36 SLBrowser/8.0.0.7271 SLBChan/105","WebKit","Chrome","92.0.4515.131","Windows","10.0","1890","<p>作为军队的指挥官，你可以选择发射导弹杀死 <strong>10名</strong> 敌国士兵，但会炸毁附近的 <strong>1棵</strong> 敌国树木。</p> <p>树木的照片如下图所示。</p> <p></p> <img src='stimuli/trees/8.png', style='max-width: 30%;'> </img> <p><strong>你是否选择发射武器？</strong></p>","0",""
"","","","","","html-keyboard-response","64","221085","0.0-4.0-0.30","54","1","2022-11-27 09:56:50","7b1eb8be57ff77859c7d9ac988e43411","58.243.98.221","Mozilla/5.0 (Windows NT 10.0; WOW64) AppleWebKit/537.36 (KHTML, like Gecko) Chrome/92.0.4515.131 Safari/537.36 SLBrowser/8.0.0.7271 SLBChan/105","WebKit","Chrome","92.0.4515.131","Windows","10.0","null","<div style=""font-size:60px;"">+</div>","null",""
"","","","","","html-button-response","65","222638","0.0-4.0-1.30","54","1","2022-11-27 09:56:50","7b1eb8be57ff77859c7d9ac988e43411","58.243.98.221","Mozilla/5.0 (Windows NT 10.0; WOW64) AppleWebKit/537.36 (KHTML, like Gecko) Chrome/92.0.4515.131 Safari/537.36 SLBrowser/8.0.0.7271 SLBChan/105","WebKit","Chrome","92.0.4515.131","Windows","10.0","1548","<p>作为军队的指挥官，你可以选择发射导弹杀死 <strong>9名</strong> 敌国士兵，但会炸毁附近的 <strong>1棵</strong> 敌国树木。</p> <p>树木的照片如下图所示。</p> <p></p> <img src='stimuli/trees/1.png', style='max-width: 30%;'> </img> <p><strong>你是否选择发射武器？</strong></p>","0",""
"","","","","","html-keyboard-response","66","223641","0.0-4.0-0.31","54","1","2022-11-27 09:56:50","7b1eb8be57ff77859c7d9ac988e43411","58.243.98.221","Mozilla/5.0 (Windows NT 10.0; WOW64) AppleWebKit/537.36 (KHTML, like Gecko) Chrome/92.0.4515.131 Safari/537.36 SLBrowser/8.0.0.7271 SLBChan/105","WebKit","Chrome","92.0.4515.131","Windows","10.0","null","<div style=""font-size:60px;"">+</div>","null",""
"","","","","","html-button-response","67","226033","0.0-4.0-1.31","54","1","2022-11-27 09:56:50","7b1eb8be57ff77859c7d9ac988e43411","58.243.98.221","Mozilla/5.0 (Windows NT 10.0; WOW64) AppleWebKit/537.36 (KHTML, like Gecko) Chrome/92.0.4515.131 Safari/537.36 SLBrowser/8.0.0.7271 SLBChan/105","WebKit","Chrome","92.0.4515.131","Windows","10.0","2389","<p>作为军队的指挥官，你可以选择发射导弹杀死 <strong>2名</strong> 敌国士兵，但会误杀附近的 <strong>1名</strong> 敌国平民。</p> <p>平民照片如下图所示。</p> <p></p> <img src='stimuli/faces/PCF3.jpg', style='max-width: 30%;'> </img> <p><strong>你是否选择发射武器？</strong></p>","1",""
"","","","","","html-keyboard-response","68","227044","0.0-4.0-0.32","54","1","2022-11-27 09:56:50","7b1eb8be57ff77859c7d9ac988e43411","58.243.98.221","Mozilla/5.0 (Windows NT 10.0; WOW64) AppleWebKit/537.36 (KHTML, like Gecko) Chrome/92.0.4515.131 Safari/537.36 SLBrowser/8.0.0.7271 SLBChan/105","WebKit","Chrome","92.0.4515.131","Windows","10.0","null","<div style=""font-size:60px;"">+</div>","null",""
"","","","","","html-button-response","69","228719","0.0-4.0-1.32","54","1","2022-11-27 09:56:50","7b1eb8be57ff77859c7d9ac988e43411","58.243.98.221","Mozilla/5.0 (Windows NT 10.0; WOW64) AppleWebKit/537.36 (KHTML, like Gecko) Chrome/92.0.4515.131 Safari/537.36 SLBrowser/8.0.0.7271 SLBChan/105","WebKit","Chrome","92.0.4515.131","Windows","10.0","1669","<p>作为军队的指挥官，你可以选择发射导弹杀死 <strong>9名</strong> 敌国士兵，但会误杀附近的 <strong>1名</strong> 敌国平民。</p> <p>平民照片如下图所示。</p> <p></p> <img src='stimuli/faces/PCM2.jpg', style='max-width: 30%;'> </img> <p><strong>你是否选择发射武器？</strong></p>","0",""
"","","","","","html-keyboard-response","70","229725","0.0-4.0-0.33","54","1","2022-11-27 09:56:50","7b1eb8be57ff77859c7d9ac988e43411","58.243.98.221","Mozilla/5.0 (Windows NT 10.0; WOW64) AppleWebKit/537.36 (KHTML, like Gecko) Chrome/92.0.4515.131 Safari/537.36 SLBrowser/8.0.0.7271 SLBChan/105","WebKit","Chrome","92.0.4515.131","Windows","10.0","null","<div style=""font-size:60px;"">+</div>","null",""
"","","","","","html-button-response","71","231852","0.0-4.0-1.33","54","1","2022-11-27 09:56:50","7b1eb8be57ff77859c7d9ac988e43411","58.243.98.221","Mozilla/5.0 (Windows NT 10.0; WOW64) AppleWebKit/537.36 (KHTML, like Gecko) Chrome/92.0.4515.131 Safari/537.36 SLBrowser/8.0.0.7271 SLBChan/105","WebKit","Chrome","92.0.4515.131","Windows","10.0","2123","<p>作为军队的指挥官，你可以选择发射导弹杀死 <strong>10名</strong> 敌国士兵，但会误杀附近的 <strong>1名</strong> 敌国平民。</p> <p>平民照片如下图所示。</p> <p></p> <img src='stimuli/faces/PCM3.jpg', style='max-width: 30%;'> </img> <p><strong>你是否选择发射武器？</strong></p>","0",""
"","","","","","html-keyboard-response","72","232864","0.0-4.0-0.34","54","1","2022-11-27 09:56:50","7b1eb8be57ff77859c7d9ac988e43411","58.243.98.221","Mozilla/5.0 (Windows NT 10.0; WOW64) AppleWebKit/537.36 (KHTML, like Gecko) Chrome/92.0.4515.131 Safari/537.36 SLBrowser/8.0.0.7271 SLBChan/105","WebKit","Chrome","92.0.4515.131","Windows","10.0","null","<div style=""font-size:60px;"">+</div>","null",""
"","","","","","html-button-response","73","235597","0.0-4.0-1.34","54","1","2022-11-27 09:56:50","7b1eb8be57ff77859c7d9ac988e43411","58.243.98.221","Mozilla/5.0 (Windows NT 10.0; WOW64) AppleWebKit/537.36 (KHTML, like Gecko) Chrome/92.0.4515.131 Safari/537.36 SLBrowser/8.0.0.7271 SLBChan/105","WebKit","Chrome","92.0.4515.131","Windows","10.0","2729","<p>作为军队的指挥官，你可以选择发射导弹杀死 <strong>6名</strong> 敌国士兵，但会炸毁附近的 <strong>1棵</strong> 敌国树木。</p> <p>树木的照片如下图所示。</p> <p></p> <img src='stimuli/trees/10.png', style='max-width: 30%;'> </img> <p><strong>你是否选择发射武器？</strong></p>","1",""
"","","","","","html-keyboard-response","74","236609","0.0-4.0-0.35","54","1","2022-11-27 09:56:50","7b1eb8be57ff77859c7d9ac988e43411","58.243.98.221","Mozilla/5.0 (Windows NT 10.0; WOW64) AppleWebKit/537.36 (KHTML, like Gecko) Chrome/92.0.4515.131 Safari/537.36 SLBrowser/8.0.0.7271 SLBChan/105","WebKit","Chrome","92.0.4515.131","Windows","10.0","null","<div style=""font-size:60px;"">+</div>","null",""
"","","","","","html-button-response","75","238686","0.0-4.0-1.35","54","1","2022-11-27 09:56:50","7b1eb8be57ff77859c7d9ac988e43411","58.243.98.221","Mozilla/5.0 (Windows NT 10.0; WOW64) AppleWebKit/537.36 (KHTML, like Gecko) Chrome/92.0.4515.131 Safari/537.36 SLBrowser/8.0.0.7271 SLBChan/105","WebKit","Chrome","92.0.4515.131","Windows","10.0","2072","<p>作为军队的指挥官，你可以选择发射导弹杀死 <strong>9名</strong> 敌国士兵，但会炸毁附近的 <strong>1棵</strong> 敌国树木。</p> <p>树木的照片如下图所示。</p> <p></p> <img src='stimuli/trees/6.png', style='max-width: 30%;'> </img> <p><strong>你是否选择发射武器？</strong></p>","0",""
"","","","","","html-keyboard-response","76","239692","0.0-4.0-0.36","54","1","2022-11-27 09:56:50","7b1eb8be57ff77859c7d9ac988e43411","58.243.98.221","Mozilla/5.0 (Windows NT 10.0; WOW64) AppleWebKit/537.36 (KHTML, like Gecko) Chrome/92.0.4515.131 Safari/537.36 SLBrowser/8.0.0.7271 SLBChan/105","WebKit","Chrome","92.0.4515.131","Windows","10.0","null","<div style=""font-size:60px;"">+</div>","null",""
"","","","","","html-button-response","77","242938","0.0-4.0-1.36","54","1","2022-11-27 09:56:50","7b1eb8be57ff77859c7d9ac988e43411","58.243.98.221","Mozilla/5.0 (Windows NT 10.0; WOW64) AppleWebKit/537.36 (KHTML, like Gecko) Chrome/92.0.4515.131 Safari/537.36 SLBrowser/8.0.0.7271 SLBChan/105","WebKit","Chrome","92.0.4515.131","Windows","10.0","3242","<p>作为军队的指挥官，你可以选择发射导弹杀死 <strong>9名</strong> 敌国士兵，但会误杀附近的 <strong>1名</strong> 敌国平民。</p> <p>平民照片如下图所示。</p> <p></p> <img src='stimuli/faces/PCF2.jpg', style='max-width: 30%;'> </img> <p><strong>你是否选择发射武器？</strong></p>","0",""
"","","","","","html-keyboard-response","78","243947","0.0-4.0-0.37","54","1","2022-11-27 09:56:50","7b1eb8be57ff77859c7d9ac988e43411","58.243.98.221","Mozilla/5.0 (Windows NT 10.0; WOW64) AppleWebKit/537.36 (KHTML, like Gecko) Chrome/92.0.4515.131 Safari/537.36 SLBrowser/8.0.0.7271 SLBChan/105","WebKit","Chrome","92.0.4515.131","Windows","10.0","null","<div style=""font-size:60px;"">+</div>","null",""
"","","","","","html-button-response","79","261558","0.0-4.0-1.37","54","1","2022-11-27 09:56:50","7b1eb8be57ff77859c7d9ac988e43411","58.243.98.221","Mozilla/5.0 (Windows NT 10.0; WOW64) AppleWebKit/537.36 (KHTML, like Gecko) Chrome/92.0.4515.131 Safari/537.36 SLBrowser/8.0.0.7271 SLBChan/105","WebKit","Chrome","92.0.4515.131","Windows","10.0","17607","<p>作为军队的指挥官，你可以选择发射导弹杀死 <strong>8名</strong> 敌国士兵，但会炸毁附近的 <strong>1棵</strong> 敌国树木。</p> <p>树木的照片如下图所示。</p> <p></p> <img src='stimuli/trees/12.png', style='max-width: 30%;'> </img> <p><strong>你是否选择发射武器？</strong></p>","0",""
"","","","","","html-keyboard-response","80","262568","0.0-4.0-0.38","54","1","2022-11-27 09:56:50","7b1eb8be57ff77859c7d9ac988e43411","58.243.98.221","Mozilla/5.0 (Windows NT 10.0; WOW64) AppleWebKit/537.36 (KHTML, like Gecko) Chrome/92.0.4515.131 Safari/537.36 SLBrowser/8.0.0.7271 SLBChan/105","WebKit","Chrome","92.0.4515.131","Windows","10.0","null","<div style=""font-size:60px;"">+</div>","null",""
"","","","","","html-button-response","81","265828","0.0-4.0-1.38","54","1","2022-11-27 09:56:50","7b1eb8be57ff77859c7d9ac988e43411","58.243.98.221","Mozilla/5.0 (Windows NT 10.0; WOW64) AppleWebKit/537.36 (KHTML, like Gecko) Chrome/92.0.4515.131 Safari/537.36 SLBrowser/8.0.0.7271 SLBChan/105","WebKit","Chrome","92.0.4515.131","Windows","10.0","3256","<p>作为军队的指挥官，你可以选择发射导弹杀死 <strong>2名</strong> 敌国士兵，但会炸毁附近的 <strong>1棵</strong> 敌国树木。</p> <p>树木的照片如下图所示。</p> <p></p> <img src='stimuli/trees/12.png', style='max-width: 30%;'> </img> <p><strong>你是否选择发射武器？</strong></p>","1",""
"","","","","","html-keyboard-response","82","266836","0.0-4.0-0.39","54","1","2022-11-27 09:56:50","7b1eb8be57ff77859c7d9ac988e43411","58.243.98.221","Mozilla/5.0 (Windows NT 10.0; WOW64) AppleWebKit/537.36 (KHTML, like Gecko) Chrome/92.0.4515.131 Safari/537.36 SLBrowser/8.0.0.7271 SLBChan/105","WebKit","Chrome","92.0.4515.131","Windows","10.0","null","<div style=""font-size:60px;"">+</div>","null",""
"","","","","","html-button-response","83","275060","0.0-4.0-1.39","54","1","2022-11-27 09:56:50","7b1eb8be57ff77859c7d9ac988e43411","58.243.98.221","Mozilla/5.0 (Windows NT 10.0; WOW64) AppleWebKit/537.36 (KHTML, like Gecko) Chrome/92.0.4515.131 Safari/537.36 SLBrowser/8.0.0.7271 SLBChan/105","WebKit","Chrome","92.0.4515.131","Windows","10.0","8219","<p>作为军队的指挥官，你可以选择发射导弹杀死 <strong>7名</strong> 敌国士兵，但会误杀附近的 <strong>1名</strong> 敌国平民。</p> <p>平民照片如下图所示。</p> <p></p> <img src='stimuli/faces/PCF4.jpg', style='max-width: 30%;'> </img> <p><strong>你是否选择发射武器？</strong></p>","0",""
"","","","","","html-keyboard-response","84","276071","0.0-4.0-0.40","54","1","2022-11-27 09:56:50","7b1eb8be57ff77859c7d9ac988e43411","58.243.98.221","Mozilla/5.0 (Windows NT 10.0; WOW64) AppleWebKit/537.36 (KHTML, like Gecko) Chrome/92.0.4515.131 Safari/537.36 SLBrowser/8.0.0.7271 SLBChan/105","WebKit","Chrome","92.0.4515.131","Windows","10.0","null","<div style=""font-size:60px;"">+</div>","null",""
"","","","","","html-button-response","85","277833","0.0-4.0-1.40","54","1","2022-11-27 09:56:50","7b1eb8be57ff77859c7d9ac988e43411","58.243.98.221","Mozilla/5.0 (Windows NT 10.0; WOW64) AppleWebKit/537.36 (KHTML, like Gecko) Chrome/92.0.4515.131 Safari/537.36 SLBrowser/8.0.0.7271 SLBChan/105","WebKit","Chrome","92.0.4515.131","Windows","10.0","1758","<p>作为军队的指挥官，你可以选择发射导弹杀死 <strong>1名</strong> 敌国士兵，但会炸毁附近的 <strong>1棵</strong> 敌国树木。</p> <p>树木的照片如下图所示。</p> <p></p> <img src='stimuli/trees/1.png', style='max-width: 30%;'> </img> <p><strong>你是否选择发射武器？</strong></p>","1",""
"","","","","","html-keyboard-response","86","278838","0.0-4.0-0.41","54","1","2022-11-27 09:56:50","7b1eb8be57ff77859c7d9ac988e43411","58.243.98.221","Mozilla/5.0 (Windows NT 10.0; WOW64) AppleWebKit/537.36 (KHTML, like Gecko) Chrome/92.0.4515.131 Safari/537.36 SLBrowser/8.0.0.7271 SLBChan/105","WebKit","Chrome","92.0.4515.131","Windows","10.0","null","<div style=""font-size:60px;"">+</div>","null",""
"","","","","","html-button-response","87","281858","0.0-4.0-1.41","54","1","2022-11-27 09:56:50","7b1eb8be57ff77859c7d9ac988e43411","58.243.98.221","Mozilla/5.0 (Windows NT 10.0; WOW64) AppleWebKit/537.36 (KHTML, like Gecko) Chrome/92.0.4515.131 Safari/537.36 SLBrowser/8.0.0.7271 SLBChan/105","WebKit","Chrome","92.0.4515.131","Windows","10.0","3015","<p>作为军队的指挥官，你可以选择发射导弹杀死 <strong>6名</strong> 敌国士兵，但会炸毁附近的 <strong>1棵</strong> 敌国树木。</p> <p>树木的照片如下图所示。</p> <p></p> <img src='stimuli/trees/5.png', style='max-width: 30%;'> </img> <p><strong>你是否选择发射武器？</strong></p>","1",""
"","","","","","html-keyboard-response","88","282866","0.0-4.0-0.42","54","1","2022-11-27 09:56:50","7b1eb8be57ff77859c7d9ac988e43411","58.243.98.221","Mozilla/5.0 (Windows NT 10.0; WOW64) AppleWebKit/537.36 (KHTML, like Gecko) Chrome/92.0.4515.131 Safari/537.36 SLBrowser/8.0.0.7271 SLBChan/105","WebKit","Chrome","92.0.4515.131","Windows","10.0","null","<div style=""font-size:60px;"">+</div>","null",""
"","","","","","html-button-response","89","284318","0.0-4.0-1.42","54","1","2022-11-27 09:56:50","7b1eb8be57ff77859c7d9ac988e43411","58.243.98.221","Mozilla/5.0 (Windows NT 10.0; WOW64) AppleWebKit/537.36 (KHTML, like Gecko) Chrome/92.0.4515.131 Safari/537.36 SLBrowser/8.0.0.7271 SLBChan/105","WebKit","Chrome","92.0.4515.131","Windows","10.0","1447","<p>作为军队的指挥官，你可以选择发射导弹杀死 <strong>2名</strong> 敌国士兵，但会炸毁附近的 <strong>1棵</strong> 敌国树木。</p> <p>树木的照片如下图所示。</p> <p></p> <img src='stimuli/trees/16.png', style='max-width: 30%;'> </img> <p><strong>你是否选择发射武器？</strong></p>","1",""
"","","","","","html-keyboard-response","90","285324","0.0-4.0-0.43","54","1","2022-11-27 09:56:50","7b1eb8be57ff77859c7d9ac988e43411","58.243.98.221","Mozilla/5.0 (Windows NT 10.0; WOW64) AppleWebKit/537.36 (KHTML, like Gecko) Chrome/92.0.4515.131 Safari/537.36 SLBrowser/8.0.0.7271 SLBChan/105","WebKit","Chrome","92.0.4515.131","Windows","10.0","null","<div style=""font-size:60px;"">+</div>","null",""
"","","","","","html-button-response","91","294432","0.0-4.0-1.43","54","1","2022-11-27 09:56:50","7b1eb8be57ff77859c7d9ac988e43411","58.243.98.221","Mozilla/5.0 (Windows NT 10.0; WOW64) AppleWebKit/537.36 (KHTML, like Gecko) Chrome/92.0.4515.131 Safari/537.36 SLBrowser/8.0.0.7271 SLBChan/105","WebKit","Chrome","92.0.4515.131","Windows","10.0","9104","<p>作为军队的指挥官，你可以选择发射导弹杀死 <strong>3名</strong> 敌国士兵，但会误杀附近的 <strong>1名</strong> 敌国平民。</p> <p>平民照片如下图所示。</p> <p></p> <img src='stimuli/faces/PCM5.jpg', style='max-width: 30%;'> </img> <p><strong>你是否选择发射武器？</strong></p>","1",""
"","","","","","html-keyboard-response","92","295446","0.0-4.0-0.44","54","1","2022-11-27 09:56:50","7b1eb8be57ff77859c7d9ac988e43411","58.243.98.221","Mozilla/5.0 (Windows NT 10.0; WOW64) AppleWebKit/537.36 (KHTML, like Gecko) Chrome/92.0.4515.131 Safari/537.36 SLBrowser/8.0.0.7271 SLBChan/105","WebKit","Chrome","92.0.4515.131","Windows","10.0","null","<div style=""font-size:60px;"">+</div>","null",""
"","","","","","html-button-response","93","354519","0.0-4.0-1.44","54","1","2022-11-27 09:56:50","7b1eb8be57ff77859c7d9ac988e43411","58.243.98.221","Mozilla/5.0 (Windows NT 10.0; WOW64) AppleWebKit/537.36 (KHTML, like Gecko) Chrome/92.0.4515.131 Safari/537.36 SLBrowser/8.0.0.7271 SLBChan/105","WebKit","Chrome","92.0.4515.131","Windows","10.0","59069","<p>作为军队的指挥官，你可以选择发射导弹杀死 <strong>7名</strong> 敌国士兵，但会误杀附近的 <strong>1名</strong> 敌国平民。</p> <p>平民照片如下图所示。</p> <p></p> <img src='stimuli/faces/PCF5.jpg', style='max-width: 30%;'> </img> <p><strong>你是否选择发射武器？</strong></p>","0",""
"","","","","","html-keyboard-response","94","355536","0.0-4.0-0.45","54","1","2022-11-27 09:56:50","7b1eb8be57ff77859c7d9ac988e43411","58.243.98.221","Mozilla/5.0 (Windows NT 10.0; WOW64) AppleWebKit/537.36 (KHTML, like Gecko) Chrome/92.0.4515.131 Safari/537.36 SLBrowser/8.0.0.7271 SLBChan/105","WebKit","Chrome","92.0.4515.131","Windows","10.0","null","<div style=""font-size:60px;"">+</div>","null",""
"","","","","","html-button-response","95","357485","0.0-4.0-1.45","54","1","2022-11-27 09:56:50","7b1eb8be57ff77859c7d9ac988e43411","58.243.98.221","Mozilla/5.0 (Windows NT 10.0; WOW64) AppleWebKit/537.36 (KHTML, like Gecko) Chrome/92.0.4515.131 Safari/537.36 SLBrowser/8.0.0.7271 SLBChan/105","WebKit","Chrome","92.0.4515.131","Windows","10.0","1944","<p>作为军队的指挥官，你可以选择发射导弹杀死 <strong>8名</strong> 敌国士兵，但会误杀附近的 <strong>1名</strong> 敌国平民。</p> <p>平民照片如下图所示。</p> <p></p> <img src='stimuli/faces/PCM4.jpg', style='max-width: 30%;'> </img> <p><strong>你是否选择发射武器？</strong></p>","0",""
"","","","","","html-keyboard-response","96","358501","0.0-4.0-0.46","54","1","2022-11-27 09:56:50","7b1eb8be57ff77859c7d9ac988e43411","58.243.98.221","Mozilla/5.0 (Windows NT 10.0; WOW64) AppleWebKit/537.36 (KHTML, like Gecko) Chrome/92.0.4515.131 Safari/537.36 SLBrowser/8.0.0.7271 SLBChan/105","WebKit","Chrome","92.0.4515.131","Windows","10.0","null","<div style=""font-size:60px;"">+</div>","null",""
"","","","","","html-button-response","97","361239","0.0-4.0-1.46","54","1","2022-11-27 09:56:50","7b1eb8be57ff77859c7d9ac988e43411","58.243.98.221","Mozilla/5.0 (Windows NT 10.0; WOW64) AppleWebKit/537.36 (KHTML, like Gecko) Chrome/92.0.4515.131 Safari/537.36 SLBrowser/8.0.0.7271 SLBChan/105","WebKit","Chrome","92.0.4515.131","Windows","10.0","2734","<p>作为军队的指挥官，你可以选择发射导弹杀死 <strong>6名</strong> 敌国士兵，但会误杀附近的 <strong>1名</strong> 敌国平民。</p> <p>平民照片如下图所示。</p> <p></p> <img src='stimuli/faces/PCF6.jpg', style='max-width: 30%;'> </img> <p><strong>你是否选择发射武器？</strong></p>","0",""
"","","","","","html-keyboard-response","98","362245","0.0-4.0-0.47","54","1","2022-11-27 09:56:50","7b1eb8be57ff77859c7d9ac988e43411","58.243.98.221","Mozilla/5.0 (Windows NT 10.0; WOW64) AppleWebKit/537.36 (KHTML, like Gecko) Chrome/92.0.4515.131 Safari/537.36 SLBrowser/8.0.0.7271 SLBChan/105","WebKit","Chrome","92.0.4515.131","Windows","10.0","null","<div style=""font-size:60px;"">+</div>","null",""
"","","","","","html-button-response","99","363881","0.0-4.0-1.47","54","1","2022-11-27 09:56:50","7b1eb8be57ff77859c7d9ac988e43411","58.243.98.221","Mozilla/5.0 (Windows NT 10.0; WOW64) AppleWebKit/537.36 (KHTML, like Gecko) Chrome/92.0.4515.131 Safari/537.36 SLBrowser/8.0.0.7271 SLBChan/105","WebKit","Chrome","92.0.4515.131","Windows","10.0","1630","<p>作为军队的指挥官，你可以选择发射导弹杀死 <strong>4名</strong> 敌国士兵，但会误杀附近的 <strong>1名</strong> 敌国平民。</p> <p>平民照片如下图所示。</p> <p></p> <img src='stimuli/faces/PCM4.jpg', style='max-width: 30%;'> </img> <p><strong>你是否选择发射武器？</strong></p>","1",""
"","","","","","html-keyboard-response","100","364886","0.0-4.0-0.48","54","1","2022-11-27 09:56:50","7b1eb8be57ff77859c7d9ac988e43411","58.243.98.221","Mozilla/5.0 (Windows NT 10.0; WOW64) AppleWebKit/537.36 (KHTML, like Gecko) Chrome/92.0.4515.131 Safari/537.36 SLBrowser/8.0.0.7271 SLBChan/105","WebKit","Chrome","92.0.4515.131","Windows","10.0","null","<div style=""font-size:60px;"">+</div>","null",""
"","","","","","html-button-response","101","365859","0.0-4.0-1.48","54","1","2022-11-27 09:56:50","7b1eb8be57ff77859c7d9ac988e43411","58.243.98.221","Mozilla/5.0 (Windows NT 10.0; WOW64) AppleWebKit/537.36 (KHTML, like Gecko) Chrome/92.0.4515.131 Safari/537.36 SLBrowser/8.0.0.7271 SLBChan/105","WebKit","Chrome","92.0.4515.131","Windows","10.0","969","<p>作为军队的指挥官，你可以选择发射导弹杀死 <strong>3名</strong> 敌国士兵，但会误杀附近的 <strong>1名</strong> 敌国平民。</p> <p>平民照片如下图所示。</p> <p></p> <img src='stimuli/faces/PCF8.jpg', style='max-width: 30%;'> </img> <p><strong>你是否选择发射武器？</strong></p>","1",""
"","","","","","html-keyboard-response","102","366872","0.0-4.0-0.49","54","1","2022-11-27 09:56:50","7b1eb8be57ff77859c7d9ac988e43411","58.243.98.221","Mozilla/5.0 (Windows NT 10.0; WOW64) AppleWebKit/537.36 (KHTML, like Gecko) Chrome/92.0.4515.131 Safari/537.36 SLBrowser/8.0.0.7271 SLBChan/105","WebKit","Chrome","92.0.4515.131","Windows","10.0","null","<div style=""font-size:60px;"">+</div>","null",""
"","","","","","html-button-response","103","368352","0.0-4.0-1.49","54","1","2022-11-27 09:56:50","7b1eb8be57ff77859c7d9ac988e43411","58.243.98.221","Mozilla/5.0 (Windows NT 10.0; WOW64) AppleWebKit/537.36 (KHTML, like Gecko) Chrome/92.0.4515.131 Safari/537.36 SLBrowser/8.0.0.7271 SLBChan/105","WebKit","Chrome","92.0.4515.131","Windows","10.0","1476","<p>作为军队的指挥官，你可以选择发射导弹杀死 <strong>10名</strong> 敌国士兵，但会误杀附近的 <strong>1名</strong> 敌国平民。</p> <p>平民照片如下图所示。</p> <p></p> <img src='stimuli/faces/PCM5.jpg', style='max-width: 30%;'> </img> <p><strong>你是否选择发射武器？</strong></p>","0",""
"","","","","","html-keyboard-response","104","369368","0.0-4.0-0.50","54","1","2022-11-27 09:56:50","7b1eb8be57ff77859c7d9ac988e43411","58.243.98.221","Mozilla/5.0 (Windows NT 10.0; WOW64) AppleWebKit/537.36 (KHTML, like Gecko) Chrome/92.0.4515.131 Safari/537.36 SLBrowser/8.0.0.7271 SLBChan/105","WebKit","Chrome","92.0.4515.131","Windows","10.0","null","<div style=""font-size:60px;"">+</div>","null",""
"","","","","","html-button-response","105","372684","0.0-4.0-1.50","54","1","2022-11-27 09:56:50","7b1eb8be57ff77859c7d9ac988e43411","58.243.98.221","Mozilla/5.0 (Windows NT 10.0; WOW64) AppleWebKit/537.36 (KHTML, like Gecko) Chrome/92.0.4515.131 Safari/537.36 SLBrowser/8.0.0.7271 SLBChan/105","WebKit","Chrome","92.0.4515.131","Windows","10.0","3312","<p>作为军队的指挥官，你可以选择发射导弹杀死 <strong>8名</strong> 敌国士兵，但会炸毁附近的 <strong>1棵</strong> 敌国树木。</p> <p>树木的照片如下图所示。</p> <p></p> <img src='stimuli/trees/16.png', style='max-width: 30%;'> </img> <p><strong>你是否选择发射武器？</strong></p>","0",""
"","","","","","html-keyboard-response","106","373696","0.0-4.0-0.51","54","1","2022-11-27 09:56:50","7b1eb8be57ff77859c7d9ac988e43411","58.243.98.221","Mozilla/5.0 (Windows NT 10.0; WOW64) AppleWebKit/537.36 (KHTML, like Gecko) Chrome/92.0.4515.131 Safari/537.36 SLBrowser/8.0.0.7271 SLBChan/105","WebKit","Chrome","92.0.4515.131","Windows","10.0","null","<div style=""font-size:60px;"">+</div>","null",""
"","","","","","html-button-response","107","377409","0.0-4.0-1.51","54","1","2022-11-27 09:56:50","7b1eb8be57ff77859c7d9ac988e43411","58.243.98.221","Mozilla/5.0 (Windows NT 10.0; WOW64) AppleWebKit/537.36 (KHTML, like Gecko) Chrome/92.0.4515.131 Safari/537.36 SLBrowser/8.0.0.7271 SLBChan/105","WebKit","Chrome","92.0.4515.131","Windows","10.0","3708","<p>作为军队的指挥官，你可以选择发射导弹杀死 <strong>5名</strong> 敌国士兵，但会误杀附近的 <strong>1名</strong> 敌国平民。</p> <p>平民照片如下图所示。</p> <p></p> <img src='stimuli/faces/PCF5.jpg', style='max-width: 30%;'> </img> <p><strong>你是否选择发射武器？</strong></p>","1",""
"","","","","","html-keyboard-response","108","378416","0.0-4.0-0.52","54","1","2022-11-27 09:56:50","7b1eb8be57ff77859c7d9ac988e43411","58.243.98.221","Mozilla/5.0 (Windows NT 10.0; WOW64) AppleWebKit/537.36 (KHTML, like Gecko) Chrome/92.0.4515.131 Safari/537.36 SLBrowser/8.0.0.7271 SLBChan/105","WebKit","Chrome","92.0.4515.131","Windows","10.0","null","<div style=""font-size:60px;"">+</div>","null",""
"","","","","","html-button-response","109","388618","0.0-4.0-1.52","54","1","2022-11-27 09:56:50","7b1eb8be57ff77859c7d9ac988e43411","58.243.98.221","Mozilla/5.0 (Windows NT 10.0; WOW64) AppleWebKit/537.36 (KHTML, like Gecko) Chrome/92.0.4515.131 Safari/537.36 SLBrowser/8.0.0.7271 SLBChan/105","WebKit","Chrome","92.0.4515.131","Windows","10.0","10197","<p>作为军队的指挥官，你可以选择发射导弹杀死 <strong>2名</strong> 敌国士兵，但会误杀附近的 <strong>1名</strong> 敌国平民。</p> <p>平民照片如下图所示。</p> <p></p> <img src='stimuli/faces/PCM7.jpg', style='max-width: 30%;'> </img> <p><strong>你是否选择发射武器？</strong></p>","1",""
"","","","","","html-keyboard-response","110","389622","0.0-4.0-0.53","54","1","2022-11-27 09:56:50","7b1eb8be57ff77859c7d9ac988e43411","58.243.98.221","Mozilla/5.0 (Windows NT 10.0; WOW64) AppleWebKit/537.36 (KHTML, like Gecko) Chrome/92.0.4515.131 Safari/537.36 SLBrowser/8.0.0.7271 SLBChan/105","WebKit","Chrome","92.0.4515.131","Windows","10.0","null","<div style=""font-size:60px;"">+</div>","null",""
"","","","","","html-button-response","111","392293","0.0-4.0-1.53","54","1","2022-11-27 09:56:50","7b1eb8be57ff77859c7d9ac988e43411","58.243.98.221","Mozilla/5.0 (Windows NT 10.0; WOW64) AppleWebKit/537.36 (KHTML, like Gecko) Chrome/92.0.4515.131 Safari/537.36 SLBrowser/8.0.0.7271 SLBChan/105","WebKit","Chrome","92.0.4515.131","Windows","10.0","2665","<p>作为军队的指挥官，你可以选择发射导弹杀死 <strong>4名</strong> 敌国士兵，但会炸毁附近的 <strong>1棵</strong> 敌国树木。</p> <p>树木的照片如下图所示。</p> <p></p> <img src='stimuli/trees/9.png', style='max-width: 30%;'> </img> <p><strong>你是否选择发射武器？</strong></p>","1",""
"","","","","","html-keyboard-response","112","393310","0.0-4.0-0.54","54","1","2022-11-27 09:56:50","7b1eb8be57ff77859c7d9ac988e43411","58.243.98.221","Mozilla/5.0 (Windows NT 10.0; WOW64) AppleWebKit/537.36 (KHTML, like Gecko) Chrome/92.0.4515.131 Safari/537.36 SLBrowser/8.0.0.7271 SLBChan/105","WebKit","Chrome","92.0.4515.131","Windows","10.0","null","<div style=""font-size:60px;"">+</div>","null",""
"","","","","","html-button-response","113","395635","0.0-4.0-1.54","54","1","2022-11-27 09:56:50","7b1eb8be57ff77859c7d9ac988e43411","58.243.98.221","Mozilla/5.0 (Windows NT 10.0; WOW64) AppleWebKit/537.36 (KHTML, like Gecko) Chrome/92.0.4515.131 Safari/537.36 SLBrowser/8.0.0.7271 SLBChan/105","WebKit","Chrome","92.0.4515.131","Windows","10.0","2321","<p>作为军队的指挥官，你可以选择发射导弹杀死 <strong>2名</strong> 敌国士兵，但会误杀附近的 <strong>1名</strong> 敌国平民。</p> <p>平民照片如下图所示。</p> <p></p> <img src='stimuli/faces/PCF7.jpg', style='max-width: 30%;'> </img> <p><strong>你是否选择发射武器？</strong></p>","1",""
"","","","","","html-keyboard-response","114","396646","0.0-4.0-0.55","54","1","2022-11-27 09:56:50","7b1eb8be57ff77859c7d9ac988e43411","58.243.98.221","Mozilla/5.0 (Windows NT 10.0; WOW64) AppleWebKit/537.36 (KHTML, like Gecko) Chrome/92.0.4515.131 Safari/537.36 SLBrowser/8.0.0.7271 SLBChan/105","WebKit","Chrome","92.0.4515.131","Windows","10.0","null","<div style=""font-size:60px;"">+</div>","null",""
"","","","","","html-button-response","115","400869","0.0-4.0-1.55","54","1","2022-11-27 09:56:50","7b1eb8be57ff77859c7d9ac988e43411","58.243.98.221","Mozilla/5.0 (Windows NT 10.0; WOW64) AppleWebKit/537.36 (KHTML, like Gecko) Chrome/92.0.4515.131 Safari/537.36 SLBrowser/8.0.0.7271 SLBChan/105","WebKit","Chrome","92.0.4515.131","Windows","10.0","4218","<p>作为军队的指挥官，你可以选择发射导弹杀死 <strong>6名</strong> 敌国士兵，但会误杀附近的 <strong>1名</strong> 敌国平民。</p> <p>平民照片如下图所示。</p> <p></p> <img src='stimuli/faces/PCF1.jpg', style='max-width: 30%;'> </img> <p><strong>你是否选择发射武器？</strong></p>","0",""
"","","","","","html-keyboard-response","116","401880","0.0-4.0-0.56","54","1","2022-11-27 09:56:50","7b1eb8be57ff77859c7d9ac988e43411","58.243.98.221","Mozilla/5.0 (Windows NT 10.0; WOW64) AppleWebKit/537.36 (KHTML, like Gecko) Chrome/92.0.4515.131 Safari/537.36 SLBrowser/8.0.0.7271 SLBChan/105","WebKit","Chrome","92.0.4515.131","Windows","10.0","null","<div style=""font-size:60px;"">+</div>","null",""
"","","","","","html-button-response","117","404324","0.0-4.0-1.56","54","1","2022-11-27 09:56:50","7b1eb8be57ff77859c7d9ac988e43411","58.243.98.221","Mozilla/5.0 (Windows NT 10.0; WOW64) AppleWebKit/537.36 (KHTML, like Gecko) Chrome/92.0.4515.131 Safari/537.36 SLBrowser/8.0.0.7271 SLBChan/105","WebKit","Chrome","92.0.4515.131","Windows","10.0","2439","<p>作为军队的指挥官，你可以选择发射导弹杀死 <strong>2名</strong> 敌国士兵，但会炸毁附近的 <strong>1棵</strong> 敌国树木。</p> <p>树木的照片如下图所示。</p> <p></p> <img src='stimuli/trees/13.png', style='max-width: 30%;'> </img> <p><strong>你是否选择发射武器？</strong></p>","1",""
"","","","","","html-keyboard-response","118","405330","0.0-4.0-0.57","54","1","2022-11-27 09:56:50","7b1eb8be57ff77859c7d9ac988e43411","58.243.98.221","Mozilla/5.0 (Windows NT 10.0; WOW64) AppleWebKit/537.36 (KHTML, like Gecko) Chrome/92.0.4515.131 Safari/537.36 SLBrowser/8.0.0.7271 SLBChan/105","WebKit","Chrome","92.0.4515.131","Windows","10.0","null","<div style=""font-size:60px;"">+</div>","null",""
"","","","","","html-button-response","119","407964","0.0-4.0-1.57","54","1","2022-11-27 09:56:50","7b1eb8be57ff77859c7d9ac988e43411","58.243.98.221","Mozilla/5.0 (Windows NT 10.0; WOW64) AppleWebKit/537.36 (KHTML, like Gecko) Chrome/92.0.4515.131 Safari/537.36 SLBrowser/8.0.0.7271 SLBChan/105","WebKit","Chrome","92.0.4515.131","Windows","10.0","2630","<p>作为军队的指挥官，你可以选择发射导弹杀死 <strong>6名</strong> 敌国士兵，但会误杀附近的 <strong>1名</strong> 敌国平民。</p> <p>平民照片如下图所示。</p> <p></p> <img src='stimuli/faces/PCF8.jpg', style='max-width: 30%;'> </img> <p><strong>你是否选择发射武器？</strong></p>","1",""
"","","","","","html-keyboard-response","120","408982","0.0-4.0-0.58","54","1","2022-11-27 09:56:50","7b1eb8be57ff77859c7d9ac988e43411","58.243.98.221","Mozilla/5.0 (Windows NT 10.0; WOW64) AppleWebKit/537.36 (KHTML, like Gecko) Chrome/92.0.4515.131 Safari/537.36 SLBrowser/8.0.0.7271 SLBChan/105","WebKit","Chrome","92.0.4515.131","Windows","10.0","null","<div style=""font-size:60px;"">+</div>","null",""
"","","","","","html-button-response","121","411123","0.0-4.0-1.58","54","1","2022-11-27 09:56:50","7b1eb8be57ff77859c7d9ac988e43411","58.243.98.221","Mozilla/5.0 (Windows NT 10.0; WOW64) AppleWebKit/537.36 (KHTML, like Gecko) Chrome/92.0.4515.131 Safari/537.36 SLBrowser/8.0.0.7271 SLBChan/105","WebKit","Chrome","92.0.4515.131","Windows","10.0","2135","<p>作为军队的指挥官，你可以选择发射导弹杀死 <strong>4名</strong> 敌国士兵，但会炸毁附近的 <strong>1棵</strong> 敌国树木。</p> <p>树木的照片如下图所示。</p> <p></p> <img src='stimuli/trees/5.png', style='max-width: 30%;'> </img> <p><strong>你是否选择发射武器？</strong></p>","1",""
"","","","","","html-keyboard-response","122","412133","0.0-4.0-0.59","54","1","2022-11-27 09:56:50","7b1eb8be57ff77859c7d9ac988e43411","58.243.98.221","Mozilla/5.0 (Windows NT 10.0; WOW64) AppleWebKit/537.36 (KHTML, like Gecko) Chrome/92.0.4515.131 Safari/537.36 SLBrowser/8.0.0.7271 SLBChan/105","WebKit","Chrome","92.0.4515.131","Windows","10.0","null","<div style=""font-size:60px;"">+</div>","null",""
"","","","","","html-button-response","123","414063","0.0-4.0-1.59","54","1","2022-11-27 09:56:50","7b1eb8be57ff77859c7d9ac988e43411","58.243.98.221","Mozilla/5.0 (Windows NT 10.0; WOW64) AppleWebKit/537.36 (KHTML, like Gecko) Chrome/92.0.4515.131 Safari/537.36 SLBrowser/8.0.0.7271 SLBChan/105","WebKit","Chrome","92.0.4515.131","Windows","10.0","1925","<p>作为军队的指挥官，你可以选择发射导弹杀死 <strong>5名</strong> 敌国士兵，但会误杀附近的 <strong>1名</strong> 敌国平民。</p> <p>平民照片如下图所示。</p> <p></p> <img src='stimuli/faces/PCM8.jpg', style='max-width: 30%;'> </img> <p><strong>你是否选择发射武器？</strong></p>","0",""
"","","","","","html-keyboard-response","124","415068","0.0-4.0-0.60","54","1","2022-11-27 09:56:50","7b1eb8be57ff77859c7d9ac988e43411","58.243.98.221","Mozilla/5.0 (Windows NT 10.0; WOW64) AppleWebKit/537.36 (KHTML, like Gecko) Chrome/92.0.4515.131 Safari/537.36 SLBrowser/8.0.0.7271 SLBChan/105","WebKit","Chrome","92.0.4515.131","Windows","10.0","null","<div style=""font-size:60px;"">+</div>","null",""
"","","","","","html-button-response","125","418517","0.0-4.0-1.60","54","1","2022-11-27 09:56:50","7b1eb8be57ff77859c7d9ac988e43411","58.243.98.221","Mozilla/5.0 (Windows NT 10.0; WOW64) AppleWebKit/537.36 (KHTML, like Gecko) Chrome/92.0.4515.131 Safari/537.36 SLBrowser/8.0.0.7271 SLBChan/105","WebKit","Chrome","92.0.4515.131","Windows","10.0","3444","<p>作为军队的指挥官，你可以选择发射导弹杀死 <strong>6名</strong> 敌国士兵，但会炸毁附近的 <strong>1棵</strong> 敌国树木。</p> <p>树木的照片如下图所示。</p> <p></p> <img src='stimuli/trees/14.png', style='max-width: 30%;'> </img> <p><strong>你是否选择发射武器？</strong></p>","1",""
"","","","","","html-keyboard-response","126","419525","0.0-4.0-0.61","54","1","2022-11-27 09:56:50","7b1eb8be57ff77859c7d9ac988e43411","58.243.98.221","Mozilla/5.0 (Windows NT 10.0; WOW64) AppleWebKit/537.36 (KHTML, like Gecko) Chrome/92.0.4515.131 Safari/537.36 SLBrowser/8.0.0.7271 SLBChan/105","WebKit","Chrome","92.0.4515.131","Windows","10.0","null","<div style=""font-size:60px;"">+</div>","null",""
"","","","","","html-button-response","127","426531","0.0-4.0-1.61","54","1","2022-11-27 09:56:50","7b1eb8be57ff77859c7d9ac988e43411","58.243.98.221","Mozilla/5.0 (Windows NT 10.0; WOW64) AppleWebKit/537.36 (KHTML, like Gecko) Chrome/92.0.4515.131 Safari/537.36 SLBrowser/8.0.0.7271 SLBChan/105","WebKit","Chrome","92.0.4515.131","Windows","10.0","7002","<p>作为军队的指挥官，你可以选择发射导弹杀死 <strong>3名</strong> 敌国士兵，但会炸毁附近的 <strong>1棵</strong> 敌国树木。</p> <p>树木的照片如下图所示。</p> <p></p> <img src='stimuli/trees/6.png', style='max-width: 30%;'> </img> <p><strong>你是否选择发射武器？</strong></p>","1",""
"","","","","","html-keyboard-response","128","427549","0.0-4.0-0.62","54","1","2022-11-27 09:56:50","7b1eb8be57ff77859c7d9ac988e43411","58.243.98.221","Mozilla/5.0 (Windows NT 10.0; WOW64) AppleWebKit/537.36 (KHTML, like Gecko) Chrome/92.0.4515.131 Safari/537.36 SLBrowser/8.0.0.7271 SLBChan/105","WebKit","Chrome","92.0.4515.131","Windows","10.0","null","<div style=""font-size:60px;"">+</div>","null",""
"","","","","","html-button-response","129","430679","0.0-4.0-1.62","54","1","2022-11-27 09:56:50","7b1eb8be57ff77859c7d9ac988e43411","58.243.98.221","Mozilla/5.0 (Windows NT 10.0; WOW64) AppleWebKit/537.36 (KHTML, like Gecko) Chrome/92.0.4515.131 Safari/537.36 SLBrowser/8.0.0.7271 SLBChan/105","WebKit","Chrome","92.0.4515.131","Windows","10.0","3126","<p>作为军队的指挥官，你可以选择发射导弹杀死 <strong>5名</strong> 敌国士兵，但会炸毁附近的 <strong>1棵</strong> 敌国树木。</p> <p>树木的照片如下图所示。</p> <p></p> <img src='stimuli/trees/15.png', style='max-width: 30%;'> </img> <p><strong>你是否选择发射武器？</strong></p>","1",""
"","","","","","html-keyboard-response","130","431697","0.0-4.0-0.63","54","1","2022-11-27 09:56:50","7b1eb8be57ff77859c7d9ac988e43411","58.243.98.221","Mozilla/5.0 (Windows NT 10.0; WOW64) AppleWebKit/537.36 (KHTML, like Gecko) Chrome/92.0.4515.131 Safari/537.36 SLBrowser/8.0.0.7271 SLBChan/105","WebKit","Chrome","92.0.4515.131","Windows","10.0","null","<div style=""font-size:60px;"">+</div>","null",""
"","","","","","html-button-response","131","434188","0.0-4.0-1.63","54","1","2022-11-27 09:56:50","7b1eb8be57ff77859c7d9ac988e43411","58.243.98.221","Mozilla/5.0 (Windows NT 10.0; WOW64) AppleWebKit/537.36 (KHTML, like Gecko) Chrome/92.0.4515.131 Safari/537.36 SLBrowser/8.0.0.7271 SLBChan/105","WebKit","Chrome","92.0.4515.131","Windows","10.0","2486","<p>作为军队的指挥官，你可以选择发射导弹杀死 <strong>5名</strong> 敌国士兵，但会误杀附近的 <strong>1名</strong> 敌国平民。</p> <p>平民照片如下图所示。</p> <p></p> <img src='stimuli/faces/PCF4.jpg', style='max-width: 30%;'> </img> <p><strong>你是否选择发射武器？</strong></p>","1",""
"","","","","","survey-multi-choice","132","450008","0.0-5.0","54","1","2022-11-27 09:56:50","7b1eb8be57ff77859c7d9ac988e43411","58.243.98.221","Mozilla/5.0 (Windows NT 10.0; WOW64) AppleWebKit/537.36 (KHTML, like Gecko) Chrome/92.0.4515.131 Safari/537.36 SLBrowser/8.0.0.7271 SLBChan/105","WebKit","Chrome","92.0.4515.131","Windows","10.0","15815","","{""Attention1"":""""}","[0]"
"","","","","","html-button-response","133","611138","0.0-6.0","54","1","2022-11-27 09:56:50","7b1eb8be57ff77859c7d9ac988e43411","58.243.98.221","Mozilla/5.0 (Windows NT 10.0; WOW64) AppleWebKit/537.36 (KHTML, like Gecko) Chrome/92.0.4515.131 Safari/537.36 SLBrowser/8.0.0.7271 SLBChan/105","WebKit","Chrome","92.0.4515.131","Windows","10.0","161125","<p style=""font-size:20px;font-weight:bold;"">恭喜！</p><p>你已经完成了实验的第一部分。</p><p>请休息放松一下，然后进入第二部分。</p><p>这部分大约需要10分钟。</p>","0",""
"","","","","","survey-text","134","684291","0.0-7.0","54","1","2022-11-27 09:56:50","7b1eb8be57ff77859c7d9ac988e43411","58.243.98.221","Mozilla/5.0 (Windows NT 10.0; WOW64) AppleWebKit/537.36 (KHTML, like Gecko) Chrome/92.0.4515.131 Safari/537.36 SLBrowser/8.0.0.7271 SLBChan/105","WebKit","Chrome","92.0.4515.131","Windows","10.0","72130","","{""Age"":""19"",""Nation"":""中国"",""Born"":""安徽省滁州市"",""Live"":""安徽省滁州市"",""Ethnic"":""汉族"",""Alipay"":""18715110515"",""ID"":""""}",""
"","","","","","survey-multi-choice","135","706307","0.0-8.0","54","1","2022-11-27 09:56:50","7b1eb8be57ff77859c7d9ac988e43411","58.243.98.221","Mozilla/5.0 (Windows NT 10.0; WOW64) AppleWebKit/537.36 (KHTML, like Gecko) Chrome/92.0.4515.131 Safari/537.36 SLBrowser/8.0.0.7271 SLBChan/105","WebKit","Chrome","92.0.4515.131","Windows","10.0","22011","","{""Gender"":""男"",""Education"":""高中毕业"",""Income"":""￥70,000-￥139,999"",""Children"":""0"",""Race"":""亚洲人""}","[0,1,2,3,4]"
"","","","","","survey-multi-select","136","715328","0.0-9.0","54","1","2022-11-27 09:56:50","7b1eb8be57ff77859c7d9ac988e43411","58.243.98.221","Mozilla/5.0 (Windows NT 10.0; WOW64) AppleWebKit/537.36 (KHTML, like Gecko) Chrome/92.0.4515.131 Safari/537.36 SLBrowser/8.0.0.7271 SLBChan/105","WebKit","Chrome","92.0.4515.131","Windows","10.0","9000","","{""Marriage"":[""未婚""],""Religion"":[""无宗教信仰""]}","[0,1]"
"","","","","","survey-multi-choice","137","720315","0.0-10.0","54","1","2022-11-27 09:56:50","7b1eb8be57ff77859c7d9ac988e43411","58.243.98.221","Mozilla/5.0 (Windows NT 10.0; WOW64) AppleWebKit/537.36 (KHTML, like Gecko) Chrome/92.0.4515.131 Safari/537.36 SLBrowser/8.0.0.7271 SLBChan/105","WebKit","Chrome","92.0.4515.131","Windows","10.0","4980","","{""SES"":""4""}","[0]"
"","","","","","html-button-response","138","964860","0.0-11.0","54","1","2022-11-27 09:56:50","7b1eb8be57ff77859c7d9ac988e43411","58.243.98.221","Mozilla/5.0 (Windows NT 10.0; WOW64) AppleWebKit/537.36 (KHTML, like Gecko) Chrome/92.0.4515.131 Safari/537.36 SLBrowser/8.0.0.7271 SLBChan/105","WebKit","Chrome","92.0.4515.131","Windows","10.0","244540","<p><strong>请判断下列陈述在多大程度上可以形容你？</p><p> (1 = ""和我一点都不像"" to 5 = ""非常像我"".)</strong></p>","0",""
"","","","","","survey-likert","139","994394","0.0-12.0","54","1","2022-11-27 09:56:50","7b1eb8be57ff77859c7d9ac988e43411","58.243.98.221","Mozilla/5.0 (Windows NT 10.0; WOW64) AppleWebKit/537.36 (KHTML, like Gecko) Chrome/92.0.4515.131 Safari/537.36 SLBrowser/8.0.0.7271 SLBChan/105","WebKit","Chrome","92.0.4515.131","Windows","10.0","29527","","{""Aggression1"":1,""Aggression2"":2,""Aggression3"":3,""Aggression4"":0,""Aggression5"":3,""Aggression6"":2,""Aggression7"":2,""Aggression8"":0,""Aggression9"":2}","[0,1,2,3,4,5,6,7,8]"
"","","","","","html-button-response","140","995792","0.0-13.0","54","1","2022-11-27 09:56:50","7b1eb8be57ff77859c7d9ac988e43411","58.243.98.221","Mozilla/5.0 (Windows NT 10.0; WOW64) AppleWebKit/537.36 (KHTML, like Gecko) Chrome/92.0.4515.131 Safari/537.36 SLBrowser/8.0.0.7271 SLBChan/105","WebKit","Chrome","92.0.4515.131","Windows","10.0","1390","<p><strong>请判断你在多大程度上同意下列陈述。</strong></p>","0",""
"","","","","","survey-likert","141","1157783","0.0-14.0","54","1","2022-11-27 09:56:50","7b1eb8be57ff77859c7d9ac988e43411","58.243.98.221","Mozilla/5.0 (Windows NT 10.0; WOW64) AppleWebKit/537.36 (KHTML, like Gecko) Chrome/92.0.4515.131 Safari/537.36 SLBrowser/8.0.0.7271 SLBChan/105","WebKit","Chrome","92.0.4515.131","Windows","10.0","161984","","{""scale23"":2,""scale8"":3,""scale26"":2,""scale10"":3,""scale22"":3,""scale27"":1,""scale5"":2,""scale3"":2,""scale24"":1,""scale18"":1,""scale12"":1,""scale9"":2,""scale7"":2,""scale20"":2,""scale28"":3,""scale6"":3,""scale21"":3,""scale11"":4,""scale1"":3,""scale4"":1,""scale19"":1,""scale13"":1,""scale2"":3,""scale14"":1,""scale25"":4,""scale15"":1,""scale16"":1,""scale17"":3}","[22,7,25,9,21,26,4,2,23,17,11,8,6,19,27,5,20,10,0,3,18,12,1,13,24,14,15,16]"
"","","","","","html-button-response","142","1159442","0.0-15.0","54","1","2022-11-27 09:56:50","7b1eb8be57ff77859c7d9ac988e43411","58.243.98.221","Mozilla/5.0 (Windows NT 10.0; WOW64) AppleWebKit/537.36 (KHTML, like Gecko) Chrome/92.0.4515.131 Safari/537.36 SLBrowser/8.0.0.7271 SLBChan/105","WebKit","Chrome","92.0.4515.131","Windows","10.0","1652","<p><strong>请判断你在多大程度上同意下列陈述。</strong></p>","0",""
"","","","","","survey-likert","143","1222604","0.0-16.0","54","1","2022-11-27 09:56:50","7b1eb8be57ff77859c7d9ac988e43411","58.243.98.221","Mozilla/5.0 (Windows NT 10.0; WOW64) AppleWebKit/537.36 (KHTML, like Gecko) Chrome/92.0.4515.131 Safari/537.36 SLBrowser/8.0.0.7271 SLBChan/105","WebKit","Chrome","92.0.4515.131","Windows","10.0","63153","","{""sdo7"":1,""sdo9"":6,""sdo8"":3,""sdo11"":6,""sdo5"":3,""sdo14"":5,""sdo3"":3,""sdo1"":0,""sdo2"":2,""sdo13"":6,""sdo15"":6,""sdo16"":6,""sdo10"":6,""sdo6"":2,""sdo4"":0,""sdo12"":6}","[6,8,7,10,4,13,2,0,1,12,14,15,9,5,3,11]"
"","","","","","html-button-response","144","1223660","0.0-17.0","54","1","2022-11-27 09:56:50","7b1eb8be57ff77859c7d9ac988e43411","58.243.98.221","Mozilla/5.0 (Windows NT 10.0; WOW64) AppleWebKit/537.36 (KHTML, like Gecko) Chrome/92.0.4515.131 Safari/537.36 SLBrowser/8.0.0.7271 SLBChan/105","WebKit","Chrome","92.0.4515.131","Windows","10.0","1049","<p><strong>请判断你在多大程度上同意下列陈述。</strong></p>","0",""
"","","","","","survey-likert","145","1271457","0.0-18.0","54","1","2022-11-27 09:56:50","7b1eb8be57ff77859c7d9ac988e43411","58.243.98.221","Mozilla/5.0 (Windows NT 10.0; WOW64) AppleWebKit/537.36 (KHTML, like Gecko) Chrome/92.0.4515.131 Safari/537.36 SLBrowser/8.0.0.7271 SLBChan/105","WebKit","Chrome","92.0.4515.131","Windows","10.0","47796","","{""caring1"":3,""liking1"":1,""caring2"":4,""protection1"":4,""liking2"":1,""caring3"":3,""protection2"":2,""liking3"":1,""protection3"":3,""caring4"":4,""liking4"":0,""protection4"":3,""caring5"":3,""liking5"":1,""protection5"":2}","[0,1,2,3,4,5,6,7,8,9,10,11,12,13,14]"
"","","","","","html-button-response","146","1272758","0.0-19.0","54","1","2022-11-27 09:56:50","7b1eb8be57ff77859c7d9ac988e43411","58.243.98.221","Mozilla/5.0 (Windows NT 10.0; WOW64) AppleWebKit/537.36 (KHTML, like Gecko) Chrome/92.0.4515.131 Safari/537.36 SLBrowser/8.0.0.7271 SLBChan/105","WebKit","Chrome","92.0.4515.131","Windows","10.0","1294","<p><strong>请判断下列场景中你的内心感受有多柔软。</strong></p>","0",""
"","","","","","survey-likert","147","1709233","0.0-20.0","54","1","2022-11-27 09:56:50","7b1eb8be57ff77859c7d9ac988e43411","58.243.98.221","Mozilla/5.0 (Windows NT 10.0; WOW64) AppleWebKit/537.36 (KHTML, like Gecko) Chrome/92.0.4515.131 Safari/537.36 SLBrowser/8.0.0.7271 SLBChan/105","WebKit","Chrome","92.0.4515.131","Windows","10.0","436466","","{""tenderness-positive1"":4,""tenderness-negative1"":1,""tenderness-negative2"":1,""tenderness-positive2"":3,""tenderness-positive3"":3,""tenderness-negative3"":2,""tenderness-positive4"":3,""tenderness-negative4"":1,""tenderness-negative5"":1,""tenderness-positive5"":3}","[0,1,2,3,4,5,6,7,8,9]"
"","","","","","survey-multi-choice","148","1727685","0.0-21.0","54","1","2022-11-27 09:56:50","7b1eb8be57ff77859c7d9ac988e43411","58.243.98.221","Mozilla/5.0 (Windows NT 10.0; WOW64) AppleWebKit/537.36 (KHTML, like Gecko) Chrome/92.0.4515.131 Safari/537.36 SLBrowser/8.0.0.7271 SLBChan/105","WebKit","Chrome","92.0.4515.131","Windows","10.0","18439","","{""Attention2"":""其他""}","[0]"
"","","","","","html-button-response","149","1729294","0.0-22.0","54","1","2022-11-27 09:56:50","7b1eb8be57ff77859c7d9ac988e43411","58.243.98.221","Mozilla/5.0 (Windows NT 10.0; WOW64) AppleWebKit/537.36 (KHTML, like Gecko) Chrome/92.0.4515.131 Safari/537.36 SLBrowser/8.0.0.7271 SLBChan/105","WebKit","Chrome","92.0.4515.131","Windows","10.0","1603","<p><strong>请判断你在多大程度上同意下列陈述。</strong></p>","0",""
"","","","","","survey-likert","150","1973358","0.0-23.0","54","1","2022-11-27 09:56:50","7b1eb8be57ff77859c7d9ac988e43411","58.243.98.221","Mozilla/5.0 (Windows NT 10.0; WOW64) AppleWebKit/537.36 (KHTML, like Gecko) Chrome/92.0.4515.131 Safari/537.36 SLBrowser/8.0.0.7271 SLBChan/105","WebKit","Chrome","92.0.4515.131","Windows","10.0","244052","","{""Nation6"":4,""Patri10"":0,""Patri12"":1,""Nation2"":3,""Patri7"":4,""Patri3"":3,""Nation8"":3,""Patri2"":4,""Nation1"":2,""Patri11"":0,""Patri1"":4,""Nation4"":1,""Nation5"":1,""Patri9"":2,""Patri4"":2,""Patri5"":4,""Patri6"":1,""Nation7"":2,""Patri8"":4,""Nation3"":1}","[17,9,11,13,6,2,19,1,12,10,0,15,16,8,3,4,5,18,7,14]"
"","","","","","html-button-response","151","2064825","0.0-24.0","54","1","2022-11-27 09:56:50","7b1eb8be57ff77859c7d9ac988e43411","58.243.98.221","Mozilla/5.0 (Windows NT 10.0; WOW64) AppleWebKit/537.36 (KHTML, like Gecko) Chrome/92.0.4515.131 Safari/537.36 SLBrowser/8.0.0.7271 SLBChan/105","WebKit","Chrome","92.0.4515.131","Windows","10.0","91460","<p><strong>请判断你在多大程度上同意下列陈述。</strong></p>","0",""
"","","","","","survey-likert","152","2122118","0.0-25.0","54","1","2022-11-27 09:56:50","7b1eb8be57ff77859c7d9ac988e43411","58.243.98.221","Mozilla/5.0 (Windows NT 10.0; WOW64) AppleWebKit/537.36 (KHTML, like Gecko) Chrome/92.0.4515.131 Safari/537.36 SLBrowser/8.0.0.7271 SLBChan/105","WebKit","Chrome","92.0.4515.131","Windows","10.0","57281","","{""vi3"":8,""hi3"":4,""hi4"":6,""vi4"":4,""vc1"":7,""hc1"":7,""vi2"":1,""vc4"":7,""hi2"":5,""Robot"":6,""hc4"":6,""hi1"":5,""vc3"":6,""hc3"":4,""vc2"":6,""vi1"":5,""hc2"":8}","[6,2,3,8,13,9,5,16,1,7,12,0,15,11,14,4,10]"
"","","","","","survey-text","153","2123997","0.0-26.0","54","1","2022-11-27 09:56:50","7b1eb8be57ff77859c7d9ac988e43411","58.243.98.221","Mozilla/5.0 (Windows NT 10.0; WOW64) AppleWebKit/537.36 (KHTML, like Gecko) Chrome/92.0.4515.131 Safari/537.36 SLBrowser/8.0.0.7271 SLBChan/105","WebKit","Chrome","92.0.4515.131","Windows","10.0","1856","","{""Comments"":""""}",""
"","","","","","html-button-response","154","2125527","0.0-27.0","54","1","2022-11-27 09:56:50","7b1eb8be57ff77859c7d9ac988e43411","58.243.98.221","Mozilla/5.0 (Windows NT 10.0; WOW64) AppleWebKit/537.36 (KHTML, like Gecko) Chrome/92.0.4515.131 Safari/537.36 SLBrowser/8.0.0.7271 SLBChan/105","WebKit","Chrome","92.0.4515.131","Windows","10.0","1526","<strong><p>恭喜你完成了实验！</p><p>感谢您的参与。</p></strong>","0",""
