"success","timeout","failed_images","failed_audio","failed_video","trial_type","trial_index","time_elapsed","internal_node_id","run_id","condition","recorded_at","source_code_version","ip","user_agent","device","browser","browser_version","platform","platform_version","rt","stimulus","response","question_order"
"true","false","[]","[]","[]","preload","0","18699","0.0-0.0","55","1","2022-11-27 09:57:01","7b1eb8be57ff77859c7d9ac988e43411","39.144.219.70","Mozilla/5.0 (Windows NT 10.0; Win64; x64) AppleWebKit/537.36 (KHTML, like Gecko) Chrome/98.0.4758.82 Safari/537.36","WebKit","Chrome","98.0.4758.82","Windows","10.0","","","",""
"true","","","","","fullscreen","1","31029","0.0-1.0","55","1","2022-11-27 09:57:01","7b1eb8be57ff77859c7d9ac988e43411","39.144.219.70","Mozilla/5.0 (Windows NT 10.0; Win64; x64) AppleWebKit/537.36 (KHTML, like Gecko) Chrome/98.0.4758.82 Safari/537.36","WebKit","Chrome","98.0.4758.82","Windows","10.0","","","",""
"","","","","","html-button-response","2","52526","0.0-2.0","55","1","2022-11-27 09:57:01","7b1eb8be57ff77859c7d9ac988e43411","39.144.219.70","Mozilla/5.0 (Windows NT 10.0; Win64; x64) AppleWebKit/537.36 (KHTML, like Gecko) Chrome/98.0.4758.82 Safari/537.36","WebKit","Chrome","98.0.4758.82","Windows","10.0","21493","<p style=""font-size:20px;font-weight:bold;"">实验知情同意书</p><p style=""text-align:left;""><strong>实验名称：</strong>社会冲突研究</p><p style=""text-align:left;""><strong>主要研究者：</strong>韩晓春副教授（北京师范大学心理学部）</p><p style=""text-align:left;""><strong>联系方式：</strong>发送邮件至xiaochun.han@bnu.edu.cn</p><p style=""text-align:left;""><strong>研究目的：</strong>研究旨在了解人类面对群体冲突时的决策方式，以及相关的心理学特质。实验调查大约需要20分钟。</p><p style=""text-align:left;""><strong>实验流程：</strong>实验包含两部分。第一部分呈现一系列群体冲突场景，请你决定如何对这些冲突进行反应，大约需要10分钟完成。第二部分包含一系列人口统计学信息收集和心理学问卷，大约需要10分钟完成。</p><p style=""text-align:left;""><strong>参加及退出规则：</strong>参加本实验完全取决于您的个人意愿。在参与过程中，您可以随时退出，并且不用承担任何后果。</p><p style=""text-align:left;""><strong>隐私：</strong>本实验完全匿名进行，不会收集您的姓名或其他能够识别您身份的信息。实验中收集的作答仅用作科学研究使用，可能会在学术期刊/书籍上发表，或者用于教学，您的数据未来可能会和其他研究者或实验室分享，但您的个人身份不会被识别。</p><p style=""text-align:left;""><strong>实验报酬：</strong>实验完成后，您将获得15元人民币报酬，以感谢您的时间和努力。调查问卷中包含几道题目用以测验您作答时的认真度。只有完成全部实验，并且正确回答认真度测验的被试才能获得实验报酬。实验报酬将通过支付宝转账发放。</p><p style=""text-align:left;font-size:20px;""><strong>如果您同意以上实验知情同意书的内容，请点击'同意并且开始实验'按钮；否则请关闭浏览器界面，退出实验。</strong></p>","0",""
"","","","","","html-button-response","3","58977","0.0-3.0","55","1","2022-11-27 09:57:01","7b1eb8be57ff77859c7d9ac988e43411","39.144.219.70","Mozilla/5.0 (Windows NT 10.0; Win64; x64) AppleWebKit/537.36 (KHTML, like Gecko) Chrome/98.0.4758.82 Safari/537.36","WebKit","Chrome","98.0.4758.82","Windows","10.0","6446","<p ><strong>实验任务一：</strong></p><p>请想象你的国家与另一个国家发生了军事冲突。</p><p>你是国家军队的指挥官，你将如何在冲突中进行决策。</p><p>具体来说，作为军队指挥官，请你决定是否发射导弹进行打击。</p><p>接下来，你会面对一系列场景，请仔细阅读每个场景，然后进行决策。</p><p>这部分实验任务大约需要10分钟。</p><p><strong>实验过程中，请集中注意力。</strong></p>","0",""
"","","","","","html-keyboard-response","4","59987","0.0-4.0-0.0","55","1","2022-11-27 09:57:01","7b1eb8be57ff77859c7d9ac988e43411","39.144.219.70","Mozilla/5.0 (Windows NT 10.0; Win64; x64) AppleWebKit/537.36 (KHTML, like Gecko) Chrome/98.0.4758.82 Safari/537.36","WebKit","Chrome","98.0.4758.82","Windows","10.0","null","<div style=""font-size:60px;"">+</div>","null",""
"","","","","","html-button-response","5","66742","0.0-4.0-1.0","55","1","2022-11-27 09:57:01","7b1eb8be57ff77859c7d9ac988e43411","39.144.219.70","Mozilla/5.0 (Windows NT 10.0; Win64; x64) AppleWebKit/537.36 (KHTML, like Gecko) Chrome/98.0.4758.82 Safari/537.36","WebKit","Chrome","98.0.4758.82","Windows","10.0","6749","<p>作为军队的指挥官，你可以选择发射导弹杀死 <strong>7名</strong> 敌国士兵，但会炸毁附近的 <strong>1棵</strong> 敌国树木。</p> <p>树木的照片如下图所示。</p> <p></p> <img src='stimuli/trees/13.png', style='max-width: 30%;'> </img> <p><strong>你是否选择发射武器？</strong></p>","0",""
"","","","","","html-keyboard-response","6","67751","0.0-4.0-0.1","55","1","2022-11-27 09:57:01","7b1eb8be57ff77859c7d9ac988e43411","39.144.219.70","Mozilla/5.0 (Windows NT 10.0; Win64; x64) AppleWebKit/537.36 (KHTML, like Gecko) Chrome/98.0.4758.82 Safari/537.36","WebKit","Chrome","98.0.4758.82","Windows","10.0","null","<div style=""font-size:60px;"">+</div>","null",""
"","","","","","html-button-response","7","79405","0.0-4.0-1.1","55","1","2022-11-27 09:57:01","7b1eb8be57ff77859c7d9ac988e43411","39.144.219.70","Mozilla/5.0 (Windows NT 10.0; Win64; x64) AppleWebKit/537.36 (KHTML, like Gecko) Chrome/98.0.4758.82 Safari/537.36","WebKit","Chrome","98.0.4758.82","Windows","10.0","11649","<p>作为军队的指挥官，你可以选择发射导弹杀死 <strong>10名</strong> 敌国士兵，但会误杀附近的 <strong>1名</strong> 敌国平民。</p> <p>平民照片如下图所示。</p> <p></p> <img src='stimuli/faces/PCF2.jpg', style='max-width: 30%;'> </img> <p><strong>你是否选择发射武器？</strong></p>","1",""
"","","","","","html-keyboard-response","8","80413","0.0-4.0-0.2","55","1","2022-11-27 09:57:01","7b1eb8be57ff77859c7d9ac988e43411","39.144.219.70","Mozilla/5.0 (Windows NT 10.0; Win64; x64) AppleWebKit/537.36 (KHTML, like Gecko) Chrome/98.0.4758.82 Safari/537.36","WebKit","Chrome","98.0.4758.82","Windows","10.0","null","<div style=""font-size:60px;"">+</div>","null",""
"","","","","","html-button-response","9","83087","0.0-4.0-1.2","55","1","2022-11-27 09:57:01","7b1eb8be57ff77859c7d9ac988e43411","39.144.219.70","Mozilla/5.0 (Windows NT 10.0; Win64; x64) AppleWebKit/537.36 (KHTML, like Gecko) Chrome/98.0.4758.82 Safari/537.36","WebKit","Chrome","98.0.4758.82","Windows","10.0","2669","<p>作为军队的指挥官，你可以选择发射导弹杀死 <strong>1名</strong> 敌国士兵，但会炸毁附近的 <strong>1棵</strong> 敌国树木。</p> <p>树木的照片如下图所示。</p> <p></p> <img src='stimuli/trees/11.png', style='max-width: 30%;'> </img> <p><strong>你是否选择发射武器？</strong></p>","0",""
"","","","","","html-keyboard-response","10","84104","0.0-4.0-0.3","55","1","2022-11-27 09:57:01","7b1eb8be57ff77859c7d9ac988e43411","39.144.219.70","Mozilla/5.0 (Windows NT 10.0; Win64; x64) AppleWebKit/537.36 (KHTML, like Gecko) Chrome/98.0.4758.82 Safari/537.36","WebKit","Chrome","98.0.4758.82","Windows","10.0","null","<div style=""font-size:60px;"">+</div>","null",""
"","","","","","html-button-response","11","86556","0.0-4.0-1.3","55","1","2022-11-27 09:57:01","7b1eb8be57ff77859c7d9ac988e43411","39.144.219.70","Mozilla/5.0 (Windows NT 10.0; Win64; x64) AppleWebKit/537.36 (KHTML, like Gecko) Chrome/98.0.4758.82 Safari/537.36","WebKit","Chrome","98.0.4758.82","Windows","10.0","2448","<p>作为军队的指挥官，你可以选择发射导弹杀死 <strong>9名</strong> 敌国士兵，但会炸毁附近的 <strong>1棵</strong> 敌国树木。</p> <p>树木的照片如下图所示。</p> <p></p> <img src='stimuli/trees/8.png', style='max-width: 30%;'> </img> <p><strong>你是否选择发射武器？</strong></p>","0",""
"","","","","","html-keyboard-response","12","87572","0.0-4.0-0.4","55","1","2022-11-27 09:57:01","7b1eb8be57ff77859c7d9ac988e43411","39.144.219.70","Mozilla/5.0 (Windows NT 10.0; Win64; x64) AppleWebKit/537.36 (KHTML, like Gecko) Chrome/98.0.4758.82 Safari/537.36","WebKit","Chrome","98.0.4758.82","Windows","10.0","null","<div style=""font-size:60px;"">+</div>","null",""
"","","","","","html-button-response","13","89907","0.0-4.0-1.4","55","1","2022-11-27 09:57:01","7b1eb8be57ff77859c7d9ac988e43411","39.144.219.70","Mozilla/5.0 (Windows NT 10.0; Win64; x64) AppleWebKit/537.36 (KHTML, like Gecko) Chrome/98.0.4758.82 Safari/537.36","WebKit","Chrome","98.0.4758.82","Windows","10.0","2331","<p>作为军队的指挥官，你可以选择发射导弹杀死 <strong>1名</strong> 敌国士兵，但会炸毁附近的 <strong>1棵</strong> 敌国树木。</p> <p>树木的照片如下图所示。</p> <p></p> <img src='stimuli/trees/16.png', style='max-width: 30%;'> </img> <p><strong>你是否选择发射武器？</strong></p>","0",""
"","","","","","html-keyboard-response","14","90915","0.0-4.0-0.5","55","1","2022-11-27 09:57:01","7b1eb8be57ff77859c7d9ac988e43411","39.144.219.70","Mozilla/5.0 (Windows NT 10.0; Win64; x64) AppleWebKit/537.36 (KHTML, like Gecko) Chrome/98.0.4758.82 Safari/537.36","WebKit","Chrome","98.0.4758.82","Windows","10.0","null","<div style=""font-size:60px;"">+</div>","null",""
"","","","","","html-button-response","15","92523","0.0-4.0-1.5","55","1","2022-11-27 09:57:01","7b1eb8be57ff77859c7d9ac988e43411","39.144.219.70","Mozilla/5.0 (Windows NT 10.0; Win64; x64) AppleWebKit/537.36 (KHTML, like Gecko) Chrome/98.0.4758.82 Safari/537.36","WebKit","Chrome","98.0.4758.82","Windows","10.0","1603","<p>作为军队的指挥官，你可以选择发射导弹杀死 <strong>3名</strong> 敌国士兵，但会炸毁附近的 <strong>1棵</strong> 敌国树木。</p> <p>树木的照片如下图所示。</p> <p></p> <img src='stimuli/trees/10.png', style='max-width: 30%;'> </img> <p><strong>你是否选择发射武器？</strong></p>","0",""
"","","","","","html-keyboard-response","16","93536","0.0-4.0-0.6","55","1","2022-11-27 09:57:01","7b1eb8be57ff77859c7d9ac988e43411","39.144.219.70","Mozilla/5.0 (Windows NT 10.0; Win64; x64) AppleWebKit/537.36 (KHTML, like Gecko) Chrome/98.0.4758.82 Safari/537.36","WebKit","Chrome","98.0.4758.82","Windows","10.0","null","<div style=""font-size:60px;"">+</div>","null",""
"","","","","","html-button-response","17","96272","0.0-4.0-1.6","55","1","2022-11-27 09:57:01","7b1eb8be57ff77859c7d9ac988e43411","39.144.219.70","Mozilla/5.0 (Windows NT 10.0; Win64; x64) AppleWebKit/537.36 (KHTML, like Gecko) Chrome/98.0.4758.82 Safari/537.36","WebKit","Chrome","98.0.4758.82","Windows","10.0","2731","<p>作为军队的指挥官，你可以选择发射导弹杀死 <strong>5名</strong> 敌国士兵，但会误杀附近的 <strong>1名</strong> 敌国平民。</p> <p>平民照片如下图所示。</p> <p></p> <img src='stimuli/faces/PCF4.jpg', style='max-width: 30%;'> </img> <p><strong>你是否选择发射武器？</strong></p>","1",""
"","","","","","html-keyboard-response","18","97281","0.0-4.0-0.7","55","1","2022-11-27 09:57:01","7b1eb8be57ff77859c7d9ac988e43411","39.144.219.70","Mozilla/5.0 (Windows NT 10.0; Win64; x64) AppleWebKit/537.36 (KHTML, like Gecko) Chrome/98.0.4758.82 Safari/537.36","WebKit","Chrome","98.0.4758.82","Windows","10.0","null","<div style=""font-size:60px;"">+</div>","null",""
"","","","","","html-button-response","19","99061","0.0-4.0-1.7","55","1","2022-11-27 09:57:01","7b1eb8be57ff77859c7d9ac988e43411","39.144.219.70","Mozilla/5.0 (Windows NT 10.0; Win64; x64) AppleWebKit/537.36 (KHTML, like Gecko) Chrome/98.0.4758.82 Safari/537.36","WebKit","Chrome","98.0.4758.82","Windows","10.0","1777","<p>作为军队的指挥官，你可以选择发射导弹杀死 <strong>6名</strong> 敌国士兵，但会误杀附近的 <strong>1名</strong> 敌国平民。</p> <p>平民照片如下图所示。</p> <p></p> <img src='stimuli/faces/PCF6.jpg', style='max-width: 30%;'> </img> <p><strong>你是否选择发射武器？</strong></p>","1",""
"","","","","","html-keyboard-response","20","100073","0.0-4.0-0.8","55","1","2022-11-27 09:57:01","7b1eb8be57ff77859c7d9ac988e43411","39.144.219.70","Mozilla/5.0 (Windows NT 10.0; Win64; x64) AppleWebKit/537.36 (KHTML, like Gecko) Chrome/98.0.4758.82 Safari/537.36","WebKit","Chrome","98.0.4758.82","Windows","10.0","null","<div style=""font-size:60px;"">+</div>","null",""
"","","","","","html-button-response","21","101813","0.0-4.0-1.8","55","1","2022-11-27 09:57:01","7b1eb8be57ff77859c7d9ac988e43411","39.144.219.70","Mozilla/5.0 (Windows NT 10.0; Win64; x64) AppleWebKit/537.36 (KHTML, like Gecko) Chrome/98.0.4758.82 Safari/537.36","WebKit","Chrome","98.0.4758.82","Windows","10.0","1738","<p>作为军队的指挥官，你可以选择发射导弹杀死 <strong>9名</strong> 敌国士兵，但会炸毁附近的 <strong>1棵</strong> 敌国树木。</p> <p>树木的照片如下图所示。</p> <p></p> <img src='stimuli/trees/5.png', style='max-width: 30%;'> </img> <p><strong>你是否选择发射武器？</strong></p>","0",""
"","","","","","html-keyboard-response","22","102830","0.0-4.0-0.9","55","1","2022-11-27 09:57:01","7b1eb8be57ff77859c7d9ac988e43411","39.144.219.70","Mozilla/5.0 (Windows NT 10.0; Win64; x64) AppleWebKit/537.36 (KHTML, like Gecko) Chrome/98.0.4758.82 Safari/537.36","WebKit","Chrome","98.0.4758.82","Windows","10.0","null","<div style=""font-size:60px;"">+</div>","null",""
"","","","","","html-button-response","23","104676","0.0-4.0-1.9","55","1","2022-11-27 09:57:01","7b1eb8be57ff77859c7d9ac988e43411","39.144.219.70","Mozilla/5.0 (Windows NT 10.0; Win64; x64) AppleWebKit/537.36 (KHTML, like Gecko) Chrome/98.0.4758.82 Safari/537.36","WebKit","Chrome","98.0.4758.82","Windows","10.0","1842","<p>作为军队的指挥官，你可以选择发射导弹杀死 <strong>7名</strong> 敌国士兵，但会炸毁附近的 <strong>1棵</strong> 敌国树木。</p> <p>树木的照片如下图所示。</p> <p></p> <img src='stimuli/trees/10.png', style='max-width: 30%;'> </img> <p><strong>你是否选择发射武器？</strong></p>","0",""
"","","","","","html-keyboard-response","24","105688","0.0-4.0-0.10","55","1","2022-11-27 09:57:01","7b1eb8be57ff77859c7d9ac988e43411","39.144.219.70","Mozilla/5.0 (Windows NT 10.0; Win64; x64) AppleWebKit/537.36 (KHTML, like Gecko) Chrome/98.0.4758.82 Safari/537.36","WebKit","Chrome","98.0.4758.82","Windows","10.0","null","<div style=""font-size:60px;"">+</div>","null",""
"","","","","","html-button-response","25","107575","0.0-4.0-1.10","55","1","2022-11-27 09:57:01","7b1eb8be57ff77859c7d9ac988e43411","39.144.219.70","Mozilla/5.0 (Windows NT 10.0; Win64; x64) AppleWebKit/537.36 (KHTML, like Gecko) Chrome/98.0.4758.82 Safari/537.36","WebKit","Chrome","98.0.4758.82","Windows","10.0","1883","<p>作为军队的指挥官，你可以选择发射导弹杀死 <strong>1名</strong> 敌国士兵，但会炸毁附近的 <strong>1棵</strong> 敌国树木。</p> <p>树木的照片如下图所示。</p> <p></p> <img src='stimuli/trees/3.png', style='max-width: 30%;'> </img> <p><strong>你是否选择发射武器？</strong></p>","0",""
"","","","","","html-keyboard-response","26","108584","0.0-4.0-0.11","55","1","2022-11-27 09:57:01","7b1eb8be57ff77859c7d9ac988e43411","39.144.219.70","Mozilla/5.0 (Windows NT 10.0; Win64; x64) AppleWebKit/537.36 (KHTML, like Gecko) Chrome/98.0.4758.82 Safari/537.36","WebKit","Chrome","98.0.4758.82","Windows","10.0","null","<div style=""font-size:60px;"">+</div>","null",""
"","","","","","html-button-response","27","109969","0.0-4.0-1.11","55","1","2022-11-27 09:57:01","7b1eb8be57ff77859c7d9ac988e43411","39.144.219.70","Mozilla/5.0 (Windows NT 10.0; Win64; x64) AppleWebKit/537.36 (KHTML, like Gecko) Chrome/98.0.4758.82 Safari/537.36","WebKit","Chrome","98.0.4758.82","Windows","10.0","1381","<p>作为军队的指挥官，你可以选择发射导弹杀死 <strong>2名</strong> 敌国士兵，但会炸毁附近的 <strong>1棵</strong> 敌国树木。</p> <p>树木的照片如下图所示。</p> <p></p> <img src='stimuli/trees/4.png', style='max-width: 30%;'> </img> <p><strong>你是否选择发射武器？</strong></p>","0",""
"","","","","","html-keyboard-response","28","110978","0.0-4.0-0.12","55","1","2022-11-27 09:57:01","7b1eb8be57ff77859c7d9ac988e43411","39.144.219.70","Mozilla/5.0 (Windows NT 10.0; Win64; x64) AppleWebKit/537.36 (KHTML, like Gecko) Chrome/98.0.4758.82 Safari/537.36","WebKit","Chrome","98.0.4758.82","Windows","10.0","null","<div style=""font-size:60px;"">+</div>","null",""
"","","","","","html-button-response","29","113141","0.0-4.0-1.12","55","1","2022-11-27 09:57:01","7b1eb8be57ff77859c7d9ac988e43411","39.144.219.70","Mozilla/5.0 (Windows NT 10.0; Win64; x64) AppleWebKit/537.36 (KHTML, like Gecko) Chrome/98.0.4758.82 Safari/537.36","WebKit","Chrome","98.0.4758.82","Windows","10.0","2159","<p>作为军队的指挥官，你可以选择发射导弹杀死 <strong>5名</strong> 敌国士兵，但会误杀附近的 <strong>1名</strong> 敌国平民。</p> <p>平民照片如下图所示。</p> <p></p> <img src='stimuli/faces/PCF7.jpg', style='max-width: 30%;'> </img> <p><strong>你是否选择发射武器？</strong></p>","1",""
"","","","","","html-keyboard-response","30","114155","0.0-4.0-0.13","55","1","2022-11-27 09:57:01","7b1eb8be57ff77859c7d9ac988e43411","39.144.219.70","Mozilla/5.0 (Windows NT 10.0; Win64; x64) AppleWebKit/537.36 (KHTML, like Gecko) Chrome/98.0.4758.82 Safari/537.36","WebKit","Chrome","98.0.4758.82","Windows","10.0","null","<div style=""font-size:60px;"">+</div>","null",""
"","","","","","html-button-response","31","117751","0.0-4.0-1.13","55","1","2022-11-27 09:57:01","7b1eb8be57ff77859c7d9ac988e43411","39.144.219.70","Mozilla/5.0 (Windows NT 10.0; Win64; x64) AppleWebKit/537.36 (KHTML, like Gecko) Chrome/98.0.4758.82 Safari/537.36","WebKit","Chrome","98.0.4758.82","Windows","10.0","3592","<p>作为军队的指挥官，你可以选择发射导弹杀死 <strong>3名</strong> 敌国士兵，但会误杀附近的 <strong>1名</strong> 敌国平民。</p> <p>平民照片如下图所示。</p> <p></p> <img src='stimuli/faces/PCF6.jpg', style='max-width: 30%;'> </img> <p><strong>你是否选择发射武器？</strong></p>","1",""
"","","","","","html-keyboard-response","32","118760","0.0-4.0-0.14","55","1","2022-11-27 09:57:01","7b1eb8be57ff77859c7d9ac988e43411","39.144.219.70","Mozilla/5.0 (Windows NT 10.0; Win64; x64) AppleWebKit/537.36 (KHTML, like Gecko) Chrome/98.0.4758.82 Safari/537.36","WebKit","Chrome","98.0.4758.82","Windows","10.0","null","<div style=""font-size:60px;"">+</div>","null",""
"","","","","","html-button-response","33","120637","0.0-4.0-1.14","55","1","2022-11-27 09:57:01","7b1eb8be57ff77859c7d9ac988e43411","39.144.219.70","Mozilla/5.0 (Windows NT 10.0; Win64; x64) AppleWebKit/537.36 (KHTML, like Gecko) Chrome/98.0.4758.82 Safari/537.36","WebKit","Chrome","98.0.4758.82","Windows","10.0","1872","<p>作为军队的指挥官，你可以选择发射导弹杀死 <strong>6名</strong> 敌国士兵，但会炸毁附近的 <strong>1棵</strong> 敌国树木。</p> <p>树木的照片如下图所示。</p> <p></p> <img src='stimuli/trees/1.png', style='max-width: 30%;'> </img> <p><strong>你是否选择发射武器？</strong></p>","0",""
"","","","","","html-keyboard-response","34","121645","0.0-4.0-0.15","55","1","2022-11-27 09:57:01","7b1eb8be57ff77859c7d9ac988e43411","39.144.219.70","Mozilla/5.0 (Windows NT 10.0; Win64; x64) AppleWebKit/537.36 (KHTML, like Gecko) Chrome/98.0.4758.82 Safari/537.36","WebKit","Chrome","98.0.4758.82","Windows","10.0","null","<div style=""font-size:60px;"">+</div>","null",""
"","","","","","html-button-response","35","123738","0.0-4.0-1.15","55","1","2022-11-27 09:57:01","7b1eb8be57ff77859c7d9ac988e43411","39.144.219.70","Mozilla/5.0 (Windows NT 10.0; Win64; x64) AppleWebKit/537.36 (KHTML, like Gecko) Chrome/98.0.4758.82 Safari/537.36","WebKit","Chrome","98.0.4758.82","Windows","10.0","2088","<p>作为军队的指挥官，你可以选择发射导弹杀死 <strong>1名</strong> 敌国士兵，但会炸毁附近的 <strong>1棵</strong> 敌国树木。</p> <p>树木的照片如下图所示。</p> <p></p> <img src='stimuli/trees/7.png', style='max-width: 30%;'> </img> <p><strong>你是否选择发射武器？</strong></p>","0",""
"","","","","","html-keyboard-response","36","124747","0.0-4.0-0.16","55","1","2022-11-27 09:57:01","7b1eb8be57ff77859c7d9ac988e43411","39.144.219.70","Mozilla/5.0 (Windows NT 10.0; Win64; x64) AppleWebKit/537.36 (KHTML, like Gecko) Chrome/98.0.4758.82 Safari/537.36","WebKit","Chrome","98.0.4758.82","Windows","10.0","null","<div style=""font-size:60px;"">+</div>","null",""
"","","","","","html-button-response","37","126230","0.0-4.0-1.16","55","1","2022-11-27 09:57:01","7b1eb8be57ff77859c7d9ac988e43411","39.144.219.70","Mozilla/5.0 (Windows NT 10.0; Win64; x64) AppleWebKit/537.36 (KHTML, like Gecko) Chrome/98.0.4758.82 Safari/537.36","WebKit","Chrome","98.0.4758.82","Windows","10.0","1479","<p>作为军队的指挥官，你可以选择发射导弹杀死 <strong>8名</strong> 敌国士兵，但会炸毁附近的 <strong>1棵</strong> 敌国树木。</p> <p>树木的照片如下图所示。</p> <p></p> <img src='stimuli/trees/16.png', style='max-width: 30%;'> </img> <p><strong>你是否选择发射武器？</strong></p>","0",""
"","","","","","html-keyboard-response","38","127242","0.0-4.0-0.17","55","1","2022-11-27 09:57:01","7b1eb8be57ff77859c7d9ac988e43411","39.144.219.70","Mozilla/5.0 (Windows NT 10.0; Win64; x64) AppleWebKit/537.36 (KHTML, like Gecko) Chrome/98.0.4758.82 Safari/537.36","WebKit","Chrome","98.0.4758.82","Windows","10.0","null","<div style=""font-size:60px;"">+</div>","null",""
"","","","","","html-button-response","39","129038","0.0-4.0-1.17","55","1","2022-11-27 09:57:01","7b1eb8be57ff77859c7d9ac988e43411","39.144.219.70","Mozilla/5.0 (Windows NT 10.0; Win64; x64) AppleWebKit/537.36 (KHTML, like Gecko) Chrome/98.0.4758.82 Safari/537.36","WebKit","Chrome","98.0.4758.82","Windows","10.0","1791","<p>作为军队的指挥官，你可以选择发射导弹杀死 <strong>7名</strong> 敌国士兵，但会误杀附近的 <strong>1名</strong> 敌国平民。</p> <p>平民照片如下图所示。</p> <p></p> <img src='stimuli/faces/PCM3.jpg', style='max-width: 30%;'> </img> <p><strong>你是否选择发射武器？</strong></p>","1",""
"","","","","","html-keyboard-response","40","130047","0.0-4.0-0.18","55","1","2022-11-27 09:57:01","7b1eb8be57ff77859c7d9ac988e43411","39.144.219.70","Mozilla/5.0 (Windows NT 10.0; Win64; x64) AppleWebKit/537.36 (KHTML, like Gecko) Chrome/98.0.4758.82 Safari/537.36","WebKit","Chrome","98.0.4758.82","Windows","10.0","null","<div style=""font-size:60px;"">+</div>","null",""
"","","","","","html-button-response","41","131429","0.0-4.0-1.18","55","1","2022-11-27 09:57:01","7b1eb8be57ff77859c7d9ac988e43411","39.144.219.70","Mozilla/5.0 (Windows NT 10.0; Win64; x64) AppleWebKit/537.36 (KHTML, like Gecko) Chrome/98.0.4758.82 Safari/537.36","WebKit","Chrome","98.0.4758.82","Windows","10.0","1378","<p>作为军队的指挥官，你可以选择发射导弹杀死 <strong>9名</strong> 敌国士兵，但会误杀附近的 <strong>1名</strong> 敌国平民。</p> <p>平民照片如下图所示。</p> <p></p> <img src='stimuli/faces/PCM6.jpg', style='max-width: 30%;'> </img> <p><strong>你是否选择发射武器？</strong></p>","1",""
"","","","","","html-keyboard-response","42","132446","0.0-4.0-0.19","55","1","2022-11-27 09:57:01","7b1eb8be57ff77859c7d9ac988e43411","39.144.219.70","Mozilla/5.0 (Windows NT 10.0; Win64; x64) AppleWebKit/537.36 (KHTML, like Gecko) Chrome/98.0.4758.82 Safari/537.36","WebKit","Chrome","98.0.4758.82","Windows","10.0","null","<div style=""font-size:60px;"">+</div>","null",""
"","","","","","html-button-response","43","134299","0.0-4.0-1.19","55","1","2022-11-27 09:57:01","7b1eb8be57ff77859c7d9ac988e43411","39.144.219.70","Mozilla/5.0 (Windows NT 10.0; Win64; x64) AppleWebKit/537.36 (KHTML, like Gecko) Chrome/98.0.4758.82 Safari/537.36","WebKit","Chrome","98.0.4758.82","Windows","10.0","1851","<p>作为军队的指挥官，你可以选择发射导弹杀死 <strong>4名</strong> 敌国士兵，但会炸毁附近的 <strong>1棵</strong> 敌国树木。</p> <p>树木的照片如下图所示。</p> <p></p> <img src='stimuli/trees/1.png', style='max-width: 30%;'> </img> <p><strong>你是否选择发射武器？</strong></p>","0",""
"","","","","","html-keyboard-response","44","135308","0.0-4.0-0.20","55","1","2022-11-27 09:57:01","7b1eb8be57ff77859c7d9ac988e43411","39.144.219.70","Mozilla/5.0 (Windows NT 10.0; Win64; x64) AppleWebKit/537.36 (KHTML, like Gecko) Chrome/98.0.4758.82 Safari/537.36","WebKit","Chrome","98.0.4758.82","Windows","10.0","null","<div style=""font-size:60px;"">+</div>","null",""
"","","","","","html-button-response","45","136460","0.0-4.0-1.20","55","1","2022-11-27 09:57:01","7b1eb8be57ff77859c7d9ac988e43411","39.144.219.70","Mozilla/5.0 (Windows NT 10.0; Win64; x64) AppleWebKit/537.36 (KHTML, like Gecko) Chrome/98.0.4758.82 Safari/537.36","WebKit","Chrome","98.0.4758.82","Windows","10.0","1147","<p>作为军队的指挥官，你可以选择发射导弹杀死 <strong>8名</strong> 敌国士兵，但会炸毁附近的 <strong>1棵</strong> 敌国树木。</p> <p>树木的照片如下图所示。</p> <p></p> <img src='stimuli/trees/11.png', style='max-width: 30%;'> </img> <p><strong>你是否选择发射武器？</strong></p>","0",""
"","","","","","html-keyboard-response","46","137473","0.0-4.0-0.21","55","1","2022-11-27 09:57:01","7b1eb8be57ff77859c7d9ac988e43411","39.144.219.70","Mozilla/5.0 (Windows NT 10.0; Win64; x64) AppleWebKit/537.36 (KHTML, like Gecko) Chrome/98.0.4758.82 Safari/537.36","WebKit","Chrome","98.0.4758.82","Windows","10.0","null","<div style=""font-size:60px;"">+</div>","null",""
"","","","","","html-button-response","47","139463","0.0-4.0-1.21","55","1","2022-11-27 09:57:01","7b1eb8be57ff77859c7d9ac988e43411","39.144.219.70","Mozilla/5.0 (Windows NT 10.0; Win64; x64) AppleWebKit/537.36 (KHTML, like Gecko) Chrome/98.0.4758.82 Safari/537.36","WebKit","Chrome","98.0.4758.82","Windows","10.0","1985","<p>作为军队的指挥官，你可以选择发射导弹杀死 <strong>5名</strong> 敌国士兵，但会误杀附近的 <strong>1名</strong> 敌国平民。</p> <p>平民照片如下图所示。</p> <p></p> <img src='stimuli/faces/PCM8.jpg', style='max-width: 30%;'> </img> <p><strong>你是否选择发射武器？</strong></p>","1",""
"","","","","","html-keyboard-response","48","140473","0.0-4.0-0.22","55","1","2022-11-27 09:57:01","7b1eb8be57ff77859c7d9ac988e43411","39.144.219.70","Mozilla/5.0 (Windows NT 10.0; Win64; x64) AppleWebKit/537.36 (KHTML, like Gecko) Chrome/98.0.4758.82 Safari/537.36","WebKit","Chrome","98.0.4758.82","Windows","10.0","null","<div style=""font-size:60px;"">+</div>","null",""
"","","","","","html-button-response","49","142648","0.0-4.0-1.22","55","1","2022-11-27 09:57:01","7b1eb8be57ff77859c7d9ac988e43411","39.144.219.70","Mozilla/5.0 (Windows NT 10.0; Win64; x64) AppleWebKit/537.36 (KHTML, like Gecko) Chrome/98.0.4758.82 Safari/537.36","WebKit","Chrome","98.0.4758.82","Windows","10.0","2172","<p>作为军队的指挥官，你可以选择发射导弹杀死 <strong>9名</strong> 敌国士兵，但会炸毁附近的 <strong>1棵</strong> 敌国树木。</p> <p>树木的照片如下图所示。</p> <p></p> <img src='stimuli/trees/12.png', style='max-width: 30%;'> </img> <p><strong>你是否选择发射武器？</strong></p>","0",""
"","","","","","html-keyboard-response","50","143656","0.0-4.0-0.23","55","1","2022-11-27 09:57:01","7b1eb8be57ff77859c7d9ac988e43411","39.144.219.70","Mozilla/5.0 (Windows NT 10.0; Win64; x64) AppleWebKit/537.36 (KHTML, like Gecko) Chrome/98.0.4758.82 Safari/537.36","WebKit","Chrome","98.0.4758.82","Windows","10.0","null","<div style=""font-size:60px;"">+</div>","null",""
"","","","","","html-button-response","51","145169","0.0-4.0-1.23","55","1","2022-11-27 09:57:01","7b1eb8be57ff77859c7d9ac988e43411","39.144.219.70","Mozilla/5.0 (Windows NT 10.0; Win64; x64) AppleWebKit/537.36 (KHTML, like Gecko) Chrome/98.0.4758.82 Safari/537.36","WebKit","Chrome","98.0.4758.82","Windows","10.0","1506","<p>作为军队的指挥官，你可以选择发射导弹杀死 <strong>4名</strong> 敌国士兵，但会炸毁附近的 <strong>1棵</strong> 敌国树木。</p> <p>树木的照片如下图所示。</p> <p></p> <img src='stimuli/trees/9.png', style='max-width: 30%;'> </img> <p><strong>你是否选择发射武器？</strong></p>","0",""
"","","","","","html-keyboard-response","52","146178","0.0-4.0-0.24","55","1","2022-11-27 09:57:01","7b1eb8be57ff77859c7d9ac988e43411","39.144.219.70","Mozilla/5.0 (Windows NT 10.0; Win64; x64) AppleWebKit/537.36 (KHTML, like Gecko) Chrome/98.0.4758.82 Safari/537.36","WebKit","Chrome","98.0.4758.82","Windows","10.0","null","<div style=""font-size:60px;"">+</div>","null",""
"","","","","","html-button-response","53","147829","0.0-4.0-1.24","55","1","2022-11-27 09:57:01","7b1eb8be57ff77859c7d9ac988e43411","39.144.219.70","Mozilla/5.0 (Windows NT 10.0; Win64; x64) AppleWebKit/537.36 (KHTML, like Gecko) Chrome/98.0.4758.82 Safari/537.36","WebKit","Chrome","98.0.4758.82","Windows","10.0","1648","<p>作为军队的指挥官，你可以选择发射导弹杀死 <strong>8名</strong> 敌国士兵，但会误杀附近的 <strong>1名</strong> 敌国平民。</p> <p>平民照片如下图所示。</p> <p></p> <img src='stimuli/faces/PCM2.jpg', style='max-width: 30%;'> </img> <p><strong>你是否选择发射武器？</strong></p>","1",""
"","","","","","html-keyboard-response","54","148846","0.0-4.0-0.25","55","1","2022-11-27 09:57:01","7b1eb8be57ff77859c7d9ac988e43411","39.144.219.70","Mozilla/5.0 (Windows NT 10.0; Win64; x64) AppleWebKit/537.36 (KHTML, like Gecko) Chrome/98.0.4758.82 Safari/537.36","WebKit","Chrome","98.0.4758.82","Windows","10.0","null","<div style=""font-size:60px;"">+</div>","null",""
"","","","","","html-button-response","55","149678","0.0-4.0-1.25","55","1","2022-11-27 09:57:01","7b1eb8be57ff77859c7d9ac988e43411","39.144.219.70","Mozilla/5.0 (Windows NT 10.0; Win64; x64) AppleWebKit/537.36 (KHTML, like Gecko) Chrome/98.0.4758.82 Safari/537.36","WebKit","Chrome","98.0.4758.82","Windows","10.0","827","<p>作为军队的指挥官，你可以选择发射导弹杀死 <strong>1名</strong> 敌国士兵，但会误杀附近的 <strong>1名</strong> 敌国平民。</p> <p>平民照片如下图所示。</p> <p></p> <img src='stimuli/faces/PCF5.jpg', style='max-width: 30%;'> </img> <p><strong>你是否选择发射武器？</strong></p>","1",""
"","","","","","html-keyboard-response","56","150690","0.0-4.0-0.26","55","1","2022-11-27 09:57:01","7b1eb8be57ff77859c7d9ac988e43411","39.144.219.70","Mozilla/5.0 (Windows NT 10.0; Win64; x64) AppleWebKit/537.36 (KHTML, like Gecko) Chrome/98.0.4758.82 Safari/537.36","WebKit","Chrome","98.0.4758.82","Windows","10.0","null","<div style=""font-size:60px;"">+</div>","null",""
"","","","","","html-button-response","57","152182","0.0-4.0-1.26","55","1","2022-11-27 09:57:01","7b1eb8be57ff77859c7d9ac988e43411","39.144.219.70","Mozilla/5.0 (Windows NT 10.0; Win64; x64) AppleWebKit/537.36 (KHTML, like Gecko) Chrome/98.0.4758.82 Safari/537.36","WebKit","Chrome","98.0.4758.82","Windows","10.0","1486","<p>作为军队的指挥官，你可以选择发射导弹杀死 <strong>1名</strong> 敌国士兵，但会误杀附近的 <strong>1名</strong> 敌国平民。</p> <p>平民照片如下图所示。</p> <p></p> <img src='stimuli/faces/PCM3.jpg', style='max-width: 30%;'> </img> <p><strong>你是否选择发射武器？</strong></p>","1",""
"","","","","","html-keyboard-response","58","153191","0.0-4.0-0.27","55","1","2022-11-27 09:57:01","7b1eb8be57ff77859c7d9ac988e43411","39.144.219.70","Mozilla/5.0 (Windows NT 10.0; Win64; x64) AppleWebKit/537.36 (KHTML, like Gecko) Chrome/98.0.4758.82 Safari/537.36","WebKit","Chrome","98.0.4758.82","Windows","10.0","null","<div style=""font-size:60px;"">+</div>","null",""
"","","","","","html-button-response","59","154541","0.0-4.0-1.27","55","1","2022-11-27 09:57:01","7b1eb8be57ff77859c7d9ac988e43411","39.144.219.70","Mozilla/5.0 (Windows NT 10.0; Win64; x64) AppleWebKit/537.36 (KHTML, like Gecko) Chrome/98.0.4758.82 Safari/537.36","WebKit","Chrome","98.0.4758.82","Windows","10.0","1347","<p>作为军队的指挥官，你可以选择发射导弹杀死 <strong>1名</strong> 敌国士兵，但会误杀附近的 <strong>1名</strong> 敌国平民。</p> <p>平民照片如下图所示。</p> <p></p> <img src='stimuli/faces/PCF1.jpg', style='max-width: 30%;'> </img> <p><strong>你是否选择发射武器？</strong></p>","1",""
"","","","","","html-keyboard-response","60","155558","0.0-4.0-0.28","55","1","2022-11-27 09:57:01","7b1eb8be57ff77859c7d9ac988e43411","39.144.219.70","Mozilla/5.0 (Windows NT 10.0; Win64; x64) AppleWebKit/537.36 (KHTML, like Gecko) Chrome/98.0.4758.82 Safari/537.36","WebKit","Chrome","98.0.4758.82","Windows","10.0","null","<div style=""font-size:60px;"">+</div>","null",""
"","","","","","html-button-response","61","157308","0.0-4.0-1.28","55","1","2022-11-27 09:57:01","7b1eb8be57ff77859c7d9ac988e43411","39.144.219.70","Mozilla/5.0 (Windows NT 10.0; Win64; x64) AppleWebKit/537.36 (KHTML, like Gecko) Chrome/98.0.4758.82 Safari/537.36","WebKit","Chrome","98.0.4758.82","Windows","10.0","1744","<p>作为军队的指挥官，你可以选择发射导弹杀死 <strong>4名</strong> 敌国士兵，但会炸毁附近的 <strong>1棵</strong> 敌国树木。</p> <p>树木的照片如下图所示。</p> <p></p> <img src='stimuli/trees/12.png', style='max-width: 30%;'> </img> <p><strong>你是否选择发射武器？</strong></p>","0",""
"","","","","","html-keyboard-response","62","158319","0.0-4.0-0.29","55","1","2022-11-27 09:57:01","7b1eb8be57ff77859c7d9ac988e43411","39.144.219.70","Mozilla/5.0 (Windows NT 10.0; Win64; x64) AppleWebKit/537.36 (KHTML, like Gecko) Chrome/98.0.4758.82 Safari/537.36","WebKit","Chrome","98.0.4758.82","Windows","10.0","null","<div style=""font-size:60px;"">+</div>","null",""
"","","","","","html-button-response","63","160043","0.0-4.0-1.29","55","1","2022-11-27 09:57:01","7b1eb8be57ff77859c7d9ac988e43411","39.144.219.70","Mozilla/5.0 (Windows NT 10.0; Win64; x64) AppleWebKit/537.36 (KHTML, like Gecko) Chrome/98.0.4758.82 Safari/537.36","WebKit","Chrome","98.0.4758.82","Windows","10.0","1717","<p>作为军队的指挥官，你可以选择发射导弹杀死 <strong>2名</strong> 敌国士兵，但会炸毁附近的 <strong>1棵</strong> 敌国树木。</p> <p>树木的照片如下图所示。</p> <p></p> <img src='stimuli/trees/15.png', style='max-width: 30%;'> </img> <p><strong>你是否选择发射武器？</strong></p>","0",""
"","","","","","html-keyboard-response","64","161060","0.0-4.0-0.30","55","1","2022-11-27 09:57:01","7b1eb8be57ff77859c7d9ac988e43411","39.144.219.70","Mozilla/5.0 (Windows NT 10.0; Win64; x64) AppleWebKit/537.36 (KHTML, like Gecko) Chrome/98.0.4758.82 Safari/537.36","WebKit","Chrome","98.0.4758.82","Windows","10.0","null","<div style=""font-size:60px;"">+</div>","null",""
"","","","","","html-button-response","65","163297","0.0-4.0-1.30","55","1","2022-11-27 09:57:01","7b1eb8be57ff77859c7d9ac988e43411","39.144.219.70","Mozilla/5.0 (Windows NT 10.0; Win64; x64) AppleWebKit/537.36 (KHTML, like Gecko) Chrome/98.0.4758.82 Safari/537.36","WebKit","Chrome","98.0.4758.82","Windows","10.0","2235","<p>作为军队的指挥官，你可以选择发射导弹杀死 <strong>3名</strong> 敌国士兵，但会误杀附近的 <strong>1名</strong> 敌国平民。</p> <p>平民照片如下图所示。</p> <p></p> <img src='stimuli/faces/PCF2.jpg', style='max-width: 30%;'> </img> <p><strong>你是否选择发射武器？</strong></p>","1",""
"","","","","","html-keyboard-response","66","164306","0.0-4.0-0.31","55","1","2022-11-27 09:57:01","7b1eb8be57ff77859c7d9ac988e43411","39.144.219.70","Mozilla/5.0 (Windows NT 10.0; Win64; x64) AppleWebKit/537.36 (KHTML, like Gecko) Chrome/98.0.4758.82 Safari/537.36","WebKit","Chrome","98.0.4758.82","Windows","10.0","null","<div style=""font-size:60px;"">+</div>","null",""
"","","","","","html-button-response","67","165863","0.0-4.0-1.31","55","1","2022-11-27 09:57:01","7b1eb8be57ff77859c7d9ac988e43411","39.144.219.70","Mozilla/5.0 (Windows NT 10.0; Win64; x64) AppleWebKit/537.36 (KHTML, like Gecko) Chrome/98.0.4758.82 Safari/537.36","WebKit","Chrome","98.0.4758.82","Windows","10.0","1550","<p>作为军队的指挥官，你可以选择发射导弹杀死 <strong>7名</strong> 敌国士兵，但会误杀附近的 <strong>1名</strong> 敌国平民。</p> <p>平民照片如下图所示。</p> <p></p> <img src='stimuli/faces/PCM5.jpg', style='max-width: 30%;'> </img> <p><strong>你是否选择发射武器？</strong></p>","1",""
"","","","","","html-keyboard-response","68","166872","0.0-4.0-0.32","55","1","2022-11-27 09:57:01","7b1eb8be57ff77859c7d9ac988e43411","39.144.219.70","Mozilla/5.0 (Windows NT 10.0; Win64; x64) AppleWebKit/537.36 (KHTML, like Gecko) Chrome/98.0.4758.82 Safari/537.36","WebKit","Chrome","98.0.4758.82","Windows","10.0","null","<div style=""font-size:60px;"">+</div>","null",""
"","","","","","html-button-response","69","168493","0.0-4.0-1.32","55","1","2022-11-27 09:57:01","7b1eb8be57ff77859c7d9ac988e43411","39.144.219.70","Mozilla/5.0 (Windows NT 10.0; Win64; x64) AppleWebKit/537.36 (KHTML, like Gecko) Chrome/98.0.4758.82 Safari/537.36","WebKit","Chrome","98.0.4758.82","Windows","10.0","1616","<p>作为军队的指挥官，你可以选择发射导弹杀死 <strong>9名</strong> 敌国士兵，但会炸毁附近的 <strong>1棵</strong> 敌国树木。</p> <p>树木的照片如下图所示。</p> <p></p> <img src='stimuli/trees/15.png', style='max-width: 30%;'> </img> <p><strong>你是否选择发射武器？</strong></p>","0",""
"","","","","","html-keyboard-response","70","169500","0.0-4.0-0.33","55","1","2022-11-27 09:57:01","7b1eb8be57ff77859c7d9ac988e43411","39.144.219.70","Mozilla/5.0 (Windows NT 10.0; Win64; x64) AppleWebKit/537.36 (KHTML, like Gecko) Chrome/98.0.4758.82 Safari/537.36","WebKit","Chrome","98.0.4758.82","Windows","10.0","null","<div style=""font-size:60px;"">+</div>","null",""
"","","","","","html-button-response","71","171255","0.0-4.0-1.33","55","1","2022-11-27 09:57:01","7b1eb8be57ff77859c7d9ac988e43411","39.144.219.70","Mozilla/5.0 (Windows NT 10.0; Win64; x64) AppleWebKit/537.36 (KHTML, like Gecko) Chrome/98.0.4758.82 Safari/537.36","WebKit","Chrome","98.0.4758.82","Windows","10.0","1750","<p>作为军队的指挥官，你可以选择发射导弹杀死 <strong>5名</strong> 敌国士兵，但会误杀附近的 <strong>1名</strong> 敌国平民。</p> <p>平民照片如下图所示。</p> <p></p> <img src='stimuli/faces/PCM7.jpg', style='max-width: 30%;'> </img> <p><strong>你是否选择发射武器？</strong></p>","1",""
"","","","","","html-keyboard-response","72","172267","0.0-4.0-0.34","55","1","2022-11-27 09:57:01","7b1eb8be57ff77859c7d9ac988e43411","39.144.219.70","Mozilla/5.0 (Windows NT 10.0; Win64; x64) AppleWebKit/537.36 (KHTML, like Gecko) Chrome/98.0.4758.82 Safari/537.36","WebKit","Chrome","98.0.4758.82","Windows","10.0","null","<div style=""font-size:60px;"">+</div>","null",""
"","","","","","html-button-response","73","174480","0.0-4.0-1.34","55","1","2022-11-27 09:57:01","7b1eb8be57ff77859c7d9ac988e43411","39.144.219.70","Mozilla/5.0 (Windows NT 10.0; Win64; x64) AppleWebKit/537.36 (KHTML, like Gecko) Chrome/98.0.4758.82 Safari/537.36","WebKit","Chrome","98.0.4758.82","Windows","10.0","2207","<p>作为军队的指挥官，你可以选择发射导弹杀死 <strong>7名</strong> 敌国士兵，但会炸毁附近的 <strong>1棵</strong> 敌国树木。</p> <p>树木的照片如下图所示。</p> <p></p> <img src='stimuli/trees/4.png', style='max-width: 30%;'> </img> <p><strong>你是否选择发射武器？</strong></p>","0",""
"","","","","","html-keyboard-response","74","175493","0.0-4.0-0.35","55","1","2022-11-27 09:57:01","7b1eb8be57ff77859c7d9ac988e43411","39.144.219.70","Mozilla/5.0 (Windows NT 10.0; Win64; x64) AppleWebKit/537.36 (KHTML, like Gecko) Chrome/98.0.4758.82 Safari/537.36","WebKit","Chrome","98.0.4758.82","Windows","10.0","null","<div style=""font-size:60px;"">+</div>","null",""
"","","","","","html-button-response","75","176940","0.0-4.0-1.35","55","1","2022-11-27 09:57:01","7b1eb8be57ff77859c7d9ac988e43411","39.144.219.70","Mozilla/5.0 (Windows NT 10.0; Win64; x64) AppleWebKit/537.36 (KHTML, like Gecko) Chrome/98.0.4758.82 Safari/537.36","WebKit","Chrome","98.0.4758.82","Windows","10.0","1438","<p>作为军队的指挥官，你可以选择发射导弹杀死 <strong>10名</strong> 敌国士兵，但会炸毁附近的 <strong>1棵</strong> 敌国树木。</p> <p>树木的照片如下图所示。</p> <p></p> <img src='stimuli/trees/7.png', style='max-width: 30%;'> </img> <p><strong>你是否选择发射武器？</strong></p>","0",""
"","","","","","html-keyboard-response","76","177956","0.0-4.0-0.36","55","1","2022-11-27 09:57:01","7b1eb8be57ff77859c7d9ac988e43411","39.144.219.70","Mozilla/5.0 (Windows NT 10.0; Win64; x64) AppleWebKit/537.36 (KHTML, like Gecko) Chrome/98.0.4758.82 Safari/537.36","WebKit","Chrome","98.0.4758.82","Windows","10.0","null","<div style=""font-size:60px;"">+</div>","null",""
"","","","","","html-button-response","77","179958","0.0-4.0-1.36","55","1","2022-11-27 09:57:01","7b1eb8be57ff77859c7d9ac988e43411","39.144.219.70","Mozilla/5.0 (Windows NT 10.0; Win64; x64) AppleWebKit/537.36 (KHTML, like Gecko) Chrome/98.0.4758.82 Safari/537.36","WebKit","Chrome","98.0.4758.82","Windows","10.0","1995","<p>作为军队的指挥官，你可以选择发射导弹杀死 <strong>8名</strong> 敌国士兵，但会误杀附近的 <strong>1名</strong> 敌国平民。</p> <p>平民照片如下图所示。</p> <p></p> <img src='stimuli/faces/PCM8.jpg', style='max-width: 30%;'> </img> <p><strong>你是否选择发射武器？</strong></p>","1",""
"","","","","","html-keyboard-response","78","180968","0.0-4.0-0.37","55","1","2022-11-27 09:57:01","7b1eb8be57ff77859c7d9ac988e43411","39.144.219.70","Mozilla/5.0 (Windows NT 10.0; Win64; x64) AppleWebKit/537.36 (KHTML, like Gecko) Chrome/98.0.4758.82 Safari/537.36","WebKit","Chrome","98.0.4758.82","Windows","10.0","null","<div style=""font-size:60px;"">+</div>","null",""
"","","","","","html-button-response","79","182570","0.0-4.0-1.37","55","1","2022-11-27 09:57:01","7b1eb8be57ff77859c7d9ac988e43411","39.144.219.70","Mozilla/5.0 (Windows NT 10.0; Win64; x64) AppleWebKit/537.36 (KHTML, like Gecko) Chrome/98.0.4758.82 Safari/537.36","WebKit","Chrome","98.0.4758.82","Windows","10.0","1596","<p>作为军队的指挥官，你可以选择发射导弹杀死 <strong>3名</strong> 敌国士兵，但会炸毁附近的 <strong>1棵</strong> 敌国树木。</p> <p>树木的照片如下图所示。</p> <p></p> <img src='stimuli/trees/6.png', style='max-width: 30%;'> </img> <p><strong>你是否选择发射武器？</strong></p>","0",""
"","","","","","html-keyboard-response","80","183587","0.0-4.0-0.38","55","1","2022-11-27 09:57:01","7b1eb8be57ff77859c7d9ac988e43411","39.144.219.70","Mozilla/5.0 (Windows NT 10.0; Win64; x64) AppleWebKit/537.36 (KHTML, like Gecko) Chrome/98.0.4758.82 Safari/537.36","WebKit","Chrome","98.0.4758.82","Windows","10.0","null","<div style=""font-size:60px;"">+</div>","null",""
"","","","","","html-button-response","81","184757","0.0-4.0-1.38","55","1","2022-11-27 09:57:01","7b1eb8be57ff77859c7d9ac988e43411","39.144.219.70","Mozilla/5.0 (Windows NT 10.0; Win64; x64) AppleWebKit/537.36 (KHTML, like Gecko) Chrome/98.0.4758.82 Safari/537.36","WebKit","Chrome","98.0.4758.82","Windows","10.0","1162","<p>作为军队的指挥官，你可以选择发射导弹杀死 <strong>7名</strong> 敌国士兵，但会炸毁附近的 <strong>1棵</strong> 敌国树木。</p> <p>树木的照片如下图所示。</p> <p></p> <img src='stimuli/trees/3.png', style='max-width: 30%;'> </img> <p><strong>你是否选择发射武器？</strong></p>","0",""
"","","","","","html-keyboard-response","82","185797","0.0-4.0-0.39","55","1","2022-11-27 09:57:01","7b1eb8be57ff77859c7d9ac988e43411","39.144.219.70","Mozilla/5.0 (Windows NT 10.0; Win64; x64) AppleWebKit/537.36 (KHTML, like Gecko) Chrome/98.0.4758.82 Safari/537.36","WebKit","Chrome","98.0.4758.82","Windows","10.0","null","<div style=""font-size:60px;"">+</div>","null",""
"","","","","","html-button-response","83","187709","0.0-4.0-1.39","55","1","2022-11-27 09:57:01","7b1eb8be57ff77859c7d9ac988e43411","39.144.219.70","Mozilla/5.0 (Windows NT 10.0; Win64; x64) AppleWebKit/537.36 (KHTML, like Gecko) Chrome/98.0.4758.82 Safari/537.36","WebKit","Chrome","98.0.4758.82","Windows","10.0","1904","<p>作为军队的指挥官，你可以选择发射导弹杀死 <strong>1名</strong> 敌国士兵，但会误杀附近的 <strong>1名</strong> 敌国平民。</p> <p>平民照片如下图所示。</p> <p></p> <img src='stimuli/faces/PCF8.jpg', style='max-width: 30%;'> </img> <p><strong>你是否选择发射武器？</strong></p>","1",""
"","","","","","html-keyboard-response","84","188718","0.0-4.0-0.40","55","1","2022-11-27 09:57:01","7b1eb8be57ff77859c7d9ac988e43411","39.144.219.70","Mozilla/5.0 (Windows NT 10.0; Win64; x64) AppleWebKit/537.36 (KHTML, like Gecko) Chrome/98.0.4758.82 Safari/537.36","WebKit","Chrome","98.0.4758.82","Windows","10.0","null","<div style=""font-size:60px;"">+</div>","null",""
"","","","","","html-button-response","85","190657","0.0-4.0-1.40","55","1","2022-11-27 09:57:01","7b1eb8be57ff77859c7d9ac988e43411","39.144.219.70","Mozilla/5.0 (Windows NT 10.0; Win64; x64) AppleWebKit/537.36 (KHTML, like Gecko) Chrome/98.0.4758.82 Safari/537.36","WebKit","Chrome","98.0.4758.82","Windows","10.0","1934","<p>作为军队的指挥官，你可以选择发射导弹杀死 <strong>9名</strong> 敌国士兵，但会炸毁附近的 <strong>1棵</strong> 敌国树木。</p> <p>树木的照片如下图所示。</p> <p></p> <img src='stimuli/trees/9.png', style='max-width: 30%;'> </img> <p><strong>你是否选择发射武器？</strong></p>","0",""
"","","","","","html-keyboard-response","86","191668","0.0-4.0-0.41","55","1","2022-11-27 09:57:01","7b1eb8be57ff77859c7d9ac988e43411","39.144.219.70","Mozilla/5.0 (Windows NT 10.0; Win64; x64) AppleWebKit/537.36 (KHTML, like Gecko) Chrome/98.0.4758.82 Safari/537.36","WebKit","Chrome","98.0.4758.82","Windows","10.0","null","<div style=""font-size:60px;"">+</div>","null",""
"","","","","","html-button-response","87","192602","0.0-4.0-1.41","55","1","2022-11-27 09:57:01","7b1eb8be57ff77859c7d9ac988e43411","39.144.219.70","Mozilla/5.0 (Windows NT 10.0; Win64; x64) AppleWebKit/537.36 (KHTML, like Gecko) Chrome/98.0.4758.82 Safari/537.36","WebKit","Chrome","98.0.4758.82","Windows","10.0","918","<p>作为军队的指挥官，你可以选择发射导弹杀死 <strong>9名</strong> 敌国士兵，但会炸毁附近的 <strong>1棵</strong> 敌国树木。</p> <p>树木的照片如下图所示。</p> <p></p> <img src='stimuli/trees/14.png', style='max-width: 30%;'> </img> <p><strong>你是否选择发射武器？</strong></p>","0",""
"","","","","","html-keyboard-response","88","193618","0.0-4.0-0.42","55","1","2022-11-27 09:57:01","7b1eb8be57ff77859c7d9ac988e43411","39.144.219.70","Mozilla/5.0 (Windows NT 10.0; Win64; x64) AppleWebKit/537.36 (KHTML, like Gecko) Chrome/98.0.4758.82 Safari/537.36","WebKit","Chrome","98.0.4758.82","Windows","10.0","null","<div style=""font-size:60px;"">+</div>","null",""
"","","","","","html-button-response","89","194583","0.0-4.0-1.42","55","1","2022-11-27 09:57:01","7b1eb8be57ff77859c7d9ac988e43411","39.144.219.70","Mozilla/5.0 (Windows NT 10.0; Win64; x64) AppleWebKit/537.36 (KHTML, like Gecko) Chrome/98.0.4758.82 Safari/537.36","WebKit","Chrome","98.0.4758.82","Windows","10.0","957","<p>作为军队的指挥官，你可以选择发射导弹杀死 <strong>2名</strong> 敌国士兵，但会炸毁附近的 <strong>1棵</strong> 敌国树木。</p> <p>树木的照片如下图所示。</p> <p></p> <img src='stimuli/trees/8.png', style='max-width: 30%;'> </img> <p><strong>你是否选择发射武器？</strong></p>","0",""
"","","","","","html-keyboard-response","90","195597","0.0-4.0-0.43","55","1","2022-11-27 09:57:01","7b1eb8be57ff77859c7d9ac988e43411","39.144.219.70","Mozilla/5.0 (Windows NT 10.0; Win64; x64) AppleWebKit/537.36 (KHTML, like Gecko) Chrome/98.0.4758.82 Safari/537.36","WebKit","Chrome","98.0.4758.82","Windows","10.0","null","<div style=""font-size:60px;"">+</div>","null",""
"","","","","","html-button-response","91","198599","0.0-4.0-1.43","55","1","2022-11-27 09:57:01","7b1eb8be57ff77859c7d9ac988e43411","39.144.219.70","Mozilla/5.0 (Windows NT 10.0; Win64; x64) AppleWebKit/537.36 (KHTML, like Gecko) Chrome/98.0.4758.82 Safari/537.36","WebKit","Chrome","98.0.4758.82","Windows","10.0","2991","<p>作为军队的指挥官，你可以选择发射导弹杀死 <strong>5名</strong> 敌国士兵，但会误杀附近的 <strong>1名</strong> 敌国平民。</p> <p>平民照片如下图所示。</p> <p></p> <img src='stimuli/faces/PCM1.jpg', style='max-width: 30%;'> </img> <p><strong>你是否选择发射武器？</strong></p>","1",""
"","","","","","html-keyboard-response","92","199616","0.0-4.0-0.44","55","1","2022-11-27 09:57:01","7b1eb8be57ff77859c7d9ac988e43411","39.144.219.70","Mozilla/5.0 (Windows NT 10.0; Win64; x64) AppleWebKit/537.36 (KHTML, like Gecko) Chrome/98.0.4758.82 Safari/537.36","WebKit","Chrome","98.0.4758.82","Windows","10.0","null","<div style=""font-size:60px;"">+</div>","null",""
"","","","","","html-button-response","93","200833","0.0-4.0-1.44","55","1","2022-11-27 09:57:01","7b1eb8be57ff77859c7d9ac988e43411","39.144.219.70","Mozilla/5.0 (Windows NT 10.0; Win64; x64) AppleWebKit/537.36 (KHTML, like Gecko) Chrome/98.0.4758.82 Safari/537.36","WebKit","Chrome","98.0.4758.82","Windows","10.0","1209","<p>作为军队的指挥官，你可以选择发射导弹杀死 <strong>6名</strong> 敌国士兵，但会误杀附近的 <strong>1名</strong> 敌国平民。</p> <p>平民照片如下图所示。</p> <p></p> <img src='stimuli/faces/PCM7.jpg', style='max-width: 30%;'> </img> <p><strong>你是否选择发射武器？</strong></p>","1",""
"","","","","","html-keyboard-response","94","201852","0.0-4.0-0.45","55","1","2022-11-27 09:57:01","7b1eb8be57ff77859c7d9ac988e43411","39.144.219.70","Mozilla/5.0 (Windows NT 10.0; Win64; x64) AppleWebKit/537.36 (KHTML, like Gecko) Chrome/98.0.4758.82 Safari/537.36","WebKit","Chrome","98.0.4758.82","Windows","10.0","null","<div style=""font-size:60px;"">+</div>","null",""
"","","","","","html-button-response","95","204152","0.0-4.0-1.45","55","1","2022-11-27 09:57:01","7b1eb8be57ff77859c7d9ac988e43411","39.144.219.70","Mozilla/5.0 (Windows NT 10.0; Win64; x64) AppleWebKit/537.36 (KHTML, like Gecko) Chrome/98.0.4758.82 Safari/537.36","WebKit","Chrome","98.0.4758.82","Windows","10.0","2291","<p>作为军队的指挥官，你可以选择发射导弹杀死 <strong>3名</strong> 敌国士兵，但会误杀附近的 <strong>1名</strong> 敌国平民。</p> <p>平民照片如下图所示。</p> <p></p> <img src='stimuli/faces/PCM5.jpg', style='max-width: 30%;'> </img> <p><strong>你是否选择发射武器？</strong></p>","1",""
"","","","","","html-keyboard-response","96","205173","0.0-4.0-0.46","55","1","2022-11-27 09:57:01","7b1eb8be57ff77859c7d9ac988e43411","39.144.219.70","Mozilla/5.0 (Windows NT 10.0; Win64; x64) AppleWebKit/537.36 (KHTML, like Gecko) Chrome/98.0.4758.82 Safari/537.36","WebKit","Chrome","98.0.4758.82","Windows","10.0","null","<div style=""font-size:60px;"">+</div>","null",""
"","","","","","html-button-response","97","206977","0.0-4.0-1.46","55","1","2022-11-27 09:57:01","7b1eb8be57ff77859c7d9ac988e43411","39.144.219.70","Mozilla/5.0 (Windows NT 10.0; Win64; x64) AppleWebKit/537.36 (KHTML, like Gecko) Chrome/98.0.4758.82 Safari/537.36","WebKit","Chrome","98.0.4758.82","Windows","10.0","1796","<p>作为军队的指挥官，你可以选择发射导弹杀死 <strong>2名</strong> 敌国士兵，但会炸毁附近的 <strong>1棵</strong> 敌国树木。</p> <p>树木的照片如下图所示。</p> <p></p> <img src='stimuli/trees/5.png', style='max-width: 30%;'> </img> <p><strong>你是否选择发射武器？</strong></p>","0",""
"","","","","","html-keyboard-response","98","207996","0.0-4.0-0.47","55","1","2022-11-27 09:57:01","7b1eb8be57ff77859c7d9ac988e43411","39.144.219.70","Mozilla/5.0 (Windows NT 10.0; Win64; x64) AppleWebKit/537.36 (KHTML, like Gecko) Chrome/98.0.4758.82 Safari/537.36","WebKit","Chrome","98.0.4758.82","Windows","10.0","null","<div style=""font-size:60px;"">+</div>","null",""
"","","","","","html-button-response","99","209616","0.0-4.0-1.47","55","1","2022-11-27 09:57:01","7b1eb8be57ff77859c7d9ac988e43411","39.144.219.70","Mozilla/5.0 (Windows NT 10.0; Win64; x64) AppleWebKit/537.36 (KHTML, like Gecko) Chrome/98.0.4758.82 Safari/537.36","WebKit","Chrome","98.0.4758.82","Windows","10.0","1613","<p>作为军队的指挥官，你可以选择发射导弹杀死 <strong>10名</strong> 敌国士兵，但会误杀附近的 <strong>1名</strong> 敌国平民。</p> <p>平民照片如下图所示。</p> <p></p> <img src='stimuli/faces/PCF4.jpg', style='max-width: 30%;'> </img> <p><strong>你是否选择发射武器？</strong></p>","1",""
"","","","","","html-keyboard-response","100","210631","0.0-4.0-0.48","55","1","2022-11-27 09:57:01","7b1eb8be57ff77859c7d9ac988e43411","39.144.219.70","Mozilla/5.0 (Windows NT 10.0; Win64; x64) AppleWebKit/537.36 (KHTML, like Gecko) Chrome/98.0.4758.82 Safari/537.36","WebKit","Chrome","98.0.4758.82","Windows","10.0","null","<div style=""font-size:60px;"">+</div>","null",""
"","","","","","html-button-response","101","212250","0.0-4.0-1.48","55","1","2022-11-27 09:57:01","7b1eb8be57ff77859c7d9ac988e43411","39.144.219.70","Mozilla/5.0 (Windows NT 10.0; Win64; x64) AppleWebKit/537.36 (KHTML, like Gecko) Chrome/98.0.4758.82 Safari/537.36","WebKit","Chrome","98.0.4758.82","Windows","10.0","1610","<p>作为军队的指挥官，你可以选择发射导弹杀死 <strong>4名</strong> 敌国士兵，但会炸毁附近的 <strong>1棵</strong> 敌国树木。</p> <p>树木的照片如下图所示。</p> <p></p> <img src='stimuli/trees/2.png', style='max-width: 30%;'> </img> <p><strong>你是否选择发射武器？</strong></p>","0",""
"","","","","","html-keyboard-response","102","213262","0.0-4.0-0.49","55","1","2022-11-27 09:57:01","7b1eb8be57ff77859c7d9ac988e43411","39.144.219.70","Mozilla/5.0 (Windows NT 10.0; Win64; x64) AppleWebKit/537.36 (KHTML, like Gecko) Chrome/98.0.4758.82 Safari/537.36","WebKit","Chrome","98.0.4758.82","Windows","10.0","null","<div style=""font-size:60px;"">+</div>","null",""
"","","","","","html-button-response","103","214712","0.0-4.0-1.49","55","1","2022-11-27 09:57:01","7b1eb8be57ff77859c7d9ac988e43411","39.144.219.70","Mozilla/5.0 (Windows NT 10.0; Win64; x64) AppleWebKit/537.36 (KHTML, like Gecko) Chrome/98.0.4758.82 Safari/537.36","WebKit","Chrome","98.0.4758.82","Windows","10.0","1440","<p>作为军队的指挥官，你可以选择发射导弹杀死 <strong>10名</strong> 敌国士兵，但会误杀附近的 <strong>1名</strong> 敌国平民。</p> <p>平民照片如下图所示。</p> <p></p> <img src='stimuli/faces/PCM1.jpg', style='max-width: 30%;'> </img> <p><strong>你是否选择发射武器？</strong></p>","1",""
"","","","","","html-keyboard-response","104","215717","0.0-4.0-0.50","55","1","2022-11-27 09:57:01","7b1eb8be57ff77859c7d9ac988e43411","39.144.219.70","Mozilla/5.0 (Windows NT 10.0; Win64; x64) AppleWebKit/537.36 (KHTML, like Gecko) Chrome/98.0.4758.82 Safari/537.36","WebKit","Chrome","98.0.4758.82","Windows","10.0","null","<div style=""font-size:60px;"">+</div>","null",""
"","","","","","html-button-response","105","216584","0.0-4.0-1.50","55","1","2022-11-27 09:57:01","7b1eb8be57ff77859c7d9ac988e43411","39.144.219.70","Mozilla/5.0 (Windows NT 10.0; Win64; x64) AppleWebKit/537.36 (KHTML, like Gecko) Chrome/98.0.4758.82 Safari/537.36","WebKit","Chrome","98.0.4758.82","Windows","10.0","858","<p>作为军队的指挥官，你可以选择发射导弹杀死 <strong>9名</strong> 敌国士兵，但会误杀附近的 <strong>1名</strong> 敌国平民。</p> <p>平民照片如下图所示。</p> <p></p> <img src='stimuli/faces/PCM4.jpg', style='max-width: 30%;'> </img> <p><strong>你是否选择发射武器？</strong></p>","1",""
"","","","","","html-keyboard-response","106","217594","0.0-4.0-0.51","55","1","2022-11-27 09:57:01","7b1eb8be57ff77859c7d9ac988e43411","39.144.219.70","Mozilla/5.0 (Windows NT 10.0; Win64; x64) AppleWebKit/537.36 (KHTML, like Gecko) Chrome/98.0.4758.82 Safari/537.36","WebKit","Chrome","98.0.4758.82","Windows","10.0","null","<div style=""font-size:60px;"">+</div>","null",""
"","","","","","html-button-response","107","218682","0.0-4.0-1.51","55","1","2022-11-27 09:57:01","7b1eb8be57ff77859c7d9ac988e43411","39.144.219.70","Mozilla/5.0 (Windows NT 10.0; Win64; x64) AppleWebKit/537.36 (KHTML, like Gecko) Chrome/98.0.4758.82 Safari/537.36","WebKit","Chrome","98.0.4758.82","Windows","10.0","1078","<p>作为军队的指挥官，你可以选择发射导弹杀死 <strong>8名</strong> 敌国士兵，但会误杀附近的 <strong>1名</strong> 敌国平民。</p> <p>平民照片如下图所示。</p> <p></p> <img src='stimuli/faces/PCF1.jpg', style='max-width: 30%;'> </img> <p><strong>你是否选择发射武器？</strong></p>","1",""
"","","","","","html-keyboard-response","108","219702","0.0-4.0-0.52","55","1","2022-11-27 09:57:01","7b1eb8be57ff77859c7d9ac988e43411","39.144.219.70","Mozilla/5.0 (Windows NT 10.0; Win64; x64) AppleWebKit/537.36 (KHTML, like Gecko) Chrome/98.0.4758.82 Safari/537.36","WebKit","Chrome","98.0.4758.82","Windows","10.0","null","<div style=""font-size:60px;"">+</div>","null",""
"","","","","","html-button-response","109","221346","0.0-4.0-1.52","55","1","2022-11-27 09:57:01","7b1eb8be57ff77859c7d9ac988e43411","39.144.219.70","Mozilla/5.0 (Windows NT 10.0; Win64; x64) AppleWebKit/537.36 (KHTML, like Gecko) Chrome/98.0.4758.82 Safari/537.36","WebKit","Chrome","98.0.4758.82","Windows","10.0","1630","<p>作为军队的指挥官，你可以选择发射导弹杀死 <strong>5名</strong> 敌国士兵，但会误杀附近的 <strong>1名</strong> 敌国平民。</p> <p>平民照片如下图所示。</p> <p></p> <img src='stimuli/faces/PCM2.jpg', style='max-width: 30%;'> </img> <p><strong>你是否选择发射武器？</strong></p>","1",""
"","","","","","html-keyboard-response","110","222364","0.0-4.0-0.53","55","1","2022-11-27 09:57:01","7b1eb8be57ff77859c7d9ac988e43411","39.144.219.70","Mozilla/5.0 (Windows NT 10.0; Win64; x64) AppleWebKit/537.36 (KHTML, like Gecko) Chrome/98.0.4758.82 Safari/537.36","WebKit","Chrome","98.0.4758.82","Windows","10.0","null","<div style=""font-size:60px;"">+</div>","null",""
"","","","","","html-button-response","111","223553","0.0-4.0-1.53","55","1","2022-11-27 09:57:01","7b1eb8be57ff77859c7d9ac988e43411","39.144.219.70","Mozilla/5.0 (Windows NT 10.0; Win64; x64) AppleWebKit/537.36 (KHTML, like Gecko) Chrome/98.0.4758.82 Safari/537.36","WebKit","Chrome","98.0.4758.82","Windows","10.0","1184","<p>作为军队的指挥官，你可以选择发射导弹杀死 <strong>7名</strong> 敌国士兵，但会误杀附近的 <strong>1名</strong> 敌国平民。</p> <p>平民照片如下图所示。</p> <p></p> <img src='stimuli/faces/PCF3.jpg', style='max-width: 30%;'> </img> <p><strong>你是否选择发射武器？</strong></p>","1",""
"","","","","","html-keyboard-response","112","224562","0.0-4.0-0.54","55","1","2022-11-27 09:57:01","7b1eb8be57ff77859c7d9ac988e43411","39.144.219.70","Mozilla/5.0 (Windows NT 10.0; Win64; x64) AppleWebKit/537.36 (KHTML, like Gecko) Chrome/98.0.4758.82 Safari/537.36","WebKit","Chrome","98.0.4758.82","Windows","10.0","null","<div style=""font-size:60px;"">+</div>","null",""
"","","","","","html-button-response","113","226246","0.0-4.0-1.54","55","1","2022-11-27 09:57:01","7b1eb8be57ff77859c7d9ac988e43411","39.144.219.70","Mozilla/5.0 (Windows NT 10.0; Win64; x64) AppleWebKit/537.36 (KHTML, like Gecko) Chrome/98.0.4758.82 Safari/537.36","WebKit","Chrome","98.0.4758.82","Windows","10.0","1676","<p>作为军队的指挥官，你可以选择发射导弹杀死 <strong>6名</strong> 敌国士兵，但会炸毁附近的 <strong>1棵</strong> 敌国树木。</p> <p>树木的照片如下图所示。</p> <p></p> <img src='stimuli/trees/2.png', style='max-width: 30%;'> </img> <p><strong>你是否选择发射武器？</strong></p>","0",""
"","","","","","html-keyboard-response","114","227264","0.0-4.0-0.55","55","1","2022-11-27 09:57:01","7b1eb8be57ff77859c7d9ac988e43411","39.144.219.70","Mozilla/5.0 (Windows NT 10.0; Win64; x64) AppleWebKit/537.36 (KHTML, like Gecko) Chrome/98.0.4758.82 Safari/537.36","WebKit","Chrome","98.0.4758.82","Windows","10.0","null","<div style=""font-size:60px;"">+</div>","null",""
"","","","","","html-button-response","115","228729","0.0-4.0-1.55","55","1","2022-11-27 09:57:01","7b1eb8be57ff77859c7d9ac988e43411","39.144.219.70","Mozilla/5.0 (Windows NT 10.0; Win64; x64) AppleWebKit/537.36 (KHTML, like Gecko) Chrome/98.0.4758.82 Safari/537.36","WebKit","Chrome","98.0.4758.82","Windows","10.0","1453","<p>作为军队的指挥官，你可以选择发射导弹杀死 <strong>9名</strong> 敌国士兵，但会误杀附近的 <strong>1名</strong> 敌国平民。</p> <p>平民照片如下图所示。</p> <p></p> <img src='stimuli/faces/PCF8.jpg', style='max-width: 30%;'> </img> <p><strong>你是否选择发射武器？</strong></p>","1",""
"","","","","","html-keyboard-response","116","229748","0.0-4.0-0.56","55","1","2022-11-27 09:57:01","7b1eb8be57ff77859c7d9ac988e43411","39.144.219.70","Mozilla/5.0 (Windows NT 10.0; Win64; x64) AppleWebKit/537.36 (KHTML, like Gecko) Chrome/98.0.4758.82 Safari/537.36","WebKit","Chrome","98.0.4758.82","Windows","10.0","null","<div style=""font-size:60px;"">+</div>","null",""
"","","","","","html-button-response","117","230917","0.0-4.0-1.56","55","1","2022-11-27 09:57:01","7b1eb8be57ff77859c7d9ac988e43411","39.144.219.70","Mozilla/5.0 (Windows NT 10.0; Win64; x64) AppleWebKit/537.36 (KHTML, like Gecko) Chrome/98.0.4758.82 Safari/537.36","WebKit","Chrome","98.0.4758.82","Windows","10.0","1164","<p>作为军队的指挥官，你可以选择发射导弹杀死 <strong>6名</strong> 敌国士兵，但会误杀附近的 <strong>1名</strong> 敌国平民。</p> <p>平民照片如下图所示。</p> <p></p> <img src='stimuli/faces/PCF5.jpg', style='max-width: 30%;'> </img> <p><strong>你是否选择发射武器？</strong></p>","1",""
"","","","","","html-keyboard-response","118","231927","0.0-4.0-0.57","55","1","2022-11-27 09:57:01","7b1eb8be57ff77859c7d9ac988e43411","39.144.219.70","Mozilla/5.0 (Windows NT 10.0; Win64; x64) AppleWebKit/537.36 (KHTML, like Gecko) Chrome/98.0.4758.82 Safari/537.36","WebKit","Chrome","98.0.4758.82","Windows","10.0","null","<div style=""font-size:60px;"">+</div>","null",""
"","","","","","html-button-response","119","234043","0.0-4.0-1.57","55","1","2022-11-27 09:57:01","7b1eb8be57ff77859c7d9ac988e43411","39.144.219.70","Mozilla/5.0 (Windows NT 10.0; Win64; x64) AppleWebKit/537.36 (KHTML, like Gecko) Chrome/98.0.4758.82 Safari/537.36","WebKit","Chrome","98.0.4758.82","Windows","10.0","2110","<p>作为军队的指挥官，你可以选择发射导弹杀死 <strong>10名</strong> 敌国士兵，但会炸毁附近的 <strong>1棵</strong> 敌国树木。</p> <p>树木的照片如下图所示。</p> <p></p> <img src='stimuli/trees/6.png', style='max-width: 30%;'> </img> <p><strong>你是否选择发射武器？</strong></p>","0",""
"","","","","","html-keyboard-response","120","235061","0.0-4.0-0.58","55","1","2022-11-27 09:57:01","7b1eb8be57ff77859c7d9ac988e43411","39.144.219.70","Mozilla/5.0 (Windows NT 10.0; Win64; x64) AppleWebKit/537.36 (KHTML, like Gecko) Chrome/98.0.4758.82 Safari/537.36","WebKit","Chrome","98.0.4758.82","Windows","10.0","null","<div style=""font-size:60px;"">+</div>","null",""
"","","","","","html-button-response","121","236511","0.0-4.0-1.58","55","1","2022-11-27 09:57:01","7b1eb8be57ff77859c7d9ac988e43411","39.144.219.70","Mozilla/5.0 (Windows NT 10.0; Win64; x64) AppleWebKit/537.36 (KHTML, like Gecko) Chrome/98.0.4758.82 Safari/537.36","WebKit","Chrome","98.0.4758.82","Windows","10.0","1440","<p>作为军队的指挥官，你可以选择发射导弹杀死 <strong>1名</strong> 敌国士兵，但会炸毁附近的 <strong>1棵</strong> 敌国树木。</p> <p>树木的照片如下图所示。</p> <p></p> <img src='stimuli/trees/14.png', style='max-width: 30%;'> </img> <p><strong>你是否选择发射武器？</strong></p>","0",""
"","","","","","html-keyboard-response","122","237541","0.0-4.0-0.59","55","1","2022-11-27 09:57:01","7b1eb8be57ff77859c7d9ac988e43411","39.144.219.70","Mozilla/5.0 (Windows NT 10.0; Win64; x64) AppleWebKit/537.36 (KHTML, like Gecko) Chrome/98.0.4758.82 Safari/537.36","WebKit","Chrome","98.0.4758.82","Windows","10.0","null","<div style=""font-size:60px;"">+</div>","null",""
"","","","","","html-button-response","123","239245","0.0-4.0-1.59","55","1","2022-11-27 09:57:01","7b1eb8be57ff77859c7d9ac988e43411","39.144.219.70","Mozilla/5.0 (Windows NT 10.0; Win64; x64) AppleWebKit/537.36 (KHTML, like Gecko) Chrome/98.0.4758.82 Safari/537.36","WebKit","Chrome","98.0.4758.82","Windows","10.0","1692","<p>作为军队的指挥官，你可以选择发射导弹杀死 <strong>1名</strong> 敌国士兵，但会误杀附近的 <strong>1名</strong> 敌国平民。</p> <p>平民照片如下图所示。</p> <p></p> <img src='stimuli/faces/PCF3.jpg', style='max-width: 30%;'> </img> <p><strong>你是否选择发射武器？</strong></p>","1",""
"","","","","","html-keyboard-response","124","240253","0.0-4.0-0.60","55","1","2022-11-27 09:57:01","7b1eb8be57ff77859c7d9ac988e43411","39.144.219.70","Mozilla/5.0 (Windows NT 10.0; Win64; x64) AppleWebKit/537.36 (KHTML, like Gecko) Chrome/98.0.4758.82 Safari/537.36","WebKit","Chrome","98.0.4758.82","Windows","10.0","null","<div style=""font-size:60px;"">+</div>","null",""
"","","","","","html-button-response","125","241692","0.0-4.0-1.60","55","1","2022-11-27 09:57:01","7b1eb8be57ff77859c7d9ac988e43411","39.144.219.70","Mozilla/5.0 (Windows NT 10.0; Win64; x64) AppleWebKit/537.36 (KHTML, like Gecko) Chrome/98.0.4758.82 Safari/537.36","WebKit","Chrome","98.0.4758.82","Windows","10.0","1433","<p>作为军队的指挥官，你可以选择发射导弹杀死 <strong>5名</strong> 敌国士兵，但会炸毁附近的 <strong>1棵</strong> 敌国树木。</p> <p>树木的照片如下图所示。</p> <p></p> <img src='stimuli/trees/13.png', style='max-width: 30%;'> </img> <p><strong>你是否选择发射武器？</strong></p>","0",""
"","","","","","html-keyboard-response","126","242708","0.0-4.0-0.61","55","1","2022-11-27 09:57:01","7b1eb8be57ff77859c7d9ac988e43411","39.144.219.70","Mozilla/5.0 (Windows NT 10.0; Win64; x64) AppleWebKit/537.36 (KHTML, like Gecko) Chrome/98.0.4758.82 Safari/537.36","WebKit","Chrome","98.0.4758.82","Windows","10.0","null","<div style=""font-size:60px;"">+</div>","null",""
"","","","","","html-button-response","127","244432","0.0-4.0-1.61","55","1","2022-11-27 09:57:01","7b1eb8be57ff77859c7d9ac988e43411","39.144.219.70","Mozilla/5.0 (Windows NT 10.0; Win64; x64) AppleWebKit/537.36 (KHTML, like Gecko) Chrome/98.0.4758.82 Safari/537.36","WebKit","Chrome","98.0.4758.82","Windows","10.0","1713","<p>作为军队的指挥官，你可以选择发射导弹杀死 <strong>2名</strong> 敌国士兵，但会误杀附近的 <strong>1名</strong> 敌国平民。</p> <p>平民照片如下图所示。</p> <p></p> <img src='stimuli/faces/PCM6.jpg', style='max-width: 30%;'> </img> <p><strong>你是否选择发射武器？</strong></p>","1",""
"","","","","","html-keyboard-response","128","245447","0.0-4.0-0.62","55","1","2022-11-27 09:57:01","7b1eb8be57ff77859c7d9ac988e43411","39.144.219.70","Mozilla/5.0 (Windows NT 10.0; Win64; x64) AppleWebKit/537.36 (KHTML, like Gecko) Chrome/98.0.4758.82 Safari/537.36","WebKit","Chrome","98.0.4758.82","Windows","10.0","null","<div style=""font-size:60px;"">+</div>","null",""
"","","","","","html-button-response","129","246579","0.0-4.0-1.62","55","1","2022-11-27 09:57:01","7b1eb8be57ff77859c7d9ac988e43411","39.144.219.70","Mozilla/5.0 (Windows NT 10.0; Win64; x64) AppleWebKit/537.36 (KHTML, like Gecko) Chrome/98.0.4758.82 Safari/537.36","WebKit","Chrome","98.0.4758.82","Windows","10.0","1118","<p>作为军队的指挥官，你可以选择发射导弹杀死 <strong>5名</strong> 敌国士兵，但会误杀附近的 <strong>1名</strong> 敌国平民。</p> <p>平民照片如下图所示。</p> <p></p> <img src='stimuli/faces/PCM4.jpg', style='max-width: 30%;'> </img> <p><strong>你是否选择发射武器？</strong></p>","1",""
"","","","","","html-keyboard-response","130","247591","0.0-4.0-0.63","55","1","2022-11-27 09:57:01","7b1eb8be57ff77859c7d9ac988e43411","39.144.219.70","Mozilla/5.0 (Windows NT 10.0; Win64; x64) AppleWebKit/537.36 (KHTML, like Gecko) Chrome/98.0.4758.82 Safari/537.36","WebKit","Chrome","98.0.4758.82","Windows","10.0","null","<div style=""font-size:60px;"">+</div>","null",""
"","","","","","html-button-response","131","249000","0.0-4.0-1.63","55","1","2022-11-27 09:57:01","7b1eb8be57ff77859c7d9ac988e43411","39.144.219.70","Mozilla/5.0 (Windows NT 10.0; Win64; x64) AppleWebKit/537.36 (KHTML, like Gecko) Chrome/98.0.4758.82 Safari/537.36","WebKit","Chrome","98.0.4758.82","Windows","10.0","1399","<p>作为军队的指挥官，你可以选择发射导弹杀死 <strong>8名</strong> 敌国士兵，但会误杀附近的 <strong>1名</strong> 敌国平民。</p> <p>平民照片如下图所示。</p> <p></p> <img src='stimuli/faces/PCF7.jpg', style='max-width: 30%;'> </img> <p><strong>你是否选择发射武器？</strong></p>","1",""
"","","","","","survey-multi-choice","132","260839","0.0-5.0","55","1","2022-11-27 09:57:01","7b1eb8be57ff77859c7d9ac988e43411","39.144.219.70","Mozilla/5.0 (Windows NT 10.0; Win64; x64) AppleWebKit/537.36 (KHTML, like Gecko) Chrome/98.0.4758.82 Safari/537.36","WebKit","Chrome","98.0.4758.82","Windows","10.0","11824","","{""Attention1"":""""}","[0]"
"","","","","","html-button-response","133","263041","0.0-6.0","55","1","2022-11-27 09:57:01","7b1eb8be57ff77859c7d9ac988e43411","39.144.219.70","Mozilla/5.0 (Windows NT 10.0; Win64; x64) AppleWebKit/537.36 (KHTML, like Gecko) Chrome/98.0.4758.82 Safari/537.36","WebKit","Chrome","98.0.4758.82","Windows","10.0","2192","<p style=""font-size:20px;font-weight:bold;"">恭喜！</p><p>你已经完成了实验的第一部分。</p><p>请休息放松一下，然后进入第二部分。</p><p>这部分大约需要10分钟。</p>","0",""
"","","","","","survey-text","134","304485","0.0-7.0","55","1","2022-11-27 09:57:01","7b1eb8be57ff77859c7d9ac988e43411","39.144.219.70","Mozilla/5.0 (Windows NT 10.0; Win64; x64) AppleWebKit/537.36 (KHTML, like Gecko) Chrome/98.0.4758.82 Safari/537.36","WebKit","Chrome","98.0.4758.82","Windows","10.0","40388","","{""Age"":""21"",""Nation"":""中国"",""Born"":""重庆市"",""Live"":""重庆市"",""Ethnic"":""汉族"",""Alipay"":""18323342207"",""ID"":""""}",""
"","","","","","survey-multi-choice","135","332850","0.0-8.0","55","1","2022-11-27 09:57:01","7b1eb8be57ff77859c7d9ac988e43411","39.144.219.70","Mozilla/5.0 (Windows NT 10.0; Win64; x64) AppleWebKit/537.36 (KHTML, like Gecko) Chrome/98.0.4758.82 Safari/537.36","WebKit","Chrome","98.0.4758.82","Windows","10.0","28370","","{""Gender"":""女"",""Education"":""本科毕业"",""Income"":""￥70,000-￥139,999"",""Children"":""2"",""Race"":""亚洲人""}","[0,1,2,3,4]"
"","","","","","survey-multi-select","136","357745","0.0-9.0","55","1","2022-11-27 09:57:01","7b1eb8be57ff77859c7d9ac988e43411","39.144.219.70","Mozilla/5.0 (Windows NT 10.0; Win64; x64) AppleWebKit/537.36 (KHTML, like Gecko) Chrome/98.0.4758.82 Safari/537.36","WebKit","Chrome","98.0.4758.82","Windows","10.0","24868","","{""Marriage"":[""未婚""],""Religion"":[""无神论者"",""无宗教信仰""]}","[0,1]"
"","","","","","survey-multi-choice","137","366066","0.0-10.0","55","1","2022-11-27 09:57:01","7b1eb8be57ff77859c7d9ac988e43411","39.144.219.70","Mozilla/5.0 (Windows NT 10.0; Win64; x64) AppleWebKit/537.36 (KHTML, like Gecko) Chrome/98.0.4758.82 Safari/537.36","WebKit","Chrome","98.0.4758.82","Windows","10.0","8303","","{""SES"":""4""}","[0]"
"","","","","","html-button-response","138","368101","0.0-11.0","55","1","2022-11-27 09:57:01","7b1eb8be57ff77859c7d9ac988e43411","39.144.219.70","Mozilla/5.0 (Windows NT 10.0; Win64; x64) AppleWebKit/537.36 (KHTML, like Gecko) Chrome/98.0.4758.82 Safari/537.36","WebKit","Chrome","98.0.4758.82","Windows","10.0","2028","<p><strong>请判断下列陈述在多大程度上可以形容你？</p><p> (1 = ""和我一点都不像"" to 5 = ""非常像我"".)</strong></p>","0",""
"","","","","","survey-likert","139","405282","0.0-12.0","55","1","2022-11-27 09:57:01","7b1eb8be57ff77859c7d9ac988e43411","39.144.219.70","Mozilla/5.0 (Windows NT 10.0; Win64; x64) AppleWebKit/537.36 (KHTML, like Gecko) Chrome/98.0.4758.82 Safari/537.36","WebKit","Chrome","98.0.4758.82","Windows","10.0","37158","","{""Aggression1"":1,""Aggression2"":2,""Aggression3"":3,""Aggression4"":1,""Aggression5"":2,""Aggression6"":2,""Aggression7"":2,""Aggression8"":0,""Aggression9"":2}","[0,1,2,3,4,5,6,7,8]"
"","","","","","html-button-response","140","407310","0.0-13.0","55","1","2022-11-27 09:57:01","7b1eb8be57ff77859c7d9ac988e43411","39.144.219.70","Mozilla/5.0 (Windows NT 10.0; Win64; x64) AppleWebKit/537.36 (KHTML, like Gecko) Chrome/98.0.4758.82 Safari/537.36","WebKit","Chrome","98.0.4758.82","Windows","10.0","2017","<p><strong>请判断你在多大程度上同意下列陈述。</strong></p>","0",""
"","","","","","survey-likert","141","506059","0.0-14.0","55","1","2022-11-27 09:57:01","7b1eb8be57ff77859c7d9ac988e43411","39.144.219.70","Mozilla/5.0 (Windows NT 10.0; Win64; x64) AppleWebKit/537.36 (KHTML, like Gecko) Chrome/98.0.4758.82 Safari/537.36","WebKit","Chrome","98.0.4758.82","Windows","10.0","98733","","{""scale17"":3,""scale2"":3,""scale3"":1,""scale8"":2,""scale22"":4,""scale15"":1,""scale21"":2,""scale4"":1,""scale14"":1,""scale1"":3,""scale16"":3,""scale19"":2,""scale18"":1,""scale20"":3,""scale28"":3,""scale5"":3,""scale27"":2,""scale11"":3,""scale9"":3,""scale24"":2,""scale26"":3,""scale7"":1,""scale23"":3,""scale25"":3,""scale12"":1,""scale6"":3,""scale10"":3,""scale13"":1}","[16,1,2,7,21,14,20,3,13,0,15,18,17,19,27,4,26,10,8,23,25,6,22,24,11,5,9,12]"
"","","","","","html-button-response","142","508352","0.0-15.0","55","1","2022-11-27 09:57:01","7b1eb8be57ff77859c7d9ac988e43411","39.144.219.70","Mozilla/5.0 (Windows NT 10.0; Win64; x64) AppleWebKit/537.36 (KHTML, like Gecko) Chrome/98.0.4758.82 Safari/537.36","WebKit","Chrome","98.0.4758.82","Windows","10.0","2283","<p><strong>请判断你在多大程度上同意下列陈述。</strong></p>","0",""
"","","","","","survey-likert","143","577468","0.0-16.0","55","1","2022-11-27 09:57:01","7b1eb8be57ff77859c7d9ac988e43411","39.144.219.70","Mozilla/5.0 (Windows NT 10.0; Win64; x64) AppleWebKit/537.36 (KHTML, like Gecko) Chrome/98.0.4758.82 Safari/537.36","WebKit","Chrome","98.0.4758.82","Windows","10.0","69096","","{""sdo15"":4,""sdo5"":3,""sdo13"":3,""sdo2"":1,""sdo11"":4,""sdo1"":1,""sdo12"":4,""sdo6"":3,""sdo7"":1,""sdo4"":1,""sdo3"":3,""sdo8"":3,""sdo10"":1,""sdo16"":5,""sdo14"":4,""sdo9"":3}","[14,4,12,1,10,0,11,5,6,3,2,7,9,15,13,8]"
"","","","","","html-button-response","144","579296","0.0-17.0","55","1","2022-11-27 09:57:01","7b1eb8be57ff77859c7d9ac988e43411","39.144.219.70","Mozilla/5.0 (Windows NT 10.0; Win64; x64) AppleWebKit/537.36 (KHTML, like Gecko) Chrome/98.0.4758.82 Safari/537.36","WebKit","Chrome","98.0.4758.82","Windows","10.0","1810","<p><strong>请判断你在多大程度上同意下列陈述。</strong></p>","0",""
"","","","","","survey-likert","145","618194","0.0-18.0","55","1","2022-11-27 09:57:01","7b1eb8be57ff77859c7d9ac988e43411","39.144.219.70","Mozilla/5.0 (Windows NT 10.0; Win64; x64) AppleWebKit/537.36 (KHTML, like Gecko) Chrome/98.0.4758.82 Safari/537.36","WebKit","Chrome","98.0.4758.82","Windows","10.0","38888","","{""caring1"":3,""liking1"":2,""caring2"":3,""protection1"":3,""liking2"":2,""caring3"":3,""protection2"":2,""liking3"":2,""protection3"":3,""caring4"":3,""liking4"":1,""protection4"":3,""caring5"":2,""liking5"":2,""protection5"":2}","[0,1,2,3,4,5,6,7,8,9,10,11,12,13,14]"
"","","","","","html-button-response","146","620480","0.0-19.0","55","1","2022-11-27 09:57:01","7b1eb8be57ff77859c7d9ac988e43411","39.144.219.70","Mozilla/5.0 (Windows NT 10.0; Win64; x64) AppleWebKit/537.36 (KHTML, like Gecko) Chrome/98.0.4758.82 Safari/537.36","WebKit","Chrome","98.0.4758.82","Windows","10.0","2269","<p><strong>请判断下列场景中你的内心感受有多柔软。</strong></p>","0",""
"","","","","","survey-likert","147","647596","0.0-20.0","55","1","2022-11-27 09:57:01","7b1eb8be57ff77859c7d9ac988e43411","39.144.219.70","Mozilla/5.0 (Windows NT 10.0; Win64; x64) AppleWebKit/537.36 (KHTML, like Gecko) Chrome/98.0.4758.82 Safari/537.36","WebKit","Chrome","98.0.4758.82","Windows","10.0","27105","","{""tenderness-positive1"":3,""tenderness-negative1"":2,""tenderness-negative2"":1,""tenderness-positive2"":3,""tenderness-positive3"":4,""tenderness-negative3"":1,""tenderness-positive4"":4,""tenderness-negative4"":3,""tenderness-negative5"":3,""tenderness-positive5"":4}","[0,1,2,3,4,5,6,7,8,9]"
"","","","","","survey-multi-choice","148","658309","0.0-21.0","55","1","2022-11-27 09:57:01","7b1eb8be57ff77859c7d9ac988e43411","39.144.219.70","Mozilla/5.0 (Windows NT 10.0; Win64; x64) AppleWebKit/537.36 (KHTML, like Gecko) Chrome/98.0.4758.82 Safari/537.36","WebKit","Chrome","98.0.4758.82","Windows","10.0","10707","","{""Attention2"":""其他""}","[0]"
"","","","","","html-button-response","149","659847","0.0-22.0","55","1","2022-11-27 09:57:01","7b1eb8be57ff77859c7d9ac988e43411","39.144.219.70","Mozilla/5.0 (Windows NT 10.0; Win64; x64) AppleWebKit/537.36 (KHTML, like Gecko) Chrome/98.0.4758.82 Safari/537.36","WebKit","Chrome","98.0.4758.82","Windows","10.0","1521","<p><strong>请判断你在多大程度上同意下列陈述。</strong></p>","0",""
"","","","","","survey-likert","150","724799","0.0-23.0","55","1","2022-11-27 09:57:01","7b1eb8be57ff77859c7d9ac988e43411","39.144.219.70","Mozilla/5.0 (Windows NT 10.0; Win64; x64) AppleWebKit/537.36 (KHTML, like Gecko) Chrome/98.0.4758.82 Safari/537.36","WebKit","Chrome","98.0.4758.82","Windows","10.0","64938","","{""Nation6"":2,""Patri12"":1,""Nation3"":0,""Patri1"":4,""Nation4"":2,""Patri4"":4,""Patri3"":4,""Nation1"":1,""Patri6"":0,""Patri11"":0,""Nation8"":2,""Patri8"":4,""Patri9"":1,""Nation2"":4,""Nation7"":3,""Patri5"":4,""Nation5"":1,""Patri2"":4,""Patri7"":4,""Patri10"":0}","[17,11,14,0,15,3,2,12,5,10,19,7,8,13,18,4,16,1,6,9]"
"","","","","","html-button-response","151","727386","0.0-24.0","55","1","2022-11-27 09:57:01","7b1eb8be57ff77859c7d9ac988e43411","39.144.219.70","Mozilla/5.0 (Windows NT 10.0; Win64; x64) AppleWebKit/537.36 (KHTML, like Gecko) Chrome/98.0.4758.82 Safari/537.36","WebKit","Chrome","98.0.4758.82","Windows","10.0","2582","<p><strong>请判断你在多大程度上同意下列陈述。</strong></p>","0",""
"","","","","","survey-likert","152","783228","0.0-25.0","55","1","2022-11-27 09:57:01","7b1eb8be57ff77859c7d9ac988e43411","39.144.219.70","Mozilla/5.0 (Windows NT 10.0; Win64; x64) AppleWebKit/537.36 (KHTML, like Gecko) Chrome/98.0.4758.82 Safari/537.36","WebKit","Chrome","98.0.4758.82","Windows","10.0","55835","","{""vc1"":7,""vi2"":4,""hi4"":6,""hi1"":4,""vi3"":5,""vi4"":6,""hi3"":3,""vc2"":7,""Robot"":6,""hc1"":5,""hc2"":6,""vc4"":6,""hc3"":6,""hi2"":3,""vi1"":6,""vc3"":4,""hc4"":5}","[13,5,3,0,6,8,2,14,7,9,10,16,11,1,4,15,12]"
"","","","","","survey-text","153","789958","0.0-26.0","55","1","2022-11-27 09:57:01","7b1eb8be57ff77859c7d9ac988e43411","39.144.219.70","Mozilla/5.0 (Windows NT 10.0; Win64; x64) AppleWebKit/537.36 (KHTML, like Gecko) Chrome/98.0.4758.82 Safari/537.36","WebKit","Chrome","98.0.4758.82","Windows","10.0","6708","","{""Comments"":""无""}",""
"","","","","","html-button-response","154","791675","0.0-27.0","55","1","2022-11-27 09:57:01","7b1eb8be57ff77859c7d9ac988e43411","39.144.219.70","Mozilla/5.0 (Windows NT 10.0; Win64; x64) AppleWebKit/537.36 (KHTML, like Gecko) Chrome/98.0.4758.82 Safari/537.36","WebKit","Chrome","98.0.4758.82","Windows","10.0","1713","<strong><p>恭喜你完成了实验！</p><p>感谢您的参与。</p></strong>","0",""
