"success","timeout","failed_images","failed_audio","failed_video","trial_type","trial_index","time_elapsed","internal_node_id","run_id","condition","recorded_at","source_code_version","ip","user_agent","device","browser","browser_version","platform","platform_version","rt","stimulus","response","question_order"
"true","false","[]","[]","[]","preload","0","4030","0.0-0.0","63","1","2022-11-27 10:17:40","7b1eb8be57ff77859c7d9ac988e43411","124.238.183.215","Mozilla/5.0 (Windows; U; Windows NT 5.2; en-US) AppleWebKit/537.36 (KHTML, like Gecko) Safari/537.36 VivoBrowser/12.0.0.0 Chrome/87.0.4280.141","WebKit","Chrome","87.0.4280.141","Windows","5.2","","","",""
"true","","","","","fullscreen","1","9802","0.0-1.0","63","1","2022-11-27 10:17:40","7b1eb8be57ff77859c7d9ac988e43411","124.238.183.215","Mozilla/5.0 (Windows; U; Windows NT 5.2; en-US) AppleWebKit/537.36 (KHTML, like Gecko) Safari/537.36 VivoBrowser/12.0.0.0 Chrome/87.0.4280.141","WebKit","Chrome","87.0.4280.141","Windows","5.2","","","",""
"","","","","","html-button-response","2","18818","0.0-2.0","63","1","2022-11-27 10:17:40","7b1eb8be57ff77859c7d9ac988e43411","124.238.183.215","Mozilla/5.0 (Windows; U; Windows NT 5.2; en-US) AppleWebKit/537.36 (KHTML, like Gecko) Safari/537.36 VivoBrowser/12.0.0.0 Chrome/87.0.4280.141","WebKit","Chrome","87.0.4280.141","Windows","5.2","8998","<p style=""font-size:20px;font-weight:bold;"">实验知情同意书</p><p style=""text-align:left;""><strong>实验名称：</strong>社会冲突研究</p><p style=""text-align:left;""><strong>主要研究者：</strong>韩晓春副教授（北京师范大学心理学部）</p><p style=""text-align:left;""><strong>联系方式：</strong>发送邮件至xiaochun.han@bnu.edu.cn</p><p style=""text-align:left;""><strong>研究目的：</strong>研究旨在了解人类面对群体冲突时的决策方式，以及相关的心理学特质。实验调查大约需要20分钟。</p><p style=""text-align:left;""><strong>实验流程：</strong>实验包含两部分。第一部分呈现一系列群体冲突场景，请你决定如何对这些冲突进行反应，大约需要10分钟完成。第二部分包含一系列人口统计学信息收集和心理学问卷，大约需要10分钟完成。</p><p style=""text-align:left;""><strong>参加及退出规则：</strong>参加本实验完全取决于您的个人意愿。在参与过程中，您可以随时退出，并且不用承担任何后果。</p><p style=""text-align:left;""><strong>隐私：</strong>本实验完全匿名进行，不会收集您的姓名或其他能够识别您身份的信息。实验中收集的作答仅用作科学研究使用，可能会在学术期刊/书籍上发表，或者用于教学，您的数据未来可能会和其他研究者或实验室分享，但您的个人身份不会被识别。</p><p style=""text-align:left;""><strong>实验报酬：</strong>实验完成后，您将获得15元人民币报酬，以感谢您的时间和努力。调查问卷中包含几道题目用以测验您作答时的认真度。只有完成全部实验，并且正确回答认真度测验的被试才能获得实验报酬。实验报酬将通过支付宝转账发放。</p><p style=""text-align:left;font-size:20px;""><strong>如果您同意以上实验知情同意书的内容，请点击'同意并且开始实验'按钮；否则请关闭浏览器界面，退出实验。</strong></p>","0",""
"","","","","","html-button-response","3","28615","0.0-3.0","63","1","2022-11-27 10:17:40","7b1eb8be57ff77859c7d9ac988e43411","124.238.183.215","Mozilla/5.0 (Windows; U; Windows NT 5.2; en-US) AppleWebKit/537.36 (KHTML, like Gecko) Safari/537.36 VivoBrowser/12.0.0.0 Chrome/87.0.4280.141","WebKit","Chrome","87.0.4280.141","Windows","5.2","9787","<p ><strong>实验任务一：</strong></p><p>请想象你的国家与另一个国家发生了军事冲突。</p><p>你是国家军队的指挥官，你将如何在冲突中进行决策。</p><p>具体来说，作为军队指挥官，请你决定是否发射导弹进行打击。</p><p>接下来，你会面对一系列场景，请仔细阅读每个场景，然后进行决策。</p><p>这部分实验任务大约需要10分钟。</p><p><strong>实验过程中，请集中注意力。</strong></p>","0",""
"","","","","","html-keyboard-response","4","29633","0.0-4.0-0.0","63","1","2022-11-27 10:17:40","7b1eb8be57ff77859c7d9ac988e43411","124.238.183.215","Mozilla/5.0 (Windows; U; Windows NT 5.2; en-US) AppleWebKit/537.36 (KHTML, like Gecko) Safari/537.36 VivoBrowser/12.0.0.0 Chrome/87.0.4280.141","WebKit","Chrome","87.0.4280.141","Windows","5.2","null","<div style=""font-size:60px;"">+</div>","null",""
"","","","","","html-button-response","5","31913","0.0-4.0-1.0","63","1","2022-11-27 10:17:40","7b1eb8be57ff77859c7d9ac988e43411","124.238.183.215","Mozilla/5.0 (Windows; U; Windows NT 5.2; en-US) AppleWebKit/537.36 (KHTML, like Gecko) Safari/537.36 VivoBrowser/12.0.0.0 Chrome/87.0.4280.141","WebKit","Chrome","87.0.4280.141","Windows","5.2","2253","<p>作为军队的指挥官，你可以选择发射导弹杀死 <strong>8名</strong> 敌国士兵，但会误杀附近的 <strong>1名</strong> 敌国平民。</p> <p>平民照片如下图所示。</p> <p></p> <img src='stimuli/faces/PCM3.jpg', style='max-width: 30%;'> </img> <p><strong>你是否选择发射武器？</strong></p>","0",""
"","","","","","html-keyboard-response","6","32920","0.0-4.0-0.1","63","1","2022-11-27 10:17:40","7b1eb8be57ff77859c7d9ac988e43411","124.238.183.215","Mozilla/5.0 (Windows; U; Windows NT 5.2; en-US) AppleWebKit/537.36 (KHTML, like Gecko) Safari/537.36 VivoBrowser/12.0.0.0 Chrome/87.0.4280.141","WebKit","Chrome","87.0.4280.141","Windows","5.2","null","<div style=""font-size:60px;"">+</div>","null",""
"","","","","","html-button-response","7","36830","0.0-4.0-1.1","63","1","2022-11-27 10:17:40","7b1eb8be57ff77859c7d9ac988e43411","124.238.183.215","Mozilla/5.0 (Windows; U; Windows NT 5.2; en-US) AppleWebKit/537.36 (KHTML, like Gecko) Safari/537.36 VivoBrowser/12.0.0.0 Chrome/87.0.4280.141","WebKit","Chrome","87.0.4280.141","Windows","5.2","3893","<p>作为军队的指挥官，你可以选择发射导弹杀死 <strong>2名</strong> 敌国士兵，但会炸毁附近的 <strong>1棵</strong> 敌国树木。</p> <p>树木的照片如下图所示。</p> <p></p> <img src='stimuli/trees/9.png', style='max-width: 30%;'> </img> <p><strong>你是否选择发射武器？</strong></p>","0",""
"","","","","","html-keyboard-response","8","37840","0.0-4.0-0.2","63","1","2022-11-27 10:17:40","7b1eb8be57ff77859c7d9ac988e43411","124.238.183.215","Mozilla/5.0 (Windows; U; Windows NT 5.2; en-US) AppleWebKit/537.36 (KHTML, like Gecko) Safari/537.36 VivoBrowser/12.0.0.0 Chrome/87.0.4280.141","WebKit","Chrome","87.0.4280.141","Windows","5.2","null","<div style=""font-size:60px;"">+</div>","null",""
"","","","","","html-button-response","9","40548","0.0-4.0-1.2","63","1","2022-11-27 10:17:40","7b1eb8be57ff77859c7d9ac988e43411","124.238.183.215","Mozilla/5.0 (Windows; U; Windows NT 5.2; en-US) AppleWebKit/537.36 (KHTML, like Gecko) Safari/537.36 VivoBrowser/12.0.0.0 Chrome/87.0.4280.141","WebKit","Chrome","87.0.4280.141","Windows","5.2","2679","<p>作为军队的指挥官，你可以选择发射导弹杀死 <strong>4名</strong> 敌国士兵，但会误杀附近的 <strong>1名</strong> 敌国平民。</p> <p>平民照片如下图所示。</p> <p></p> <img src='stimuli/faces/PCM7.jpg', style='max-width: 30%;'> </img> <p><strong>你是否选择发射武器？</strong></p>","0",""
"","","","","","html-keyboard-response","10","41557","0.0-4.0-0.3","63","1","2022-11-27 10:17:40","7b1eb8be57ff77859c7d9ac988e43411","124.238.183.215","Mozilla/5.0 (Windows; U; Windows NT 5.2; en-US) AppleWebKit/537.36 (KHTML, like Gecko) Safari/537.36 VivoBrowser/12.0.0.0 Chrome/87.0.4280.141","WebKit","Chrome","87.0.4280.141","Windows","5.2","null","<div style=""font-size:60px;"">+</div>","null",""
"","","","","","html-button-response","11","43181","0.0-4.0-1.3","63","1","2022-11-27 10:17:40","7b1eb8be57ff77859c7d9ac988e43411","124.238.183.215","Mozilla/5.0 (Windows; U; Windows NT 5.2; en-US) AppleWebKit/537.36 (KHTML, like Gecko) Safari/537.36 VivoBrowser/12.0.0.0 Chrome/87.0.4280.141","WebKit","Chrome","87.0.4280.141","Windows","5.2","1613","<p>作为军队的指挥官，你可以选择发射导弹杀死 <strong>2名</strong> 敌国士兵，但会误杀附近的 <strong>1名</strong> 敌国平民。</p> <p>平民照片如下图所示。</p> <p></p> <img src='stimuli/faces/PCF6.jpg', style='max-width: 30%;'> </img> <p><strong>你是否选择发射武器？</strong></p>","1",""
"","","","","","html-keyboard-response","12","44191","0.0-4.0-0.4","63","1","2022-11-27 10:17:40","7b1eb8be57ff77859c7d9ac988e43411","124.238.183.215","Mozilla/5.0 (Windows; U; Windows NT 5.2; en-US) AppleWebKit/537.36 (KHTML, like Gecko) Safari/537.36 VivoBrowser/12.0.0.0 Chrome/87.0.4280.141","WebKit","Chrome","87.0.4280.141","Windows","5.2","null","<div style=""font-size:60px;"">+</div>","null",""
"","","","","","html-button-response","13","45561","0.0-4.0-1.4","63","1","2022-11-27 10:17:40","7b1eb8be57ff77859c7d9ac988e43411","124.238.183.215","Mozilla/5.0 (Windows; U; Windows NT 5.2; en-US) AppleWebKit/537.36 (KHTML, like Gecko) Safari/537.36 VivoBrowser/12.0.0.0 Chrome/87.0.4280.141","WebKit","Chrome","87.0.4280.141","Windows","5.2","1346","<p>作为军队的指挥官，你可以选择发射导弹杀死 <strong>3名</strong> 敌国士兵，但会炸毁附近的 <strong>1棵</strong> 敌国树木。</p> <p>树木的照片如下图所示。</p> <p></p> <img src='stimuli/trees/4.png', style='max-width: 30%;'> </img> <p><strong>你是否选择发射武器？</strong></p>","0",""
"","","","","","html-keyboard-response","14","46575","0.0-4.0-0.5","63","1","2022-11-27 10:17:40","7b1eb8be57ff77859c7d9ac988e43411","124.238.183.215","Mozilla/5.0 (Windows; U; Windows NT 5.2; en-US) AppleWebKit/537.36 (KHTML, like Gecko) Safari/537.36 VivoBrowser/12.0.0.0 Chrome/87.0.4280.141","WebKit","Chrome","87.0.4280.141","Windows","5.2","null","<div style=""font-size:60px;"">+</div>","null",""
"","","","","","html-button-response","15","48352","0.0-4.0-1.5","63","1","2022-11-27 10:17:40","7b1eb8be57ff77859c7d9ac988e43411","124.238.183.215","Mozilla/5.0 (Windows; U; Windows NT 5.2; en-US) AppleWebKit/537.36 (KHTML, like Gecko) Safari/537.36 VivoBrowser/12.0.0.0 Chrome/87.0.4280.141","WebKit","Chrome","87.0.4280.141","Windows","5.2","1748","<p>作为军队的指挥官，你可以选择发射导弹杀死 <strong>4名</strong> 敌国士兵，但会误杀附近的 <strong>1名</strong> 敌国平民。</p> <p>平民照片如下图所示。</p> <p></p> <img src='stimuli/faces/PCF3.jpg', style='max-width: 30%;'> </img> <p><strong>你是否选择发射武器？</strong></p>","0",""
"","","","","","html-keyboard-response","16","49446","0.0-4.0-0.6","63","1","2022-11-27 10:17:40","7b1eb8be57ff77859c7d9ac988e43411","124.238.183.215","Mozilla/5.0 (Windows; U; Windows NT 5.2; en-US) AppleWebKit/537.36 (KHTML, like Gecko) Safari/537.36 VivoBrowser/12.0.0.0 Chrome/87.0.4280.141","WebKit","Chrome","87.0.4280.141","Windows","5.2","null","<div style=""font-size:60px;"">+</div>","null",""
"","","","","","html-button-response","17","50684","0.0-4.0-1.6","63","1","2022-11-27 10:17:40","7b1eb8be57ff77859c7d9ac988e43411","124.238.183.215","Mozilla/5.0 (Windows; U; Windows NT 5.2; en-US) AppleWebKit/537.36 (KHTML, like Gecko) Safari/537.36 VivoBrowser/12.0.0.0 Chrome/87.0.4280.141","WebKit","Chrome","87.0.4280.141","Windows","5.2","1205","<p>作为军队的指挥官，你可以选择发射导弹杀死 <strong>7名</strong> 敌国士兵，但会炸毁附近的 <strong>1棵</strong> 敌国树木。</p> <p>树木的照片如下图所示。</p> <p></p> <img src='stimuli/trees/2.png', style='max-width: 30%;'> </img> <p><strong>你是否选择发射武器？</strong></p>","0",""
"","","","","","html-keyboard-response","18","51694","0.0-4.0-0.7","63","1","2022-11-27 10:17:40","7b1eb8be57ff77859c7d9ac988e43411","124.238.183.215","Mozilla/5.0 (Windows; U; Windows NT 5.2; en-US) AppleWebKit/537.36 (KHTML, like Gecko) Safari/537.36 VivoBrowser/12.0.0.0 Chrome/87.0.4280.141","WebKit","Chrome","87.0.4280.141","Windows","5.2","null","<div style=""font-size:60px;"">+</div>","null",""
"","","","","","html-button-response","19","52846","0.0-4.0-1.7","63","1","2022-11-27 10:17:40","7b1eb8be57ff77859c7d9ac988e43411","124.238.183.215","Mozilla/5.0 (Windows; U; Windows NT 5.2; en-US) AppleWebKit/537.36 (KHTML, like Gecko) Safari/537.36 VivoBrowser/12.0.0.0 Chrome/87.0.4280.141","WebKit","Chrome","87.0.4280.141","Windows","5.2","1141","<p>作为军队的指挥官，你可以选择发射导弹杀死 <strong>4名</strong> 敌国士兵，但会炸毁附近的 <strong>1棵</strong> 敌国树木。</p> <p>树木的照片如下图所示。</p> <p></p> <img src='stimuli/trees/1.png', style='max-width: 30%;'> </img> <p><strong>你是否选择发射武器？</strong></p>","0",""
"","","","","","html-keyboard-response","20","53856","0.0-4.0-0.8","63","1","2022-11-27 10:17:40","7b1eb8be57ff77859c7d9ac988e43411","124.238.183.215","Mozilla/5.0 (Windows; U; Windows NT 5.2; en-US) AppleWebKit/537.36 (KHTML, like Gecko) Safari/537.36 VivoBrowser/12.0.0.0 Chrome/87.0.4280.141","WebKit","Chrome","87.0.4280.141","Windows","5.2","null","<div style=""font-size:60px;"">+</div>","null",""
"","","","","","html-button-response","21","54858","0.0-4.0-1.8","63","1","2022-11-27 10:17:40","7b1eb8be57ff77859c7d9ac988e43411","124.238.183.215","Mozilla/5.0 (Windows; U; Windows NT 5.2; en-US) AppleWebKit/537.36 (KHTML, like Gecko) Safari/537.36 VivoBrowser/12.0.0.0 Chrome/87.0.4280.141","WebKit","Chrome","87.0.4280.141","Windows","5.2","988","<p>作为军队的指挥官，你可以选择发射导弹杀死 <strong>3名</strong> 敌国士兵，但会炸毁附近的 <strong>1棵</strong> 敌国树木。</p> <p>树木的照片如下图所示。</p> <p></p> <img src='stimuli/trees/12.png', style='max-width: 30%;'> </img> <p><strong>你是否选择发射武器？</strong></p>","1",""
"","","","","","html-keyboard-response","22","55868","0.0-4.0-0.9","63","1","2022-11-27 10:17:40","7b1eb8be57ff77859c7d9ac988e43411","124.238.183.215","Mozilla/5.0 (Windows; U; Windows NT 5.2; en-US) AppleWebKit/537.36 (KHTML, like Gecko) Safari/537.36 VivoBrowser/12.0.0.0 Chrome/87.0.4280.141","WebKit","Chrome","87.0.4280.141","Windows","5.2","null","<div style=""font-size:60px;"">+</div>","null",""
"","","","","","html-button-response","23","57169","0.0-4.0-1.9","63","1","2022-11-27 10:17:40","7b1eb8be57ff77859c7d9ac988e43411","124.238.183.215","Mozilla/5.0 (Windows; U; Windows NT 5.2; en-US) AppleWebKit/537.36 (KHTML, like Gecko) Safari/537.36 VivoBrowser/12.0.0.0 Chrome/87.0.4280.141","WebKit","Chrome","87.0.4280.141","Windows","5.2","1288","<p>作为军队的指挥官，你可以选择发射导弹杀死 <strong>1名</strong> 敌国士兵，但会误杀附近的 <strong>1名</strong> 敌国平民。</p> <p>平民照片如下图所示。</p> <p></p> <img src='stimuli/faces/PCM4.jpg', style='max-width: 30%;'> </img> <p><strong>你是否选择发射武器？</strong></p>","1",""
"","","","","","html-keyboard-response","24","58180","0.0-4.0-0.10","63","1","2022-11-27 10:17:40","7b1eb8be57ff77859c7d9ac988e43411","124.238.183.215","Mozilla/5.0 (Windows; U; Windows NT 5.2; en-US) AppleWebKit/537.36 (KHTML, like Gecko) Safari/537.36 VivoBrowser/12.0.0.0 Chrome/87.0.4280.141","WebKit","Chrome","87.0.4280.141","Windows","5.2","null","<div style=""font-size:60px;"">+</div>","null",""
"","","","","","html-button-response","25","59270","0.0-4.0-1.10","63","1","2022-11-27 10:17:40","7b1eb8be57ff77859c7d9ac988e43411","124.238.183.215","Mozilla/5.0 (Windows; U; Windows NT 5.2; en-US) AppleWebKit/537.36 (KHTML, like Gecko) Safari/537.36 VivoBrowser/12.0.0.0 Chrome/87.0.4280.141","WebKit","Chrome","87.0.4280.141","Windows","5.2","1074","<p>作为军队的指挥官，你可以选择发射导弹杀死 <strong>5名</strong> 敌国士兵，但会炸毁附近的 <strong>1棵</strong> 敌国树木。</p> <p>树木的照片如下图所示。</p> <p></p> <img src='stimuli/trees/8.png', style='max-width: 30%;'> </img> <p><strong>你是否选择发射武器？</strong></p>","0",""
"","","","","","html-keyboard-response","26","60282","0.0-4.0-0.11","63","1","2022-11-27 10:17:40","7b1eb8be57ff77859c7d9ac988e43411","124.238.183.215","Mozilla/5.0 (Windows; U; Windows NT 5.2; en-US) AppleWebKit/537.36 (KHTML, like Gecko) Safari/537.36 VivoBrowser/12.0.0.0 Chrome/87.0.4280.141","WebKit","Chrome","87.0.4280.141","Windows","5.2","null","<div style=""font-size:60px;"">+</div>","null",""
"","","","","","html-button-response","27","61316","0.0-4.0-1.11","63","1","2022-11-27 10:17:40","7b1eb8be57ff77859c7d9ac988e43411","124.238.183.215","Mozilla/5.0 (Windows; U; Windows NT 5.2; en-US) AppleWebKit/537.36 (KHTML, like Gecko) Safari/537.36 VivoBrowser/12.0.0.0 Chrome/87.0.4280.141","WebKit","Chrome","87.0.4280.141","Windows","5.2","1017","<p>作为军队的指挥官，你可以选择发射导弹杀死 <strong>7名</strong> 敌国士兵，但会误杀附近的 <strong>1名</strong> 敌国平民。</p> <p>平民照片如下图所示。</p> <p></p> <img src='stimuli/faces/PCM5.jpg', style='max-width: 30%;'> </img> <p><strong>你是否选择发射武器？</strong></p>","0",""
"","","","","","html-keyboard-response","28","62332","0.0-4.0-0.12","63","1","2022-11-27 10:17:40","7b1eb8be57ff77859c7d9ac988e43411","124.238.183.215","Mozilla/5.0 (Windows; U; Windows NT 5.2; en-US) AppleWebKit/537.36 (KHTML, like Gecko) Safari/537.36 VivoBrowser/12.0.0.0 Chrome/87.0.4280.141","WebKit","Chrome","87.0.4280.141","Windows","5.2","null","<div style=""font-size:60px;"">+</div>","null",""
"","","","","","html-button-response","29","63950","0.0-4.0-1.12","63","1","2022-11-27 10:17:40","7b1eb8be57ff77859c7d9ac988e43411","124.238.183.215","Mozilla/5.0 (Windows; U; Windows NT 5.2; en-US) AppleWebKit/537.36 (KHTML, like Gecko) Safari/537.36 VivoBrowser/12.0.0.0 Chrome/87.0.4280.141","WebKit","Chrome","87.0.4280.141","Windows","5.2","1599","<p>作为军队的指挥官，你可以选择发射导弹杀死 <strong>2名</strong> 敌国士兵，但会炸毁附近的 <strong>1棵</strong> 敌国树木。</p> <p>树木的照片如下图所示。</p> <p></p> <img src='stimuli/trees/6.png', style='max-width: 30%;'> </img> <p><strong>你是否选择发射武器？</strong></p>","0",""
"","","","","","html-keyboard-response","30","64964","0.0-4.0-0.13","63","1","2022-11-27 10:17:40","7b1eb8be57ff77859c7d9ac988e43411","124.238.183.215","Mozilla/5.0 (Windows; U; Windows NT 5.2; en-US) AppleWebKit/537.36 (KHTML, like Gecko) Safari/537.36 VivoBrowser/12.0.0.0 Chrome/87.0.4280.141","WebKit","Chrome","87.0.4280.141","Windows","5.2","null","<div style=""font-size:60px;"">+</div>","null",""
"","","","","","html-button-response","31","65847","0.0-4.0-1.13","63","1","2022-11-27 10:17:40","7b1eb8be57ff77859c7d9ac988e43411","124.238.183.215","Mozilla/5.0 (Windows; U; Windows NT 5.2; en-US) AppleWebKit/537.36 (KHTML, like Gecko) Safari/537.36 VivoBrowser/12.0.0.0 Chrome/87.0.4280.141","WebKit","Chrome","87.0.4280.141","Windows","5.2","864","<p>作为军队的指挥官，你可以选择发射导弹杀死 <strong>6名</strong> 敌国士兵，但会炸毁附近的 <strong>1棵</strong> 敌国树木。</p> <p>树木的照片如下图所示。</p> <p></p> <img src='stimuli/trees/14.png', style='max-width: 30%;'> </img> <p><strong>你是否选择发射武器？</strong></p>","0",""
"","","","","","html-keyboard-response","32","66859","0.0-4.0-0.14","63","1","2022-11-27 10:17:40","7b1eb8be57ff77859c7d9ac988e43411","124.238.183.215","Mozilla/5.0 (Windows; U; Windows NT 5.2; en-US) AppleWebKit/537.36 (KHTML, like Gecko) Safari/537.36 VivoBrowser/12.0.0.0 Chrome/87.0.4280.141","WebKit","Chrome","87.0.4280.141","Windows","5.2","null","<div style=""font-size:60px;"">+</div>","null",""
"","","","","","html-button-response","33","67916","0.0-4.0-1.14","63","1","2022-11-27 10:17:40","7b1eb8be57ff77859c7d9ac988e43411","124.238.183.215","Mozilla/5.0 (Windows; U; Windows NT 5.2; en-US) AppleWebKit/537.36 (KHTML, like Gecko) Safari/537.36 VivoBrowser/12.0.0.0 Chrome/87.0.4280.141","WebKit","Chrome","87.0.4280.141","Windows","5.2","1041","<p>作为军队的指挥官，你可以选择发射导弹杀死 <strong>6名</strong> 敌国士兵，但会误杀附近的 <strong>1名</strong> 敌国平民。</p> <p>平民照片如下图所示。</p> <p></p> <img src='stimuli/faces/PCM6.jpg', style='max-width: 30%;'> </img> <p><strong>你是否选择发射武器？</strong></p>","0",""
"","","","","","html-keyboard-response","34","68929","0.0-4.0-0.15","63","1","2022-11-27 10:17:40","7b1eb8be57ff77859c7d9ac988e43411","124.238.183.215","Mozilla/5.0 (Windows; U; Windows NT 5.2; en-US) AppleWebKit/537.36 (KHTML, like Gecko) Safari/537.36 VivoBrowser/12.0.0.0 Chrome/87.0.4280.141","WebKit","Chrome","87.0.4280.141","Windows","5.2","null","<div style=""font-size:60px;"">+</div>","null",""
"","","","","","html-button-response","35","69756","0.0-4.0-1.15","63","1","2022-11-27 10:17:40","7b1eb8be57ff77859c7d9ac988e43411","124.238.183.215","Mozilla/5.0 (Windows; U; Windows NT 5.2; en-US) AppleWebKit/537.36 (KHTML, like Gecko) Safari/537.36 VivoBrowser/12.0.0.0 Chrome/87.0.4280.141","WebKit","Chrome","87.0.4280.141","Windows","5.2","810","<p>作为军队的指挥官，你可以选择发射导弹杀死 <strong>9名</strong> 敌国士兵，但会误杀附近的 <strong>1名</strong> 敌国平民。</p> <p>平民照片如下图所示。</p> <p></p> <img src='stimuli/faces/PCF6.jpg', style='max-width: 30%;'> </img> <p><strong>你是否选择发射武器？</strong></p>","0",""
"","","","","","html-keyboard-response","36","70794","0.0-4.0-0.16","63","1","2022-11-27 10:17:40","7b1eb8be57ff77859c7d9ac988e43411","124.238.183.215","Mozilla/5.0 (Windows; U; Windows NT 5.2; en-US) AppleWebKit/537.36 (KHTML, like Gecko) Safari/537.36 VivoBrowser/12.0.0.0 Chrome/87.0.4280.141","WebKit","Chrome","87.0.4280.141","Windows","5.2","null","<div style=""font-size:60px;"">+</div>","null",""
"","","","","","html-button-response","37","71610","0.0-4.0-1.16","63","1","2022-11-27 10:17:40","7b1eb8be57ff77859c7d9ac988e43411","124.238.183.215","Mozilla/5.0 (Windows; U; Windows NT 5.2; en-US) AppleWebKit/537.36 (KHTML, like Gecko) Safari/537.36 VivoBrowser/12.0.0.0 Chrome/87.0.4280.141","WebKit","Chrome","87.0.4280.141","Windows","5.2","772","<p>作为军队的指挥官，你可以选择发射导弹杀死 <strong>9名</strong> 敌国士兵，但会误杀附近的 <strong>1名</strong> 敌国平民。</p> <p>平民照片如下图所示。</p> <p></p> <img src='stimuli/faces/PCF8.jpg', style='max-width: 30%;'> </img> <p><strong>你是否选择发射武器？</strong></p>","0",""
"","","","","","html-keyboard-response","38","72624","0.0-4.0-0.17","63","1","2022-11-27 10:17:40","7b1eb8be57ff77859c7d9ac988e43411","124.238.183.215","Mozilla/5.0 (Windows; U; Windows NT 5.2; en-US) AppleWebKit/537.36 (KHTML, like Gecko) Safari/537.36 VivoBrowser/12.0.0.0 Chrome/87.0.4280.141","WebKit","Chrome","87.0.4280.141","Windows","5.2","null","<div style=""font-size:60px;"">+</div>","null",""
"","","","","","html-button-response","39","74972","0.0-4.0-1.17","63","1","2022-11-27 10:17:40","7b1eb8be57ff77859c7d9ac988e43411","124.238.183.215","Mozilla/5.0 (Windows; U; Windows NT 5.2; en-US) AppleWebKit/537.36 (KHTML, like Gecko) Safari/537.36 VivoBrowser/12.0.0.0 Chrome/87.0.4280.141","WebKit","Chrome","87.0.4280.141","Windows","5.2","2328","<p>作为军队的指挥官，你可以选择发射导弹杀死 <strong>1名</strong> 敌国士兵，但会误杀附近的 <strong>1名</strong> 敌国平民。</p> <p>平民照片如下图所示。</p> <p></p> <img src='stimuli/faces/PCM1.jpg', style='max-width: 30%;'> </img> <p><strong>你是否选择发射武器？</strong></p>","1",""
"","","","","","html-keyboard-response","40","75987","0.0-4.0-0.18","63","1","2022-11-27 10:17:40","7b1eb8be57ff77859c7d9ac988e43411","124.238.183.215","Mozilla/5.0 (Windows; U; Windows NT 5.2; en-US) AppleWebKit/537.36 (KHTML, like Gecko) Safari/537.36 VivoBrowser/12.0.0.0 Chrome/87.0.4280.141","WebKit","Chrome","87.0.4280.141","Windows","5.2","null","<div style=""font-size:60px;"">+</div>","null",""
"","","","","","html-button-response","41","77456","0.0-4.0-1.18","63","1","2022-11-27 10:17:40","7b1eb8be57ff77859c7d9ac988e43411","124.238.183.215","Mozilla/5.0 (Windows; U; Windows NT 5.2; en-US) AppleWebKit/537.36 (KHTML, like Gecko) Safari/537.36 VivoBrowser/12.0.0.0 Chrome/87.0.4280.141","WebKit","Chrome","87.0.4280.141","Windows","5.2","1443","<p>作为军队的指挥官，你可以选择发射导弹杀死 <strong>1名</strong> 敌国士兵，但会炸毁附近的 <strong>1棵</strong> 敌国树木。</p> <p>树木的照片如下图所示。</p> <p></p> <img src='stimuli/trees/5.png', style='max-width: 30%;'> </img> <p><strong>你是否选择发射武器？</strong></p>","1",""
"","","","","","html-keyboard-response","42","78474","0.0-4.0-0.19","63","1","2022-11-27 10:17:40","7b1eb8be57ff77859c7d9ac988e43411","124.238.183.215","Mozilla/5.0 (Windows; U; Windows NT 5.2; en-US) AppleWebKit/537.36 (KHTML, like Gecko) Safari/537.36 VivoBrowser/12.0.0.0 Chrome/87.0.4280.141","WebKit","Chrome","87.0.4280.141","Windows","5.2","null","<div style=""font-size:60px;"">+</div>","null",""
"","","","","","html-button-response","43","79695","0.0-4.0-1.19","63","1","2022-11-27 10:17:40","7b1eb8be57ff77859c7d9ac988e43411","124.238.183.215","Mozilla/5.0 (Windows; U; Windows NT 5.2; en-US) AppleWebKit/537.36 (KHTML, like Gecko) Safari/537.36 VivoBrowser/12.0.0.0 Chrome/87.0.4280.141","WebKit","Chrome","87.0.4280.141","Windows","5.2","1190","<p>作为军队的指挥官，你可以选择发射导弹杀死 <strong>3名</strong> 敌国士兵，但会误杀附近的 <strong>1名</strong> 敌国平民。</p> <p>平民照片如下图所示。</p> <p></p> <img src='stimuli/faces/PCF8.jpg', style='max-width: 30%;'> </img> <p><strong>你是否选择发射武器？</strong></p>","1",""
"","","","","","html-keyboard-response","44","80718","0.0-4.0-0.20","63","1","2022-11-27 10:17:40","7b1eb8be57ff77859c7d9ac988e43411","124.238.183.215","Mozilla/5.0 (Windows; U; Windows NT 5.2; en-US) AppleWebKit/537.36 (KHTML, like Gecko) Safari/537.36 VivoBrowser/12.0.0.0 Chrome/87.0.4280.141","WebKit","Chrome","87.0.4280.141","Windows","5.2","null","<div style=""font-size:60px;"">+</div>","null",""
"","","","","","html-button-response","45","81583","0.0-4.0-1.20","63","1","2022-11-27 10:17:40","7b1eb8be57ff77859c7d9ac988e43411","124.238.183.215","Mozilla/5.0 (Windows; U; Windows NT 5.2; en-US) AppleWebKit/537.36 (KHTML, like Gecko) Safari/537.36 VivoBrowser/12.0.0.0 Chrome/87.0.4280.141","WebKit","Chrome","87.0.4280.141","Windows","5.2","821","<p>作为军队的指挥官，你可以选择发射导弹杀死 <strong>8名</strong> 敌国士兵，但会炸毁附近的 <strong>1棵</strong> 敌国树木。</p> <p>树木的照片如下图所示。</p> <p></p> <img src='stimuli/trees/4.png', style='max-width: 30%;'> </img> <p><strong>你是否选择发射武器？</strong></p>","0",""
"","","","","","html-keyboard-response","46","82599","0.0-4.0-0.21","63","1","2022-11-27 10:17:40","7b1eb8be57ff77859c7d9ac988e43411","124.238.183.215","Mozilla/5.0 (Windows; U; Windows NT 5.2; en-US) AppleWebKit/537.36 (KHTML, like Gecko) Safari/537.36 VivoBrowser/12.0.0.0 Chrome/87.0.4280.141","WebKit","Chrome","87.0.4280.141","Windows","5.2","null","<div style=""font-size:60px;"">+</div>","null",""
"","","","","","html-button-response","47","83505","0.0-4.0-1.21","63","1","2022-11-27 10:17:40","7b1eb8be57ff77859c7d9ac988e43411","124.238.183.215","Mozilla/5.0 (Windows; U; Windows NT 5.2; en-US) AppleWebKit/537.36 (KHTML, like Gecko) Safari/537.36 VivoBrowser/12.0.0.0 Chrome/87.0.4280.141","WebKit","Chrome","87.0.4280.141","Windows","5.2","885","<p>作为军队的指挥官，你可以选择发射导弹杀死 <strong>5名</strong> 敌国士兵，但会误杀附近的 <strong>1名</strong> 敌国平民。</p> <p>平民照片如下图所示。</p> <p></p> <img src='stimuli/faces/PCM2.jpg', style='max-width: 30%;'> </img> <p><strong>你是否选择发射武器？</strong></p>","0",""
"","","","","","html-keyboard-response","48","84525","0.0-4.0-0.22","63","1","2022-11-27 10:17:40","7b1eb8be57ff77859c7d9ac988e43411","124.238.183.215","Mozilla/5.0 (Windows; U; Windows NT 5.2; en-US) AppleWebKit/537.36 (KHTML, like Gecko) Safari/537.36 VivoBrowser/12.0.0.0 Chrome/87.0.4280.141","WebKit","Chrome","87.0.4280.141","Windows","5.2","null","<div style=""font-size:60px;"">+</div>","null",""
"","","","","","html-button-response","49","85315","0.0-4.0-1.22","63","1","2022-11-27 10:17:40","7b1eb8be57ff77859c7d9ac988e43411","124.238.183.215","Mozilla/5.0 (Windows; U; Windows NT 5.2; en-US) AppleWebKit/537.36 (KHTML, like Gecko) Safari/537.36 VivoBrowser/12.0.0.0 Chrome/87.0.4280.141","WebKit","Chrome","87.0.4280.141","Windows","5.2","769","<p>作为军队的指挥官，你可以选择发射导弹杀死 <strong>8名</strong> 敌国士兵，但会炸毁附近的 <strong>1棵</strong> 敌国树木。</p> <p>树木的照片如下图所示。</p> <p></p> <img src='stimuli/trees/6.png', style='max-width: 30%;'> </img> <p><strong>你是否选择发射武器？</strong></p>","0",""
"","","","","","html-keyboard-response","50","86333","0.0-4.0-0.23","63","1","2022-11-27 10:17:40","7b1eb8be57ff77859c7d9ac988e43411","124.238.183.215","Mozilla/5.0 (Windows; U; Windows NT 5.2; en-US) AppleWebKit/537.36 (KHTML, like Gecko) Safari/537.36 VivoBrowser/12.0.0.0 Chrome/87.0.4280.141","WebKit","Chrome","87.0.4280.141","Windows","5.2","null","<div style=""font-size:60px;"">+</div>","null",""
"","","","","","html-button-response","51","87345","0.0-4.0-1.23","63","1","2022-11-27 10:17:40","7b1eb8be57ff77859c7d9ac988e43411","124.238.183.215","Mozilla/5.0 (Windows; U; Windows NT 5.2; en-US) AppleWebKit/537.36 (KHTML, like Gecko) Safari/537.36 VivoBrowser/12.0.0.0 Chrome/87.0.4280.141","WebKit","Chrome","87.0.4280.141","Windows","5.2","973","<p>作为军队的指挥官，你可以选择发射导弹杀死 <strong>1名</strong> 敌国士兵，但会误杀附近的 <strong>1名</strong> 敌国平民。</p> <p>平民照片如下图所示。</p> <p></p> <img src='stimuli/faces/PCM5.jpg', style='max-width: 30%;'> </img> <p><strong>你是否选择发射武器？</strong></p>","1",""
"","","","","","html-keyboard-response","52","88364","0.0-4.0-0.24","63","1","2022-11-27 10:17:40","7b1eb8be57ff77859c7d9ac988e43411","124.238.183.215","Mozilla/5.0 (Windows; U; Windows NT 5.2; en-US) AppleWebKit/537.36 (KHTML, like Gecko) Safari/537.36 VivoBrowser/12.0.0.0 Chrome/87.0.4280.141","WebKit","Chrome","87.0.4280.141","Windows","5.2","null","<div style=""font-size:60px;"">+</div>","null",""
"","","","","","html-button-response","53","89375","0.0-4.0-1.24","63","1","2022-11-27 10:17:40","7b1eb8be57ff77859c7d9ac988e43411","124.238.183.215","Mozilla/5.0 (Windows; U; Windows NT 5.2; en-US) AppleWebKit/537.36 (KHTML, like Gecko) Safari/537.36 VivoBrowser/12.0.0.0 Chrome/87.0.4280.141","WebKit","Chrome","87.0.4280.141","Windows","5.2","979","<p>作为军队的指挥官，你可以选择发射导弹杀死 <strong>3名</strong> 敌国士兵，但会误杀附近的 <strong>1名</strong> 敌国平民。</p> <p>平民照片如下图所示。</p> <p></p> <img src='stimuli/faces/PCM6.jpg', style='max-width: 30%;'> </img> <p><strong>你是否选择发射武器？</strong></p>","1",""
"","","","","","html-keyboard-response","54","90394","0.0-4.0-0.25","63","1","2022-11-27 10:17:40","7b1eb8be57ff77859c7d9ac988e43411","124.238.183.215","Mozilla/5.0 (Windows; U; Windows NT 5.2; en-US) AppleWebKit/537.36 (KHTML, like Gecko) Safari/537.36 VivoBrowser/12.0.0.0 Chrome/87.0.4280.141","WebKit","Chrome","87.0.4280.141","Windows","5.2","null","<div style=""font-size:60px;"">+</div>","null",""
"","","","","","html-button-response","55","91225","0.0-4.0-1.25","63","1","2022-11-27 10:17:40","7b1eb8be57ff77859c7d9ac988e43411","124.238.183.215","Mozilla/5.0 (Windows; U; Windows NT 5.2; en-US) AppleWebKit/537.36 (KHTML, like Gecko) Safari/537.36 VivoBrowser/12.0.0.0 Chrome/87.0.4280.141","WebKit","Chrome","87.0.4280.141","Windows","5.2","808","<p>作为军队的指挥官，你可以选择发射导弹杀死 <strong>10名</strong> 敌国士兵，但会炸毁附近的 <strong>1棵</strong> 敌国树木。</p> <p>树木的照片如下图所示。</p> <p></p> <img src='stimuli/trees/16.png', style='max-width: 30%;'> </img> <p><strong>你是否选择发射武器？</strong></p>","0",""
"","","","","","html-keyboard-response","56","92345","0.0-4.0-0.26","63","1","2022-11-27 10:17:40","7b1eb8be57ff77859c7d9ac988e43411","124.238.183.215","Mozilla/5.0 (Windows; U; Windows NT 5.2; en-US) AppleWebKit/537.36 (KHTML, like Gecko) Safari/537.36 VivoBrowser/12.0.0.0 Chrome/87.0.4280.141","WebKit","Chrome","87.0.4280.141","Windows","5.2","null","<div style=""font-size:60px;"">+</div>","null",""
"","","","","","html-button-response","57","93538","0.0-4.0-1.26","63","1","2022-11-27 10:17:40","7b1eb8be57ff77859c7d9ac988e43411","124.238.183.215","Mozilla/5.0 (Windows; U; Windows NT 5.2; en-US) AppleWebKit/537.36 (KHTML, like Gecko) Safari/537.36 VivoBrowser/12.0.0.0 Chrome/87.0.4280.141","WebKit","Chrome","87.0.4280.141","Windows","5.2","1170","<p>作为军队的指挥官，你可以选择发射导弹杀死 <strong>6名</strong> 敌国士兵，但会误杀附近的 <strong>1名</strong> 敌国平民。</p> <p>平民照片如下图所示。</p> <p></p> <img src='stimuli/faces/PCF1.jpg', style='max-width: 30%;'> </img> <p><strong>你是否选择发射武器？</strong></p>","0",""
"","","","","","html-keyboard-response","58","94558","0.0-4.0-0.27","63","1","2022-11-27 10:17:40","7b1eb8be57ff77859c7d9ac988e43411","124.238.183.215","Mozilla/5.0 (Windows; U; Windows NT 5.2; en-US) AppleWebKit/537.36 (KHTML, like Gecko) Safari/537.36 VivoBrowser/12.0.0.0 Chrome/87.0.4280.141","WebKit","Chrome","87.0.4280.141","Windows","5.2","null","<div style=""font-size:60px;"">+</div>","null",""
"","","","","","html-button-response","59","95557","0.0-4.0-1.27","63","1","2022-11-27 10:17:40","7b1eb8be57ff77859c7d9ac988e43411","124.238.183.215","Mozilla/5.0 (Windows; U; Windows NT 5.2; en-US) AppleWebKit/537.36 (KHTML, like Gecko) Safari/537.36 VivoBrowser/12.0.0.0 Chrome/87.0.4280.141","WebKit","Chrome","87.0.4280.141","Windows","5.2","971","<p>作为军队的指挥官，你可以选择发射导弹杀死 <strong>5名</strong> 敌国士兵，但会误杀附近的 <strong>1名</strong> 敌国平民。</p> <p>平民照片如下图所示。</p> <p></p> <img src='stimuli/faces/PCF5.jpg', style='max-width: 30%;'> </img> <p><strong>你是否选择发射武器？</strong></p>","0",""
"","","","","","html-keyboard-response","60","96580","0.0-4.0-0.28","63","1","2022-11-27 10:17:40","7b1eb8be57ff77859c7d9ac988e43411","124.238.183.215","Mozilla/5.0 (Windows; U; Windows NT 5.2; en-US) AppleWebKit/537.36 (KHTML, like Gecko) Safari/537.36 VivoBrowser/12.0.0.0 Chrome/87.0.4280.141","WebKit","Chrome","87.0.4280.141","Windows","5.2","null","<div style=""font-size:60px;"">+</div>","null",""
"","","","","","html-button-response","61","97623","0.0-4.0-1.28","63","1","2022-11-27 10:17:40","7b1eb8be57ff77859c7d9ac988e43411","124.238.183.215","Mozilla/5.0 (Windows; U; Windows NT 5.2; en-US) AppleWebKit/537.36 (KHTML, like Gecko) Safari/537.36 VivoBrowser/12.0.0.0 Chrome/87.0.4280.141","WebKit","Chrome","87.0.4280.141","Windows","5.2","1020","<p>作为军队的指挥官，你可以选择发射导弹杀死 <strong>10名</strong> 敌国士兵，但会炸毁附近的 <strong>1棵</strong> 敌国树木。</p> <p>树木的照片如下图所示。</p> <p></p> <img src='stimuli/trees/3.png', style='max-width: 30%;'> </img> <p><strong>你是否选择发射武器？</strong></p>","0",""
"","","","","","html-keyboard-response","62","98647","0.0-4.0-0.29","63","1","2022-11-27 10:17:40","7b1eb8be57ff77859c7d9ac988e43411","124.238.183.215","Mozilla/5.0 (Windows; U; Windows NT 5.2; en-US) AppleWebKit/537.36 (KHTML, like Gecko) Safari/537.36 VivoBrowser/12.0.0.0 Chrome/87.0.4280.141","WebKit","Chrome","87.0.4280.141","Windows","5.2","null","<div style=""font-size:60px;"">+</div>","null",""
"","","","","","html-button-response","63","101329","0.0-4.0-1.29","63","1","2022-11-27 10:17:40","7b1eb8be57ff77859c7d9ac988e43411","124.238.183.215","Mozilla/5.0 (Windows; U; Windows NT 5.2; en-US) AppleWebKit/537.36 (KHTML, like Gecko) Safari/537.36 VivoBrowser/12.0.0.0 Chrome/87.0.4280.141","WebKit","Chrome","87.0.4280.141","Windows","5.2","2655","<p>作为军队的指挥官，你可以选择发射导弹杀死 <strong>4名</strong> 敌国士兵，但会炸毁附近的 <strong>1棵</strong> 敌国树木。</p> <p>树木的照片如下图所示。</p> <p></p> <img src='stimuli/trees/15.png', style='max-width: 30%;'> </img> <p><strong>你是否选择发射武器？</strong></p>","0",""
"","","","","","html-keyboard-response","64","102369","0.0-4.0-0.30","63","1","2022-11-27 10:17:40","7b1eb8be57ff77859c7d9ac988e43411","124.238.183.215","Mozilla/5.0 (Windows; U; Windows NT 5.2; en-US) AppleWebKit/537.36 (KHTML, like Gecko) Safari/537.36 VivoBrowser/12.0.0.0 Chrome/87.0.4280.141","WebKit","Chrome","87.0.4280.141","Windows","5.2","null","<div style=""font-size:60px;"">+</div>","null",""
"","","","","","html-button-response","65","103296","0.0-4.0-1.30","63","1","2022-11-27 10:17:40","7b1eb8be57ff77859c7d9ac988e43411","124.238.183.215","Mozilla/5.0 (Windows; U; Windows NT 5.2; en-US) AppleWebKit/537.36 (KHTML, like Gecko) Safari/537.36 VivoBrowser/12.0.0.0 Chrome/87.0.4280.141","WebKit","Chrome","87.0.4280.141","Windows","5.2","844","<p>作为军队的指挥官，你可以选择发射导弹杀死 <strong>5名</strong> 敌国士兵，但会炸毁附近的 <strong>1棵</strong> 敌国树木。</p> <p>树木的照片如下图所示。</p> <p></p> <img src='stimuli/trees/13.png', style='max-width: 30%;'> </img> <p><strong>你是否选择发射武器？</strong></p>","0",""
"","","","","","html-keyboard-response","66","104334","0.0-4.0-0.31","63","1","2022-11-27 10:17:40","7b1eb8be57ff77859c7d9ac988e43411","124.238.183.215","Mozilla/5.0 (Windows; U; Windows NT 5.2; en-US) AppleWebKit/537.36 (KHTML, like Gecko) Safari/537.36 VivoBrowser/12.0.0.0 Chrome/87.0.4280.141","WebKit","Chrome","87.0.4280.141","Windows","5.2","null","<div style=""font-size:60px;"">+</div>","null",""
"","","","","","html-button-response","67","105239","0.0-4.0-1.31","63","1","2022-11-27 10:17:40","7b1eb8be57ff77859c7d9ac988e43411","124.238.183.215","Mozilla/5.0 (Windows; U; Windows NT 5.2; en-US) AppleWebKit/537.36 (KHTML, like Gecko) Safari/537.36 VivoBrowser/12.0.0.0 Chrome/87.0.4280.141","WebKit","Chrome","87.0.4280.141","Windows","5.2","876","<p>作为军队的指挥官，你可以选择发射导弹杀死 <strong>1名</strong> 敌国士兵，但会炸毁附近的 <strong>1棵</strong> 敌国树木。</p> <p>树木的照片如下图所示。</p> <p></p> <img src='stimuli/trees/7.png', style='max-width: 30%;'> </img> <p><strong>你是否选择发射武器？</strong></p>","1",""
"","","","","","html-keyboard-response","68","106263","0.0-4.0-0.32","63","1","2022-11-27 10:17:40","7b1eb8be57ff77859c7d9ac988e43411","124.238.183.215","Mozilla/5.0 (Windows; U; Windows NT 5.2; en-US) AppleWebKit/537.36 (KHTML, like Gecko) Safari/537.36 VivoBrowser/12.0.0.0 Chrome/87.0.4280.141","WebKit","Chrome","87.0.4280.141","Windows","5.2","null","<div style=""font-size:60px;"">+</div>","null",""
"","","","","","html-button-response","69","107146","0.0-4.0-1.32","63","1","2022-11-27 10:17:40","7b1eb8be57ff77859c7d9ac988e43411","124.238.183.215","Mozilla/5.0 (Windows; U; Windows NT 5.2; en-US) AppleWebKit/537.36 (KHTML, like Gecko) Safari/537.36 VivoBrowser/12.0.0.0 Chrome/87.0.4280.141","WebKit","Chrome","87.0.4280.141","Windows","5.2","854","<p>作为军队的指挥官，你可以选择发射导弹杀死 <strong>10名</strong> 敌国士兵，但会炸毁附近的 <strong>1棵</strong> 敌国树木。</p> <p>树木的照片如下图所示。</p> <p></p> <img src='stimuli/trees/1.png', style='max-width: 30%;'> </img> <p><strong>你是否选择发射武器？</strong></p>","0",""
"","","","","","html-keyboard-response","70","108171","0.0-4.0-0.33","63","1","2022-11-27 10:17:40","7b1eb8be57ff77859c7d9ac988e43411","124.238.183.215","Mozilla/5.0 (Windows; U; Windows NT 5.2; en-US) AppleWebKit/537.36 (KHTML, like Gecko) Safari/537.36 VivoBrowser/12.0.0.0 Chrome/87.0.4280.141","WebKit","Chrome","87.0.4280.141","Windows","5.2","null","<div style=""font-size:60px;"">+</div>","null",""
"","","","","","html-button-response","71","108902","0.0-4.0-1.33","63","1","2022-11-27 10:17:40","7b1eb8be57ff77859c7d9ac988e43411","124.238.183.215","Mozilla/5.0 (Windows; U; Windows NT 5.2; en-US) AppleWebKit/537.36 (KHTML, like Gecko) Safari/537.36 VivoBrowser/12.0.0.0 Chrome/87.0.4280.141","WebKit","Chrome","87.0.4280.141","Windows","5.2","706","<p>作为军队的指挥官，你可以选择发射导弹杀死 <strong>9名</strong> 敌国士兵，但会炸毁附近的 <strong>1棵</strong> 敌国树木。</p> <p>树木的照片如下图所示。</p> <p></p> <img src='stimuli/trees/8.png', style='max-width: 30%;'> </img> <p><strong>你是否选择发射武器？</strong></p>","0",""
"","","","","","html-keyboard-response","72","109928","0.0-4.0-0.34","63","1","2022-11-27 10:17:40","7b1eb8be57ff77859c7d9ac988e43411","124.238.183.215","Mozilla/5.0 (Windows; U; Windows NT 5.2; en-US) AppleWebKit/537.36 (KHTML, like Gecko) Safari/537.36 VivoBrowser/12.0.0.0 Chrome/87.0.4280.141","WebKit","Chrome","87.0.4280.141","Windows","5.2","null","<div style=""font-size:60px;"">+</div>","null",""
"","","","","","html-button-response","73","110800","0.0-4.0-1.34","63","1","2022-11-27 10:17:40","7b1eb8be57ff77859c7d9ac988e43411","124.238.183.215","Mozilla/5.0 (Windows; U; Windows NT 5.2; en-US) AppleWebKit/537.36 (KHTML, like Gecko) Safari/537.36 VivoBrowser/12.0.0.0 Chrome/87.0.4280.141","WebKit","Chrome","87.0.4280.141","Windows","5.2","837","<p>作为军队的指挥官，你可以选择发射导弹杀死 <strong>1名</strong> 敌国士兵，但会炸毁附近的 <strong>1棵</strong> 敌国树木。</p> <p>树木的照片如下图所示。</p> <p></p> <img src='stimuli/trees/16.png', style='max-width: 30%;'> </img> <p><strong>你是否选择发射武器？</strong></p>","1",""
"","","","","","html-keyboard-response","74","111826","0.0-4.0-0.35","63","1","2022-11-27 10:17:40","7b1eb8be57ff77859c7d9ac988e43411","124.238.183.215","Mozilla/5.0 (Windows; U; Windows NT 5.2; en-US) AppleWebKit/537.36 (KHTML, like Gecko) Safari/537.36 VivoBrowser/12.0.0.0 Chrome/87.0.4280.141","WebKit","Chrome","87.0.4280.141","Windows","5.2","null","<div style=""font-size:60px;"">+</div>","null",""
"","","","","","html-button-response","75","112797","0.0-4.0-1.35","63","1","2022-11-27 10:17:40","7b1eb8be57ff77859c7d9ac988e43411","124.238.183.215","Mozilla/5.0 (Windows; U; Windows NT 5.2; en-US) AppleWebKit/537.36 (KHTML, like Gecko) Safari/537.36 VivoBrowser/12.0.0.0 Chrome/87.0.4280.141","WebKit","Chrome","87.0.4280.141","Windows","5.2","933","<p>作为军队的指挥官，你可以选择发射导弹杀死 <strong>2名</strong> 敌国士兵，但会炸毁附近的 <strong>1棵</strong> 敌国树木。</p> <p>树木的照片如下图所示。</p> <p></p> <img src='stimuli/trees/2.png', style='max-width: 30%;'> </img> <p><strong>你是否选择发射武器？</strong></p>","1",""
"","","","","","html-keyboard-response","76","113822","0.0-4.0-0.36","63","1","2022-11-27 10:17:40","7b1eb8be57ff77859c7d9ac988e43411","124.238.183.215","Mozilla/5.0 (Windows; U; Windows NT 5.2; en-US) AppleWebKit/537.36 (KHTML, like Gecko) Safari/537.36 VivoBrowser/12.0.0.0 Chrome/87.0.4280.141","WebKit","Chrome","87.0.4280.141","Windows","5.2","null","<div style=""font-size:60px;"">+</div>","null",""
"","","","","","html-button-response","77","114791","0.0-4.0-1.36","63","1","2022-11-27 10:17:40","7b1eb8be57ff77859c7d9ac988e43411","124.238.183.215","Mozilla/5.0 (Windows; U; Windows NT 5.2; en-US) AppleWebKit/537.36 (KHTML, like Gecko) Safari/537.36 VivoBrowser/12.0.0.0 Chrome/87.0.4280.141","WebKit","Chrome","87.0.4280.141","Windows","5.2","940","<p>作为军队的指挥官，你可以选择发射导弹杀死 <strong>3名</strong> 敌国士兵，但会炸毁附近的 <strong>1棵</strong> 敌国树木。</p> <p>树木的照片如下图所示。</p> <p></p> <img src='stimuli/trees/10.png', style='max-width: 30%;'> </img> <p><strong>你是否选择发射武器？</strong></p>","1",""
"","","","","","html-keyboard-response","78","115824","0.0-4.0-0.37","63","1","2022-11-27 10:17:40","7b1eb8be57ff77859c7d9ac988e43411","124.238.183.215","Mozilla/5.0 (Windows; U; Windows NT 5.2; en-US) AppleWebKit/537.36 (KHTML, like Gecko) Safari/537.36 VivoBrowser/12.0.0.0 Chrome/87.0.4280.141","WebKit","Chrome","87.0.4280.141","Windows","5.2","null","<div style=""font-size:60px;"">+</div>","null",""
"","","","","","html-button-response","79","116627","0.0-4.0-1.37","63","1","2022-11-27 10:17:40","7b1eb8be57ff77859c7d9ac988e43411","124.238.183.215","Mozilla/5.0 (Windows; U; Windows NT 5.2; en-US) AppleWebKit/537.36 (KHTML, like Gecko) Safari/537.36 VivoBrowser/12.0.0.0 Chrome/87.0.4280.141","WebKit","Chrome","87.0.4280.141","Windows","5.2","776","<p>作为军队的指挥官，你可以选择发射导弹杀死 <strong>7名</strong> 敌国士兵，但会误杀附近的 <strong>1名</strong> 敌国平民。</p> <p>平民照片如下图所示。</p> <p></p> <img src='stimuli/faces/PCF7.jpg', style='max-width: 30%;'> </img> <p><strong>你是否选择发射武器？</strong></p>","0",""
"","","","","","html-keyboard-response","80","117654","0.0-4.0-0.38","63","1","2022-11-27 10:17:40","7b1eb8be57ff77859c7d9ac988e43411","124.238.183.215","Mozilla/5.0 (Windows; U; Windows NT 5.2; en-US) AppleWebKit/537.36 (KHTML, like Gecko) Safari/537.36 VivoBrowser/12.0.0.0 Chrome/87.0.4280.141","WebKit","Chrome","87.0.4280.141","Windows","5.2","null","<div style=""font-size:60px;"">+</div>","null",""
"","","","","","html-button-response","81","118693","0.0-4.0-1.38","63","1","2022-11-27 10:17:40","7b1eb8be57ff77859c7d9ac988e43411","124.238.183.215","Mozilla/5.0 (Windows; U; Windows NT 5.2; en-US) AppleWebKit/537.36 (KHTML, like Gecko) Safari/537.36 VivoBrowser/12.0.0.0 Chrome/87.0.4280.141","WebKit","Chrome","87.0.4280.141","Windows","5.2","1008","<p>作为军队的指挥官，你可以选择发射导弹杀死 <strong>3名</strong> 敌国士兵，但会误杀附近的 <strong>1名</strong> 敌国平民。</p> <p>平民照片如下图所示。</p> <p></p> <img src='stimuli/faces/PCM3.jpg', style='max-width: 30%;'> </img> <p><strong>你是否选择发射武器？</strong></p>","1",""
"","","","","","html-keyboard-response","82","119722","0.0-4.0-0.39","63","1","2022-11-27 10:17:40","7b1eb8be57ff77859c7d9ac988e43411","124.238.183.215","Mozilla/5.0 (Windows; U; Windows NT 5.2; en-US) AppleWebKit/537.36 (KHTML, like Gecko) Safari/537.36 VivoBrowser/12.0.0.0 Chrome/87.0.4280.141","WebKit","Chrome","87.0.4280.141","Windows","5.2","null","<div style=""font-size:60px;"">+</div>","null",""
"","","","","","html-button-response","83","120562","0.0-4.0-1.39","63","1","2022-11-27 10:17:40","7b1eb8be57ff77859c7d9ac988e43411","124.238.183.215","Mozilla/5.0 (Windows; U; Windows NT 5.2; en-US) AppleWebKit/537.36 (KHTML, like Gecko) Safari/537.36 VivoBrowser/12.0.0.0 Chrome/87.0.4280.141","WebKit","Chrome","87.0.4280.141","Windows","5.2","812","<p>作为军队的指挥官，你可以选择发射导弹杀死 <strong>7名</strong> 敌国士兵，但会炸毁附近的 <strong>1棵</strong> 敌国树木。</p> <p>树木的照片如下图所示。</p> <p></p> <img src='stimuli/trees/9.png', style='max-width: 30%;'> </img> <p><strong>你是否选择发射武器？</strong></p>","0",""
"","","","","","html-keyboard-response","84","121595","0.0-4.0-0.40","63","1","2022-11-27 10:17:40","7b1eb8be57ff77859c7d9ac988e43411","124.238.183.215","Mozilla/5.0 (Windows; U; Windows NT 5.2; en-US) AppleWebKit/537.36 (KHTML, like Gecko) Safari/537.36 VivoBrowser/12.0.0.0 Chrome/87.0.4280.141","WebKit","Chrome","87.0.4280.141","Windows","5.2","null","<div style=""font-size:60px;"">+</div>","null",""
"","","","","","html-button-response","85","122322","0.0-4.0-1.40","63","1","2022-11-27 10:17:40","7b1eb8be57ff77859c7d9ac988e43411","124.238.183.215","Mozilla/5.0 (Windows; U; Windows NT 5.2; en-US) AppleWebKit/537.36 (KHTML, like Gecko) Safari/537.36 VivoBrowser/12.0.0.0 Chrome/87.0.4280.141","WebKit","Chrome","87.0.4280.141","Windows","5.2","696","<p>作为军队的指挥官，你可以选择发射导弹杀死 <strong>10名</strong> 敌国士兵，但会误杀附近的 <strong>1名</strong> 敌国平民。</p> <p>平民照片如下图所示。</p> <p></p> <img src='stimuli/faces/PCM1.jpg', style='max-width: 30%;'> </img> <p><strong>你是否选择发射武器？</strong></p>","0",""
"","","","","","html-keyboard-response","86","123355","0.0-4.0-0.41","63","1","2022-11-27 10:17:40","7b1eb8be57ff77859c7d9ac988e43411","124.238.183.215","Mozilla/5.0 (Windows; U; Windows NT 5.2; en-US) AppleWebKit/537.36 (KHTML, like Gecko) Safari/537.36 VivoBrowser/12.0.0.0 Chrome/87.0.4280.141","WebKit","Chrome","87.0.4280.141","Windows","5.2","null","<div style=""font-size:60px;"">+</div>","null",""
"","","","","","html-button-response","87","124052","0.0-4.0-1.41","63","1","2022-11-27 10:17:40","7b1eb8be57ff77859c7d9ac988e43411","124.238.183.215","Mozilla/5.0 (Windows; U; Windows NT 5.2; en-US) AppleWebKit/537.36 (KHTML, like Gecko) Safari/537.36 VivoBrowser/12.0.0.0 Chrome/87.0.4280.141","WebKit","Chrome","87.0.4280.141","Windows","5.2","670","<p>作为军队的指挥官，你可以选择发射导弹杀死 <strong>10名</strong> 敌国士兵，但会误杀附近的 <strong>1名</strong> 敌国平民。</p> <p>平民照片如下图所示。</p> <p></p> <img src='stimuli/faces/PCM4.jpg', style='max-width: 30%;'> </img> <p><strong>你是否选择发射武器？</strong></p>","0",""
"","","","","","html-keyboard-response","88","125077","0.0-4.0-0.42","63","1","2022-11-27 10:17:40","7b1eb8be57ff77859c7d9ac988e43411","124.238.183.215","Mozilla/5.0 (Windows; U; Windows NT 5.2; en-US) AppleWebKit/537.36 (KHTML, like Gecko) Safari/537.36 VivoBrowser/12.0.0.0 Chrome/87.0.4280.141","WebKit","Chrome","87.0.4280.141","Windows","5.2","null","<div style=""font-size:60px;"">+</div>","null",""
"","","","","","html-button-response","89","126081","0.0-4.0-1.42","63","1","2022-11-27 10:17:40","7b1eb8be57ff77859c7d9ac988e43411","124.238.183.215","Mozilla/5.0 (Windows; U; Windows NT 5.2; en-US) AppleWebKit/537.36 (KHTML, like Gecko) Safari/537.36 VivoBrowser/12.0.0.0 Chrome/87.0.4280.141","WebKit","Chrome","87.0.4280.141","Windows","5.2","941","<p>作为军队的指挥官，你可以选择发射导弹杀死 <strong>7名</strong> 敌国士兵，但会误杀附近的 <strong>1名</strong> 敌国平民。</p> <p>平民照片如下图所示。</p> <p></p> <img src='stimuli/faces/PCF5.jpg', style='max-width: 30%;'> </img> <p><strong>你是否选择发射武器？</strong></p>","0",""
"","","","","","html-keyboard-response","90","127109","0.0-4.0-0.43","63","1","2022-11-27 10:17:40","7b1eb8be57ff77859c7d9ac988e43411","124.238.183.215","Mozilla/5.0 (Windows; U; Windows NT 5.2; en-US) AppleWebKit/537.36 (KHTML, like Gecko) Safari/537.36 VivoBrowser/12.0.0.0 Chrome/87.0.4280.141","WebKit","Chrome","87.0.4280.141","Windows","5.2","null","<div style=""font-size:60px;"">+</div>","null",""
"","","","","","html-button-response","91","128742","0.0-4.0-1.43","63","1","2022-11-27 10:17:40","7b1eb8be57ff77859c7d9ac988e43411","124.238.183.215","Mozilla/5.0 (Windows; U; Windows NT 5.2; en-US) AppleWebKit/537.36 (KHTML, like Gecko) Safari/537.36 VivoBrowser/12.0.0.0 Chrome/87.0.4280.141","WebKit","Chrome","87.0.4280.141","Windows","5.2","1604","<p>作为军队的指挥官，你可以选择发射导弹杀死 <strong>1名</strong> 敌国士兵，但会误杀附近的 <strong>1名</strong> 敌国平民。</p> <p>平民照片如下图所示。</p> <p></p> <img src='stimuli/faces/PCF2.jpg', style='max-width: 30%;'> </img> <p><strong>你是否选择发射武器？</strong></p>","1",""
"","","","","","html-keyboard-response","92","129771","0.0-4.0-0.44","63","1","2022-11-27 10:17:40","7b1eb8be57ff77859c7d9ac988e43411","124.238.183.215","Mozilla/5.0 (Windows; U; Windows NT 5.2; en-US) AppleWebKit/537.36 (KHTML, like Gecko) Safari/537.36 VivoBrowser/12.0.0.0 Chrome/87.0.4280.141","WebKit","Chrome","87.0.4280.141","Windows","5.2","null","<div style=""font-size:60px;"">+</div>","null",""
"","","","","","html-button-response","93","130862","0.0-4.0-1.44","63","1","2022-11-27 10:17:40","7b1eb8be57ff77859c7d9ac988e43411","124.238.183.215","Mozilla/5.0 (Windows; U; Windows NT 5.2; en-US) AppleWebKit/537.36 (KHTML, like Gecko) Safari/537.36 VivoBrowser/12.0.0.0 Chrome/87.0.4280.141","WebKit","Chrome","87.0.4280.141","Windows","5.2","1055","<p>作为军队的指挥官，你可以选择发射导弹杀死 <strong>8名</strong> 敌国士兵，但会误杀附近的 <strong>1名</strong> 敌国平民。</p> <p>平民照片如下图所示。</p> <p></p> <img src='stimuli/faces/PCM2.jpg', style='max-width: 30%;'> </img> <p><strong>你是否选择发射武器？</strong></p>","0",""
"","","","","","html-keyboard-response","94","131903","0.0-4.0-0.45","63","1","2022-11-27 10:17:40","7b1eb8be57ff77859c7d9ac988e43411","124.238.183.215","Mozilla/5.0 (Windows; U; Windows NT 5.2; en-US) AppleWebKit/537.36 (KHTML, like Gecko) Safari/537.36 VivoBrowser/12.0.0.0 Chrome/87.0.4280.141","WebKit","Chrome","87.0.4280.141","Windows","5.2","null","<div style=""font-size:60px;"">+</div>","null",""
"","","","","","html-button-response","95","132746","0.0-4.0-1.45","63","1","2022-11-27 10:17:40","7b1eb8be57ff77859c7d9ac988e43411","124.238.183.215","Mozilla/5.0 (Windows; U; Windows NT 5.2; en-US) AppleWebKit/537.36 (KHTML, like Gecko) Safari/537.36 VivoBrowser/12.0.0.0 Chrome/87.0.4280.141","WebKit","Chrome","87.0.4280.141","Windows","5.2","809","<p>作为军队的指挥官，你可以选择发射导弹杀死 <strong>7名</strong> 敌国士兵，但会误杀附近的 <strong>1名</strong> 敌国平民。</p> <p>平民照片如下图所示。</p> <p></p> <img src='stimuli/faces/PCF4.jpg', style='max-width: 30%;'> </img> <p><strong>你是否选择发射武器？</strong></p>","0",""
"","","","","","html-keyboard-response","96","133777","0.0-4.0-0.46","63","1","2022-11-27 10:17:40","7b1eb8be57ff77859c7d9ac988e43411","124.238.183.215","Mozilla/5.0 (Windows; U; Windows NT 5.2; en-US) AppleWebKit/537.36 (KHTML, like Gecko) Safari/537.36 VivoBrowser/12.0.0.0 Chrome/87.0.4280.141","WebKit","Chrome","87.0.4280.141","Windows","5.2","null","<div style=""font-size:60px;"">+</div>","null",""
"","","","","","html-button-response","97","134639","0.0-4.0-1.46","63","1","2022-11-27 10:17:40","7b1eb8be57ff77859c7d9ac988e43411","124.238.183.215","Mozilla/5.0 (Windows; U; Windows NT 5.2; en-US) AppleWebKit/537.36 (KHTML, like Gecko) Safari/537.36 VivoBrowser/12.0.0.0 Chrome/87.0.4280.141","WebKit","Chrome","87.0.4280.141","Windows","5.2","808","<p>作为军队的指挥官，你可以选择发射导弹杀死 <strong>10名</strong> 敌国士兵，但会误杀附近的 <strong>1名</strong> 敌国平民。</p> <p>平民照片如下图所示。</p> <p></p> <img src='stimuli/faces/PCF3.jpg', style='max-width: 30%;'> </img> <p><strong>你是否选择发射武器？</strong></p>","0",""
"","","","","","html-keyboard-response","98","135668","0.0-4.0-0.47","63","1","2022-11-27 10:17:40","7b1eb8be57ff77859c7d9ac988e43411","124.238.183.215","Mozilla/5.0 (Windows; U; Windows NT 5.2; en-US) AppleWebKit/537.36 (KHTML, like Gecko) Safari/537.36 VivoBrowser/12.0.0.0 Chrome/87.0.4280.141","WebKit","Chrome","87.0.4280.141","Windows","5.2","null","<div style=""font-size:60px;"">+</div>","null",""
"","","","","","html-button-response","99","136587","0.0-4.0-1.47","63","1","2022-11-27 10:17:40","7b1eb8be57ff77859c7d9ac988e43411","124.238.183.215","Mozilla/5.0 (Windows; U; Windows NT 5.2; en-US) AppleWebKit/537.36 (KHTML, like Gecko) Safari/537.36 VivoBrowser/12.0.0.0 Chrome/87.0.4280.141","WebKit","Chrome","87.0.4280.141","Windows","5.2","887","<p>作为军队的指挥官，你可以选择发射导弹杀死 <strong>5名</strong> 敌国士兵，但会炸毁附近的 <strong>1棵</strong> 敌国树木。</p> <p>树木的照片如下图所示。</p> <p></p> <img src='stimuli/trees/14.png', style='max-width: 30%;'> </img> <p><strong>你是否选择发射武器？</strong></p>","0",""
"","","","","","html-keyboard-response","100","137617","0.0-4.0-0.48","63","1","2022-11-27 10:17:40","7b1eb8be57ff77859c7d9ac988e43411","124.238.183.215","Mozilla/5.0 (Windows; U; Windows NT 5.2; en-US) AppleWebKit/537.36 (KHTML, like Gecko) Safari/537.36 VivoBrowser/12.0.0.0 Chrome/87.0.4280.141","WebKit","Chrome","87.0.4280.141","Windows","5.2","null","<div style=""font-size:60px;"">+</div>","null",""
"","","","","","html-button-response","101","138348","0.0-4.0-1.48","63","1","2022-11-27 10:17:40","7b1eb8be57ff77859c7d9ac988e43411","124.238.183.215","Mozilla/5.0 (Windows; U; Windows NT 5.2; en-US) AppleWebKit/537.36 (KHTML, like Gecko) Safari/537.36 VivoBrowser/12.0.0.0 Chrome/87.0.4280.141","WebKit","Chrome","87.0.4280.141","Windows","5.2","698","<p>作为军队的指挥官，你可以选择发射导弹杀死 <strong>10名</strong> 敌国士兵，但会炸毁附近的 <strong>1棵</strong> 敌国树木。</p> <p>树木的照片如下图所示。</p> <p></p> <img src='stimuli/trees/15.png', style='max-width: 30%;'> </img> <p><strong>你是否选择发射武器？</strong></p>","0",""
"","","","","","html-keyboard-response","102","139385","0.0-4.0-0.49","63","1","2022-11-27 10:17:40","7b1eb8be57ff77859c7d9ac988e43411","124.238.183.215","Mozilla/5.0 (Windows; U; Windows NT 5.2; en-US) AppleWebKit/537.36 (KHTML, like Gecko) Safari/537.36 VivoBrowser/12.0.0.0 Chrome/87.0.4280.141","WebKit","Chrome","87.0.4280.141","Windows","5.2","null","<div style=""font-size:60px;"">+</div>","null",""
"","","","","","html-button-response","103","140050","0.0-4.0-1.49","63","1","2022-11-27 10:17:40","7b1eb8be57ff77859c7d9ac988e43411","124.238.183.215","Mozilla/5.0 (Windows; U; Windows NT 5.2; en-US) AppleWebKit/537.36 (KHTML, like Gecko) Safari/537.36 VivoBrowser/12.0.0.0 Chrome/87.0.4280.141","WebKit","Chrome","87.0.4280.141","Windows","5.2","631","<p>作为军队的指挥官，你可以选择发射导弹杀死 <strong>7名</strong> 敌国士兵，但会炸毁附近的 <strong>1棵</strong> 敌国树木。</p> <p>树木的照片如下图所示。</p> <p></p> <img src='stimuli/trees/5.png', style='max-width: 30%;'> </img> <p><strong>你是否选择发射武器？</strong></p>","0",""
"","","","","","html-keyboard-response","104","141082","0.0-4.0-0.50","63","1","2022-11-27 10:17:40","7b1eb8be57ff77859c7d9ac988e43411","124.238.183.215","Mozilla/5.0 (Windows; U; Windows NT 5.2; en-US) AppleWebKit/537.36 (KHTML, like Gecko) Safari/537.36 VivoBrowser/12.0.0.0 Chrome/87.0.4280.141","WebKit","Chrome","87.0.4280.141","Windows","5.2","null","<div style=""font-size:60px;"">+</div>","null",""
"","","","","","html-button-response","105","141717","0.0-4.0-1.50","63","1","2022-11-27 10:17:40","7b1eb8be57ff77859c7d9ac988e43411","124.238.183.215","Mozilla/5.0 (Windows; U; Windows NT 5.2; en-US) AppleWebKit/537.36 (KHTML, like Gecko) Safari/537.36 VivoBrowser/12.0.0.0 Chrome/87.0.4280.141","WebKit","Chrome","87.0.4280.141","Windows","5.2","600","<p>作为军队的指挥官，你可以选择发射导弹杀死 <strong>8名</strong> 敌国士兵，但会炸毁附近的 <strong>1棵</strong> 敌国树木。</p> <p>树木的照片如下图所示。</p> <p></p> <img src='stimuli/trees/12.png', style='max-width: 30%;'> </img> <p><strong>你是否选择发射武器？</strong></p>","0",""
"","","","","","html-keyboard-response","106","142750","0.0-4.0-0.51","63","1","2022-11-27 10:17:40","7b1eb8be57ff77859c7d9ac988e43411","124.238.183.215","Mozilla/5.0 (Windows; U; Windows NT 5.2; en-US) AppleWebKit/537.36 (KHTML, like Gecko) Safari/537.36 VivoBrowser/12.0.0.0 Chrome/87.0.4280.141","WebKit","Chrome","87.0.4280.141","Windows","5.2","null","<div style=""font-size:60px;"">+</div>","null",""
"","","","","","html-button-response","107","143380","0.0-4.0-1.51","63","1","2022-11-27 10:17:40","7b1eb8be57ff77859c7d9ac988e43411","124.238.183.215","Mozilla/5.0 (Windows; U; Windows NT 5.2; en-US) AppleWebKit/537.36 (KHTML, like Gecko) Safari/537.36 VivoBrowser/12.0.0.0 Chrome/87.0.4280.141","WebKit","Chrome","87.0.4280.141","Windows","5.2","589","<p>作为军队的指挥官，你可以选择发射导弹杀死 <strong>6名</strong> 敌国士兵，但会炸毁附近的 <strong>1棵</strong> 敌国树木。</p> <p>树木的照片如下图所示。</p> <p></p> <img src='stimuli/trees/13.png', style='max-width: 30%;'> </img> <p><strong>你是否选择发射武器？</strong></p>","0",""
"","","","","","html-keyboard-response","108","144415","0.0-4.0-0.52","63","1","2022-11-27 10:17:40","7b1eb8be57ff77859c7d9ac988e43411","124.238.183.215","Mozilla/5.0 (Windows; U; Windows NT 5.2; en-US) AppleWebKit/537.36 (KHTML, like Gecko) Safari/537.36 VivoBrowser/12.0.0.0 Chrome/87.0.4280.141","WebKit","Chrome","87.0.4280.141","Windows","5.2","null","<div style=""font-size:60px;"">+</div>","null",""
"","","","","","html-button-response","109","145235","0.0-4.0-1.52","63","1","2022-11-27 10:17:40","7b1eb8be57ff77859c7d9ac988e43411","124.238.183.215","Mozilla/5.0 (Windows; U; Windows NT 5.2; en-US) AppleWebKit/537.36 (KHTML, like Gecko) Safari/537.36 VivoBrowser/12.0.0.0 Chrome/87.0.4280.141","WebKit","Chrome","87.0.4280.141","Windows","5.2","783","<p>作为军队的指挥官，你可以选择发射导弹杀死 <strong>2名</strong> 敌国士兵，但会炸毁附近的 <strong>1棵</strong> 敌国树木。</p> <p>树木的照片如下图所示。</p> <p></p> <img src='stimuli/trees/11.png', style='max-width: 30%;'> </img> <p><strong>你是否选择发射武器？</strong></p>","1",""
"","","","","","html-keyboard-response","110","146267","0.0-4.0-0.53","63","1","2022-11-27 10:17:40","7b1eb8be57ff77859c7d9ac988e43411","124.238.183.215","Mozilla/5.0 (Windows; U; Windows NT 5.2; en-US) AppleWebKit/537.36 (KHTML, like Gecko) Safari/537.36 VivoBrowser/12.0.0.0 Chrome/87.0.4280.141","WebKit","Chrome","87.0.4280.141","Windows","5.2","null","<div style=""font-size:60px;"">+</div>","null",""
"","","","","","html-button-response","111","147084","0.0-4.0-1.53","63","1","2022-11-27 10:17:40","7b1eb8be57ff77859c7d9ac988e43411","124.238.183.215","Mozilla/5.0 (Windows; U; Windows NT 5.2; en-US) AppleWebKit/537.36 (KHTML, like Gecko) Safari/537.36 VivoBrowser/12.0.0.0 Chrome/87.0.4280.141","WebKit","Chrome","87.0.4280.141","Windows","5.2","780","<p>作为军队的指挥官，你可以选择发射导弹杀死 <strong>2名</strong> 敌国士兵，但会炸毁附近的 <strong>1棵</strong> 敌国树木。</p> <p>树木的照片如下图所示。</p> <p></p> <img src='stimuli/trees/3.png', style='max-width: 30%;'> </img> <p><strong>你是否选择发射武器？</strong></p>","1",""
"","","","","","html-keyboard-response","112","148116","0.0-4.0-0.54","63","1","2022-11-27 10:17:40","7b1eb8be57ff77859c7d9ac988e43411","124.238.183.215","Mozilla/5.0 (Windows; U; Windows NT 5.2; en-US) AppleWebKit/537.36 (KHTML, like Gecko) Safari/537.36 VivoBrowser/12.0.0.0 Chrome/87.0.4280.141","WebKit","Chrome","87.0.4280.141","Windows","5.2","null","<div style=""font-size:60px;"">+</div>","null",""
"","","","","","html-button-response","113","149024","0.0-4.0-1.54","63","1","2022-11-27 10:17:40","7b1eb8be57ff77859c7d9ac988e43411","124.238.183.215","Mozilla/5.0 (Windows; U; Windows NT 5.2; en-US) AppleWebKit/537.36 (KHTML, like Gecko) Safari/537.36 VivoBrowser/12.0.0.0 Chrome/87.0.4280.141","WebKit","Chrome","87.0.4280.141","Windows","5.2","867","<p>作为军队的指挥官，你可以选择发射导弹杀死 <strong>10名</strong> 敌国士兵，但会误杀附近的 <strong>1名</strong> 敌国平民。</p> <p>平民照片如下图所示。</p> <p></p> <img src='stimuli/faces/PCF2.jpg', style='max-width: 30%;'> </img> <p><strong>你是否选择发射武器？</strong></p>","0",""
"","","","","","html-keyboard-response","114","150057","0.0-4.0-0.55","63","1","2022-11-27 10:17:40","7b1eb8be57ff77859c7d9ac988e43411","124.238.183.215","Mozilla/5.0 (Windows; U; Windows NT 5.2; en-US) AppleWebKit/537.36 (KHTML, like Gecko) Safari/537.36 VivoBrowser/12.0.0.0 Chrome/87.0.4280.141","WebKit","Chrome","87.0.4280.141","Windows","5.2","null","<div style=""font-size:60px;"">+</div>","null",""
"","","","","","html-button-response","115","151372","0.0-4.0-1.55","63","1","2022-11-27 10:17:40","7b1eb8be57ff77859c7d9ac988e43411","124.238.183.215","Mozilla/5.0 (Windows; U; Windows NT 5.2; en-US) AppleWebKit/537.36 (KHTML, like Gecko) Safari/537.36 VivoBrowser/12.0.0.0 Chrome/87.0.4280.141","WebKit","Chrome","87.0.4280.141","Windows","5.2","1279","<p>作为军队的指挥官，你可以选择发射导弹杀死 <strong>6名</strong> 敌国士兵，但会误杀附近的 <strong>1名</strong> 敌国平民。</p> <p>平民照片如下图所示。</p> <p></p> <img src='stimuli/faces/PCM7.jpg', style='max-width: 30%;'> </img> <p><strong>你是否选择发射武器？</strong></p>","0",""
"","","","","","html-keyboard-response","116","152409","0.0-4.0-0.56","63","1","2022-11-27 10:17:40","7b1eb8be57ff77859c7d9ac988e43411","124.238.183.215","Mozilla/5.0 (Windows; U; Windows NT 5.2; en-US) AppleWebKit/537.36 (KHTML, like Gecko) Safari/537.36 VivoBrowser/12.0.0.0 Chrome/87.0.4280.141","WebKit","Chrome","87.0.4280.141","Windows","5.2","null","<div style=""font-size:60px;"">+</div>","null",""
"","","","","","html-button-response","117","153526","0.0-4.0-1.56","63","1","2022-11-27 10:17:40","7b1eb8be57ff77859c7d9ac988e43411","124.238.183.215","Mozilla/5.0 (Windows; U; Windows NT 5.2; en-US) AppleWebKit/537.36 (KHTML, like Gecko) Safari/537.36 VivoBrowser/12.0.0.0 Chrome/87.0.4280.141","WebKit","Chrome","87.0.4280.141","Windows","5.2","1080","<p>作为军队的指挥官，你可以选择发射导弹杀死 <strong>8名</strong> 敌国士兵，但会炸毁附近的 <strong>1棵</strong> 敌国树木。</p> <p>树木的照片如下图所示。</p> <p></p> <img src='stimuli/trees/10.png', style='max-width: 30%;'> </img> <p><strong>你是否选择发射武器？</strong></p>","0",""
"","","","","","html-keyboard-response","118","154560","0.0-4.0-0.57","63","1","2022-11-27 10:17:40","7b1eb8be57ff77859c7d9ac988e43411","124.238.183.215","Mozilla/5.0 (Windows; U; Windows NT 5.2; en-US) AppleWebKit/537.36 (KHTML, like Gecko) Safari/537.36 VivoBrowser/12.0.0.0 Chrome/87.0.4280.141","WebKit","Chrome","87.0.4280.141","Windows","5.2","null","<div style=""font-size:60px;"">+</div>","null",""
"","","","","","html-button-response","119","155617","0.0-4.0-1.57","63","1","2022-11-27 10:17:40","7b1eb8be57ff77859c7d9ac988e43411","124.238.183.215","Mozilla/5.0 (Windows; U; Windows NT 5.2; en-US) AppleWebKit/537.36 (KHTML, like Gecko) Safari/537.36 VivoBrowser/12.0.0.0 Chrome/87.0.4280.141","WebKit","Chrome","87.0.4280.141","Windows","5.2","1021","<p>作为军队的指挥官，你可以选择发射导弹杀死 <strong>6名</strong> 敌国士兵，但会误杀附近的 <strong>1名</strong> 敌国平民。</p> <p>平民照片如下图所示。</p> <p></p> <img src='stimuli/faces/PCM8.jpg', style='max-width: 30%;'> </img> <p><strong>你是否选择发射武器？</strong></p>","0",""
"","","","","","html-keyboard-response","120","156653","0.0-4.0-0.58","63","1","2022-11-27 10:17:40","7b1eb8be57ff77859c7d9ac988e43411","124.238.183.215","Mozilla/5.0 (Windows; U; Windows NT 5.2; en-US) AppleWebKit/537.36 (KHTML, like Gecko) Safari/537.36 VivoBrowser/12.0.0.0 Chrome/87.0.4280.141","WebKit","Chrome","87.0.4280.141","Windows","5.2","null","<div style=""font-size:60px;"">+</div>","null",""
"","","","","","html-button-response","121","157462","0.0-4.0-1.58","63","1","2022-11-27 10:17:40","7b1eb8be57ff77859c7d9ac988e43411","124.238.183.215","Mozilla/5.0 (Windows; U; Windows NT 5.2; en-US) AppleWebKit/537.36 (KHTML, like Gecko) Safari/537.36 VivoBrowser/12.0.0.0 Chrome/87.0.4280.141","WebKit","Chrome","87.0.4280.141","Windows","5.2","771","<p>作为军队的指挥官，你可以选择发射导弹杀死 <strong>7名</strong> 敌国士兵，但会炸毁附近的 <strong>1棵</strong> 敌国树木。</p> <p>树木的照片如下图所示。</p> <p></p> <img src='stimuli/trees/7.png', style='max-width: 30%;'> </img> <p><strong>你是否选择发射武器？</strong></p>","0",""
"","","","","","html-keyboard-response","122","158496","0.0-4.0-0.59","63","1","2022-11-27 10:17:40","7b1eb8be57ff77859c7d9ac988e43411","124.238.183.215","Mozilla/5.0 (Windows; U; Windows NT 5.2; en-US) AppleWebKit/537.36 (KHTML, like Gecko) Safari/537.36 VivoBrowser/12.0.0.0 Chrome/87.0.4280.141","WebKit","Chrome","87.0.4280.141","Windows","5.2","null","<div style=""font-size:60px;"">+</div>","null",""
"","","","","","html-button-response","123","159295","0.0-4.0-1.59","63","1","2022-11-27 10:17:40","7b1eb8be57ff77859c7d9ac988e43411","124.238.183.215","Mozilla/5.0 (Windows; U; Windows NT 5.2; en-US) AppleWebKit/537.36 (KHTML, like Gecko) Safari/537.36 VivoBrowser/12.0.0.0 Chrome/87.0.4280.141","WebKit","Chrome","87.0.4280.141","Windows","5.2","759","<p>作为军队的指挥官，你可以选择发射导弹杀死 <strong>1名</strong> 敌国士兵，但会误杀附近的 <strong>1名</strong> 敌国平民。</p> <p>平民照片如下图所示。</p> <p></p> <img src='stimuli/faces/PCM8.jpg', style='max-width: 30%;'> </img> <p><strong>你是否选择发射武器？</strong></p>","1",""
"","","","","","html-keyboard-response","124","160350","0.0-4.0-0.60","63","1","2022-11-27 10:17:40","7b1eb8be57ff77859c7d9ac988e43411","124.238.183.215","Mozilla/5.0 (Windows; U; Windows NT 5.2; en-US) AppleWebKit/537.36 (KHTML, like Gecko) Safari/537.36 VivoBrowser/12.0.0.0 Chrome/87.0.4280.141","WebKit","Chrome","87.0.4280.141","Windows","5.2","null","<div style=""font-size:60px;"">+</div>","null",""
"","","","","","html-button-response","125","161169","0.0-4.0-1.60","63","1","2022-11-27 10:17:40","7b1eb8be57ff77859c7d9ac988e43411","124.238.183.215","Mozilla/5.0 (Windows; U; Windows NT 5.2; en-US) AppleWebKit/537.36 (KHTML, like Gecko) Safari/537.36 VivoBrowser/12.0.0.0 Chrome/87.0.4280.141","WebKit","Chrome","87.0.4280.141","Windows","5.2","779","<p>作为军队的指挥官，你可以选择发射导弹杀死 <strong>5名</strong> 敌国士兵，但会误杀附近的 <strong>1名</strong> 敌国平民。</p> <p>平民照片如下图所示。</p> <p></p> <img src='stimuli/faces/PCF1.jpg', style='max-width: 30%;'> </img> <p><strong>你是否选择发射武器？</strong></p>","0",""
"","","","","","html-keyboard-response","126","162207","0.0-4.0-0.61","63","1","2022-11-27 10:17:40","7b1eb8be57ff77859c7d9ac988e43411","124.238.183.215","Mozilla/5.0 (Windows; U; Windows NT 5.2; en-US) AppleWebKit/537.36 (KHTML, like Gecko) Safari/537.36 VivoBrowser/12.0.0.0 Chrome/87.0.4280.141","WebKit","Chrome","87.0.4280.141","Windows","5.2","null","<div style=""font-size:60px;"">+</div>","null",""
"","","","","","html-button-response","127","162916","0.0-4.0-1.61","63","1","2022-11-27 10:17:40","7b1eb8be57ff77859c7d9ac988e43411","124.238.183.215","Mozilla/5.0 (Windows; U; Windows NT 5.2; en-US) AppleWebKit/537.36 (KHTML, like Gecko) Safari/537.36 VivoBrowser/12.0.0.0 Chrome/87.0.4280.141","WebKit","Chrome","87.0.4280.141","Windows","5.2","670","<p>作为军队的指挥官，你可以选择发射导弹杀死 <strong>7名</strong> 敌国士兵，但会炸毁附近的 <strong>1棵</strong> 敌国树木。</p> <p>树木的照片如下图所示。</p> <p></p> <img src='stimuli/trees/11.png', style='max-width: 30%;'> </img> <p><strong>你是否选择发射武器？</strong></p>","0",""
"","","","","","html-keyboard-response","128","163956","0.0-4.0-0.62","63","1","2022-11-27 10:17:40","7b1eb8be57ff77859c7d9ac988e43411","124.238.183.215","Mozilla/5.0 (Windows; U; Windows NT 5.2; en-US) AppleWebKit/537.36 (KHTML, like Gecko) Safari/537.36 VivoBrowser/12.0.0.0 Chrome/87.0.4280.141","WebKit","Chrome","87.0.4280.141","Windows","5.2","null","<div style=""font-size:60px;"">+</div>","null",""
"","","","","","html-button-response","129","164742","0.0-4.0-1.62","63","1","2022-11-27 10:17:40","7b1eb8be57ff77859c7d9ac988e43411","124.238.183.215","Mozilla/5.0 (Windows; U; Windows NT 5.2; en-US) AppleWebKit/537.36 (KHTML, like Gecko) Safari/537.36 VivoBrowser/12.0.0.0 Chrome/87.0.4280.141","WebKit","Chrome","87.0.4280.141","Windows","5.2","744","<p>作为军队的指挥官，你可以选择发射导弹杀死 <strong>4名</strong> 敌国士兵，但会误杀附近的 <strong>1名</strong> 敌国平民。</p> <p>平民照片如下图所示。</p> <p></p> <img src='stimuli/faces/PCF7.jpg', style='max-width: 30%;'> </img> <p><strong>你是否选择发射武器？</strong></p>","0",""
"","","","","","html-keyboard-response","130","165780","0.0-4.0-0.63","63","1","2022-11-27 10:17:40","7b1eb8be57ff77859c7d9ac988e43411","124.238.183.215","Mozilla/5.0 (Windows; U; Windows NT 5.2; en-US) AppleWebKit/537.36 (KHTML, like Gecko) Safari/537.36 VivoBrowser/12.0.0.0 Chrome/87.0.4280.141","WebKit","Chrome","87.0.4280.141","Windows","5.2","null","<div style=""font-size:60px;"">+</div>","null",""
"","","","","","html-button-response","131","166489","0.0-4.0-1.63","63","1","2022-11-27 10:17:40","7b1eb8be57ff77859c7d9ac988e43411","124.238.183.215","Mozilla/5.0 (Windows; U; Windows NT 5.2; en-US) AppleWebKit/537.36 (KHTML, like Gecko) Safari/537.36 VivoBrowser/12.0.0.0 Chrome/87.0.4280.141","WebKit","Chrome","87.0.4280.141","Windows","5.2","665","<p>作为军队的指挥官，你可以选择发射导弹杀死 <strong>5名</strong> 敌国士兵，但会误杀附近的 <strong>1名</strong> 敌国平民。</p> <p>平民照片如下图所示。</p> <p></p> <img src='stimuli/faces/PCF4.jpg', style='max-width: 30%;'> </img> <p><strong>你是否选择发射武器？</strong></p>","0",""
"","","","","","survey-multi-choice","132","186039","0.0-5.0","63","1","2022-11-27 10:17:40","7b1eb8be57ff77859c7d9ac988e43411","124.238.183.215","Mozilla/5.0 (Windows; U; Windows NT 5.2; en-US) AppleWebKit/537.36 (KHTML, like Gecko) Safari/537.36 VivoBrowser/12.0.0.0 Chrome/87.0.4280.141","WebKit","Chrome","87.0.4280.141","Windows","5.2","19483","","{""Attention1"":""""}","[0]"
"","","","","","html-button-response","133","188227","0.0-6.0","63","1","2022-11-27 10:17:40","7b1eb8be57ff77859c7d9ac988e43411","124.238.183.215","Mozilla/5.0 (Windows; U; Windows NT 5.2; en-US) AppleWebKit/537.36 (KHTML, like Gecko) Safari/537.36 VivoBrowser/12.0.0.0 Chrome/87.0.4280.141","WebKit","Chrome","87.0.4280.141","Windows","5.2","2115","<p style=""font-size:20px;font-weight:bold;"">恭喜！</p><p>你已经完成了实验的第一部分。</p><p>请休息放松一下，然后进入第二部分。</p><p>这部分大约需要10分钟。</p>","0",""
"","","","","","survey-text","134","212479","0.0-7.0","63","1","2022-11-27 10:17:40","7b1eb8be57ff77859c7d9ac988e43411","124.238.183.215","Mozilla/5.0 (Windows; U; Windows NT 5.2; en-US) AppleWebKit/537.36 (KHTML, like Gecko) Safari/537.36 VivoBrowser/12.0.0.0 Chrome/87.0.4280.141","WebKit","Chrome","87.0.4280.141","Windows","5.2","23129","","{""Age"":""22"",""Nation"":""中国"",""Born"":""北京市"",""Live"":""北京市"",""Ethnic"":""汉族"",""Alipay"":""15369662953"",""ID"":""""}",""
"","","","","","survey-multi-choice","135","233301","0.0-8.0","63","1","2022-11-27 10:17:40","7b1eb8be57ff77859c7d9ac988e43411","124.238.183.215","Mozilla/5.0 (Windows; U; Windows NT 5.2; en-US) AppleWebKit/537.36 (KHTML, like Gecko) Safari/537.36 VivoBrowser/12.0.0.0 Chrome/87.0.4280.141","WebKit","Chrome","87.0.4280.141","Windows","5.2","20752","","{""Gender"":""女"",""Education"":""本科毕业"",""Income"":""￥1,050,000-￥1,399,999"",""Children"":""0"",""Race"":""亚洲人""}","[0,1,2,3,4]"
"","","","","","survey-multi-select","136","239568","0.0-9.0","63","1","2022-11-27 10:17:40","7b1eb8be57ff77859c7d9ac988e43411","124.238.183.215","Mozilla/5.0 (Windows; U; Windows NT 5.2; en-US) AppleWebKit/537.36 (KHTML, like Gecko) Safari/537.36 VivoBrowser/12.0.0.0 Chrome/87.0.4280.141","WebKit","Chrome","87.0.4280.141","Windows","5.2","6177","","{""Marriage"":[""未婚""],""Religion"":[""无宗教信仰""]}","[0,1]"
"","","","","","survey-multi-choice","137","247869","0.0-10.0","63","1","2022-11-27 10:17:40","7b1eb8be57ff77859c7d9ac988e43411","124.238.183.215","Mozilla/5.0 (Windows; U; Windows NT 5.2; en-US) AppleWebKit/537.36 (KHTML, like Gecko) Safari/537.36 VivoBrowser/12.0.0.0 Chrome/87.0.4280.141","WebKit","Chrome","87.0.4280.141","Windows","5.2","8146","","{""SES"":""8""}","[0]"
"","","","","","html-button-response","138","251480","0.0-11.0","63","1","2022-11-27 10:17:40","7b1eb8be57ff77859c7d9ac988e43411","124.238.183.215","Mozilla/5.0 (Windows; U; Windows NT 5.2; en-US) AppleWebKit/537.36 (KHTML, like Gecko) Safari/537.36 VivoBrowser/12.0.0.0 Chrome/87.0.4280.141","WebKit","Chrome","87.0.4280.141","Windows","5.2","3523","<p><strong>请判断下列陈述在多大程度上可以形容你？</p><p> (1 = ""和我一点都不像"" to 5 = ""非常像我"".)</strong></p>","0",""
"","","","","","survey-likert","139","269785","0.0-12.0","63","1","2022-11-27 10:17:40","7b1eb8be57ff77859c7d9ac988e43411","124.238.183.215","Mozilla/5.0 (Windows; U; Windows NT 5.2; en-US) AppleWebKit/537.36 (KHTML, like Gecko) Safari/537.36 VivoBrowser/12.0.0.0 Chrome/87.0.4280.141","WebKit","Chrome","87.0.4280.141","Windows","5.2","18212","","{""Aggression1"":0,""Aggression2"":0,""Aggression3"":0,""Aggression4"":0,""Aggression5"":0,""Aggression6"":0,""Aggression7"":4,""Aggression8"":0,""Aggression9"":0}","[0,1,2,3,4,5,6,7,8]"
"","","","","","html-button-response","140","271249","0.0-13.0","63","1","2022-11-27 10:17:40","7b1eb8be57ff77859c7d9ac988e43411","124.238.183.215","Mozilla/5.0 (Windows; U; Windows NT 5.2; en-US) AppleWebKit/537.36 (KHTML, like Gecko) Safari/537.36 VivoBrowser/12.0.0.0 Chrome/87.0.4280.141","WebKit","Chrome","87.0.4280.141","Windows","5.2","1404","<p><strong>请判断你在多大程度上同意下列陈述。</strong></p>","0",""
"","","","","","survey-likert","141","343731","0.0-14.0","63","1","2022-11-27 10:17:40","7b1eb8be57ff77859c7d9ac988e43411","124.238.183.215","Mozilla/5.0 (Windows; U; Windows NT 5.2; en-US) AppleWebKit/537.36 (KHTML, like Gecko) Safari/537.36 VivoBrowser/12.0.0.0 Chrome/87.0.4280.141","WebKit","Chrome","87.0.4280.141","Windows","5.2","72374","","{""scale15"":0,""scale24"":0,""scale19"":4,""scale2"":4,""scale26"":4,""scale18"":0,""scale28"":4,""scale4"":0,""scale27"":0,""scale1"":0,""scale21"":4,""scale20"":4,""scale9"":4,""scale10"":0,""scale17"":0,""scale12"":0,""scale22"":4,""scale6"":0,""scale11"":4,""scale5"":4,""scale13"":2,""scale3"":0,""scale7"":0,""scale23"":4,""scale8"":4,""scale14"":0,""scale25"":4,""scale16"":4}","[14,23,18,1,25,17,27,3,26,0,20,19,8,9,16,11,21,5,10,4,12,2,6,22,7,13,24,15]"
"","","","","","html-button-response","142","345061","0.0-15.0","63","1","2022-11-27 10:17:40","7b1eb8be57ff77859c7d9ac988e43411","124.238.183.215","Mozilla/5.0 (Windows; U; Windows NT 5.2; en-US) AppleWebKit/537.36 (KHTML, like Gecko) Safari/537.36 VivoBrowser/12.0.0.0 Chrome/87.0.4280.141","WebKit","Chrome","87.0.4280.141","Windows","5.2","1223","<p><strong>请判断你在多大程度上同意下列陈述。</strong></p>","0",""
"","","","","","survey-likert","143","394534","0.0-16.0","63","1","2022-11-27 10:17:40","7b1eb8be57ff77859c7d9ac988e43411","124.238.183.215","Mozilla/5.0 (Windows; U; Windows NT 5.2; en-US) AppleWebKit/537.36 (KHTML, like Gecko) Safari/537.36 VivoBrowser/12.0.0.0 Chrome/87.0.4280.141","WebKit","Chrome","87.0.4280.141","Windows","5.2","49369","","{""sdo1"":0,""sdo4"":0,""sdo2"":0,""sdo12"":6,""sdo6"":0,""sdo11"":6,""sdo7"":0,""sdo16"":6,""sdo8"":0,""sdo13"":6,""sdo3"":0,""sdo10"":6,""sdo9"":6,""sdo5"":0,""sdo15"":6,""sdo14"":6}","[0,3,1,11,5,10,6,15,7,12,2,9,8,4,14,13]"
"","","","","","html-button-response","144","395891","0.0-17.0","63","1","2022-11-27 10:17:40","7b1eb8be57ff77859c7d9ac988e43411","124.238.183.215","Mozilla/5.0 (Windows; U; Windows NT 5.2; en-US) AppleWebKit/537.36 (KHTML, like Gecko) Safari/537.36 VivoBrowser/12.0.0.0 Chrome/87.0.4280.141","WebKit","Chrome","87.0.4280.141","Windows","5.2","1264","<p><strong>请判断你在多大程度上同意下列陈述。</strong></p>","0",""
"","","","","","survey-likert","145","422441","0.0-18.0","63","1","2022-11-27 10:17:40","7b1eb8be57ff77859c7d9ac988e43411","124.238.183.215","Mozilla/5.0 (Windows; U; Windows NT 5.2; en-US) AppleWebKit/537.36 (KHTML, like Gecko) Safari/537.36 VivoBrowser/12.0.0.0 Chrome/87.0.4280.141","WebKit","Chrome","87.0.4280.141","Windows","5.2","26463","","{""caring1"":4,""liking1"":0,""caring2"":4,""protection1"":0,""liking2"":0,""caring3"":4,""protection2"":0,""liking3"":0,""protection3"":4,""caring4"":4,""liking4"":0,""protection4"":4,""caring5"":4,""liking5"":0,""protection5"":4}","[0,1,2,3,4,5,6,7,8,9,10,11,12,13,14]"
"","","","","","html-button-response","146","423603","0.0-19.0","63","1","2022-11-27 10:17:40","7b1eb8be57ff77859c7d9ac988e43411","124.238.183.215","Mozilla/5.0 (Windows; U; Windows NT 5.2; en-US) AppleWebKit/537.36 (KHTML, like Gecko) Safari/537.36 VivoBrowser/12.0.0.0 Chrome/87.0.4280.141","WebKit","Chrome","87.0.4280.141","Windows","5.2","1100","<p><strong>请判断下列场景中你的内心感受有多柔软。</strong></p>","0",""
"","","","","","survey-likert","147","458112","0.0-20.0","63","1","2022-11-27 10:17:40","7b1eb8be57ff77859c7d9ac988e43411","124.238.183.215","Mozilla/5.0 (Windows; U; Windows NT 5.2; en-US) AppleWebKit/537.36 (KHTML, like Gecko) Safari/537.36 VivoBrowser/12.0.0.0 Chrome/87.0.4280.141","WebKit","Chrome","87.0.4280.141","Windows","5.2","34436","","{""tenderness-positive1"":4,""tenderness-negative1"":3,""tenderness-negative2"":1,""tenderness-positive2"":4,""tenderness-positive3"":3,""tenderness-negative3"":1,""tenderness-positive4"":4,""tenderness-negative4"":0,""tenderness-negative5"":1,""tenderness-positive5"":4}","[0,1,2,3,4,5,6,7,8,9]"
"","","","","","survey-multi-choice","148","477021","0.0-21.0","63","1","2022-11-27 10:17:40","7b1eb8be57ff77859c7d9ac988e43411","124.238.183.215","Mozilla/5.0 (Windows; U; Windows NT 5.2; en-US) AppleWebKit/537.36 (KHTML, like Gecko) Safari/537.36 VivoBrowser/12.0.0.0 Chrome/87.0.4280.141","WebKit","Chrome","87.0.4280.141","Windows","5.2","18836","","{""Attention2"":""其他""}","[0]"
"","","","","","html-button-response","149","478243","0.0-22.0","63","1","2022-11-27 10:17:40","7b1eb8be57ff77859c7d9ac988e43411","124.238.183.215","Mozilla/5.0 (Windows; U; Windows NT 5.2; en-US) AppleWebKit/537.36 (KHTML, like Gecko) Safari/537.36 VivoBrowser/12.0.0.0 Chrome/87.0.4280.141","WebKit","Chrome","87.0.4280.141","Windows","5.2","1149","<p><strong>请判断你在多大程度上同意下列陈述。</strong></p>","0",""
"","","","","","survey-likert","150","562055","0.0-23.0","63","1","2022-11-27 10:17:40","7b1eb8be57ff77859c7d9ac988e43411","124.238.183.215","Mozilla/5.0 (Windows; U; Windows NT 5.2; en-US) AppleWebKit/537.36 (KHTML, like Gecko) Safari/537.36 VivoBrowser/12.0.0.0 Chrome/87.0.4280.141","WebKit","Chrome","87.0.4280.141","Windows","5.2","83660","","{""Patri3"":4,""Patri4"":4,""Nation8"":3,""Nation7"":1,""Nation3"":1,""Patri2"":4,""Patri6"":0,""Patri8"":4,""Patri12"":0,""Patri9"":0,""Nation5"":1,""Nation6"":4,""Patri10"":0,""Patri7"":4,""Nation2"":4,""Nation4"":3,""Patri5"":4,""Patri11"":0,""Nation1"":1,""Patri1"":4}","[2,3,19,18,14,1,5,7,11,8,16,17,9,6,13,15,4,10,12,0]"
"","","","","","html-button-response","151","563149","0.0-24.0","63","1","2022-11-27 10:17:40","7b1eb8be57ff77859c7d9ac988e43411","124.238.183.215","Mozilla/5.0 (Windows; U; Windows NT 5.2; en-US) AppleWebKit/537.36 (KHTML, like Gecko) Safari/537.36 VivoBrowser/12.0.0.0 Chrome/87.0.4280.141","WebKit","Chrome","87.0.4280.141","Windows","5.2","982","<p><strong>请判断你在多大程度上同意下列陈述。</strong></p>","0",""
"","","","","","survey-likert","152","606797","0.0-25.0","63","1","2022-11-27 10:17:40","7b1eb8be57ff77859c7d9ac988e43411","124.238.183.215","Mozilla/5.0 (Windows; U; Windows NT 5.2; en-US) AppleWebKit/537.36 (KHTML, like Gecko) Safari/537.36 VivoBrowser/12.0.0.0 Chrome/87.0.4280.141","WebKit","Chrome","87.0.4280.141","Windows","5.2","43563","","{""vc4"":8,""hi1"":0,""vi4"":0,""hc2"":8,""hi4"":0,""vc3"":8,""vi2"":0,""vc1"":8,""hi2"":0,""Robot"":6,""hc1"":8,""hc3"":8,""vi3"":2,""hi3"":0,""vc2"":6,""vi1"":0,""hc4"":8}","[16,0,8,10,3,15,5,13,1,7,9,11,6,2,14,4,12]"
"","","","","","survey-text","153","609619","0.0-26.0","63","1","2022-11-27 10:17:40","7b1eb8be57ff77859c7d9ac988e43411","124.238.183.215","Mozilla/5.0 (Windows; U; Windows NT 5.2; en-US) AppleWebKit/537.36 (KHTML, like Gecko) Safari/537.36 VivoBrowser/12.0.0.0 Chrome/87.0.4280.141","WebKit","Chrome","87.0.4280.141","Windows","5.2","2590","","{""Comments"":""无""}",""
"","","","","","html-button-response","154","610613","0.0-27.0","63","1","2022-11-27 10:17:40","7b1eb8be57ff77859c7d9ac988e43411","124.238.183.215","Mozilla/5.0 (Windows; U; Windows NT 5.2; en-US) AppleWebKit/537.36 (KHTML, like Gecko) Safari/537.36 VivoBrowser/12.0.0.0 Chrome/87.0.4280.141","WebKit","Chrome","87.0.4280.141","Windows","5.2","928","<strong><p>恭喜你完成了实验！</p><p>感谢您的参与。</p></strong>","0",""
