"success","timeout","failed_images","failed_audio","failed_video","trial_type","trial_index","time_elapsed","internal_node_id","run_id","condition","recorded_at","source_code_version","ip","user_agent","device","browser","browser_version","platform","platform_version","rt","stimulus","response","question_order"
"true","false","[]","[]","[]","preload","0","28973","0.0-0.0","70","1","2022-11-27 10:42:41","7b1eb8be57ff77859c7d9ac988e43411","114.249.63.150","Mozilla/5.0 (Macintosh; Intel Mac OS X 10_15_7) AppleWebKit/537.36 (KHTML, like Gecko) Chrome/107.0.0.0 Safari/537.36","Macintosh","Chrome","107.0.0.0","OS X","10_15_7","","","",""
"true","","","","","fullscreen","1","2819257","0.0-1.0","70","1","2022-11-27 10:42:41","7b1eb8be57ff77859c7d9ac988e43411","114.249.63.150","Mozilla/5.0 (Macintosh; Intel Mac OS X 10_15_7) AppleWebKit/537.36 (KHTML, like Gecko) Chrome/107.0.0.0 Safari/537.36","Macintosh","Chrome","107.0.0.0","OS X","10_15_7","","","",""
"","","","","","html-button-response","2","2850956","0.0-2.0","70","1","2022-11-27 10:42:41","7b1eb8be57ff77859c7d9ac988e43411","114.249.63.150","Mozilla/5.0 (Macintosh; Intel Mac OS X 10_15_7) AppleWebKit/537.36 (KHTML, like Gecko) Chrome/107.0.0.0 Safari/537.36","Macintosh","Chrome","107.0.0.0","OS X","10_15_7","31696","<p style=""font-size:20px;font-weight:bold;"">实验知情同意书</p><p style=""text-align:left;""><strong>实验名称：</strong>社会冲突研究</p><p style=""text-align:left;""><strong>主要研究者：</strong>韩晓春副教授（北京师范大学心理学部）</p><p style=""text-align:left;""><strong>联系方式：</strong>发送邮件至xiaochun.han@bnu.edu.cn</p><p style=""text-align:left;""><strong>研究目的：</strong>研究旨在了解人类面对群体冲突时的决策方式，以及相关的心理学特质。实验调查大约需要20分钟。</p><p style=""text-align:left;""><strong>实验流程：</strong>实验包含两部分。第一部分呈现一系列群体冲突场景，请你决定如何对这些冲突进行反应，大约需要10分钟完成。第二部分包含一系列人口统计学信息收集和心理学问卷，大约需要10分钟完成。</p><p style=""text-align:left;""><strong>参加及退出规则：</strong>参加本实验完全取决于您的个人意愿。在参与过程中，您可以随时退出，并且不用承担任何后果。</p><p style=""text-align:left;""><strong>隐私：</strong>本实验完全匿名进行，不会收集您的姓名或其他能够识别您身份的信息。实验中收集的作答仅用作科学研究使用，可能会在学术期刊/书籍上发表，或者用于教学，您的数据未来可能会和其他研究者或实验室分享，但您的个人身份不会被识别。</p><p style=""text-align:left;""><strong>实验报酬：</strong>实验完成后，您将获得15元人民币报酬，以感谢您的时间和努力。调查问卷中包含几道题目用以测验您作答时的认真度。只有完成全部实验，并且正确回答认真度测验的被试才能获得实验报酬。实验报酬将通过支付宝转账发放。</p><p style=""text-align:left;font-size:20px;""><strong>如果您同意以上实验知情同意书的内容，请点击'同意并且开始实验'按钮；否则请关闭浏览器界面，退出实验。</strong></p>","0",""
"","","","","","html-button-response","3","2885082","0.0-3.0","70","1","2022-11-27 10:42:41","7b1eb8be57ff77859c7d9ac988e43411","114.249.63.150","Mozilla/5.0 (Macintosh; Intel Mac OS X 10_15_7) AppleWebKit/537.36 (KHTML, like Gecko) Chrome/107.0.0.0 Safari/537.36","Macintosh","Chrome","107.0.0.0","OS X","10_15_7","34123","<p ><strong>实验任务一：</strong></p><p>请想象你的国家与另一个国家发生了军事冲突。</p><p>你是国家军队的指挥官，你将如何在冲突中进行决策。</p><p>具体来说，作为军队指挥官，请你决定是否发射导弹进行打击。</p><p>接下来，你会面对一系列场景，请仔细阅读每个场景，然后进行决策。</p><p>这部分实验任务大约需要10分钟。</p><p><strong>实验过程中，请集中注意力。</strong></p>","0",""
"","","","","","html-keyboard-response","4","2886085","0.0-4.0-0.0","70","1","2022-11-27 10:42:41","7b1eb8be57ff77859c7d9ac988e43411","114.249.63.150","Mozilla/5.0 (Macintosh; Intel Mac OS X 10_15_7) AppleWebKit/537.36 (KHTML, like Gecko) Chrome/107.0.0.0 Safari/537.36","Macintosh","Chrome","107.0.0.0","OS X","10_15_7","null","<div style=""font-size:60px;"">+</div>","null",""
"","","","","","html-button-response","5","2905403","0.0-4.0-1.0","70","1","2022-11-27 10:42:41","7b1eb8be57ff77859c7d9ac988e43411","114.249.63.150","Mozilla/5.0 (Macintosh; Intel Mac OS X 10_15_7) AppleWebKit/537.36 (KHTML, like Gecko) Chrome/107.0.0.0 Safari/537.36","Macintosh","Chrome","107.0.0.0","OS X","10_15_7","19313","<p>作为军队的指挥官，你可以选择发射导弹杀死 <strong>3名</strong> 敌国士兵，但会炸毁附近的 <strong>1棵</strong> 敌国树木。</p> <p>树木的照片如下图所示。</p> <p></p> <img src='stimuli/trees/5.png', style='max-width: 30%;'> </img> <p><strong>你是否选择发射武器？</strong></p>","1",""
"","","","","","html-keyboard-response","6","2906411","0.0-4.0-0.1","70","1","2022-11-27 10:42:41","7b1eb8be57ff77859c7d9ac988e43411","114.249.63.150","Mozilla/5.0 (Macintosh; Intel Mac OS X 10_15_7) AppleWebKit/537.36 (KHTML, like Gecko) Chrome/107.0.0.0 Safari/537.36","Macintosh","Chrome","107.0.0.0","OS X","10_15_7","null","<div style=""font-size:60px;"">+</div>","null",""
"","","","","","html-button-response","7","2914112","0.0-4.0-1.1","70","1","2022-11-27 10:42:41","7b1eb8be57ff77859c7d9ac988e43411","114.249.63.150","Mozilla/5.0 (Macintosh; Intel Mac OS X 10_15_7) AppleWebKit/537.36 (KHTML, like Gecko) Chrome/107.0.0.0 Safari/537.36","Macintosh","Chrome","107.0.0.0","OS X","10_15_7","7698","<p>作为军队的指挥官，你可以选择发射导弹杀死 <strong>5名</strong> 敌国士兵，但会误杀附近的 <strong>1名</strong> 敌国平民。</p> <p>平民照片如下图所示。</p> <p></p> <img src='stimuli/faces/PCF1.jpg', style='max-width: 30%;'> </img> <p><strong>你是否选择发射武器？</strong></p>","1",""
"","","","","","html-keyboard-response","8","2915114","0.0-4.0-0.2","70","1","2022-11-27 10:42:41","7b1eb8be57ff77859c7d9ac988e43411","114.249.63.150","Mozilla/5.0 (Macintosh; Intel Mac OS X 10_15_7) AppleWebKit/537.36 (KHTML, like Gecko) Chrome/107.0.0.0 Safari/537.36","Macintosh","Chrome","107.0.0.0","OS X","10_15_7","null","<div style=""font-size:60px;"">+</div>","null",""
"","","","","","html-button-response","9","2918708","0.0-4.0-1.2","70","1","2022-11-27 10:42:41","7b1eb8be57ff77859c7d9ac988e43411","114.249.63.150","Mozilla/5.0 (Macintosh; Intel Mac OS X 10_15_7) AppleWebKit/537.36 (KHTML, like Gecko) Chrome/107.0.0.0 Safari/537.36","Macintosh","Chrome","107.0.0.0","OS X","10_15_7","3590","<p>作为军队的指挥官，你可以选择发射导弹杀死 <strong>9名</strong> 敌国士兵，但会炸毁附近的 <strong>1棵</strong> 敌国树木。</p> <p>树木的照片如下图所示。</p> <p></p> <img src='stimuli/trees/11.png', style='max-width: 30%;'> </img> <p><strong>你是否选择发射武器？</strong></p>","0",""
"","","","","","html-keyboard-response","10","2919711","0.0-4.0-0.3","70","1","2022-11-27 10:42:41","7b1eb8be57ff77859c7d9ac988e43411","114.249.63.150","Mozilla/5.0 (Macintosh; Intel Mac OS X 10_15_7) AppleWebKit/537.36 (KHTML, like Gecko) Chrome/107.0.0.0 Safari/537.36","Macintosh","Chrome","107.0.0.0","OS X","10_15_7","null","<div style=""font-size:60px;"">+</div>","null",""
"","","","","","html-button-response","11","2926067","0.0-4.0-1.3","70","1","2022-11-27 10:42:41","7b1eb8be57ff77859c7d9ac988e43411","114.249.63.150","Mozilla/5.0 (Macintosh; Intel Mac OS X 10_15_7) AppleWebKit/537.36 (KHTML, like Gecko) Chrome/107.0.0.0 Safari/537.36","Macintosh","Chrome","107.0.0.0","OS X","10_15_7","6352","<p>作为军队的指挥官，你可以选择发射导弹杀死 <strong>6名</strong> 敌国士兵，但会误杀附近的 <strong>1名</strong> 敌国平民。</p> <p>平民照片如下图所示。</p> <p></p> <img src='stimuli/faces/PCF2.jpg', style='max-width: 30%;'> </img> <p><strong>你是否选择发射武器？</strong></p>","1",""
"","","","","","html-keyboard-response","12","2927073","0.0-4.0-0.4","70","1","2022-11-27 10:42:41","7b1eb8be57ff77859c7d9ac988e43411","114.249.63.150","Mozilla/5.0 (Macintosh; Intel Mac OS X 10_15_7) AppleWebKit/537.36 (KHTML, like Gecko) Chrome/107.0.0.0 Safari/537.36","Macintosh","Chrome","107.0.0.0","OS X","10_15_7","null","<div style=""font-size:60px;"">+</div>","null",""
"","","","","","html-button-response","13","2932457","0.0-4.0-1.4","70","1","2022-11-27 10:42:41","7b1eb8be57ff77859c7d9ac988e43411","114.249.63.150","Mozilla/5.0 (Macintosh; Intel Mac OS X 10_15_7) AppleWebKit/537.36 (KHTML, like Gecko) Chrome/107.0.0.0 Safari/537.36","Macintosh","Chrome","107.0.0.0","OS X","10_15_7","5380","<p>作为军队的指挥官，你可以选择发射导弹杀死 <strong>9名</strong> 敌国士兵，但会炸毁附近的 <strong>1棵</strong> 敌国树木。</p> <p>树木的照片如下图所示。</p> <p></p> <img src='stimuli/trees/7.png', style='max-width: 30%;'> </img> <p><strong>你是否选择发射武器？</strong></p>","0",""
"","","","","","html-keyboard-response","14","2933460","0.0-4.0-0.5","70","1","2022-11-27 10:42:41","7b1eb8be57ff77859c7d9ac988e43411","114.249.63.150","Mozilla/5.0 (Macintosh; Intel Mac OS X 10_15_7) AppleWebKit/537.36 (KHTML, like Gecko) Chrome/107.0.0.0 Safari/537.36","Macintosh","Chrome","107.0.0.0","OS X","10_15_7","null","<div style=""font-size:60px;"">+</div>","null",""
"","","","","","html-button-response","15","2935976","0.0-4.0-1.5","70","1","2022-11-27 10:42:41","7b1eb8be57ff77859c7d9ac988e43411","114.249.63.150","Mozilla/5.0 (Macintosh; Intel Mac OS X 10_15_7) AppleWebKit/537.36 (KHTML, like Gecko) Chrome/107.0.0.0 Safari/537.36","Macintosh","Chrome","107.0.0.0","OS X","10_15_7","2512","<p>作为军队的指挥官，你可以选择发射导弹杀死 <strong>9名</strong> 敌国士兵，但会误杀附近的 <strong>1名</strong> 敌国平民。</p> <p>平民照片如下图所示。</p> <p></p> <img src='stimuli/faces/PCM7.jpg', style='max-width: 30%;'> </img> <p><strong>你是否选择发射武器？</strong></p>","0",""
"","","","","","html-keyboard-response","16","2936978","0.0-4.0-0.6","70","1","2022-11-27 10:42:41","7b1eb8be57ff77859c7d9ac988e43411","114.249.63.150","Mozilla/5.0 (Macintosh; Intel Mac OS X 10_15_7) AppleWebKit/537.36 (KHTML, like Gecko) Chrome/107.0.0.0 Safari/537.36","Macintosh","Chrome","107.0.0.0","OS X","10_15_7","null","<div style=""font-size:60px;"">+</div>","null",""
"","","","","","html-button-response","17","2938822","0.0-4.0-1.6","70","1","2022-11-27 10:42:41","7b1eb8be57ff77859c7d9ac988e43411","114.249.63.150","Mozilla/5.0 (Macintosh; Intel Mac OS X 10_15_7) AppleWebKit/537.36 (KHTML, like Gecko) Chrome/107.0.0.0 Safari/537.36","Macintosh","Chrome","107.0.0.0","OS X","10_15_7","1840","<p>作为军队的指挥官，你可以选择发射导弹杀死 <strong>3名</strong> 敌国士兵，但会误杀附近的 <strong>1名</strong> 敌国平民。</p> <p>平民照片如下图所示。</p> <p></p> <img src='stimuli/faces/PCF5.jpg', style='max-width: 30%;'> </img> <p><strong>你是否选择发射武器？</strong></p>","1",""
"","","","","","html-keyboard-response","18","2939825","0.0-4.0-0.7","70","1","2022-11-27 10:42:41","7b1eb8be57ff77859c7d9ac988e43411","114.249.63.150","Mozilla/5.0 (Macintosh; Intel Mac OS X 10_15_7) AppleWebKit/537.36 (KHTML, like Gecko) Chrome/107.0.0.0 Safari/537.36","Macintosh","Chrome","107.0.0.0","OS X","10_15_7","null","<div style=""font-size:60px;"">+</div>","null",""
"","","","","","html-button-response","19","2943919","0.0-4.0-1.7","70","1","2022-11-27 10:42:41","7b1eb8be57ff77859c7d9ac988e43411","114.249.63.150","Mozilla/5.0 (Macintosh; Intel Mac OS X 10_15_7) AppleWebKit/537.36 (KHTML, like Gecko) Chrome/107.0.0.0 Safari/537.36","Macintosh","Chrome","107.0.0.0","OS X","10_15_7","4089","<p>作为军队的指挥官，你可以选择发射导弹杀死 <strong>5名</strong> 敌国士兵，但会误杀附近的 <strong>1名</strong> 敌国平民。</p> <p>平民照片如下图所示。</p> <p></p> <img src='stimuli/faces/PCF2.jpg', style='max-width: 30%;'> </img> <p><strong>你是否选择发射武器？</strong></p>","1",""
"","","","","","html-keyboard-response","20","2944920","0.0-4.0-0.8","70","1","2022-11-27 10:42:41","7b1eb8be57ff77859c7d9ac988e43411","114.249.63.150","Mozilla/5.0 (Macintosh; Intel Mac OS X 10_15_7) AppleWebKit/537.36 (KHTML, like Gecko) Chrome/107.0.0.0 Safari/537.36","Macintosh","Chrome","107.0.0.0","OS X","10_15_7","null","<div style=""font-size:60px;"">+</div>","null",""
"","","","","","html-button-response","21","2950158","0.0-4.0-1.8","70","1","2022-11-27 10:42:41","7b1eb8be57ff77859c7d9ac988e43411","114.249.63.150","Mozilla/5.0 (Macintosh; Intel Mac OS X 10_15_7) AppleWebKit/537.36 (KHTML, like Gecko) Chrome/107.0.0.0 Safari/537.36","Macintosh","Chrome","107.0.0.0","OS X","10_15_7","5233","<p>作为军队的指挥官，你可以选择发射导弹杀死 <strong>9名</strong> 敌国士兵，但会炸毁附近的 <strong>1棵</strong> 敌国树木。</p> <p>树木的照片如下图所示。</p> <p></p> <img src='stimuli/trees/16.png', style='max-width: 30%;'> </img> <p><strong>你是否选择发射武器？</strong></p>","0",""
"","","","","","html-keyboard-response","22","2951160","0.0-4.0-0.9","70","1","2022-11-27 10:42:41","7b1eb8be57ff77859c7d9ac988e43411","114.249.63.150","Mozilla/5.0 (Macintosh; Intel Mac OS X 10_15_7) AppleWebKit/537.36 (KHTML, like Gecko) Chrome/107.0.0.0 Safari/537.36","Macintosh","Chrome","107.0.0.0","OS X","10_15_7","null","<div style=""font-size:60px;"">+</div>","null",""
"","","","","","html-button-response","23","2959343","0.0-4.0-1.9","70","1","2022-11-27 10:42:41","7b1eb8be57ff77859c7d9ac988e43411","114.249.63.150","Mozilla/5.0 (Macintosh; Intel Mac OS X 10_15_7) AppleWebKit/537.36 (KHTML, like Gecko) Chrome/107.0.0.0 Safari/537.36","Macintosh","Chrome","107.0.0.0","OS X","10_15_7","8179","<p>作为军队的指挥官，你可以选择发射导弹杀死 <strong>3名</strong> 敌国士兵，但会炸毁附近的 <strong>1棵</strong> 敌国树木。</p> <p>树木的照片如下图所示。</p> <p></p> <img src='stimuli/trees/13.png', style='max-width: 30%;'> </img> <p><strong>你是否选择发射武器？</strong></p>","1",""
"","","","","","html-keyboard-response","24","2960345","0.0-4.0-0.10","70","1","2022-11-27 10:42:41","7b1eb8be57ff77859c7d9ac988e43411","114.249.63.150","Mozilla/5.0 (Macintosh; Intel Mac OS X 10_15_7) AppleWebKit/537.36 (KHTML, like Gecko) Chrome/107.0.0.0 Safari/537.36","Macintosh","Chrome","107.0.0.0","OS X","10_15_7","null","<div style=""font-size:60px;"">+</div>","null",""
"","","","","","html-button-response","25","2962140","0.0-4.0-1.10","70","1","2022-11-27 10:42:41","7b1eb8be57ff77859c7d9ac988e43411","114.249.63.150","Mozilla/5.0 (Macintosh; Intel Mac OS X 10_15_7) AppleWebKit/537.36 (KHTML, like Gecko) Chrome/107.0.0.0 Safari/537.36","Macintosh","Chrome","107.0.0.0","OS X","10_15_7","1792","<p>作为军队的指挥官，你可以选择发射导弹杀死 <strong>3名</strong> 敌国士兵，但会误杀附近的 <strong>1名</strong> 敌国平民。</p> <p>平民照片如下图所示。</p> <p></p> <img src='stimuli/faces/PCM4.jpg', style='max-width: 30%;'> </img> <p><strong>你是否选择发射武器？</strong></p>","1",""
"","","","","","html-keyboard-response","26","2963143","0.0-4.0-0.11","70","1","2022-11-27 10:42:41","7b1eb8be57ff77859c7d9ac988e43411","114.249.63.150","Mozilla/5.0 (Macintosh; Intel Mac OS X 10_15_7) AppleWebKit/537.36 (KHTML, like Gecko) Chrome/107.0.0.0 Safari/537.36","Macintosh","Chrome","107.0.0.0","OS X","10_15_7","null","<div style=""font-size:60px;"">+</div>","null",""
"","","","","","html-button-response","27","2965965","0.0-4.0-1.11","70","1","2022-11-27 10:42:41","7b1eb8be57ff77859c7d9ac988e43411","114.249.63.150","Mozilla/5.0 (Macintosh; Intel Mac OS X 10_15_7) AppleWebKit/537.36 (KHTML, like Gecko) Chrome/107.0.0.0 Safari/537.36","Macintosh","Chrome","107.0.0.0","OS X","10_15_7","2818","<p>作为军队的指挥官，你可以选择发射导弹杀死 <strong>9名</strong> 敌国士兵，但会误杀附近的 <strong>1名</strong> 敌国平民。</p> <p>平民照片如下图所示。</p> <p></p> <img src='stimuli/faces/PCF7.jpg', style='max-width: 30%;'> </img> <p><strong>你是否选择发射武器？</strong></p>","1",""
"","","","","","html-keyboard-response","28","2966967","0.0-4.0-0.12","70","1","2022-11-27 10:42:41","7b1eb8be57ff77859c7d9ac988e43411","114.249.63.150","Mozilla/5.0 (Macintosh; Intel Mac OS X 10_15_7) AppleWebKit/537.36 (KHTML, like Gecko) Chrome/107.0.0.0 Safari/537.36","Macintosh","Chrome","107.0.0.0","OS X","10_15_7","null","<div style=""font-size:60px;"">+</div>","null",""
"","","","","","html-button-response","29","2967817","0.0-4.0-1.12","70","1","2022-11-27 10:42:41","7b1eb8be57ff77859c7d9ac988e43411","114.249.63.150","Mozilla/5.0 (Macintosh; Intel Mac OS X 10_15_7) AppleWebKit/537.36 (KHTML, like Gecko) Chrome/107.0.0.0 Safari/537.36","Macintosh","Chrome","107.0.0.0","OS X","10_15_7","846","<p>作为军队的指挥官，你可以选择发射导弹杀死 <strong>6名</strong> 敌国士兵，但会误杀附近的 <strong>1名</strong> 敌国平民。</p> <p>平民照片如下图所示。</p> <p></p> <img src='stimuli/faces/PCM6.jpg', style='max-width: 30%;'> </img> <p><strong>你是否选择发射武器？</strong></p>","1",""
"","","","","","html-keyboard-response","30","2968819","0.0-4.0-0.13","70","1","2022-11-27 10:42:41","7b1eb8be57ff77859c7d9ac988e43411","114.249.63.150","Mozilla/5.0 (Macintosh; Intel Mac OS X 10_15_7) AppleWebKit/537.36 (KHTML, like Gecko) Chrome/107.0.0.0 Safari/537.36","Macintosh","Chrome","107.0.0.0","OS X","10_15_7","null","<div style=""font-size:60px;"">+</div>","null",""
"","","","","","html-button-response","31","2972628","0.0-4.0-1.13","70","1","2022-11-27 10:42:41","7b1eb8be57ff77859c7d9ac988e43411","114.249.63.150","Mozilla/5.0 (Macintosh; Intel Mac OS X 10_15_7) AppleWebKit/537.36 (KHTML, like Gecko) Chrome/107.0.0.0 Safari/537.36","Macintosh","Chrome","107.0.0.0","OS X","10_15_7","3805","<p>作为军队的指挥官，你可以选择发射导弹杀死 <strong>8名</strong> 敌国士兵，但会误杀附近的 <strong>1名</strong> 敌国平民。</p> <p>平民照片如下图所示。</p> <p></p> <img src='stimuli/faces/PCM3.jpg', style='max-width: 30%;'> </img> <p><strong>你是否选择发射武器？</strong></p>","0",""
"","","","","","html-keyboard-response","32","2973635","0.0-4.0-0.14","70","1","2022-11-27 10:42:41","7b1eb8be57ff77859c7d9ac988e43411","114.249.63.150","Mozilla/5.0 (Macintosh; Intel Mac OS X 10_15_7) AppleWebKit/537.36 (KHTML, like Gecko) Chrome/107.0.0.0 Safari/537.36","Macintosh","Chrome","107.0.0.0","OS X","10_15_7","null","<div style=""font-size:60px;"">+</div>","null",""
"","","","","","html-button-response","33","2982624","0.0-4.0-1.14","70","1","2022-11-27 10:42:41","7b1eb8be57ff77859c7d9ac988e43411","114.249.63.150","Mozilla/5.0 (Macintosh; Intel Mac OS X 10_15_7) AppleWebKit/537.36 (KHTML, like Gecko) Chrome/107.0.0.0 Safari/537.36","Macintosh","Chrome","107.0.0.0","OS X","10_15_7","8986","<p>作为军队的指挥官，你可以选择发射导弹杀死 <strong>9名</strong> 敌国士兵，但会炸毁附近的 <strong>1棵</strong> 敌国树木。</p> <p>树木的照片如下图所示。</p> <p></p> <img src='stimuli/trees/13.png', style='max-width: 30%;'> </img> <p><strong>你是否选择发射武器？</strong></p>","0",""
"","","","","","html-keyboard-response","34","2983626","0.0-4.0-0.15","70","1","2022-11-27 10:42:41","7b1eb8be57ff77859c7d9ac988e43411","114.249.63.150","Mozilla/5.0 (Macintosh; Intel Mac OS X 10_15_7) AppleWebKit/537.36 (KHTML, like Gecko) Chrome/107.0.0.0 Safari/537.36","Macintosh","Chrome","107.0.0.0","OS X","10_15_7","null","<div style=""font-size:60px;"">+</div>","null",""
"","","","","","html-button-response","35","2988302","0.0-4.0-1.15","70","1","2022-11-27 10:42:41","7b1eb8be57ff77859c7d9ac988e43411","114.249.63.150","Mozilla/5.0 (Macintosh; Intel Mac OS X 10_15_7) AppleWebKit/537.36 (KHTML, like Gecko) Chrome/107.0.0.0 Safari/537.36","Macintosh","Chrome","107.0.0.0","OS X","10_15_7","4675","<p>作为军队的指挥官，你可以选择发射导弹杀死 <strong>8名</strong> 敌国士兵，但会炸毁附近的 <strong>1棵</strong> 敌国树木。</p> <p>树木的照片如下图所示。</p> <p></p> <img src='stimuli/trees/1.png', style='max-width: 30%;'> </img> <p><strong>你是否选择发射武器？</strong></p>","0",""
"","","","","","html-keyboard-response","36","2989305","0.0-4.0-0.16","70","1","2022-11-27 10:42:41","7b1eb8be57ff77859c7d9ac988e43411","114.249.63.150","Mozilla/5.0 (Macintosh; Intel Mac OS X 10_15_7) AppleWebKit/537.36 (KHTML, like Gecko) Chrome/107.0.0.0 Safari/537.36","Macintosh","Chrome","107.0.0.0","OS X","10_15_7","null","<div style=""font-size:60px;"">+</div>","null",""
"","","","","","html-button-response","37","2991820","0.0-4.0-1.16","70","1","2022-11-27 10:42:41","7b1eb8be57ff77859c7d9ac988e43411","114.249.63.150","Mozilla/5.0 (Macintosh; Intel Mac OS X 10_15_7) AppleWebKit/537.36 (KHTML, like Gecko) Chrome/107.0.0.0 Safari/537.36","Macintosh","Chrome","107.0.0.0","OS X","10_15_7","2509","<p>作为军队的指挥官，你可以选择发射导弹杀死 <strong>7名</strong> 敌国士兵，但会炸毁附近的 <strong>1棵</strong> 敌国树木。</p> <p>树木的照片如下图所示。</p> <p></p> <img src='stimuli/trees/14.png', style='max-width: 30%;'> </img> <p><strong>你是否选择发射武器？</strong></p>","0",""
"","","","","","html-keyboard-response","38","2992823","0.0-4.0-0.17","70","1","2022-11-27 10:42:41","7b1eb8be57ff77859c7d9ac988e43411","114.249.63.150","Mozilla/5.0 (Macintosh; Intel Mac OS X 10_15_7) AppleWebKit/537.36 (KHTML, like Gecko) Chrome/107.0.0.0 Safari/537.36","Macintosh","Chrome","107.0.0.0","OS X","10_15_7","null","<div style=""font-size:60px;"">+</div>","null",""
"","","","","","html-button-response","39","2993672","0.0-4.0-1.17","70","1","2022-11-27 10:42:41","7b1eb8be57ff77859c7d9ac988e43411","114.249.63.150","Mozilla/5.0 (Macintosh; Intel Mac OS X 10_15_7) AppleWebKit/537.36 (KHTML, like Gecko) Chrome/107.0.0.0 Safari/537.36","Macintosh","Chrome","107.0.0.0","OS X","10_15_7","844","<p>作为军队的指挥官，你可以选择发射导弹杀死 <strong>10名</strong> 敌国士兵，但会炸毁附近的 <strong>1棵</strong> 敌国树木。</p> <p>树木的照片如下图所示。</p> <p></p> <img src='stimuli/trees/6.png', style='max-width: 30%;'> </img> <p><strong>你是否选择发射武器？</strong></p>","0",""
"","","","","","html-keyboard-response","40","2994679","0.0-4.0-0.18","70","1","2022-11-27 10:42:41","7b1eb8be57ff77859c7d9ac988e43411","114.249.63.150","Mozilla/5.0 (Macintosh; Intel Mac OS X 10_15_7) AppleWebKit/537.36 (KHTML, like Gecko) Chrome/107.0.0.0 Safari/537.36","Macintosh","Chrome","107.0.0.0","OS X","10_15_7","null","<div style=""font-size:60px;"">+</div>","null",""
"","","","","","html-button-response","41","2997302","0.0-4.0-1.18","70","1","2022-11-27 10:42:41","7b1eb8be57ff77859c7d9ac988e43411","114.249.63.150","Mozilla/5.0 (Macintosh; Intel Mac OS X 10_15_7) AppleWebKit/537.36 (KHTML, like Gecko) Chrome/107.0.0.0 Safari/537.36","Macintosh","Chrome","107.0.0.0","OS X","10_15_7","2618","<p>作为军队的指挥官，你可以选择发射导弹杀死 <strong>8名</strong> 敌国士兵，但会误杀附近的 <strong>1名</strong> 敌国平民。</p> <p>平民照片如下图所示。</p> <p></p> <img src='stimuli/faces/PCF4.jpg', style='max-width: 30%;'> </img> <p><strong>你是否选择发射武器？</strong></p>","1",""
"","","","","","html-keyboard-response","42","2998310","0.0-4.0-0.19","70","1","2022-11-27 10:42:41","7b1eb8be57ff77859c7d9ac988e43411","114.249.63.150","Mozilla/5.0 (Macintosh; Intel Mac OS X 10_15_7) AppleWebKit/537.36 (KHTML, like Gecko) Chrome/107.0.0.0 Safari/537.36","Macintosh","Chrome","107.0.0.0","OS X","10_15_7","null","<div style=""font-size:60px;"">+</div>","null",""
"","","","","","html-button-response","43","2999638","0.0-4.0-1.19","70","1","2022-11-27 10:42:41","7b1eb8be57ff77859c7d9ac988e43411","114.249.63.150","Mozilla/5.0 (Macintosh; Intel Mac OS X 10_15_7) AppleWebKit/537.36 (KHTML, like Gecko) Chrome/107.0.0.0 Safari/537.36","Macintosh","Chrome","107.0.0.0","OS X","10_15_7","1323","<p>作为军队的指挥官，你可以选择发射导弹杀死 <strong>2名</strong> 敌国士兵，但会误杀附近的 <strong>1名</strong> 敌国平民。</p> <p>平民照片如下图所示。</p> <p></p> <img src='stimuli/faces/PCF4.jpg', style='max-width: 30%;'> </img> <p><strong>你是否选择发射武器？</strong></p>","1",""
"","","","","","html-keyboard-response","44","3000640","0.0-4.0-0.20","70","1","2022-11-27 10:42:41","7b1eb8be57ff77859c7d9ac988e43411","114.249.63.150","Mozilla/5.0 (Macintosh; Intel Mac OS X 10_15_7) AppleWebKit/537.36 (KHTML, like Gecko) Chrome/107.0.0.0 Safari/537.36","Macintosh","Chrome","107.0.0.0","OS X","10_15_7","null","<div style=""font-size:60px;"">+</div>","null",""
"","","","","","html-button-response","45","3002380","0.0-4.0-1.20","70","1","2022-11-27 10:42:41","7b1eb8be57ff77859c7d9ac988e43411","114.249.63.150","Mozilla/5.0 (Macintosh; Intel Mac OS X 10_15_7) AppleWebKit/537.36 (KHTML, like Gecko) Chrome/107.0.0.0 Safari/537.36","Macintosh","Chrome","107.0.0.0","OS X","10_15_7","1735","<p>作为军队的指挥官，你可以选择发射导弹杀死 <strong>3名</strong> 敌国士兵，但会炸毁附近的 <strong>1棵</strong> 敌国树木。</p> <p>树木的照片如下图所示。</p> <p></p> <img src='stimuli/trees/1.png', style='max-width: 30%;'> </img> <p><strong>你是否选择发射武器？</strong></p>","1",""
"","","","","","html-keyboard-response","46","3003382","0.0-4.0-0.21","70","1","2022-11-27 10:42:41","7b1eb8be57ff77859c7d9ac988e43411","114.249.63.150","Mozilla/5.0 (Macintosh; Intel Mac OS X 10_15_7) AppleWebKit/537.36 (KHTML, like Gecko) Chrome/107.0.0.0 Safari/537.36","Macintosh","Chrome","107.0.0.0","OS X","10_15_7","null","<div style=""font-size:60px;"">+</div>","null",""
"","","","","","html-button-response","47","3004959","0.0-4.0-1.21","70","1","2022-11-27 10:42:41","7b1eb8be57ff77859c7d9ac988e43411","114.249.63.150","Mozilla/5.0 (Macintosh; Intel Mac OS X 10_15_7) AppleWebKit/537.36 (KHTML, like Gecko) Chrome/107.0.0.0 Safari/537.36","Macintosh","Chrome","107.0.0.0","OS X","10_15_7","1571","<p>作为军队的指挥官，你可以选择发射导弹杀死 <strong>1名</strong> 敌国士兵，但会炸毁附近的 <strong>1棵</strong> 敌国树木。</p> <p>树木的照片如下图所示。</p> <p></p> <img src='stimuli/trees/7.png', style='max-width: 30%;'> </img> <p><strong>你是否选择发射武器？</strong></p>","1",""
"","","","","","html-keyboard-response","48","3005966","0.0-4.0-0.22","70","1","2022-11-27 10:42:41","7b1eb8be57ff77859c7d9ac988e43411","114.249.63.150","Mozilla/5.0 (Macintosh; Intel Mac OS X 10_15_7) AppleWebKit/537.36 (KHTML, like Gecko) Chrome/107.0.0.0 Safari/537.36","Macintosh","Chrome","107.0.0.0","OS X","10_15_7","null","<div style=""font-size:60px;"">+</div>","null",""
"","","","","","html-button-response","49","3007538","0.0-4.0-1.22","70","1","2022-11-27 10:42:41","7b1eb8be57ff77859c7d9ac988e43411","114.249.63.150","Mozilla/5.0 (Macintosh; Intel Mac OS X 10_15_7) AppleWebKit/537.36 (KHTML, like Gecko) Chrome/107.0.0.0 Safari/537.36","Macintosh","Chrome","107.0.0.0","OS X","10_15_7","1566","<p>作为军队的指挥官，你可以选择发射导弹杀死 <strong>4名</strong> 敌国士兵，但会炸毁附近的 <strong>1棵</strong> 敌国树木。</p> <p>树木的照片如下图所示。</p> <p></p> <img src='stimuli/trees/6.png', style='max-width: 30%;'> </img> <p><strong>你是否选择发射武器？</strong></p>","1",""
"","","","","","html-keyboard-response","50","3008542","0.0-4.0-0.23","70","1","2022-11-27 10:42:41","7b1eb8be57ff77859c7d9ac988e43411","114.249.63.150","Mozilla/5.0 (Macintosh; Intel Mac OS X 10_15_7) AppleWebKit/537.36 (KHTML, like Gecko) Chrome/107.0.0.0 Safari/537.36","Macintosh","Chrome","107.0.0.0","OS X","10_15_7","null","<div style=""font-size:60px;"">+</div>","null",""
"","","","","","html-button-response","51","3009964","0.0-4.0-1.23","70","1","2022-11-27 10:42:41","7b1eb8be57ff77859c7d9ac988e43411","114.249.63.150","Mozilla/5.0 (Macintosh; Intel Mac OS X 10_15_7) AppleWebKit/537.36 (KHTML, like Gecko) Chrome/107.0.0.0 Safari/537.36","Macintosh","Chrome","107.0.0.0","OS X","10_15_7","1417","<p>作为军队的指挥官，你可以选择发射导弹杀死 <strong>4名</strong> 敌国士兵，但会炸毁附近的 <strong>1棵</strong> 敌国树木。</p> <p>树木的照片如下图所示。</p> <p></p> <img src='stimuli/trees/12.png', style='max-width: 30%;'> </img> <p><strong>你是否选择发射武器？</strong></p>","1",""
"","","","","","html-keyboard-response","52","3010969","0.0-4.0-0.24","70","1","2022-11-27 10:42:41","7b1eb8be57ff77859c7d9ac988e43411","114.249.63.150","Mozilla/5.0 (Macintosh; Intel Mac OS X 10_15_7) AppleWebKit/537.36 (KHTML, like Gecko) Chrome/107.0.0.0 Safari/537.36","Macintosh","Chrome","107.0.0.0","OS X","10_15_7","null","<div style=""font-size:60px;"">+</div>","null",""
"","","","","","html-button-response","53","3012721","0.0-4.0-1.24","70","1","2022-11-27 10:42:41","7b1eb8be57ff77859c7d9ac988e43411","114.249.63.150","Mozilla/5.0 (Macintosh; Intel Mac OS X 10_15_7) AppleWebKit/537.36 (KHTML, like Gecko) Chrome/107.0.0.0 Safari/537.36","Macintosh","Chrome","107.0.0.0","OS X","10_15_7","1748","<p>作为军队的指挥官，你可以选择发射导弹杀死 <strong>9名</strong> 敌国士兵，但会误杀附近的 <strong>1名</strong> 敌国平民。</p> <p>平民照片如下图所示。</p> <p></p> <img src='stimuli/faces/PCM8.jpg', style='max-width: 30%;'> </img> <p><strong>你是否选择发射武器？</strong></p>","0",""
"","","","","","html-keyboard-response","54","3013729","0.0-4.0-0.25","70","1","2022-11-27 10:42:41","7b1eb8be57ff77859c7d9ac988e43411","114.249.63.150","Mozilla/5.0 (Macintosh; Intel Mac OS X 10_15_7) AppleWebKit/537.36 (KHTML, like Gecko) Chrome/107.0.0.0 Safari/537.36","Macintosh","Chrome","107.0.0.0","OS X","10_15_7","null","<div style=""font-size:60px;"">+</div>","null",""
"","","","","","html-button-response","55","3014978","0.0-4.0-1.25","70","1","2022-11-27 10:42:41","7b1eb8be57ff77859c7d9ac988e43411","114.249.63.150","Mozilla/5.0 (Macintosh; Intel Mac OS X 10_15_7) AppleWebKit/537.36 (KHTML, like Gecko) Chrome/107.0.0.0 Safari/537.36","Macintosh","Chrome","107.0.0.0","OS X","10_15_7","1244","<p>作为军队的指挥官，你可以选择发射导弹杀死 <strong>8名</strong> 敌国士兵，但会误杀附近的 <strong>1名</strong> 敌国平民。</p> <p>平民照片如下图所示。</p> <p></p> <img src='stimuli/faces/PCM2.jpg', style='max-width: 30%;'> </img> <p><strong>你是否选择发射武器？</strong></p>","0",""
"","","","","","html-keyboard-response","56","3015985","0.0-4.0-0.26","70","1","2022-11-27 10:42:41","7b1eb8be57ff77859c7d9ac988e43411","114.249.63.150","Mozilla/5.0 (Macintosh; Intel Mac OS X 10_15_7) AppleWebKit/537.36 (KHTML, like Gecko) Chrome/107.0.0.0 Safari/537.36","Macintosh","Chrome","107.0.0.0","OS X","10_15_7","null","<div style=""font-size:60px;"">+</div>","null",""
"","","","","","html-button-response","57","3026512","0.0-4.0-1.26","70","1","2022-11-27 10:42:41","7b1eb8be57ff77859c7d9ac988e43411","114.249.63.150","Mozilla/5.0 (Macintosh; Intel Mac OS X 10_15_7) AppleWebKit/537.36 (KHTML, like Gecko) Chrome/107.0.0.0 Safari/537.36","Macintosh","Chrome","107.0.0.0","OS X","10_15_7","10522","<p>作为军队的指挥官，你可以选择发射导弹杀死 <strong>8名</strong> 敌国士兵，但会炸毁附近的 <strong>1棵</strong> 敌国树木。</p> <p>树木的照片如下图所示。</p> <p></p> <img src='stimuli/trees/3.png', style='max-width: 30%;'> </img> <p><strong>你是否选择发射武器？</strong></p>","0",""
"","","","","","html-keyboard-response","58","3027520","0.0-4.0-0.27","70","1","2022-11-27 10:42:41","7b1eb8be57ff77859c7d9ac988e43411","114.249.63.150","Mozilla/5.0 (Macintosh; Intel Mac OS X 10_15_7) AppleWebKit/537.36 (KHTML, like Gecko) Chrome/107.0.0.0 Safari/537.36","Macintosh","Chrome","107.0.0.0","OS X","10_15_7","null","<div style=""font-size:60px;"">+</div>","null",""
"","","","","","html-button-response","59","3029553","0.0-4.0-1.27","70","1","2022-11-27 10:42:41","7b1eb8be57ff77859c7d9ac988e43411","114.249.63.150","Mozilla/5.0 (Macintosh; Intel Mac OS X 10_15_7) AppleWebKit/537.36 (KHTML, like Gecko) Chrome/107.0.0.0 Safari/537.36","Macintosh","Chrome","107.0.0.0","OS X","10_15_7","2028","<p>作为军队的指挥官，你可以选择发射导弹杀死 <strong>5名</strong> 敌国士兵，但会误杀附近的 <strong>1名</strong> 敌国平民。</p> <p>平民照片如下图所示。</p> <p></p> <img src='stimuli/faces/PCF6.jpg', style='max-width: 30%;'> </img> <p><strong>你是否选择发射武器？</strong></p>","1",""
"","","","","","html-keyboard-response","60","3030558","0.0-4.0-0.28","70","1","2022-11-27 10:42:41","7b1eb8be57ff77859c7d9ac988e43411","114.249.63.150","Mozilla/5.0 (Macintosh; Intel Mac OS X 10_15_7) AppleWebKit/537.36 (KHTML, like Gecko) Chrome/107.0.0.0 Safari/537.36","Macintosh","Chrome","107.0.0.0","OS X","10_15_7","null","<div style=""font-size:60px;"">+</div>","null",""
"","","","","","html-button-response","61","3032634","0.0-4.0-1.28","70","1","2022-11-27 10:42:41","7b1eb8be57ff77859c7d9ac988e43411","114.249.63.150","Mozilla/5.0 (Macintosh; Intel Mac OS X 10_15_7) AppleWebKit/537.36 (KHTML, like Gecko) Chrome/107.0.0.0 Safari/537.36","Macintosh","Chrome","107.0.0.0","OS X","10_15_7","2070","<p>作为军队的指挥官，你可以选择发射导弹杀死 <strong>3名</strong> 敌国士兵，但会误杀附近的 <strong>1名</strong> 敌国平民。</p> <p>平民照片如下图所示。</p> <p></p> <img src='stimuli/faces/PCM5.jpg', style='max-width: 30%;'> </img> <p><strong>你是否选择发射武器？</strong></p>","1",""
"","","","","","html-keyboard-response","62","3033637","0.0-4.0-0.29","70","1","2022-11-27 10:42:41","7b1eb8be57ff77859c7d9ac988e43411","114.249.63.150","Mozilla/5.0 (Macintosh; Intel Mac OS X 10_15_7) AppleWebKit/537.36 (KHTML, like Gecko) Chrome/107.0.0.0 Safari/537.36","Macintosh","Chrome","107.0.0.0","OS X","10_15_7","null","<div style=""font-size:60px;"">+</div>","null",""
"","","","","","html-button-response","63","3035487","0.0-4.0-1.29","70","1","2022-11-27 10:42:41","7b1eb8be57ff77859c7d9ac988e43411","114.249.63.150","Mozilla/5.0 (Macintosh; Intel Mac OS X 10_15_7) AppleWebKit/537.36 (KHTML, like Gecko) Chrome/107.0.0.0 Safari/537.36","Macintosh","Chrome","107.0.0.0","OS X","10_15_7","1843","<p>作为军队的指挥官，你可以选择发射导弹杀死 <strong>7名</strong> 敌国士兵，但会误杀附近的 <strong>1名</strong> 敌国平民。</p> <p>平民照片如下图所示。</p> <p></p> <img src='stimuli/faces/PCF5.jpg', style='max-width: 30%;'> </img> <p><strong>你是否选择发射武器？</strong></p>","1",""
"","","","","","html-keyboard-response","64","3036494","0.0-4.0-0.30","70","1","2022-11-27 10:42:41","7b1eb8be57ff77859c7d9ac988e43411","114.249.63.150","Mozilla/5.0 (Macintosh; Intel Mac OS X 10_15_7) AppleWebKit/537.36 (KHTML, like Gecko) Chrome/107.0.0.0 Safari/537.36","Macintosh","Chrome","107.0.0.0","OS X","10_15_7","null","<div style=""font-size:60px;"">+</div>","null",""
"","","","","","html-button-response","65","3043032","0.0-4.0-1.30","70","1","2022-11-27 10:42:41","7b1eb8be57ff77859c7d9ac988e43411","114.249.63.150","Mozilla/5.0 (Macintosh; Intel Mac OS X 10_15_7) AppleWebKit/537.36 (KHTML, like Gecko) Chrome/107.0.0.0 Safari/537.36","Macintosh","Chrome","107.0.0.0","OS X","10_15_7","6533","<p>作为军队的指挥官，你可以选择发射导弹杀死 <strong>5名</strong> 敌国士兵，但会炸毁附近的 <strong>1棵</strong> 敌国树木。</p> <p>树木的照片如下图所示。</p> <p></p> <img src='stimuli/trees/2.png', style='max-width: 30%;'> </img> <p><strong>你是否选择发射武器？</strong></p>","1",""
"","","","","","html-keyboard-response","66","3044035","0.0-4.0-0.31","70","1","2022-11-27 10:42:41","7b1eb8be57ff77859c7d9ac988e43411","114.249.63.150","Mozilla/5.0 (Macintosh; Intel Mac OS X 10_15_7) AppleWebKit/537.36 (KHTML, like Gecko) Chrome/107.0.0.0 Safari/537.36","Macintosh","Chrome","107.0.0.0","OS X","10_15_7","null","<div style=""font-size:60px;"">+</div>","null",""
"","","","","","html-button-response","67","3045588","0.0-4.0-1.31","70","1","2022-11-27 10:42:41","7b1eb8be57ff77859c7d9ac988e43411","114.249.63.150","Mozilla/5.0 (Macintosh; Intel Mac OS X 10_15_7) AppleWebKit/537.36 (KHTML, like Gecko) Chrome/107.0.0.0 Safari/537.36","Macintosh","Chrome","107.0.0.0","OS X","10_15_7","1548","<p>作为军队的指挥官，你可以选择发射导弹杀死 <strong>7名</strong> 敌国士兵，但会炸毁附近的 <strong>1棵</strong> 敌国树木。</p> <p>树木的照片如下图所示。</p> <p></p> <img src='stimuli/trees/2.png', style='max-width: 30%;'> </img> <p><strong>你是否选择发射武器？</strong></p>","0",""
"","","","","","html-keyboard-response","68","3046593","0.0-4.0-0.32","70","1","2022-11-27 10:42:41","7b1eb8be57ff77859c7d9ac988e43411","114.249.63.150","Mozilla/5.0 (Macintosh; Intel Mac OS X 10_15_7) AppleWebKit/537.36 (KHTML, like Gecko) Chrome/107.0.0.0 Safari/537.36","Macintosh","Chrome","107.0.0.0","OS X","10_15_7","null","<div style=""font-size:60px;"">+</div>","null",""
"","","","","","html-button-response","69","3051368","0.0-4.0-1.32","70","1","2022-11-27 10:42:41","7b1eb8be57ff77859c7d9ac988e43411","114.249.63.150","Mozilla/5.0 (Macintosh; Intel Mac OS X 10_15_7) AppleWebKit/537.36 (KHTML, like Gecko) Chrome/107.0.0.0 Safari/537.36","Macintosh","Chrome","107.0.0.0","OS X","10_15_7","4770","<p>作为军队的指挥官，你可以选择发射导弹杀死 <strong>10名</strong> 敌国士兵，但会误杀附近的 <strong>1名</strong> 敌国平民。</p> <p>平民照片如下图所示。</p> <p></p> <img src='stimuli/faces/PCF6.jpg', style='max-width: 30%;'> </img> <p><strong>你是否选择发射武器？</strong></p>","0",""
"","","","","","html-keyboard-response","70","3052372","0.0-4.0-0.33","70","1","2022-11-27 10:42:41","7b1eb8be57ff77859c7d9ac988e43411","114.249.63.150","Mozilla/5.0 (Macintosh; Intel Mac OS X 10_15_7) AppleWebKit/537.36 (KHTML, like Gecko) Chrome/107.0.0.0 Safari/537.36","Macintosh","Chrome","107.0.0.0","OS X","10_15_7","null","<div style=""font-size:60px;"">+</div>","null",""
"","","","","","html-button-response","71","3056119","0.0-4.0-1.33","70","1","2022-11-27 10:42:41","7b1eb8be57ff77859c7d9ac988e43411","114.249.63.150","Mozilla/5.0 (Macintosh; Intel Mac OS X 10_15_7) AppleWebKit/537.36 (KHTML, like Gecko) Chrome/107.0.0.0 Safari/537.36","Macintosh","Chrome","107.0.0.0","OS X","10_15_7","3741","<p>作为军队的指挥官，你可以选择发射导弹杀死 <strong>6名</strong> 敌国士兵，但会炸毁附近的 <strong>1棵</strong> 敌国树木。</p> <p>树木的照片如下图所示。</p> <p></p> <img src='stimuli/trees/5.png', style='max-width: 30%;'> </img> <p><strong>你是否选择发射武器？</strong></p>","0",""
"","","","","","html-keyboard-response","72","3057122","0.0-4.0-0.34","70","1","2022-11-27 10:42:41","7b1eb8be57ff77859c7d9ac988e43411","114.249.63.150","Mozilla/5.0 (Macintosh; Intel Mac OS X 10_15_7) AppleWebKit/537.36 (KHTML, like Gecko) Chrome/107.0.0.0 Safari/537.36","Macintosh","Chrome","107.0.0.0","OS X","10_15_7","null","<div style=""font-size:60px;"">+</div>","null",""
"","","","","","html-button-response","73","3058817","0.0-4.0-1.34","70","1","2022-11-27 10:42:41","7b1eb8be57ff77859c7d9ac988e43411","114.249.63.150","Mozilla/5.0 (Macintosh; Intel Mac OS X 10_15_7) AppleWebKit/537.36 (KHTML, like Gecko) Chrome/107.0.0.0 Safari/537.36","Macintosh","Chrome","107.0.0.0","OS X","10_15_7","1688","<p>作为军队的指挥官，你可以选择发射导弹杀死 <strong>3名</strong> 敌国士兵，但会炸毁附近的 <strong>1棵</strong> 敌国树木。</p> <p>树木的照片如下图所示。</p> <p></p> <img src='stimuli/trees/4.png', style='max-width: 30%;'> </img> <p><strong>你是否选择发射武器？</strong></p>","1",""
"","","","","","html-keyboard-response","74","3059823","0.0-4.0-0.35","70","1","2022-11-27 10:42:41","7b1eb8be57ff77859c7d9ac988e43411","114.249.63.150","Mozilla/5.0 (Macintosh; Intel Mac OS X 10_15_7) AppleWebKit/537.36 (KHTML, like Gecko) Chrome/107.0.0.0 Safari/537.36","Macintosh","Chrome","107.0.0.0","OS X","10_15_7","null","<div style=""font-size:60px;"">+</div>","null",""
"","","","","","html-button-response","75","3060806","0.0-4.0-1.35","70","1","2022-11-27 10:42:41","7b1eb8be57ff77859c7d9ac988e43411","114.249.63.150","Mozilla/5.0 (Macintosh; Intel Mac OS X 10_15_7) AppleWebKit/537.36 (KHTML, like Gecko) Chrome/107.0.0.0 Safari/537.36","Macintosh","Chrome","107.0.0.0","OS X","10_15_7","977","<p>作为军队的指挥官，你可以选择发射导弹杀死 <strong>6名</strong> 敌国士兵，但会炸毁附近的 <strong>1棵</strong> 敌国树木。</p> <p>树木的照片如下图所示。</p> <p></p> <img src='stimuli/trees/4.png', style='max-width: 30%;'> </img> <p><strong>你是否选择发射武器？</strong></p>","1",""
"","","","","","html-keyboard-response","76","3061810","0.0-4.0-0.36","70","1","2022-11-27 10:42:41","7b1eb8be57ff77859c7d9ac988e43411","114.249.63.150","Mozilla/5.0 (Macintosh; Intel Mac OS X 10_15_7) AppleWebKit/537.36 (KHTML, like Gecko) Chrome/107.0.0.0 Safari/537.36","Macintosh","Chrome","107.0.0.0","OS X","10_15_7","null","<div style=""font-size:60px;"">+</div>","null",""
"","","","","","html-button-response","77","3064138","0.0-4.0-1.36","70","1","2022-11-27 10:42:41","7b1eb8be57ff77859c7d9ac988e43411","114.249.63.150","Mozilla/5.0 (Macintosh; Intel Mac OS X 10_15_7) AppleWebKit/537.36 (KHTML, like Gecko) Chrome/107.0.0.0 Safari/537.36","Macintosh","Chrome","107.0.0.0","OS X","10_15_7","2322","<p>作为军队的指挥官，你可以选择发射导弹杀死 <strong>4名</strong> 敌国士兵，但会炸毁附近的 <strong>1棵</strong> 敌国树木。</p> <p>树木的照片如下图所示。</p> <p></p> <img src='stimuli/trees/8.png', style='max-width: 30%;'> </img> <p><strong>你是否选择发射武器？</strong></p>","1",""
"","","","","","html-keyboard-response","78","3065142","0.0-4.0-0.37","70","1","2022-11-27 10:42:41","7b1eb8be57ff77859c7d9ac988e43411","114.249.63.150","Mozilla/5.0 (Macintosh; Intel Mac OS X 10_15_7) AppleWebKit/537.36 (KHTML, like Gecko) Chrome/107.0.0.0 Safari/537.36","Macintosh","Chrome","107.0.0.0","OS X","10_15_7","null","<div style=""font-size:60px;"">+</div>","null",""
"","","","","","html-button-response","79","3070319","0.0-4.0-1.37","70","1","2022-11-27 10:42:41","7b1eb8be57ff77859c7d9ac988e43411","114.249.63.150","Mozilla/5.0 (Macintosh; Intel Mac OS X 10_15_7) AppleWebKit/537.36 (KHTML, like Gecko) Chrome/107.0.0.0 Safari/537.36","Macintosh","Chrome","107.0.0.0","OS X","10_15_7","5171","<p>作为军队的指挥官，你可以选择发射导弹杀死 <strong>4名</strong> 敌国士兵，但会误杀附近的 <strong>1名</strong> 敌国平民。</p> <p>平民照片如下图所示。</p> <p></p> <img src='stimuli/faces/PCM2.jpg', style='max-width: 30%;'> </img> <p><strong>你是否选择发射武器？</strong></p>","1",""
"","","","","","html-keyboard-response","80","3071327","0.0-4.0-0.38","70","1","2022-11-27 10:42:41","7b1eb8be57ff77859c7d9ac988e43411","114.249.63.150","Mozilla/5.0 (Macintosh; Intel Mac OS X 10_15_7) AppleWebKit/537.36 (KHTML, like Gecko) Chrome/107.0.0.0 Safari/537.36","Macintosh","Chrome","107.0.0.0","OS X","10_15_7","null","<div style=""font-size:60px;"">+</div>","null",""
"","","","","","html-button-response","81","3072770","0.0-4.0-1.38","70","1","2022-11-27 10:42:41","7b1eb8be57ff77859c7d9ac988e43411","114.249.63.150","Mozilla/5.0 (Macintosh; Intel Mac OS X 10_15_7) AppleWebKit/537.36 (KHTML, like Gecko) Chrome/107.0.0.0 Safari/537.36","Macintosh","Chrome","107.0.0.0","OS X","10_15_7","1436","<p>作为军队的指挥官，你可以选择发射导弹杀死 <strong>3名</strong> 敌国士兵，但会误杀附近的 <strong>1名</strong> 敌国平民。</p> <p>平民照片如下图所示。</p> <p></p> <img src='stimuli/faces/PCF7.jpg', style='max-width: 30%;'> </img> <p><strong>你是否选择发射武器？</strong></p>","1",""
"","","","","","html-keyboard-response","82","3073774","0.0-4.0-0.39","70","1","2022-11-27 10:42:41","7b1eb8be57ff77859c7d9ac988e43411","114.249.63.150","Mozilla/5.0 (Macintosh; Intel Mac OS X 10_15_7) AppleWebKit/537.36 (KHTML, like Gecko) Chrome/107.0.0.0 Safari/537.36","Macintosh","Chrome","107.0.0.0","OS X","10_15_7","null","<div style=""font-size:60px;"">+</div>","null",""
"","","","","","html-button-response","83","3076723","0.0-4.0-1.39","70","1","2022-11-27 10:42:41","7b1eb8be57ff77859c7d9ac988e43411","114.249.63.150","Mozilla/5.0 (Macintosh; Intel Mac OS X 10_15_7) AppleWebKit/537.36 (KHTML, like Gecko) Chrome/107.0.0.0 Safari/537.36","Macintosh","Chrome","107.0.0.0","OS X","10_15_7","2943","<p>作为军队的指挥官，你可以选择发射导弹杀死 <strong>5名</strong> 敌国士兵，但会炸毁附近的 <strong>1棵</strong> 敌国树木。</p> <p>树木的照片如下图所示。</p> <p></p> <img src='stimuli/trees/3.png', style='max-width: 30%;'> </img> <p><strong>你是否选择发射武器？</strong></p>","1",""
"","","","","","html-keyboard-response","84","3077727","0.0-4.0-0.40","70","1","2022-11-27 10:42:41","7b1eb8be57ff77859c7d9ac988e43411","114.249.63.150","Mozilla/5.0 (Macintosh; Intel Mac OS X 10_15_7) AppleWebKit/537.36 (KHTML, like Gecko) Chrome/107.0.0.0 Safari/537.36","Macintosh","Chrome","107.0.0.0","OS X","10_15_7","null","<div style=""font-size:60px;"">+</div>","null",""
"","","","","","html-button-response","85","3085414","0.0-4.0-1.40","70","1","2022-11-27 10:42:41","7b1eb8be57ff77859c7d9ac988e43411","114.249.63.150","Mozilla/5.0 (Macintosh; Intel Mac OS X 10_15_7) AppleWebKit/537.36 (KHTML, like Gecko) Chrome/107.0.0.0 Safari/537.36","Macintosh","Chrome","107.0.0.0","OS X","10_15_7","7681","<p>作为军队的指挥官，你可以选择发射导弹杀死 <strong>4名</strong> 敌国士兵，但会炸毁附近的 <strong>1棵</strong> 敌国树木。</p> <p>树木的照片如下图所示。</p> <p></p> <img src='stimuli/trees/14.png', style='max-width: 30%;'> </img> <p><strong>你是否选择发射武器？</strong></p>","1",""
"","","","","","html-keyboard-response","86","3086418","0.0-4.0-0.41","70","1","2022-11-27 10:42:41","7b1eb8be57ff77859c7d9ac988e43411","114.249.63.150","Mozilla/5.0 (Macintosh; Intel Mac OS X 10_15_7) AppleWebKit/537.36 (KHTML, like Gecko) Chrome/107.0.0.0 Safari/537.36","Macintosh","Chrome","107.0.0.0","OS X","10_15_7","null","<div style=""font-size:60px;"">+</div>","null",""
"","","","","","html-button-response","87","3088688","0.0-4.0-1.41","70","1","2022-11-27 10:42:41","7b1eb8be57ff77859c7d9ac988e43411","114.249.63.150","Mozilla/5.0 (Macintosh; Intel Mac OS X 10_15_7) AppleWebKit/537.36 (KHTML, like Gecko) Chrome/107.0.0.0 Safari/537.36","Macintosh","Chrome","107.0.0.0","OS X","10_15_7","2264","<p>作为军队的指挥官，你可以选择发射导弹杀死 <strong>3名</strong> 敌国士兵，但会误杀附近的 <strong>1名</strong> 敌国平民。</p> <p>平民照片如下图所示。</p> <p></p> <img src='stimuli/faces/PCM1.jpg', style='max-width: 30%;'> </img> <p><strong>你是否选择发射武器？</strong></p>","1",""
"","","","","","html-keyboard-response","88","3089692","0.0-4.0-0.42","70","1","2022-11-27 10:42:41","7b1eb8be57ff77859c7d9ac988e43411","114.249.63.150","Mozilla/5.0 (Macintosh; Intel Mac OS X 10_15_7) AppleWebKit/537.36 (KHTML, like Gecko) Chrome/107.0.0.0 Safari/537.36","Macintosh","Chrome","107.0.0.0","OS X","10_15_7","null","<div style=""font-size:60px;"">+</div>","null",""
"","","","","","html-button-response","89","3091146","0.0-4.0-1.42","70","1","2022-11-27 10:42:41","7b1eb8be57ff77859c7d9ac988e43411","114.249.63.150","Mozilla/5.0 (Macintosh; Intel Mac OS X 10_15_7) AppleWebKit/537.36 (KHTML, like Gecko) Chrome/107.0.0.0 Safari/537.36","Macintosh","Chrome","107.0.0.0","OS X","10_15_7","1447","<p>作为军队的指挥官，你可以选择发射导弹杀死 <strong>6名</strong> 敌国士兵，但会误杀附近的 <strong>1名</strong> 敌国平民。</p> <p>平民照片如下图所示。</p> <p></p> <img src='stimuli/faces/PCF1.jpg', style='max-width: 30%;'> </img> <p><strong>你是否选择发射武器？</strong></p>","1",""
"","","","","","html-keyboard-response","90","3092151","0.0-4.0-0.43","70","1","2022-11-27 10:42:41","7b1eb8be57ff77859c7d9ac988e43411","114.249.63.150","Mozilla/5.0 (Macintosh; Intel Mac OS X 10_15_7) AppleWebKit/537.36 (KHTML, like Gecko) Chrome/107.0.0.0 Safari/537.36","Macintosh","Chrome","107.0.0.0","OS X","10_15_7","null","<div style=""font-size:60px;"">+</div>","null",""
"","","","","","html-button-response","91","3093499","0.0-4.0-1.43","70","1","2022-11-27 10:42:41","7b1eb8be57ff77859c7d9ac988e43411","114.249.63.150","Mozilla/5.0 (Macintosh; Intel Mac OS X 10_15_7) AppleWebKit/537.36 (KHTML, like Gecko) Chrome/107.0.0.0 Safari/537.36","Macintosh","Chrome","107.0.0.0","OS X","10_15_7","1342","<p>作为军队的指挥官，你可以选择发射导弹杀死 <strong>1名</strong> 敌国士兵，但会误杀附近的 <strong>1名</strong> 敌国平民。</p> <p>平民照片如下图所示。</p> <p></p> <img src='stimuli/faces/PCF3.jpg', style='max-width: 30%;'> </img> <p><strong>你是否选择发射武器？</strong></p>","1",""
"","","","","","html-keyboard-response","92","3094507","0.0-4.0-0.44","70","1","2022-11-27 10:42:41","7b1eb8be57ff77859c7d9ac988e43411","114.249.63.150","Mozilla/5.0 (Macintosh; Intel Mac OS X 10_15_7) AppleWebKit/537.36 (KHTML, like Gecko) Chrome/107.0.0.0 Safari/537.36","Macintosh","Chrome","107.0.0.0","OS X","10_15_7","null","<div style=""font-size:60px;"">+</div>","null",""
"","","","","","html-button-response","93","3095432","0.0-4.0-1.44","70","1","2022-11-27 10:42:41","7b1eb8be57ff77859c7d9ac988e43411","114.249.63.150","Mozilla/5.0 (Macintosh; Intel Mac OS X 10_15_7) AppleWebKit/537.36 (KHTML, like Gecko) Chrome/107.0.0.0 Safari/537.36","Macintosh","Chrome","107.0.0.0","OS X","10_15_7","918","<p>作为军队的指挥官，你可以选择发射导弹杀死 <strong>6名</strong> 敌国士兵，但会误杀附近的 <strong>1名</strong> 敌国平民。</p> <p>平民照片如下图所示。</p> <p></p> <img src='stimuli/faces/PCF3.jpg', style='max-width: 30%;'> </img> <p><strong>你是否选择发射武器？</strong></p>","1",""
"","","","","","html-keyboard-response","94","3096437","0.0-4.0-0.45","70","1","2022-11-27 10:42:41","7b1eb8be57ff77859c7d9ac988e43411","114.249.63.150","Mozilla/5.0 (Macintosh; Intel Mac OS X 10_15_7) AppleWebKit/537.36 (KHTML, like Gecko) Chrome/107.0.0.0 Safari/537.36","Macintosh","Chrome","107.0.0.0","OS X","10_15_7","null","<div style=""font-size:60px;"">+</div>","null",""
"","","","","","html-button-response","95","3097227","0.0-4.0-1.45","70","1","2022-11-27 10:42:41","7b1eb8be57ff77859c7d9ac988e43411","114.249.63.150","Mozilla/5.0 (Macintosh; Intel Mac OS X 10_15_7) AppleWebKit/537.36 (KHTML, like Gecko) Chrome/107.0.0.0 Safari/537.36","Macintosh","Chrome","107.0.0.0","OS X","10_15_7","783","<p>作为军队的指挥官，你可以选择发射导弹杀死 <strong>4名</strong> 敌国士兵，但会误杀附近的 <strong>1名</strong> 敌国平民。</p> <p>平民照片如下图所示。</p> <p></p> <img src='stimuli/faces/PCM7.jpg', style='max-width: 30%;'> </img> <p><strong>你是否选择发射武器？</strong></p>","1",""
"","","","","","html-keyboard-response","96","3098235","0.0-4.0-0.46","70","1","2022-11-27 10:42:41","7b1eb8be57ff77859c7d9ac988e43411","114.249.63.150","Mozilla/5.0 (Macintosh; Intel Mac OS X 10_15_7) AppleWebKit/537.36 (KHTML, like Gecko) Chrome/107.0.0.0 Safari/537.36","Macintosh","Chrome","107.0.0.0","OS X","10_15_7","null","<div style=""font-size:60px;"">+</div>","null",""
"","","","","","html-button-response","97","3101561","0.0-4.0-1.46","70","1","2022-11-27 10:42:41","7b1eb8be57ff77859c7d9ac988e43411","114.249.63.150","Mozilla/5.0 (Macintosh; Intel Mac OS X 10_15_7) AppleWebKit/537.36 (KHTML, like Gecko) Chrome/107.0.0.0 Safari/537.36","Macintosh","Chrome","107.0.0.0","OS X","10_15_7","3319","<p>作为军队的指挥官，你可以选择发射导弹杀死 <strong>9名</strong> 敌国士兵，但会误杀附近的 <strong>1名</strong> 敌国平民。</p> <p>平民照片如下图所示。</p> <p></p> <img src='stimuli/faces/PCM5.jpg', style='max-width: 30%;'> </img> <p><strong>你是否选择发射武器？</strong></p>","0",""
"","","","","","html-keyboard-response","98","3102568","0.0-4.0-0.47","70","1","2022-11-27 10:42:41","7b1eb8be57ff77859c7d9ac988e43411","114.249.63.150","Mozilla/5.0 (Macintosh; Intel Mac OS X 10_15_7) AppleWebKit/537.36 (KHTML, like Gecko) Chrome/107.0.0.0 Safari/537.36","Macintosh","Chrome","107.0.0.0","OS X","10_15_7","null","<div style=""font-size:60px;"">+</div>","null",""
"","","","","","html-button-response","99","3105296","0.0-4.0-1.47","70","1","2022-11-27 10:42:41","7b1eb8be57ff77859c7d9ac988e43411","114.249.63.150","Mozilla/5.0 (Macintosh; Intel Mac OS X 10_15_7) AppleWebKit/537.36 (KHTML, like Gecko) Chrome/107.0.0.0 Safari/537.36","Macintosh","Chrome","107.0.0.0","OS X","10_15_7","2721","<p>作为军队的指挥官，你可以选择发射导弹杀死 <strong>9名</strong> 敌国士兵，但会炸毁附近的 <strong>1棵</strong> 敌国树木。</p> <p>树木的照片如下图所示。</p> <p></p> <img src='stimuli/trees/9.png', style='max-width: 30%;'> </img> <p><strong>你是否选择发射武器？</strong></p>","0",""
"","","","","","html-keyboard-response","100","3106301","0.0-4.0-0.48","70","1","2022-11-27 10:42:41","7b1eb8be57ff77859c7d9ac988e43411","114.249.63.150","Mozilla/5.0 (Macintosh; Intel Mac OS X 10_15_7) AppleWebKit/537.36 (KHTML, like Gecko) Chrome/107.0.0.0 Safari/537.36","Macintosh","Chrome","107.0.0.0","OS X","10_15_7","null","<div style=""font-size:60px;"">+</div>","null",""
"","","","","","html-button-response","101","3109445","0.0-4.0-1.48","70","1","2022-11-27 10:42:41","7b1eb8be57ff77859c7d9ac988e43411","114.249.63.150","Mozilla/5.0 (Macintosh; Intel Mac OS X 10_15_7) AppleWebKit/537.36 (KHTML, like Gecko) Chrome/107.0.0.0 Safari/537.36","Macintosh","Chrome","107.0.0.0","OS X","10_15_7","3140","<p>作为军队的指挥官，你可以选择发射导弹杀死 <strong>8名</strong> 敌国士兵，但会误杀附近的 <strong>1名</strong> 敌国平民。</p> <p>平民照片如下图所示。</p> <p></p> <img src='stimuli/faces/PCF8.jpg', style='max-width: 30%;'> </img> <p><strong>你是否选择发射武器？</strong></p>","0",""
"","","","","","html-keyboard-response","102","3110450","0.0-4.0-0.49","70","1","2022-11-27 10:42:41","7b1eb8be57ff77859c7d9ac988e43411","114.249.63.150","Mozilla/5.0 (Macintosh; Intel Mac OS X 10_15_7) AppleWebKit/537.36 (KHTML, like Gecko) Chrome/107.0.0.0 Safari/537.36","Macintosh","Chrome","107.0.0.0","OS X","10_15_7","null","<div style=""font-size:60px;"">+</div>","null",""
"","","","","","html-button-response","103","3117647","0.0-4.0-1.49","70","1","2022-11-27 10:42:41","7b1eb8be57ff77859c7d9ac988e43411","114.249.63.150","Mozilla/5.0 (Macintosh; Intel Mac OS X 10_15_7) AppleWebKit/537.36 (KHTML, like Gecko) Chrome/107.0.0.0 Safari/537.36","Macintosh","Chrome","107.0.0.0","OS X","10_15_7","7190","<p>作为军队的指挥官，你可以选择发射导弹杀死 <strong>3名</strong> 敌国士兵，但会炸毁附近的 <strong>1棵</strong> 敌国树木。</p> <p>树木的照片如下图所示。</p> <p></p> <img src='stimuli/trees/10.png', style='max-width: 30%;'> </img> <p><strong>你是否选择发射武器？</strong></p>","1",""
"","","","","","html-keyboard-response","104","3118651","0.0-4.0-0.50","70","1","2022-11-27 10:42:41","7b1eb8be57ff77859c7d9ac988e43411","114.249.63.150","Mozilla/5.0 (Macintosh; Intel Mac OS X 10_15_7) AppleWebKit/537.36 (KHTML, like Gecko) Chrome/107.0.0.0 Safari/537.36","Macintosh","Chrome","107.0.0.0","OS X","10_15_7","null","<div style=""font-size:60px;"">+</div>","null",""
"","","","","","html-button-response","105","3127300","0.0-4.0-1.50","70","1","2022-11-27 10:42:41","7b1eb8be57ff77859c7d9ac988e43411","114.249.63.150","Mozilla/5.0 (Macintosh; Intel Mac OS X 10_15_7) AppleWebKit/537.36 (KHTML, like Gecko) Chrome/107.0.0.0 Safari/537.36","Macintosh","Chrome","107.0.0.0","OS X","10_15_7","8641","<p>作为军队的指挥官，你可以选择发射导弹杀死 <strong>7名</strong> 敌国士兵，但会误杀附近的 <strong>1名</strong> 敌国平民。</p> <p>平民照片如下图所示。</p> <p></p> <img src='stimuli/faces/PCM1.jpg', style='max-width: 30%;'> </img> <p><strong>你是否选择发射武器？</strong></p>","0",""
"","","","","","html-keyboard-response","106","3128308","0.0-4.0-0.51","70","1","2022-11-27 10:42:41","7b1eb8be57ff77859c7d9ac988e43411","114.249.63.150","Mozilla/5.0 (Macintosh; Intel Mac OS X 10_15_7) AppleWebKit/537.36 (KHTML, like Gecko) Chrome/107.0.0.0 Safari/537.36","Macintosh","Chrome","107.0.0.0","OS X","10_15_7","null","<div style=""font-size:60px;"">+</div>","null",""
"","","","","","html-button-response","107","3129321","0.0-4.0-1.51","70","1","2022-11-27 10:42:41","7b1eb8be57ff77859c7d9ac988e43411","114.249.63.150","Mozilla/5.0 (Macintosh; Intel Mac OS X 10_15_7) AppleWebKit/537.36 (KHTML, like Gecko) Chrome/107.0.0.0 Safari/537.36","Macintosh","Chrome","107.0.0.0","OS X","10_15_7","1005","<p>作为军队的指挥官，你可以选择发射导弹杀死 <strong>8名</strong> 敌国士兵，但会误杀附近的 <strong>1名</strong> 敌国平民。</p> <p>平民照片如下图所示。</p> <p></p> <img src='stimuli/faces/PCM4.jpg', style='max-width: 30%;'> </img> <p><strong>你是否选择发射武器？</strong></p>","0",""
"","","","","","html-keyboard-response","108","3130325","0.0-4.0-0.52","70","1","2022-11-27 10:42:41","7b1eb8be57ff77859c7d9ac988e43411","114.249.63.150","Mozilla/5.0 (Macintosh; Intel Mac OS X 10_15_7) AppleWebKit/537.36 (KHTML, like Gecko) Chrome/107.0.0.0 Safari/537.36","Macintosh","Chrome","107.0.0.0","OS X","10_15_7","null","<div style=""font-size:60px;"">+</div>","null",""
"","","","","","html-button-response","109","3132111","0.0-4.0-1.52","70","1","2022-11-27 10:42:41","7b1eb8be57ff77859c7d9ac988e43411","114.249.63.150","Mozilla/5.0 (Macintosh; Intel Mac OS X 10_15_7) AppleWebKit/537.36 (KHTML, like Gecko) Chrome/107.0.0.0 Safari/537.36","Macintosh","Chrome","107.0.0.0","OS X","10_15_7","1782","<p>作为军队的指挥官，你可以选择发射导弹杀死 <strong>5名</strong> 敌国士兵，但会误杀附近的 <strong>1名</strong> 敌国平民。</p> <p>平民照片如下图所示。</p> <p></p> <img src='stimuli/faces/PCM8.jpg', style='max-width: 30%;'> </img> <p><strong>你是否选择发射武器？</strong></p>","1",""
"","","","","","html-keyboard-response","110","3133120","0.0-4.0-0.53","70","1","2022-11-27 10:42:41","7b1eb8be57ff77859c7d9ac988e43411","114.249.63.150","Mozilla/5.0 (Macintosh; Intel Mac OS X 10_15_7) AppleWebKit/537.36 (KHTML, like Gecko) Chrome/107.0.0.0 Safari/537.36","Macintosh","Chrome","107.0.0.0","OS X","10_15_7","null","<div style=""font-size:60px;"">+</div>","null",""
"","","","","","html-button-response","111","3135879","0.0-4.0-1.53","70","1","2022-11-27 10:42:41","7b1eb8be57ff77859c7d9ac988e43411","114.249.63.150","Mozilla/5.0 (Macintosh; Intel Mac OS X 10_15_7) AppleWebKit/537.36 (KHTML, like Gecko) Chrome/107.0.0.0 Safari/537.36","Macintosh","Chrome","107.0.0.0","OS X","10_15_7","2753","<p>作为军队的指挥官，你可以选择发射导弹杀死 <strong>7名</strong> 敌国士兵，但会炸毁附近的 <strong>1棵</strong> 敌国树木。</p> <p>树木的照片如下图所示。</p> <p></p> <img src='stimuli/trees/10.png', style='max-width: 30%;'> </img> <p><strong>你是否选择发射武器？</strong></p>","0",""
"","","","","","html-keyboard-response","112","3136888","0.0-4.0-0.54","70","1","2022-11-27 10:42:41","7b1eb8be57ff77859c7d9ac988e43411","114.249.63.150","Mozilla/5.0 (Macintosh; Intel Mac OS X 10_15_7) AppleWebKit/537.36 (KHTML, like Gecko) Chrome/107.0.0.0 Safari/537.36","Macintosh","Chrome","107.0.0.0","OS X","10_15_7","null","<div style=""font-size:60px;"">+</div>","null",""
"","","","","","html-button-response","113","3138904","0.0-4.0-1.54","70","1","2022-11-27 10:42:41","7b1eb8be57ff77859c7d9ac988e43411","114.249.63.150","Mozilla/5.0 (Macintosh; Intel Mac OS X 10_15_7) AppleWebKit/537.36 (KHTML, like Gecko) Chrome/107.0.0.0 Safari/537.36","Macintosh","Chrome","107.0.0.0","OS X","10_15_7","2008","<p>作为军队的指挥官，你可以选择发射导弹杀死 <strong>4名</strong> 敌国士兵，但会误杀附近的 <strong>1名</strong> 敌国平民。</p> <p>平民照片如下图所示。</p> <p></p> <img src='stimuli/faces/PCM6.jpg', style='max-width: 30%;'> </img> <p><strong>你是否选择发射武器？</strong></p>","1",""
"","","","","","html-keyboard-response","114","3139912","0.0-4.0-0.55","70","1","2022-11-27 10:42:41","7b1eb8be57ff77859c7d9ac988e43411","114.249.63.150","Mozilla/5.0 (Macintosh; Intel Mac OS X 10_15_7) AppleWebKit/537.36 (KHTML, like Gecko) Chrome/107.0.0.0 Safari/537.36","Macintosh","Chrome","107.0.0.0","OS X","10_15_7","null","<div style=""font-size:60px;"">+</div>","null",""
"","","","","","html-button-response","115","3141225","0.0-4.0-1.55","70","1","2022-11-27 10:42:41","7b1eb8be57ff77859c7d9ac988e43411","114.249.63.150","Mozilla/5.0 (Macintosh; Intel Mac OS X 10_15_7) AppleWebKit/537.36 (KHTML, like Gecko) Chrome/107.0.0.0 Safari/537.36","Macintosh","Chrome","107.0.0.0","OS X","10_15_7","1305","<p>作为军队的指挥官，你可以选择发射导弹杀死 <strong>10名</strong> 敌国士兵，但会炸毁附近的 <strong>1棵</strong> 敌国树木。</p> <p>树木的照片如下图所示。</p> <p></p> <img src='stimuli/trees/8.png', style='max-width: 30%;'> </img> <p><strong>你是否选择发射武器？</strong></p>","0",""
"","","","","","html-keyboard-response","116","3142232","0.0-4.0-0.56","70","1","2022-11-27 10:42:41","7b1eb8be57ff77859c7d9ac988e43411","114.249.63.150","Mozilla/5.0 (Macintosh; Intel Mac OS X 10_15_7) AppleWebKit/537.36 (KHTML, like Gecko) Chrome/107.0.0.0 Safari/537.36","Macintosh","Chrome","107.0.0.0","OS X","10_15_7","null","<div style=""font-size:60px;"">+</div>","null",""
"","","","","","html-button-response","117","3143953","0.0-4.0-1.56","70","1","2022-11-27 10:42:41","7b1eb8be57ff77859c7d9ac988e43411","114.249.63.150","Mozilla/5.0 (Macintosh; Intel Mac OS X 10_15_7) AppleWebKit/537.36 (KHTML, like Gecko) Chrome/107.0.0.0 Safari/537.36","Macintosh","Chrome","107.0.0.0","OS X","10_15_7","1714","<p>作为军队的指挥官，你可以选择发射导弹杀死 <strong>4名</strong> 敌国士兵，但会炸毁附近的 <strong>1棵</strong> 敌国树木。</p> <p>树木的照片如下图所示。</p> <p></p> <img src='stimuli/trees/15.png', style='max-width: 30%;'> </img> <p><strong>你是否选择发射武器？</strong></p>","1",""
"","","","","","html-keyboard-response","118","3144960","0.0-4.0-0.57","70","1","2022-11-27 10:42:41","7b1eb8be57ff77859c7d9ac988e43411","114.249.63.150","Mozilla/5.0 (Macintosh; Intel Mac OS X 10_15_7) AppleWebKit/537.36 (KHTML, like Gecko) Chrome/107.0.0.0 Safari/537.36","Macintosh","Chrome","107.0.0.0","OS X","10_15_7","null","<div style=""font-size:60px;"">+</div>","null",""
"","","","","","html-button-response","119","3145778","0.0-4.0-1.57","70","1","2022-11-27 10:42:41","7b1eb8be57ff77859c7d9ac988e43411","114.249.63.150","Mozilla/5.0 (Macintosh; Intel Mac OS X 10_15_7) AppleWebKit/537.36 (KHTML, like Gecko) Chrome/107.0.0.0 Safari/537.36","Macintosh","Chrome","107.0.0.0","OS X","10_15_7","811","<p>作为军队的指挥官，你可以选择发射导弹杀死 <strong>4名</strong> 敌国士兵，但会误杀附近的 <strong>1名</strong> 敌国平民。</p> <p>平民照片如下图所示。</p> <p></p> <img src='stimuli/faces/PCF8.jpg', style='max-width: 30%;'> </img> <p><strong>你是否选择发射武器？</strong></p>","1",""
"","","","","","html-keyboard-response","120","3146783","0.0-4.0-0.58","70","1","2022-11-27 10:42:41","7b1eb8be57ff77859c7d9ac988e43411","114.249.63.150","Mozilla/5.0 (Macintosh; Intel Mac OS X 10_15_7) AppleWebKit/537.36 (KHTML, like Gecko) Chrome/107.0.0.0 Safari/537.36","Macintosh","Chrome","107.0.0.0","OS X","10_15_7","null","<div style=""font-size:60px;"">+</div>","null",""
"","","","","","html-button-response","121","3147710","0.0-4.0-1.58","70","1","2022-11-27 10:42:41","7b1eb8be57ff77859c7d9ac988e43411","114.249.63.150","Mozilla/5.0 (Macintosh; Intel Mac OS X 10_15_7) AppleWebKit/537.36 (KHTML, like Gecko) Chrome/107.0.0.0 Safari/537.36","Macintosh","Chrome","107.0.0.0","OS X","10_15_7","921","<p>作为军队的指挥官，你可以选择发射导弹杀死 <strong>8名</strong> 敌国士兵，但会炸毁附近的 <strong>1棵</strong> 敌国树木。</p> <p>树木的照片如下图所示。</p> <p></p> <img src='stimuli/trees/15.png', style='max-width: 30%;'> </img> <p><strong>你是否选择发射武器？</strong></p>","1",""
"","","","","","html-keyboard-response","122","3148720","0.0-4.0-0.59","70","1","2022-11-27 10:42:41","7b1eb8be57ff77859c7d9ac988e43411","114.249.63.150","Mozilla/5.0 (Macintosh; Intel Mac OS X 10_15_7) AppleWebKit/537.36 (KHTML, like Gecko) Chrome/107.0.0.0 Safari/537.36","Macintosh","Chrome","107.0.0.0","OS X","10_15_7","null","<div style=""font-size:60px;"">+</div>","null",""
"","","","","","html-button-response","123","3149336","0.0-4.0-1.59","70","1","2022-11-27 10:42:41","7b1eb8be57ff77859c7d9ac988e43411","114.249.63.150","Mozilla/5.0 (Macintosh; Intel Mac OS X 10_15_7) AppleWebKit/537.36 (KHTML, like Gecko) Chrome/107.0.0.0 Safari/537.36","Macintosh","Chrome","107.0.0.0","OS X","10_15_7","609","<p>作为军队的指挥官，你可以选择发射导弹杀死 <strong>4名</strong> 敌国士兵，但会炸毁附近的 <strong>1棵</strong> 敌国树木。</p> <p>树木的照片如下图所示。</p> <p></p> <img src='stimuli/trees/9.png', style='max-width: 30%;'> </img> <p><strong>你是否选择发射武器？</strong></p>","1",""
"","","","","","html-keyboard-response","124","3150344","0.0-4.0-0.60","70","1","2022-11-27 10:42:41","7b1eb8be57ff77859c7d9ac988e43411","114.249.63.150","Mozilla/5.0 (Macintosh; Intel Mac OS X 10_15_7) AppleWebKit/537.36 (KHTML, like Gecko) Chrome/107.0.0.0 Safari/537.36","Macintosh","Chrome","107.0.0.0","OS X","10_15_7","null","<div style=""font-size:60px;"">+</div>","null",""
"","","","","","html-button-response","125","3151357","0.0-4.0-1.60","70","1","2022-11-27 10:42:41","7b1eb8be57ff77859c7d9ac988e43411","114.249.63.150","Mozilla/5.0 (Macintosh; Intel Mac OS X 10_15_7) AppleWebKit/537.36 (KHTML, like Gecko) Chrome/107.0.0.0 Safari/537.36","Macintosh","Chrome","107.0.0.0","OS X","10_15_7","1007","<p>作为军队的指挥官，你可以选择发射导弹杀死 <strong>5名</strong> 敌国士兵，但会误杀附近的 <strong>1名</strong> 敌国平民。</p> <p>平民照片如下图所示。</p> <p></p> <img src='stimuli/faces/PCM3.jpg', style='max-width: 30%;'> </img> <p><strong>你是否选择发射武器？</strong></p>","1",""
"","","","","","html-keyboard-response","126","3152363","0.0-4.0-0.61","70","1","2022-11-27 10:42:41","7b1eb8be57ff77859c7d9ac988e43411","114.249.63.150","Mozilla/5.0 (Macintosh; Intel Mac OS X 10_15_7) AppleWebKit/537.36 (KHTML, like Gecko) Chrome/107.0.0.0 Safari/537.36","Macintosh","Chrome","107.0.0.0","OS X","10_15_7","null","<div style=""font-size:60px;"">+</div>","null",""
"","","","","","html-button-response","127","3154978","0.0-4.0-1.61","70","1","2022-11-27 10:42:41","7b1eb8be57ff77859c7d9ac988e43411","114.249.63.150","Mozilla/5.0 (Macintosh; Intel Mac OS X 10_15_7) AppleWebKit/537.36 (KHTML, like Gecko) Chrome/107.0.0.0 Safari/537.36","Macintosh","Chrome","107.0.0.0","OS X","10_15_7","2607","<p>作为军队的指挥官，你可以选择发射导弹杀死 <strong>5名</strong> 敌国士兵，但会炸毁附近的 <strong>1棵</strong> 敌国树木。</p> <p>树木的照片如下图所示。</p> <p></p> <img src='stimuli/trees/11.png', style='max-width: 30%;'> </img> <p><strong>你是否选择发射武器？</strong></p>","1",""
"","","","","","html-keyboard-response","128","3155984","0.0-4.0-0.62","70","1","2022-11-27 10:42:41","7b1eb8be57ff77859c7d9ac988e43411","114.249.63.150","Mozilla/5.0 (Macintosh; Intel Mac OS X 10_15_7) AppleWebKit/537.36 (KHTML, like Gecko) Chrome/107.0.0.0 Safari/537.36","Macintosh","Chrome","107.0.0.0","OS X","10_15_7","null","<div style=""font-size:60px;"">+</div>","null",""
"","","","","","html-button-response","129","3156772","0.0-4.0-1.62","70","1","2022-11-27 10:42:41","7b1eb8be57ff77859c7d9ac988e43411","114.249.63.150","Mozilla/5.0 (Macintosh; Intel Mac OS X 10_15_7) AppleWebKit/537.36 (KHTML, like Gecko) Chrome/107.0.0.0 Safari/537.36","Macintosh","Chrome","107.0.0.0","OS X","10_15_7","780","<p>作为军队的指挥官，你可以选择发射导弹杀死 <strong>3名</strong> 敌国士兵，但会炸毁附近的 <strong>1棵</strong> 敌国树木。</p> <p>树木的照片如下图所示。</p> <p></p> <img src='stimuli/trees/16.png', style='max-width: 30%;'> </img> <p><strong>你是否选择发射武器？</strong></p>","1",""
"","","","","","html-keyboard-response","130","3157781","0.0-4.0-0.63","70","1","2022-11-27 10:42:41","7b1eb8be57ff77859c7d9ac988e43411","114.249.63.150","Mozilla/5.0 (Macintosh; Intel Mac OS X 10_15_7) AppleWebKit/537.36 (KHTML, like Gecko) Chrome/107.0.0.0 Safari/537.36","Macintosh","Chrome","107.0.0.0","OS X","10_15_7","null","<div style=""font-size:60px;"">+</div>","null",""
"","","","","","html-button-response","131","3158608","0.0-4.0-1.63","70","1","2022-11-27 10:42:41","7b1eb8be57ff77859c7d9ac988e43411","114.249.63.150","Mozilla/5.0 (Macintosh; Intel Mac OS X 10_15_7) AppleWebKit/537.36 (KHTML, like Gecko) Chrome/107.0.0.0 Safari/537.36","Macintosh","Chrome","107.0.0.0","OS X","10_15_7","819","<p>作为军队的指挥官，你可以选择发射导弹杀死 <strong>6名</strong> 敌国士兵，但会炸毁附近的 <strong>1棵</strong> 敌国树木。</p> <p>树木的照片如下图所示。</p> <p></p> <img src='stimuli/trees/12.png', style='max-width: 30%;'> </img> <p><strong>你是否选择发射武器？</strong></p>","1",""
"","","","","","survey-multi-choice","132","3181832","0.0-5.0","70","1","2022-11-27 10:42:41","7b1eb8be57ff77859c7d9ac988e43411","114.249.63.150","Mozilla/5.0 (Macintosh; Intel Mac OS X 10_15_7) AppleWebKit/537.36 (KHTML, like Gecko) Chrome/107.0.0.0 Safari/537.36","Macintosh","Chrome","107.0.0.0","OS X","10_15_7","23217","","{""Attention1"":""""}","[0]"
"","","","","","html-button-response","133","3199037","0.0-6.0","70","1","2022-11-27 10:42:41","7b1eb8be57ff77859c7d9ac988e43411","114.249.63.150","Mozilla/5.0 (Macintosh; Intel Mac OS X 10_15_7) AppleWebKit/537.36 (KHTML, like Gecko) Chrome/107.0.0.0 Safari/537.36","Macintosh","Chrome","107.0.0.0","OS X","10_15_7","17196","<p style=""font-size:20px;font-weight:bold;"">恭喜！</p><p>你已经完成了实验的第一部分。</p><p>请休息放松一下，然后进入第二部分。</p><p>这部分大约需要10分钟。</p>","0",""
"","","","","","survey-text","134","3228205","0.0-7.0","70","1","2022-11-27 10:42:41","7b1eb8be57ff77859c7d9ac988e43411","114.249.63.150","Mozilla/5.0 (Macintosh; Intel Mac OS X 10_15_7) AppleWebKit/537.36 (KHTML, like Gecko) Chrome/107.0.0.0 Safari/537.36","Macintosh","Chrome","107.0.0.0","OS X","10_15_7","28151","","{""Age"":""19"",""Nation"":""中国"",""Born"":""北京市"",""Live"":""北京市"",""Ethnic"":""汉族"",""Alipay"":""13718852873"",""ID"":""202111040012""}",""
"","","","","","survey-multi-choice","135","3252101","0.0-8.0","70","1","2022-11-27 10:42:41","7b1eb8be57ff77859c7d9ac988e43411","114.249.63.150","Mozilla/5.0 (Macintosh; Intel Mac OS X 10_15_7) AppleWebKit/537.36 (KHTML, like Gecko) Chrome/107.0.0.0 Safari/537.36","Macintosh","Chrome","107.0.0.0","OS X","10_15_7","23891","","{""Gender"":""女"",""Education"":""高中毕业"",""Income"":""￥270,000-￥489,999"",""Children"":""0"",""Race"":""亚洲人""}","[0,1,2,3,4]"
"","","","","","survey-multi-select","136","3265360","0.0-9.0","70","1","2022-11-27 10:42:41","7b1eb8be57ff77859c7d9ac988e43411","114.249.63.150","Mozilla/5.0 (Macintosh; Intel Mac OS X 10_15_7) AppleWebKit/537.36 (KHTML, like Gecko) Chrome/107.0.0.0 Safari/537.36","Macintosh","Chrome","107.0.0.0","OS X","10_15_7","13236","","{""Marriage"":[""未婚""],""Religion"":[""无宗教信仰""]}","[0,1]"
"","","","","","survey-multi-choice","137","3271771","0.0-10.0","70","1","2022-11-27 10:42:41","7b1eb8be57ff77859c7d9ac988e43411","114.249.63.150","Mozilla/5.0 (Macintosh; Intel Mac OS X 10_15_7) AppleWebKit/537.36 (KHTML, like Gecko) Chrome/107.0.0.0 Safari/537.36","Macintosh","Chrome","107.0.0.0","OS X","10_15_7","6402","","{""SES"":""6""}","[0]"
"","","","","","html-button-response","138","3276219","0.0-11.0","70","1","2022-11-27 10:42:41","7b1eb8be57ff77859c7d9ac988e43411","114.249.63.150","Mozilla/5.0 (Macintosh; Intel Mac OS X 10_15_7) AppleWebKit/537.36 (KHTML, like Gecko) Chrome/107.0.0.0 Safari/537.36","Macintosh","Chrome","107.0.0.0","OS X","10_15_7","4438","<p><strong>请判断下列陈述在多大程度上可以形容你？</p><p> (1 = ""和我一点都不像"" to 5 = ""非常像我"".)</strong></p>","0",""
"","","","","","survey-likert","139","3312475","0.0-12.0","70","1","2022-11-27 10:42:41","7b1eb8be57ff77859c7d9ac988e43411","114.249.63.150","Mozilla/5.0 (Macintosh; Intel Mac OS X 10_15_7) AppleWebKit/537.36 (KHTML, like Gecko) Chrome/107.0.0.0 Safari/537.36","Macintosh","Chrome","107.0.0.0","OS X","10_15_7","36250","","{""Aggression1"":1,""Aggression2"":2,""Aggression3"":1,""Aggression4"":0,""Aggression5"":2,""Aggression6"":1,""Aggression7"":3,""Aggression8"":0,""Aggression9"":2}","[0,1,2,3,4,5,6,7,8]"
"","","","","","html-button-response","140","3314204","0.0-13.0","70","1","2022-11-27 10:42:41","7b1eb8be57ff77859c7d9ac988e43411","114.249.63.150","Mozilla/5.0 (Macintosh; Intel Mac OS X 10_15_7) AppleWebKit/537.36 (KHTML, like Gecko) Chrome/107.0.0.0 Safari/537.36","Macintosh","Chrome","107.0.0.0","OS X","10_15_7","1718","<p><strong>请判断你在多大程度上同意下列陈述。</strong></p>","0",""
"","","","","","survey-likert","141","3496988","0.0-14.0","70","1","2022-11-27 10:42:41","7b1eb8be57ff77859c7d9ac988e43411","114.249.63.150","Mozilla/5.0 (Macintosh; Intel Mac OS X 10_15_7) AppleWebKit/537.36 (KHTML, like Gecko) Chrome/107.0.0.0 Safari/537.36","Macintosh","Chrome","107.0.0.0","OS X","10_15_7","182781","","{""scale6"":4,""scale10"":4,""scale5"":4,""scale15"":1,""scale17"":4,""scale19"":3,""scale27"":2,""scale7"":0,""scale28"":2,""scale24"":1,""scale11"":3,""scale12"":2,""scale23"":3,""scale2"":2,""scale8"":2,""scale1"":1,""scale20"":3,""scale14"":1,""scale21"":2,""scale4"":2,""scale22"":3,""scale13"":0,""scale25"":1,""scale9"":3,""scale26"":2,""scale18"":0,""scale3"":3,""scale16"":3}","[5,9,4,14,16,18,26,6,27,23,10,11,22,1,7,0,19,13,20,3,21,12,24,8,25,17,2,15]"
"","","","","","html-button-response","142","3498724","0.0-15.0","70","1","2022-11-27 10:42:41","7b1eb8be57ff77859c7d9ac988e43411","114.249.63.150","Mozilla/5.0 (Macintosh; Intel Mac OS X 10_15_7) AppleWebKit/537.36 (KHTML, like Gecko) Chrome/107.0.0.0 Safari/537.36","Macintosh","Chrome","107.0.0.0","OS X","10_15_7","1726","<p><strong>请判断你在多大程度上同意下列陈述。</strong></p>","0",""
"","","","","","survey-likert","143","3602055","0.0-16.0","70","1","2022-11-27 10:42:41","7b1eb8be57ff77859c7d9ac988e43411","114.249.63.150","Mozilla/5.0 (Macintosh; Intel Mac OS X 10_15_7) AppleWebKit/537.36 (KHTML, like Gecko) Chrome/107.0.0.0 Safari/537.36","Macintosh","Chrome","107.0.0.0","OS X","10_15_7","103367","","{""sdo11"":4,""sdo10"":4,""sdo7"":1,""sdo4"":2,""sdo12"":5,""sdo9"":4,""sdo13"":4,""sdo2"":1,""sdo3"":4,""sdo6"":4,""sdo15"":3,""sdo16"":4,""sdo1"":2,""sdo8"":4,""sdo14"":2,""sdo5"":2}","[10,9,6,3,11,8,12,1,2,5,14,15,0,7,13,4]"
"","","","","","html-button-response","144","3603669","0.0-17.0","70","1","2022-11-27 10:42:41","7b1eb8be57ff77859c7d9ac988e43411","114.249.63.150","Mozilla/5.0 (Macintosh; Intel Mac OS X 10_15_7) AppleWebKit/537.36 (KHTML, like Gecko) Chrome/107.0.0.0 Safari/537.36","Macintosh","Chrome","107.0.0.0","OS X","10_15_7","1604","<p><strong>请判断你在多大程度上同意下列陈述。</strong></p>","0",""
"","","","","","survey-likert","145","3657721","0.0-18.0","70","1","2022-11-27 10:42:41","7b1eb8be57ff77859c7d9ac988e43411","114.249.63.150","Mozilla/5.0 (Macintosh; Intel Mac OS X 10_15_7) AppleWebKit/537.36 (KHTML, like Gecko) Chrome/107.0.0.0 Safari/537.36","Macintosh","Chrome","107.0.0.0","OS X","10_15_7","54045","","{""caring1"":4,""liking1"":0,""caring2"":4,""protection1"":4,""liking2"":0,""caring3"":4,""protection2"":1,""liking3"":0,""protection3"":3,""caring4"":4,""liking4"":0,""protection4"":3,""caring5"":3,""liking5"":0,""protection5"":2}","[0,1,2,3,4,5,6,7,8,9,10,11,12,13,14]"
"","","","","","html-button-response","146","3659209","0.0-19.0","70","1","2022-11-27 10:42:41","7b1eb8be57ff77859c7d9ac988e43411","114.249.63.150","Mozilla/5.0 (Macintosh; Intel Mac OS X 10_15_7) AppleWebKit/537.36 (KHTML, like Gecko) Chrome/107.0.0.0 Safari/537.36","Macintosh","Chrome","107.0.0.0","OS X","10_15_7","1477","<p><strong>请判断下列场景中你的内心感受有多柔软。</strong></p>","0",""
"","","","","","survey-likert","147","3693934","0.0-20.0","70","1","2022-11-27 10:42:41","7b1eb8be57ff77859c7d9ac988e43411","114.249.63.150","Mozilla/5.0 (Macintosh; Intel Mac OS X 10_15_7) AppleWebKit/537.36 (KHTML, like Gecko) Chrome/107.0.0.0 Safari/537.36","Macintosh","Chrome","107.0.0.0","OS X","10_15_7","34720","","{""tenderness-positive1"":4,""tenderness-negative1"":2,""tenderness-negative2"":2,""tenderness-positive2"":3,""tenderness-positive3"":4,""tenderness-negative3"":1,""tenderness-positive4"":4,""tenderness-negative4"":3,""tenderness-negative5"":3,""tenderness-positive5"":3}","[0,1,2,3,4,5,6,7,8,9]"
"","","","","","survey-multi-choice","148","3703025","0.0-21.0","70","1","2022-11-27 10:42:41","7b1eb8be57ff77859c7d9ac988e43411","114.249.63.150","Mozilla/5.0 (Macintosh; Intel Mac OS X 10_15_7) AppleWebKit/537.36 (KHTML, like Gecko) Chrome/107.0.0.0 Safari/537.36","Macintosh","Chrome","107.0.0.0","OS X","10_15_7","9081","","{""Attention2"":""其他""}","[0]"
"","","","","","html-button-response","149","3705030","0.0-22.0","70","1","2022-11-27 10:42:41","7b1eb8be57ff77859c7d9ac988e43411","114.249.63.150","Mozilla/5.0 (Macintosh; Intel Mac OS X 10_15_7) AppleWebKit/537.36 (KHTML, like Gecko) Chrome/107.0.0.0 Safari/537.36","Macintosh","Chrome","107.0.0.0","OS X","10_15_7","1994","<p><strong>请判断你在多大程度上同意下列陈述。</strong></p>","0",""
"","","","","","survey-likert","150","3842143","0.0-23.0","70","1","2022-11-27 10:42:41","7b1eb8be57ff77859c7d9ac988e43411","114.249.63.150","Mozilla/5.0 (Macintosh; Intel Mac OS X 10_15_7) AppleWebKit/537.36 (KHTML, like Gecko) Chrome/107.0.0.0 Safari/537.36","Macintosh","Chrome","107.0.0.0","OS X","10_15_7","137110","","{""Patri2"":2,""Patri7"":3,""Patri10"":0,""Patri1"":3,""Patri9"":1,""Nation1"":0,""Nation8"":3,""Patri3"":3,""Patri11"":1,""Nation2"":3,""Nation6"":2,""Nation3"":3,""Patri8"":3,""Patri6"":2,""Nation7"":3,""Patri5"":3,""Patri4"":3,""Patri12"":0,""Nation4"":1,""Nation5"":2}","[1,6,9,0,8,12,19,2,10,13,17,14,7,5,18,4,3,11,15,16]"
"","","","","","html-button-response","151","3844048","0.0-24.0","70","1","2022-11-27 10:42:41","7b1eb8be57ff77859c7d9ac988e43411","114.249.63.150","Mozilla/5.0 (Macintosh; Intel Mac OS X 10_15_7) AppleWebKit/537.36 (KHTML, like Gecko) Chrome/107.0.0.0 Safari/537.36","Macintosh","Chrome","107.0.0.0","OS X","10_15_7","1893","<p><strong>请判断你在多大程度上同意下列陈述。</strong></p>","0",""
"","","","","","survey-likert","152","3924584","0.0-25.0","70","1","2022-11-27 10:42:41","7b1eb8be57ff77859c7d9ac988e43411","114.249.63.150","Mozilla/5.0 (Macintosh; Intel Mac OS X 10_15_7) AppleWebKit/537.36 (KHTML, like Gecko) Chrome/107.0.0.0 Safari/537.36","Macintosh","Chrome","107.0.0.0","OS X","10_15_7","80527","","{""hi2"":6,""vc1"":6,""hc1"":6,""hc3"":5,""hc4"":4,""vi2"":4,""vc2"":3,""hc2"":5,""hi3"":2,""vc4"":6,""hi4"":7,""Robot"":6,""hi1"":7,""vi1"":4,""vc3"":5,""vi3"":2,""vi4"":4}","[1,13,9,11,12,5,14,10,2,16,3,7,0,4,15,6,8]"
"","","","","","survey-text","153","3930214","0.0-26.0","70","1","2022-11-27 10:42:41","7b1eb8be57ff77859c7d9ac988e43411","114.249.63.150","Mozilla/5.0 (Macintosh; Intel Mac OS X 10_15_7) AppleWebKit/537.36 (KHTML, like Gecko) Chrome/107.0.0.0 Safari/537.36","Macintosh","Chrome","107.0.0.0","OS X","10_15_7","5599","","{""Comments"":""无""}",""
"","","","","","html-button-response","154","3931321","0.0-27.0","70","1","2022-11-27 10:42:41","7b1eb8be57ff77859c7d9ac988e43411","114.249.63.150","Mozilla/5.0 (Macintosh; Intel Mac OS X 10_15_7) AppleWebKit/537.36 (KHTML, like Gecko) Chrome/107.0.0.0 Safari/537.36","Macintosh","Chrome","107.0.0.0","OS X","10_15_7","1101","<strong><p>恭喜你完成了实验！</p><p>感谢您的参与。</p></strong>","0",""
