"success","timeout","failed_images","failed_audio","failed_video","trial_type","trial_index","time_elapsed","internal_node_id","run_id","condition","recorded_at","source_code_version","ip","user_agent","device","browser","browser_version","platform","platform_version","rt","stimulus","response","question_order"
"true","false","[]","[]","[]","preload","0","934","0.0-0.0","91","1","2022-11-27 12:03:55","7b1eb8be57ff77859c7d9ac988e43411","183.198.206.150","Mozilla/5.0 (Windows NT 10.0; Win64; x64) AppleWebKit/537.36 (KHTML, like Gecko) Chrome/107.0.0.0 Safari/537.36 Edg/107.0.1418.56","WebKit","Edge","107.0.1418.56","Windows","10.0","","","",""
"true","","","","","fullscreen","1","2990","0.0-1.0","91","1","2022-11-27 12:03:55","7b1eb8be57ff77859c7d9ac988e43411","183.198.206.150","Mozilla/5.0 (Windows NT 10.0; Win64; x64) AppleWebKit/537.36 (KHTML, like Gecko) Chrome/107.0.0.0 Safari/537.36 Edg/107.0.1418.56","WebKit","Edge","107.0.1418.56","Windows","10.0","","","",""
"","","","","","html-button-response","2","39118","0.0-2.0","91","1","2022-11-27 12:03:55","7b1eb8be57ff77859c7d9ac988e43411","183.198.206.150","Mozilla/5.0 (Windows NT 10.0; Win64; x64) AppleWebKit/537.36 (KHTML, like Gecko) Chrome/107.0.0.0 Safari/537.36 Edg/107.0.1418.56","WebKit","Edge","107.0.1418.56","Windows","10.0","36127","<p style=""font-size:20px;font-weight:bold;"">实验知情同意书</p><p style=""text-align:left;""><strong>实验名称：</strong>社会冲突研究</p><p style=""text-align:left;""><strong>主要研究者：</strong>韩晓春副教授（北京师范大学心理学部）</p><p style=""text-align:left;""><strong>联系方式：</strong>发送邮件至xiaochun.han@bnu.edu.cn</p><p style=""text-align:left;""><strong>研究目的：</strong>研究旨在了解人类面对群体冲突时的决策方式，以及相关的心理学特质。实验调查大约需要20分钟。</p><p style=""text-align:left;""><strong>实验流程：</strong>实验包含两部分。第一部分呈现一系列群体冲突场景，请你决定如何对这些冲突进行反应，大约需要10分钟完成。第二部分包含一系列人口统计学信息收集和心理学问卷，大约需要10分钟完成。</p><p style=""text-align:left;""><strong>参加及退出规则：</strong>参加本实验完全取决于您的个人意愿。在参与过程中，您可以随时退出，并且不用承担任何后果。</p><p style=""text-align:left;""><strong>隐私：</strong>本实验完全匿名进行，不会收集您的姓名或其他能够识别您身份的信息。实验中收集的作答仅用作科学研究使用，可能会在学术期刊/书籍上发表，或者用于教学，您的数据未来可能会和其他研究者或实验室分享，但您的个人身份不会被识别。</p><p style=""text-align:left;""><strong>实验报酬：</strong>实验完成后，您将获得15元人民币报酬，以感谢您的时间和努力。调查问卷中包含几道题目用以测验您作答时的认真度。只有完成全部实验，并且正确回答认真度测验的被试才能获得实验报酬。实验报酬将通过支付宝转账发放。</p><p style=""text-align:left;font-size:20px;""><strong>如果您同意以上实验知情同意书的内容，请点击'同意并且开始实验'按钮；否则请关闭浏览器界面，退出实验。</strong></p>","0",""
"","","","","","html-button-response","3","45933","0.0-3.0","91","1","2022-11-27 12:03:55","7b1eb8be57ff77859c7d9ac988e43411","183.198.206.150","Mozilla/5.0 (Windows NT 10.0; Win64; x64) AppleWebKit/537.36 (KHTML, like Gecko) Chrome/107.0.0.0 Safari/537.36 Edg/107.0.1418.56","WebKit","Edge","107.0.1418.56","Windows","10.0","6814","<p ><strong>实验任务一：</strong></p><p>请想象你的国家与另一个国家发生了军事冲突。</p><p>你是国家军队的指挥官，你将如何在冲突中进行决策。</p><p>具体来说，作为军队指挥官，请你决定是否发射导弹进行打击。</p><p>接下来，你会面对一系列场景，请仔细阅读每个场景，然后进行决策。</p><p>这部分实验任务大约需要10分钟。</p><p><strong>实验过程中，请集中注意力。</strong></p>","0",""
"","","","","","html-keyboard-response","4","46938","0.0-4.0-0.0","91","1","2022-11-27 12:03:55","7b1eb8be57ff77859c7d9ac988e43411","183.198.206.150","Mozilla/5.0 (Windows NT 10.0; Win64; x64) AppleWebKit/537.36 (KHTML, like Gecko) Chrome/107.0.0.0 Safari/537.36 Edg/107.0.1418.56","WebKit","Edge","107.0.1418.56","Windows","10.0","null","<div style=""font-size:60px;"">+</div>","null",""
"","","","","","html-button-response","5","53110","0.0-4.0-1.0","91","1","2022-11-27 12:03:55","7b1eb8be57ff77859c7d9ac988e43411","183.198.206.150","Mozilla/5.0 (Windows NT 10.0; Win64; x64) AppleWebKit/537.36 (KHTML, like Gecko) Chrome/107.0.0.0 Safari/537.36 Edg/107.0.1418.56","WebKit","Edge","107.0.1418.56","Windows","10.0","6170","<p>作为军队的指挥官，你可以选择发射导弹杀死 <strong>5名</strong> 敌国士兵，但会炸毁附近的 <strong>1棵</strong> 敌国树木。</p> <p>树木的照片如下图所示。</p> <p></p> <img src='stimuli/trees/16.png', style='max-width: 30%;'> </img> <p><strong>你是否选择发射武器？</strong></p>","0",""
"","","","","","html-keyboard-response","6","54113","0.0-4.0-0.1","91","1","2022-11-27 12:03:55","7b1eb8be57ff77859c7d9ac988e43411","183.198.206.150","Mozilla/5.0 (Windows NT 10.0; Win64; x64) AppleWebKit/537.36 (KHTML, like Gecko) Chrome/107.0.0.0 Safari/537.36 Edg/107.0.1418.56","WebKit","Edge","107.0.1418.56","Windows","10.0","null","<div style=""font-size:60px;"">+</div>","null",""
"","","","","","html-button-response","7","62967","0.0-4.0-1.1","91","1","2022-11-27 12:03:55","7b1eb8be57ff77859c7d9ac988e43411","183.198.206.150","Mozilla/5.0 (Windows NT 10.0; Win64; x64) AppleWebKit/537.36 (KHTML, like Gecko) Chrome/107.0.0.0 Safari/537.36 Edg/107.0.1418.56","WebKit","Edge","107.0.1418.56","Windows","10.0","8852","<p>作为军队的指挥官，你可以选择发射导弹杀死 <strong>1名</strong> 敌国士兵，但会误杀附近的 <strong>1名</strong> 敌国平民。</p> <p>平民照片如下图所示。</p> <p></p> <img src='stimuli/faces/PCF3.jpg', style='max-width: 30%;'> </img> <p><strong>你是否选择发射武器？</strong></p>","1",""
"","","","","","html-keyboard-response","8","63978","0.0-4.0-0.2","91","1","2022-11-27 12:03:55","7b1eb8be57ff77859c7d9ac988e43411","183.198.206.150","Mozilla/5.0 (Windows NT 10.0; Win64; x64) AppleWebKit/537.36 (KHTML, like Gecko) Chrome/107.0.0.0 Safari/537.36 Edg/107.0.1418.56","WebKit","Edge","107.0.1418.56","Windows","10.0","null","<div style=""font-size:60px;"">+</div>","null",""
"","","","","","html-button-response","9","66383","0.0-4.0-1.2","91","1","2022-11-27 12:03:55","7b1eb8be57ff77859c7d9ac988e43411","183.198.206.150","Mozilla/5.0 (Windows NT 10.0; Win64; x64) AppleWebKit/537.36 (KHTML, like Gecko) Chrome/107.0.0.0 Safari/537.36 Edg/107.0.1418.56","WebKit","Edge","107.0.1418.56","Windows","10.0","2403","<p>作为军队的指挥官，你可以选择发射导弹杀死 <strong>6名</strong> 敌国士兵，但会误杀附近的 <strong>1名</strong> 敌国平民。</p> <p>平民照片如下图所示。</p> <p></p> <img src='stimuli/faces/PCM4.jpg', style='max-width: 30%;'> </img> <p><strong>你是否选择发射武器？</strong></p>","0",""
"","","","","","html-keyboard-response","10","67399","0.0-4.0-0.3","91","1","2022-11-27 12:03:55","7b1eb8be57ff77859c7d9ac988e43411","183.198.206.150","Mozilla/5.0 (Windows NT 10.0; Win64; x64) AppleWebKit/537.36 (KHTML, like Gecko) Chrome/107.0.0.0 Safari/537.36 Edg/107.0.1418.56","WebKit","Edge","107.0.1418.56","Windows","10.0","null","<div style=""font-size:60px;"">+</div>","null",""
"","","","","","html-button-response","11","69430","0.0-4.0-1.3","91","1","2022-11-27 12:03:55","7b1eb8be57ff77859c7d9ac988e43411","183.198.206.150","Mozilla/5.0 (Windows NT 10.0; Win64; x64) AppleWebKit/537.36 (KHTML, like Gecko) Chrome/107.0.0.0 Safari/537.36 Edg/107.0.1418.56","WebKit","Edge","107.0.1418.56","Windows","10.0","2030","<p>作为军队的指挥官，你可以选择发射导弹杀死 <strong>3名</strong> 敌国士兵，但会误杀附近的 <strong>1名</strong> 敌国平民。</p> <p>平民照片如下图所示。</p> <p></p> <img src='stimuli/faces/PCF4.jpg', style='max-width: 30%;'> </img> <p><strong>你是否选择发射武器？</strong></p>","0",""
"","","","","","html-keyboard-response","12","70440","0.0-4.0-0.4","91","1","2022-11-27 12:03:55","7b1eb8be57ff77859c7d9ac988e43411","183.198.206.150","Mozilla/5.0 (Windows NT 10.0; Win64; x64) AppleWebKit/537.36 (KHTML, like Gecko) Chrome/107.0.0.0 Safari/537.36 Edg/107.0.1418.56","WebKit","Edge","107.0.1418.56","Windows","10.0","null","<div style=""font-size:60px;"">+</div>","null",""
"","","","","","html-button-response","13","72480","0.0-4.0-1.4","91","1","2022-11-27 12:03:55","7b1eb8be57ff77859c7d9ac988e43411","183.198.206.150","Mozilla/5.0 (Windows NT 10.0; Win64; x64) AppleWebKit/537.36 (KHTML, like Gecko) Chrome/107.0.0.0 Safari/537.36 Edg/107.0.1418.56","WebKit","Edge","107.0.1418.56","Windows","10.0","2039","<p>作为军队的指挥官，你可以选择发射导弹杀死 <strong>2名</strong> 敌国士兵，但会炸毁附近的 <strong>1棵</strong> 敌国树木。</p> <p>树木的照片如下图所示。</p> <p></p> <img src='stimuli/trees/2.png', style='max-width: 30%;'> </img> <p><strong>你是否选择发射武器？</strong></p>","0",""
"","","","","","html-keyboard-response","14","73494","0.0-4.0-0.5","91","1","2022-11-27 12:03:55","7b1eb8be57ff77859c7d9ac988e43411","183.198.206.150","Mozilla/5.0 (Windows NT 10.0; Win64; x64) AppleWebKit/537.36 (KHTML, like Gecko) Chrome/107.0.0.0 Safari/537.36 Edg/107.0.1418.56","WebKit","Edge","107.0.1418.56","Windows","10.0","null","<div style=""font-size:60px;"">+</div>","null",""
"","","","","","html-button-response","15","75098","0.0-4.0-1.5","91","1","2022-11-27 12:03:55","7b1eb8be57ff77859c7d9ac988e43411","183.198.206.150","Mozilla/5.0 (Windows NT 10.0; Win64; x64) AppleWebKit/537.36 (KHTML, like Gecko) Chrome/107.0.0.0 Safari/537.36 Edg/107.0.1418.56","WebKit","Edge","107.0.1418.56","Windows","10.0","1603","<p>作为军队的指挥官，你可以选择发射导弹杀死 <strong>8名</strong> 敌国士兵，但会误杀附近的 <strong>1名</strong> 敌国平民。</p> <p>平民照片如下图所示。</p> <p></p> <img src='stimuli/faces/PCF6.jpg', style='max-width: 30%;'> </img> <p><strong>你是否选择发射武器？</strong></p>","0",""
"","","","","","html-keyboard-response","16","76103","0.0-4.0-0.6","91","1","2022-11-27 12:03:55","7b1eb8be57ff77859c7d9ac988e43411","183.198.206.150","Mozilla/5.0 (Windows NT 10.0; Win64; x64) AppleWebKit/537.36 (KHTML, like Gecko) Chrome/107.0.0.0 Safari/537.36 Edg/107.0.1418.56","WebKit","Edge","107.0.1418.56","Windows","10.0","null","<div style=""font-size:60px;"">+</div>","null",""
"","","","","","html-button-response","17","77501","0.0-4.0-1.6","91","1","2022-11-27 12:03:55","7b1eb8be57ff77859c7d9ac988e43411","183.198.206.150","Mozilla/5.0 (Windows NT 10.0; Win64; x64) AppleWebKit/537.36 (KHTML, like Gecko) Chrome/107.0.0.0 Safari/537.36 Edg/107.0.1418.56","WebKit","Edge","107.0.1418.56","Windows","10.0","1397","<p>作为军队的指挥官，你可以选择发射导弹杀死 <strong>5名</strong> 敌国士兵，但会炸毁附近的 <strong>1棵</strong> 敌国树木。</p> <p>树木的照片如下图所示。</p> <p></p> <img src='stimuli/trees/1.png', style='max-width: 30%;'> </img> <p><strong>你是否选择发射武器？</strong></p>","0",""
"","","","","","html-keyboard-response","18","78511","0.0-4.0-0.7","91","1","2022-11-27 12:03:55","7b1eb8be57ff77859c7d9ac988e43411","183.198.206.150","Mozilla/5.0 (Windows NT 10.0; Win64; x64) AppleWebKit/537.36 (KHTML, like Gecko) Chrome/107.0.0.0 Safari/537.36 Edg/107.0.1418.56","WebKit","Edge","107.0.1418.56","Windows","10.0","null","<div style=""font-size:60px;"">+</div>","null",""
"","","","","","html-button-response","19","80061","0.0-4.0-1.7","91","1","2022-11-27 12:03:55","7b1eb8be57ff77859c7d9ac988e43411","183.198.206.150","Mozilla/5.0 (Windows NT 10.0; Win64; x64) AppleWebKit/537.36 (KHTML, like Gecko) Chrome/107.0.0.0 Safari/537.36 Edg/107.0.1418.56","WebKit","Edge","107.0.1418.56","Windows","10.0","1549","<p>作为军队的指挥官，你可以选择发射导弹杀死 <strong>3名</strong> 敌国士兵，但会炸毁附近的 <strong>1棵</strong> 敌国树木。</p> <p>树木的照片如下图所示。</p> <p></p> <img src='stimuli/trees/4.png', style='max-width: 30%;'> </img> <p><strong>你是否选择发射武器？</strong></p>","0",""
"","","","","","html-keyboard-response","20","81080","0.0-4.0-0.8","91","1","2022-11-27 12:03:55","7b1eb8be57ff77859c7d9ac988e43411","183.198.206.150","Mozilla/5.0 (Windows NT 10.0; Win64; x64) AppleWebKit/537.36 (KHTML, like Gecko) Chrome/107.0.0.0 Safari/537.36 Edg/107.0.1418.56","WebKit","Edge","107.0.1418.56","Windows","10.0","null","<div style=""font-size:60px;"">+</div>","null",""
"","","","","","html-button-response","21","84294","0.0-4.0-1.8","91","1","2022-11-27 12:03:55","7b1eb8be57ff77859c7d9ac988e43411","183.198.206.150","Mozilla/5.0 (Windows NT 10.0; Win64; x64) AppleWebKit/537.36 (KHTML, like Gecko) Chrome/107.0.0.0 Safari/537.36 Edg/107.0.1418.56","WebKit","Edge","107.0.1418.56","Windows","10.0","3212","<p>作为军队的指挥官，你可以选择发射导弹杀死 <strong>3名</strong> 敌国士兵，但会误杀附近的 <strong>1名</strong> 敌国平民。</p> <p>平民照片如下图所示。</p> <p></p> <img src='stimuli/faces/PCM7.jpg', style='max-width: 30%;'> </img> <p><strong>你是否选择发射武器？</strong></p>","0",""
"","","","","","html-keyboard-response","22","85317","0.0-4.0-0.9","91","1","2022-11-27 12:03:55","7b1eb8be57ff77859c7d9ac988e43411","183.198.206.150","Mozilla/5.0 (Windows NT 10.0; Win64; x64) AppleWebKit/537.36 (KHTML, like Gecko) Chrome/107.0.0.0 Safari/537.36 Edg/107.0.1418.56","WebKit","Edge","107.0.1418.56","Windows","10.0","null","<div style=""font-size:60px;"">+</div>","null",""
"","","","","","html-button-response","23","88135","0.0-4.0-1.9","91","1","2022-11-27 12:03:55","7b1eb8be57ff77859c7d9ac988e43411","183.198.206.150","Mozilla/5.0 (Windows NT 10.0; Win64; x64) AppleWebKit/537.36 (KHTML, like Gecko) Chrome/107.0.0.0 Safari/537.36 Edg/107.0.1418.56","WebKit","Edge","107.0.1418.56","Windows","10.0","2817","<p>作为军队的指挥官，你可以选择发射导弹杀死 <strong>2名</strong> 敌国士兵，但会误杀附近的 <strong>1名</strong> 敌国平民。</p> <p>平民照片如下图所示。</p> <p></p> <img src='stimuli/faces/PCF2.jpg', style='max-width: 30%;'> </img> <p><strong>你是否选择发射武器？</strong></p>","1",""
"","","","","","html-keyboard-response","24","89149","0.0-4.0-0.10","91","1","2022-11-27 12:03:55","7b1eb8be57ff77859c7d9ac988e43411","183.198.206.150","Mozilla/5.0 (Windows NT 10.0; Win64; x64) AppleWebKit/537.36 (KHTML, like Gecko) Chrome/107.0.0.0 Safari/537.36 Edg/107.0.1418.56","WebKit","Edge","107.0.1418.56","Windows","10.0","null","<div style=""font-size:60px;"">+</div>","null",""
"","","","","","html-button-response","25","90566","0.0-4.0-1.10","91","1","2022-11-27 12:03:55","7b1eb8be57ff77859c7d9ac988e43411","183.198.206.150","Mozilla/5.0 (Windows NT 10.0; Win64; x64) AppleWebKit/537.36 (KHTML, like Gecko) Chrome/107.0.0.0 Safari/537.36 Edg/107.0.1418.56","WebKit","Edge","107.0.1418.56","Windows","10.0","1417","<p>作为军队的指挥官，你可以选择发射导弹杀死 <strong>7名</strong> 敌国士兵，但会误杀附近的 <strong>1名</strong> 敌国平民。</p> <p>平民照片如下图所示。</p> <p></p> <img src='stimuli/faces/PCM7.jpg', style='max-width: 30%;'> </img> <p><strong>你是否选择发射武器？</strong></p>","0",""
"","","","","","html-keyboard-response","26","91580","0.0-4.0-0.11","91","1","2022-11-27 12:03:55","7b1eb8be57ff77859c7d9ac988e43411","183.198.206.150","Mozilla/5.0 (Windows NT 10.0; Win64; x64) AppleWebKit/537.36 (KHTML, like Gecko) Chrome/107.0.0.0 Safari/537.36 Edg/107.0.1418.56","WebKit","Edge","107.0.1418.56","Windows","10.0","null","<div style=""font-size:60px;"">+</div>","null",""
"","","","","","html-button-response","27","92915","0.0-4.0-1.11","91","1","2022-11-27 12:03:55","7b1eb8be57ff77859c7d9ac988e43411","183.198.206.150","Mozilla/5.0 (Windows NT 10.0; Win64; x64) AppleWebKit/537.36 (KHTML, like Gecko) Chrome/107.0.0.0 Safari/537.36 Edg/107.0.1418.56","WebKit","Edge","107.0.1418.56","Windows","10.0","1334","<p>作为军队的指挥官，你可以选择发射导弹杀死 <strong>4名</strong> 敌国士兵，但会炸毁附近的 <strong>1棵</strong> 敌国树木。</p> <p>树木的照片如下图所示。</p> <p></p> <img src='stimuli/trees/9.png', style='max-width: 30%;'> </img> <p><strong>你是否选择发射武器？</strong></p>","0",""
"","","","","","html-keyboard-response","28","93932","0.0-4.0-0.12","91","1","2022-11-27 12:03:55","7b1eb8be57ff77859c7d9ac988e43411","183.198.206.150","Mozilla/5.0 (Windows NT 10.0; Win64; x64) AppleWebKit/537.36 (KHTML, like Gecko) Chrome/107.0.0.0 Safari/537.36 Edg/107.0.1418.56","WebKit","Edge","107.0.1418.56","Windows","10.0","null","<div style=""font-size:60px;"">+</div>","null",""
"","","","","","html-button-response","29","95303","0.0-4.0-1.12","91","1","2022-11-27 12:03:55","7b1eb8be57ff77859c7d9ac988e43411","183.198.206.150","Mozilla/5.0 (Windows NT 10.0; Win64; x64) AppleWebKit/537.36 (KHTML, like Gecko) Chrome/107.0.0.0 Safari/537.36 Edg/107.0.1418.56","WebKit","Edge","107.0.1418.56","Windows","10.0","1370","<p>作为军队的指挥官，你可以选择发射导弹杀死 <strong>9名</strong> 敌国士兵，但会炸毁附近的 <strong>1棵</strong> 敌国树木。</p> <p>树木的照片如下图所示。</p> <p></p> <img src='stimuli/trees/6.png', style='max-width: 30%;'> </img> <p><strong>你是否选择发射武器？</strong></p>","0",""
"","","","","","html-keyboard-response","30","96318","0.0-4.0-0.13","91","1","2022-11-27 12:03:55","7b1eb8be57ff77859c7d9ac988e43411","183.198.206.150","Mozilla/5.0 (Windows NT 10.0; Win64; x64) AppleWebKit/537.36 (KHTML, like Gecko) Chrome/107.0.0.0 Safari/537.36 Edg/107.0.1418.56","WebKit","Edge","107.0.1418.56","Windows","10.0","null","<div style=""font-size:60px;"">+</div>","null",""
"","","","","","html-button-response","31","97849","0.0-4.0-1.13","91","1","2022-11-27 12:03:55","7b1eb8be57ff77859c7d9ac988e43411","183.198.206.150","Mozilla/5.0 (Windows NT 10.0; Win64; x64) AppleWebKit/537.36 (KHTML, like Gecko) Chrome/107.0.0.0 Safari/537.36 Edg/107.0.1418.56","WebKit","Edge","107.0.1418.56","Windows","10.0","1530","<p>作为军队的指挥官，你可以选择发射导弹杀死 <strong>10名</strong> 敌国士兵，但会误杀附近的 <strong>1名</strong> 敌国平民。</p> <p>平民照片如下图所示。</p> <p></p> <img src='stimuli/faces/PCF8.jpg', style='max-width: 30%;'> </img> <p><strong>你是否选择发射武器？</strong></p>","0",""
"","","","","","html-keyboard-response","32","98862","0.0-4.0-0.14","91","1","2022-11-27 12:03:55","7b1eb8be57ff77859c7d9ac988e43411","183.198.206.150","Mozilla/5.0 (Windows NT 10.0; Win64; x64) AppleWebKit/537.36 (KHTML, like Gecko) Chrome/107.0.0.0 Safari/537.36 Edg/107.0.1418.56","WebKit","Edge","107.0.1418.56","Windows","10.0","null","<div style=""font-size:60px;"">+</div>","null",""
"","","","","","html-button-response","33","101387","0.0-4.0-1.14","91","1","2022-11-27 12:03:55","7b1eb8be57ff77859c7d9ac988e43411","183.198.206.150","Mozilla/5.0 (Windows NT 10.0; Win64; x64) AppleWebKit/537.36 (KHTML, like Gecko) Chrome/107.0.0.0 Safari/537.36 Edg/107.0.1418.56","WebKit","Edge","107.0.1418.56","Windows","10.0","2524","<p>作为军队的指挥官，你可以选择发射导弹杀死 <strong>1名</strong> 敌国士兵，但会误杀附近的 <strong>1名</strong> 敌国平民。</p> <p>平民照片如下图所示。</p> <p></p> <img src='stimuli/faces/PCM5.jpg', style='max-width: 30%;'> </img> <p><strong>你是否选择发射武器？</strong></p>","1",""
"","","","","","html-keyboard-response","34","102405","0.0-4.0-0.15","91","1","2022-11-27 12:03:55","7b1eb8be57ff77859c7d9ac988e43411","183.198.206.150","Mozilla/5.0 (Windows NT 10.0; Win64; x64) AppleWebKit/537.36 (KHTML, like Gecko) Chrome/107.0.0.0 Safari/537.36 Edg/107.0.1418.56","WebKit","Edge","107.0.1418.56","Windows","10.0","null","<div style=""font-size:60px;"">+</div>","null",""
"","","","","","html-button-response","35","110015","0.0-4.0-1.15","91","1","2022-11-27 12:03:55","7b1eb8be57ff77859c7d9ac988e43411","183.198.206.150","Mozilla/5.0 (Windows NT 10.0; Win64; x64) AppleWebKit/537.36 (KHTML, like Gecko) Chrome/107.0.0.0 Safari/537.36 Edg/107.0.1418.56","WebKit","Edge","107.0.1418.56","Windows","10.0","7608","<p>作为军队的指挥官，你可以选择发射导弹杀死 <strong>10名</strong> 敌国士兵，但会误杀附近的 <strong>1名</strong> 敌国平民。</p> <p>平民照片如下图所示。</p> <p></p> <img src='stimuli/faces/PCF2.jpg', style='max-width: 30%;'> </img> <p><strong>你是否选择发射武器？</strong></p>","0",""
"","","","","","html-keyboard-response","36","111016","0.0-4.0-0.16","91","1","2022-11-27 12:03:55","7b1eb8be57ff77859c7d9ac988e43411","183.198.206.150","Mozilla/5.0 (Windows NT 10.0; Win64; x64) AppleWebKit/537.36 (KHTML, like Gecko) Chrome/107.0.0.0 Safari/537.36 Edg/107.0.1418.56","WebKit","Edge","107.0.1418.56","Windows","10.0","null","<div style=""font-size:60px;"">+</div>","null",""
"","","","","","html-button-response","37","112156","0.0-4.0-1.16","91","1","2022-11-27 12:03:55","7b1eb8be57ff77859c7d9ac988e43411","183.198.206.150","Mozilla/5.0 (Windows NT 10.0; Win64; x64) AppleWebKit/537.36 (KHTML, like Gecko) Chrome/107.0.0.0 Safari/537.36 Edg/107.0.1418.56","WebKit","Edge","107.0.1418.56","Windows","10.0","1138","<p>作为军队的指挥官，你可以选择发射导弹杀死 <strong>10名</strong> 敌国士兵，但会炸毁附近的 <strong>1棵</strong> 敌国树木。</p> <p>树木的照片如下图所示。</p> <p></p> <img src='stimuli/trees/7.png', style='max-width: 30%;'> </img> <p><strong>你是否选择发射武器？</strong></p>","0",""
"","","","","","html-keyboard-response","38","113173","0.0-4.0-0.17","91","1","2022-11-27 12:03:55","7b1eb8be57ff77859c7d9ac988e43411","183.198.206.150","Mozilla/5.0 (Windows NT 10.0; Win64; x64) AppleWebKit/537.36 (KHTML, like Gecko) Chrome/107.0.0.0 Safari/537.36 Edg/107.0.1418.56","WebKit","Edge","107.0.1418.56","Windows","10.0","null","<div style=""font-size:60px;"">+</div>","null",""
"","","","","","html-button-response","39","116074","0.0-4.0-1.17","91","1","2022-11-27 12:03:55","7b1eb8be57ff77859c7d9ac988e43411","183.198.206.150","Mozilla/5.0 (Windows NT 10.0; Win64; x64) AppleWebKit/537.36 (KHTML, like Gecko) Chrome/107.0.0.0 Safari/537.36 Edg/107.0.1418.56","WebKit","Edge","107.0.1418.56","Windows","10.0","2900","<p>作为军队的指挥官，你可以选择发射导弹杀死 <strong>10名</strong> 敌国士兵，但会误杀附近的 <strong>1名</strong> 敌国平民。</p> <p>平民照片如下图所示。</p> <p></p> <img src='stimuli/faces/PCF3.jpg', style='max-width: 30%;'> </img> <p><strong>你是否选择发射武器？</strong></p>","0",""
"","","","","","html-keyboard-response","40","117077","0.0-4.0-0.18","91","1","2022-11-27 12:03:55","7b1eb8be57ff77859c7d9ac988e43411","183.198.206.150","Mozilla/5.0 (Windows NT 10.0; Win64; x64) AppleWebKit/537.36 (KHTML, like Gecko) Chrome/107.0.0.0 Safari/537.36 Edg/107.0.1418.56","WebKit","Edge","107.0.1418.56","Windows","10.0","null","<div style=""font-size:60px;"">+</div>","null",""
"","","","","","html-button-response","41","118573","0.0-4.0-1.18","91","1","2022-11-27 12:03:55","7b1eb8be57ff77859c7d9ac988e43411","183.198.206.150","Mozilla/5.0 (Windows NT 10.0; Win64; x64) AppleWebKit/537.36 (KHTML, like Gecko) Chrome/107.0.0.0 Safari/537.36 Edg/107.0.1418.56","WebKit","Edge","107.0.1418.56","Windows","10.0","1495","<p>作为军队的指挥官，你可以选择发射导弹杀死 <strong>3名</strong> 敌国士兵，但会炸毁附近的 <strong>1棵</strong> 敌国树木。</p> <p>树木的照片如下图所示。</p> <p></p> <img src='stimuli/trees/6.png', style='max-width: 30%;'> </img> <p><strong>你是否选择发射武器？</strong></p>","0",""
"","","","","","html-keyboard-response","42","119580","0.0-4.0-0.19","91","1","2022-11-27 12:03:55","7b1eb8be57ff77859c7d9ac988e43411","183.198.206.150","Mozilla/5.0 (Windows NT 10.0; Win64; x64) AppleWebKit/537.36 (KHTML, like Gecko) Chrome/107.0.0.0 Safari/537.36 Edg/107.0.1418.56","WebKit","Edge","107.0.1418.56","Windows","10.0","null","<div style=""font-size:60px;"">+</div>","null",""
"","","","","","html-button-response","43","121380","0.0-4.0-1.19","91","1","2022-11-27 12:03:55","7b1eb8be57ff77859c7d9ac988e43411","183.198.206.150","Mozilla/5.0 (Windows NT 10.0; Win64; x64) AppleWebKit/537.36 (KHTML, like Gecko) Chrome/107.0.0.0 Safari/537.36 Edg/107.0.1418.56","WebKit","Edge","107.0.1418.56","Windows","10.0","1800","<p>作为军队的指挥官，你可以选择发射导弹杀死 <strong>6名</strong> 敌国士兵，但会误杀附近的 <strong>1名</strong> 敌国平民。</p> <p>平民照片如下图所示。</p> <p></p> <img src='stimuli/faces/PCF4.jpg', style='max-width: 30%;'> </img> <p><strong>你是否选择发射武器？</strong></p>","0",""
"","","","","","html-keyboard-response","44","122390","0.0-4.0-0.20","91","1","2022-11-27 12:03:55","7b1eb8be57ff77859c7d9ac988e43411","183.198.206.150","Mozilla/5.0 (Windows NT 10.0; Win64; x64) AppleWebKit/537.36 (KHTML, like Gecko) Chrome/107.0.0.0 Safari/537.36 Edg/107.0.1418.56","WebKit","Edge","107.0.1418.56","Windows","10.0","null","<div style=""font-size:60px;"">+</div>","null",""
"","","","","","html-button-response","45","123729","0.0-4.0-1.20","91","1","2022-11-27 12:03:55","7b1eb8be57ff77859c7d9ac988e43411","183.198.206.150","Mozilla/5.0 (Windows NT 10.0; Win64; x64) AppleWebKit/537.36 (KHTML, like Gecko) Chrome/107.0.0.0 Safari/537.36 Edg/107.0.1418.56","WebKit","Edge","107.0.1418.56","Windows","10.0","1338","<p>作为军队的指挥官，你可以选择发射导弹杀死 <strong>3名</strong> 敌国士兵，但会误杀附近的 <strong>1名</strong> 敌国平民。</p> <p>平民照片如下图所示。</p> <p></p> <img src='stimuli/faces/PCM4.jpg', style='max-width: 30%;'> </img> <p><strong>你是否选择发射武器？</strong></p>","0",""
"","","","","","html-keyboard-response","46","124734","0.0-4.0-0.21","91","1","2022-11-27 12:03:55","7b1eb8be57ff77859c7d9ac988e43411","183.198.206.150","Mozilla/5.0 (Windows NT 10.0; Win64; x64) AppleWebKit/537.36 (KHTML, like Gecko) Chrome/107.0.0.0 Safari/537.36 Edg/107.0.1418.56","WebKit","Edge","107.0.1418.56","Windows","10.0","null","<div style=""font-size:60px;"">+</div>","null",""
"","","","","","html-button-response","47","125826","0.0-4.0-1.21","91","1","2022-11-27 12:03:55","7b1eb8be57ff77859c7d9ac988e43411","183.198.206.150","Mozilla/5.0 (Windows NT 10.0; Win64; x64) AppleWebKit/537.36 (KHTML, like Gecko) Chrome/107.0.0.0 Safari/537.36 Edg/107.0.1418.56","WebKit","Edge","107.0.1418.56","Windows","10.0","1090","<p>作为军队的指挥官，你可以选择发射导弹杀死 <strong>5名</strong> 敌国士兵，但会误杀附近的 <strong>1名</strong> 敌国平民。</p> <p>平民照片如下图所示。</p> <p></p> <img src='stimuli/faces/PCM6.jpg', style='max-width: 30%;'> </img> <p><strong>你是否选择发射武器？</strong></p>","0",""
"","","","","","html-keyboard-response","48","126835","0.0-4.0-0.22","91","1","2022-11-27 12:03:55","7b1eb8be57ff77859c7d9ac988e43411","183.198.206.150","Mozilla/5.0 (Windows NT 10.0; Win64; x64) AppleWebKit/537.36 (KHTML, like Gecko) Chrome/107.0.0.0 Safari/537.36 Edg/107.0.1418.56","WebKit","Edge","107.0.1418.56","Windows","10.0","null","<div style=""font-size:60px;"">+</div>","null",""
"","","","","","html-button-response","49","127849","0.0-4.0-1.22","91","1","2022-11-27 12:03:55","7b1eb8be57ff77859c7d9ac988e43411","183.198.206.150","Mozilla/5.0 (Windows NT 10.0; Win64; x64) AppleWebKit/537.36 (KHTML, like Gecko) Chrome/107.0.0.0 Safari/537.36 Edg/107.0.1418.56","WebKit","Edge","107.0.1418.56","Windows","10.0","1012","<p>作为军队的指挥官，你可以选择发射导弹杀死 <strong>9名</strong> 敌国士兵，但会炸毁附近的 <strong>1棵</strong> 敌国树木。</p> <p>树木的照片如下图所示。</p> <p></p> <img src='stimuli/trees/8.png', style='max-width: 30%;'> </img> <p><strong>你是否选择发射武器？</strong></p>","0",""
"","","","","","html-keyboard-response","50","128859","0.0-4.0-0.23","91","1","2022-11-27 12:03:55","7b1eb8be57ff77859c7d9ac988e43411","183.198.206.150","Mozilla/5.0 (Windows NT 10.0; Win64; x64) AppleWebKit/537.36 (KHTML, like Gecko) Chrome/107.0.0.0 Safari/537.36 Edg/107.0.1418.56","WebKit","Edge","107.0.1418.56","Windows","10.0","null","<div style=""font-size:60px;"">+</div>","null",""
"","","","","","html-button-response","51","131131","0.0-4.0-1.23","91","1","2022-11-27 12:03:55","7b1eb8be57ff77859c7d9ac988e43411","183.198.206.150","Mozilla/5.0 (Windows NT 10.0; Win64; x64) AppleWebKit/537.36 (KHTML, like Gecko) Chrome/107.0.0.0 Safari/537.36 Edg/107.0.1418.56","WebKit","Edge","107.0.1418.56","Windows","10.0","2271","<p>作为军队的指挥官，你可以选择发射导弹杀死 <strong>1名</strong> 敌国士兵，但会炸毁附近的 <strong>1棵</strong> 敌国树木。</p> <p>树木的照片如下图所示。</p> <p></p> <img src='stimuli/trees/11.png', style='max-width: 30%;'> </img> <p><strong>你是否选择发射武器？</strong></p>","0",""
"","","","","","html-keyboard-response","52","132147","0.0-4.0-0.24","91","1","2022-11-27 12:03:55","7b1eb8be57ff77859c7d9ac988e43411","183.198.206.150","Mozilla/5.0 (Windows NT 10.0; Win64; x64) AppleWebKit/537.36 (KHTML, like Gecko) Chrome/107.0.0.0 Safari/537.36 Edg/107.0.1418.56","WebKit","Edge","107.0.1418.56","Windows","10.0","null","<div style=""font-size:60px;"">+</div>","null",""
"","","","","","html-button-response","53","134103","0.0-4.0-1.24","91","1","2022-11-27 12:03:55","7b1eb8be57ff77859c7d9ac988e43411","183.198.206.150","Mozilla/5.0 (Windows NT 10.0; Win64; x64) AppleWebKit/537.36 (KHTML, like Gecko) Chrome/107.0.0.0 Safari/537.36 Edg/107.0.1418.56","WebKit","Edge","107.0.1418.56","Windows","10.0","1954","<p>作为军队的指挥官，你可以选择发射导弹杀死 <strong>3名</strong> 敌国士兵，但会误杀附近的 <strong>1名</strong> 敌国平民。</p> <p>平民照片如下图所示。</p> <p></p> <img src='stimuli/faces/PCM8.jpg', style='max-width: 30%;'> </img> <p><strong>你是否选择发射武器？</strong></p>","0",""
"","","","","","html-keyboard-response","54","135119","0.0-4.0-0.25","91","1","2022-11-27 12:03:55","7b1eb8be57ff77859c7d9ac988e43411","183.198.206.150","Mozilla/5.0 (Windows NT 10.0; Win64; x64) AppleWebKit/537.36 (KHTML, like Gecko) Chrome/107.0.0.0 Safari/537.36 Edg/107.0.1418.56","WebKit","Edge","107.0.1418.56","Windows","10.0","null","<div style=""font-size:60px;"">+</div>","null",""
"","","","","","html-button-response","55","135774","0.0-4.0-1.25","91","1","2022-11-27 12:03:55","7b1eb8be57ff77859c7d9ac988e43411","183.198.206.150","Mozilla/5.0 (Windows NT 10.0; Win64; x64) AppleWebKit/537.36 (KHTML, like Gecko) Chrome/107.0.0.0 Safari/537.36 Edg/107.0.1418.56","WebKit","Edge","107.0.1418.56","Windows","10.0","653","<p>作为军队的指挥官，你可以选择发射导弹杀死 <strong>7名</strong> 敌国士兵，但会炸毁附近的 <strong>1棵</strong> 敌国树木。</p> <p>树木的照片如下图所示。</p> <p></p> <img src='stimuli/trees/5.png', style='max-width: 30%;'> </img> <p><strong>你是否选择发射武器？</strong></p>","0",""
"","","","","","html-keyboard-response","56","136785","0.0-4.0-0.26","91","1","2022-11-27 12:03:55","7b1eb8be57ff77859c7d9ac988e43411","183.198.206.150","Mozilla/5.0 (Windows NT 10.0; Win64; x64) AppleWebKit/537.36 (KHTML, like Gecko) Chrome/107.0.0.0 Safari/537.36 Edg/107.0.1418.56","WebKit","Edge","107.0.1418.56","Windows","10.0","null","<div style=""font-size:60px;"">+</div>","null",""
"","","","","","html-button-response","57","137462","0.0-4.0-1.26","91","1","2022-11-27 12:03:55","7b1eb8be57ff77859c7d9ac988e43411","183.198.206.150","Mozilla/5.0 (Windows NT 10.0; Win64; x64) AppleWebKit/537.36 (KHTML, like Gecko) Chrome/107.0.0.0 Safari/537.36 Edg/107.0.1418.56","WebKit","Edge","107.0.1418.56","Windows","10.0","675","<p>作为军队的指挥官，你可以选择发射导弹杀死 <strong>6名</strong> 敌国士兵，但会误杀附近的 <strong>1名</strong> 敌国平民。</p> <p>平民照片如下图所示。</p> <p></p> <img src='stimuli/faces/PCM3.jpg', style='max-width: 30%;'> </img> <p><strong>你是否选择发射武器？</strong></p>","0",""
"","","","","","html-keyboard-response","58","138478","0.0-4.0-0.27","91","1","2022-11-27 12:03:55","7b1eb8be57ff77859c7d9ac988e43411","183.198.206.150","Mozilla/5.0 (Windows NT 10.0; Win64; x64) AppleWebKit/537.36 (KHTML, like Gecko) Chrome/107.0.0.0 Safari/537.36 Edg/107.0.1418.56","WebKit","Edge","107.0.1418.56","Windows","10.0","null","<div style=""font-size:60px;"">+</div>","null",""
"","","","","","html-button-response","59","139133","0.0-4.0-1.27","91","1","2022-11-27 12:03:55","7b1eb8be57ff77859c7d9ac988e43411","183.198.206.150","Mozilla/5.0 (Windows NT 10.0; Win64; x64) AppleWebKit/537.36 (KHTML, like Gecko) Chrome/107.0.0.0 Safari/537.36 Edg/107.0.1418.56","WebKit","Edge","107.0.1418.56","Windows","10.0","654","<p>作为军队的指挥官，你可以选择发射导弹杀死 <strong>10名</strong> 敌国士兵，但会炸毁附近的 <strong>1棵</strong> 敌国树木。</p> <p>树木的照片如下图所示。</p> <p></p> <img src='stimuli/trees/9.png', style='max-width: 30%;'> </img> <p><strong>你是否选择发射武器？</strong></p>","0",""
"","","","","","html-keyboard-response","60","140149","0.0-4.0-0.28","91","1","2022-11-27 12:03:55","7b1eb8be57ff77859c7d9ac988e43411","183.198.206.150","Mozilla/5.0 (Windows NT 10.0; Win64; x64) AppleWebKit/537.36 (KHTML, like Gecko) Chrome/107.0.0.0 Safari/537.36 Edg/107.0.1418.56","WebKit","Edge","107.0.1418.56","Windows","10.0","null","<div style=""font-size:60px;"">+</div>","null",""
"","","","","","html-button-response","61","141634","0.0-4.0-1.28","91","1","2022-11-27 12:03:55","7b1eb8be57ff77859c7d9ac988e43411","183.198.206.150","Mozilla/5.0 (Windows NT 10.0; Win64; x64) AppleWebKit/537.36 (KHTML, like Gecko) Chrome/107.0.0.0 Safari/537.36 Edg/107.0.1418.56","WebKit","Edge","107.0.1418.56","Windows","10.0","1484","<p>作为军队的指挥官，你可以选择发射导弹杀死 <strong>1名</strong> 敌国士兵，但会误杀附近的 <strong>1名</strong> 敌国平民。</p> <p>平民照片如下图所示。</p> <p></p> <img src='stimuli/faces/PCM3.jpg', style='max-width: 30%;'> </img> <p><strong>你是否选择发射武器？</strong></p>","1",""
"","","","","","html-keyboard-response","62","142645","0.0-4.0-0.29","91","1","2022-11-27 12:03:55","7b1eb8be57ff77859c7d9ac988e43411","183.198.206.150","Mozilla/5.0 (Windows NT 10.0; Win64; x64) AppleWebKit/537.36 (KHTML, like Gecko) Chrome/107.0.0.0 Safari/537.36 Edg/107.0.1418.56","WebKit","Edge","107.0.1418.56","Windows","10.0","null","<div style=""font-size:60px;"">+</div>","null",""
"","","","","","html-button-response","63","143704","0.0-4.0-1.29","91","1","2022-11-27 12:03:55","7b1eb8be57ff77859c7d9ac988e43411","183.198.206.150","Mozilla/5.0 (Windows NT 10.0; Win64; x64) AppleWebKit/537.36 (KHTML, like Gecko) Chrome/107.0.0.0 Safari/537.36 Edg/107.0.1418.56","WebKit","Edge","107.0.1418.56","Windows","10.0","1058","<p>作为军队的指挥官，你可以选择发射导弹杀死 <strong>8名</strong> 敌国士兵，但会误杀附近的 <strong>1名</strong> 敌国平民。</p> <p>平民照片如下图所示。</p> <p></p> <img src='stimuli/faces/PCF5.jpg', style='max-width: 30%;'> </img> <p><strong>你是否选择发射武器？</strong></p>","0",""
"","","","","","html-keyboard-response","64","144714","0.0-4.0-0.30","91","1","2022-11-27 12:03:55","7b1eb8be57ff77859c7d9ac988e43411","183.198.206.150","Mozilla/5.0 (Windows NT 10.0; Win64; x64) AppleWebKit/537.36 (KHTML, like Gecko) Chrome/107.0.0.0 Safari/537.36 Edg/107.0.1418.56","WebKit","Edge","107.0.1418.56","Windows","10.0","null","<div style=""font-size:60px;"">+</div>","null",""
"","","","","","html-button-response","65","145649","0.0-4.0-1.30","91","1","2022-11-27 12:03:55","7b1eb8be57ff77859c7d9ac988e43411","183.198.206.150","Mozilla/5.0 (Windows NT 10.0; Win64; x64) AppleWebKit/537.36 (KHTML, like Gecko) Chrome/107.0.0.0 Safari/537.36 Edg/107.0.1418.56","WebKit","Edge","107.0.1418.56","Windows","10.0","933","<p>作为军队的指挥官，你可以选择发射导弹杀死 <strong>2名</strong> 敌国士兵，但会炸毁附近的 <strong>1棵</strong> 敌国树木。</p> <p>树木的照片如下图所示。</p> <p></p> <img src='stimuli/trees/15.png', style='max-width: 30%;'> </img> <p><strong>你是否选择发射武器？</strong></p>","0",""
"","","","","","html-keyboard-response","66","146660","0.0-4.0-0.31","91","1","2022-11-27 12:03:55","7b1eb8be57ff77859c7d9ac988e43411","183.198.206.150","Mozilla/5.0 (Windows NT 10.0; Win64; x64) AppleWebKit/537.36 (KHTML, like Gecko) Chrome/107.0.0.0 Safari/537.36 Edg/107.0.1418.56","WebKit","Edge","107.0.1418.56","Windows","10.0","null","<div style=""font-size:60px;"">+</div>","null",""
"","","","","","html-button-response","67","147850","0.0-4.0-1.31","91","1","2022-11-27 12:03:55","7b1eb8be57ff77859c7d9ac988e43411","183.198.206.150","Mozilla/5.0 (Windows NT 10.0; Win64; x64) AppleWebKit/537.36 (KHTML, like Gecko) Chrome/107.0.0.0 Safari/537.36 Edg/107.0.1418.56","WebKit","Edge","107.0.1418.56","Windows","10.0","1188","<p>作为军队的指挥官，你可以选择发射导弹杀死 <strong>2名</strong> 敌国士兵，但会误杀附近的 <strong>1名</strong> 敌国平民。</p> <p>平民照片如下图所示。</p> <p></p> <img src='stimuli/faces/PCM2.jpg', style='max-width: 30%;'> </img> <p><strong>你是否选择发射武器？</strong></p>","0",""
"","","","","","html-keyboard-response","68","148863","0.0-4.0-0.32","91","1","2022-11-27 12:03:55","7b1eb8be57ff77859c7d9ac988e43411","183.198.206.150","Mozilla/5.0 (Windows NT 10.0; Win64; x64) AppleWebKit/537.36 (KHTML, like Gecko) Chrome/107.0.0.0 Safari/537.36 Edg/107.0.1418.56","WebKit","Edge","107.0.1418.56","Windows","10.0","null","<div style=""font-size:60px;"">+</div>","null",""
"","","","","","html-button-response","69","149749","0.0-4.0-1.32","91","1","2022-11-27 12:03:55","7b1eb8be57ff77859c7d9ac988e43411","183.198.206.150","Mozilla/5.0 (Windows NT 10.0; Win64; x64) AppleWebKit/537.36 (KHTML, like Gecko) Chrome/107.0.0.0 Safari/537.36 Edg/107.0.1418.56","WebKit","Edge","107.0.1418.56","Windows","10.0","884","<p>作为军队的指挥官，你可以选择发射导弹杀死 <strong>6名</strong> 敌国士兵，但会误杀附近的 <strong>1名</strong> 敌国平民。</p> <p>平民照片如下图所示。</p> <p></p> <img src='stimuli/faces/PCF7.jpg', style='max-width: 30%;'> </img> <p><strong>你是否选择发射武器？</strong></p>","0",""
"","","","","","html-keyboard-response","70","150764","0.0-4.0-0.33","91","1","2022-11-27 12:03:55","7b1eb8be57ff77859c7d9ac988e43411","183.198.206.150","Mozilla/5.0 (Windows NT 10.0; Win64; x64) AppleWebKit/537.36 (KHTML, like Gecko) Chrome/107.0.0.0 Safari/537.36 Edg/107.0.1418.56","WebKit","Edge","107.0.1418.56","Windows","10.0","null","<div style=""font-size:60px;"">+</div>","null",""
"","","","","","html-button-response","71","151438","0.0-4.0-1.33","91","1","2022-11-27 12:03:55","7b1eb8be57ff77859c7d9ac988e43411","183.198.206.150","Mozilla/5.0 (Windows NT 10.0; Win64; x64) AppleWebKit/537.36 (KHTML, like Gecko) Chrome/107.0.0.0 Safari/537.36 Edg/107.0.1418.56","WebKit","Edge","107.0.1418.56","Windows","10.0","673","<p>作为军队的指挥官，你可以选择发射导弹杀死 <strong>5名</strong> 敌国士兵，但会误杀附近的 <strong>1名</strong> 敌国平民。</p> <p>平民照片如下图所示。</p> <p></p> <img src='stimuli/faces/PCF1.jpg', style='max-width: 30%;'> </img> <p><strong>你是否选择发射武器？</strong></p>","0",""
"","","","","","html-keyboard-response","72","152453","0.0-4.0-0.34","91","1","2022-11-27 12:03:55","7b1eb8be57ff77859c7d9ac988e43411","183.198.206.150","Mozilla/5.0 (Windows NT 10.0; Win64; x64) AppleWebKit/537.36 (KHTML, like Gecko) Chrome/107.0.0.0 Safari/537.36 Edg/107.0.1418.56","WebKit","Edge","107.0.1418.56","Windows","10.0","null","<div style=""font-size:60px;"">+</div>","null",""
"","","","","","html-button-response","73","153520","0.0-4.0-1.34","91","1","2022-11-27 12:03:55","7b1eb8be57ff77859c7d9ac988e43411","183.198.206.150","Mozilla/5.0 (Windows NT 10.0; Win64; x64) AppleWebKit/537.36 (KHTML, like Gecko) Chrome/107.0.0.0 Safari/537.36 Edg/107.0.1418.56","WebKit","Edge","107.0.1418.56","Windows","10.0","1065","<p>作为军队的指挥官，你可以选择发射导弹杀死 <strong>1名</strong> 敌国士兵，但会炸毁附近的 <strong>1棵</strong> 敌国树木。</p> <p>树木的照片如下图所示。</p> <p></p> <img src='stimuli/trees/8.png', style='max-width: 30%;'> </img> <p><strong>你是否选择发射武器？</strong></p>","0",""
"","","","","","html-keyboard-response","74","154531","0.0-4.0-0.35","91","1","2022-11-27 12:03:55","7b1eb8be57ff77859c7d9ac988e43411","183.198.206.150","Mozilla/5.0 (Windows NT 10.0; Win64; x64) AppleWebKit/537.36 (KHTML, like Gecko) Chrome/107.0.0.0 Safari/537.36 Edg/107.0.1418.56","WebKit","Edge","107.0.1418.56","Windows","10.0","null","<div style=""font-size:60px;"">+</div>","null",""
"","","","","","html-button-response","75","155237","0.0-4.0-1.35","91","1","2022-11-27 12:03:55","7b1eb8be57ff77859c7d9ac988e43411","183.198.206.150","Mozilla/5.0 (Windows NT 10.0; Win64; x64) AppleWebKit/537.36 (KHTML, like Gecko) Chrome/107.0.0.0 Safari/537.36 Edg/107.0.1418.56","WebKit","Edge","107.0.1418.56","Windows","10.0","705","<p>作为军队的指挥官，你可以选择发射导弹杀死 <strong>6名</strong> 敌国士兵，但会炸毁附近的 <strong>1棵</strong> 敌国树木。</p> <p>树木的照片如下图所示。</p> <p></p> <img src='stimuli/trees/12.png', style='max-width: 30%;'> </img> <p><strong>你是否选择发射武器？</strong></p>","0",""
"","","","","","html-keyboard-response","76","156241","0.0-4.0-0.36","91","1","2022-11-27 12:03:55","7b1eb8be57ff77859c7d9ac988e43411","183.198.206.150","Mozilla/5.0 (Windows NT 10.0; Win64; x64) AppleWebKit/537.36 (KHTML, like Gecko) Chrome/107.0.0.0 Safari/537.36 Edg/107.0.1418.56","WebKit","Edge","107.0.1418.56","Windows","10.0","null","<div style=""font-size:60px;"">+</div>","null",""
"","","","","","html-button-response","77","156985","0.0-4.0-1.36","91","1","2022-11-27 12:03:55","7b1eb8be57ff77859c7d9ac988e43411","183.198.206.150","Mozilla/5.0 (Windows NT 10.0; Win64; x64) AppleWebKit/537.36 (KHTML, like Gecko) Chrome/107.0.0.0 Safari/537.36 Edg/107.0.1418.56","WebKit","Edge","107.0.1418.56","Windows","10.0","742","<p>作为军队的指挥官，你可以选择发射导弹杀死 <strong>7名</strong> 敌国士兵，但会炸毁附近的 <strong>1棵</strong> 敌国树木。</p> <p>树木的照片如下图所示。</p> <p></p> <img src='stimuli/trees/3.png', style='max-width: 30%;'> </img> <p><strong>你是否选择发射武器？</strong></p>","0",""
"","","","","","html-keyboard-response","78","158003","0.0-4.0-0.37","91","1","2022-11-27 12:03:55","7b1eb8be57ff77859c7d9ac988e43411","183.198.206.150","Mozilla/5.0 (Windows NT 10.0; Win64; x64) AppleWebKit/537.36 (KHTML, like Gecko) Chrome/107.0.0.0 Safari/537.36 Edg/107.0.1418.56","WebKit","Edge","107.0.1418.56","Windows","10.0","null","<div style=""font-size:60px;"">+</div>","null",""
"","","","","","html-button-response","79","158730","0.0-4.0-1.37","91","1","2022-11-27 12:03:55","7b1eb8be57ff77859c7d9ac988e43411","183.198.206.150","Mozilla/5.0 (Windows NT 10.0; Win64; x64) AppleWebKit/537.36 (KHTML, like Gecko) Chrome/107.0.0.0 Safari/537.36 Edg/107.0.1418.56","WebKit","Edge","107.0.1418.56","Windows","10.0","726","<p>作为军队的指挥官，你可以选择发射导弹杀死 <strong>2名</strong> 敌国士兵，但会炸毁附近的 <strong>1棵</strong> 敌国树木。</p> <p>树木的照片如下图所示。</p> <p></p> <img src='stimuli/trees/10.png', style='max-width: 30%;'> </img> <p><strong>你是否选择发射武器？</strong></p>","0",""
"","","","","","html-keyboard-response","80","159749","0.0-4.0-0.38","91","1","2022-11-27 12:03:55","7b1eb8be57ff77859c7d9ac988e43411","183.198.206.150","Mozilla/5.0 (Windows NT 10.0; Win64; x64) AppleWebKit/537.36 (KHTML, like Gecko) Chrome/107.0.0.0 Safari/537.36 Edg/107.0.1418.56","WebKit","Edge","107.0.1418.56","Windows","10.0","null","<div style=""font-size:60px;"">+</div>","null",""
"","","","","","html-button-response","81","160596","0.0-4.0-1.38","91","1","2022-11-27 12:03:55","7b1eb8be57ff77859c7d9ac988e43411","183.198.206.150","Mozilla/5.0 (Windows NT 10.0; Win64; x64) AppleWebKit/537.36 (KHTML, like Gecko) Chrome/107.0.0.0 Safari/537.36 Edg/107.0.1418.56","WebKit","Edge","107.0.1418.56","Windows","10.0","846","<p>作为军队的指挥官，你可以选择发射导弹杀死 <strong>10名</strong> 敌国士兵，但会炸毁附近的 <strong>1棵</strong> 敌国树木。</p> <p>树木的照片如下图所示。</p> <p></p> <img src='stimuli/trees/11.png', style='max-width: 30%;'> </img> <p><strong>你是否选择发射武器？</strong></p>","0",""
"","","","","","html-keyboard-response","82","161615","0.0-4.0-0.39","91","1","2022-11-27 12:03:55","7b1eb8be57ff77859c7d9ac988e43411","183.198.206.150","Mozilla/5.0 (Windows NT 10.0; Win64; x64) AppleWebKit/537.36 (KHTML, like Gecko) Chrome/107.0.0.0 Safari/537.36 Edg/107.0.1418.56","WebKit","Edge","107.0.1418.56","Windows","10.0","null","<div style=""font-size:60px;"">+</div>","null",""
"","","","","","html-button-response","83","162271","0.0-4.0-1.39","91","1","2022-11-27 12:03:55","7b1eb8be57ff77859c7d9ac988e43411","183.198.206.150","Mozilla/5.0 (Windows NT 10.0; Win64; x64) AppleWebKit/537.36 (KHTML, like Gecko) Chrome/107.0.0.0 Safari/537.36 Edg/107.0.1418.56","WebKit","Edge","107.0.1418.56","Windows","10.0","654","<p>作为军队的指挥官，你可以选择发射导弹杀死 <strong>7名</strong> 敌国士兵，但会炸毁附近的 <strong>1棵</strong> 敌国树木。</p> <p>树木的照片如下图所示。</p> <p></p> <img src='stimuli/trees/10.png', style='max-width: 30%;'> </img> <p><strong>你是否选择发射武器？</strong></p>","0",""
"","","","","","html-keyboard-response","84","163284","0.0-4.0-0.40","91","1","2022-11-27 12:03:55","7b1eb8be57ff77859c7d9ac988e43411","183.198.206.150","Mozilla/5.0 (Windows NT 10.0; Win64; x64) AppleWebKit/537.36 (KHTML, like Gecko) Chrome/107.0.0.0 Safari/537.36 Edg/107.0.1418.56","WebKit","Edge","107.0.1418.56","Windows","10.0","null","<div style=""font-size:60px;"">+</div>","null",""
"","","","","","html-button-response","85","164036","0.0-4.0-1.40","91","1","2022-11-27 12:03:55","7b1eb8be57ff77859c7d9ac988e43411","183.198.206.150","Mozilla/5.0 (Windows NT 10.0; Win64; x64) AppleWebKit/537.36 (KHTML, like Gecko) Chrome/107.0.0.0 Safari/537.36 Edg/107.0.1418.56","WebKit","Edge","107.0.1418.56","Windows","10.0","750","<p>作为军队的指挥官，你可以选择发射导弹杀死 <strong>6名</strong> 敌国士兵，但会误杀附近的 <strong>1名</strong> 敌国平民。</p> <p>平民照片如下图所示。</p> <p></p> <img src='stimuli/faces/PCM8.jpg', style='max-width: 30%;'> </img> <p><strong>你是否选择发射武器？</strong></p>","0",""
"","","","","","html-keyboard-response","86","165049","0.0-4.0-0.41","91","1","2022-11-27 12:03:55","7b1eb8be57ff77859c7d9ac988e43411","183.198.206.150","Mozilla/5.0 (Windows NT 10.0; Win64; x64) AppleWebKit/537.36 (KHTML, like Gecko) Chrome/107.0.0.0 Safari/537.36 Edg/107.0.1418.56","WebKit","Edge","107.0.1418.56","Windows","10.0","null","<div style=""font-size:60px;"">+</div>","null",""
"","","","","","html-button-response","87","166178","0.0-4.0-1.41","91","1","2022-11-27 12:03:55","7b1eb8be57ff77859c7d9ac988e43411","183.198.206.150","Mozilla/5.0 (Windows NT 10.0; Win64; x64) AppleWebKit/537.36 (KHTML, like Gecko) Chrome/107.0.0.0 Safari/537.36 Edg/107.0.1418.56","WebKit","Edge","107.0.1418.56","Windows","10.0","1128","<p>作为军队的指挥官，你可以选择发射导弹杀死 <strong>7名</strong> 敌国士兵，但会误杀附近的 <strong>1名</strong> 敌国平民。</p> <p>平民照片如下图所示。</p> <p></p> <img src='stimuli/faces/PCM2.jpg', style='max-width: 30%;'> </img> <p><strong>你是否选择发射武器？</strong></p>","0",""
"","","","","","html-keyboard-response","88","167184","0.0-4.0-0.42","91","1","2022-11-27 12:03:55","7b1eb8be57ff77859c7d9ac988e43411","183.198.206.150","Mozilla/5.0 (Windows NT 10.0; Win64; x64) AppleWebKit/537.36 (KHTML, like Gecko) Chrome/107.0.0.0 Safari/537.36 Edg/107.0.1418.56","WebKit","Edge","107.0.1418.56","Windows","10.0","null","<div style=""font-size:60px;"">+</div>","null",""
"","","","","","html-button-response","89","169916","0.0-4.0-1.42","91","1","2022-11-27 12:03:55","7b1eb8be57ff77859c7d9ac988e43411","183.198.206.150","Mozilla/5.0 (Windows NT 10.0; Win64; x64) AppleWebKit/537.36 (KHTML, like Gecko) Chrome/107.0.0.0 Safari/537.36 Edg/107.0.1418.56","WebKit","Edge","107.0.1418.56","Windows","10.0","2731","<p>作为军队的指挥官，你可以选择发射导弹杀死 <strong>4名</strong> 敌国士兵，但会炸毁附近的 <strong>1棵</strong> 敌国树木。</p> <p>树木的照片如下图所示。</p> <p></p> <img src='stimuli/trees/5.png', style='max-width: 30%;'> </img> <p><strong>你是否选择发射武器？</strong></p>","0",""
"","","","","","html-keyboard-response","90","170919","0.0-4.0-0.43","91","1","2022-11-27 12:03:55","7b1eb8be57ff77859c7d9ac988e43411","183.198.206.150","Mozilla/5.0 (Windows NT 10.0; Win64; x64) AppleWebKit/537.36 (KHTML, like Gecko) Chrome/107.0.0.0 Safari/537.36 Edg/107.0.1418.56","WebKit","Edge","107.0.1418.56","Windows","10.0","null","<div style=""font-size:60px;"">+</div>","null",""
"","","","","","html-button-response","91","171817","0.0-4.0-1.43","91","1","2022-11-27 12:03:55","7b1eb8be57ff77859c7d9ac988e43411","183.198.206.150","Mozilla/5.0 (Windows NT 10.0; Win64; x64) AppleWebKit/537.36 (KHTML, like Gecko) Chrome/107.0.0.0 Safari/537.36 Edg/107.0.1418.56","WebKit","Edge","107.0.1418.56","Windows","10.0","897","<p>作为军队的指挥官，你可以选择发射导弹杀死 <strong>10名</strong> 敌国士兵，但会误杀附近的 <strong>1名</strong> 敌国平民。</p> <p>平民照片如下图所示。</p> <p></p> <img src='stimuli/faces/PCF1.jpg', style='max-width: 30%;'> </img> <p><strong>你是否选择发射武器？</strong></p>","0",""
"","","","","","html-keyboard-response","92","172823","0.0-4.0-0.44","91","1","2022-11-27 12:03:55","7b1eb8be57ff77859c7d9ac988e43411","183.198.206.150","Mozilla/5.0 (Windows NT 10.0; Win64; x64) AppleWebKit/537.36 (KHTML, like Gecko) Chrome/107.0.0.0 Safari/537.36 Edg/107.0.1418.56","WebKit","Edge","107.0.1418.56","Windows","10.0","null","<div style=""font-size:60px;"">+</div>","null",""
"","","","","","html-button-response","93","173710","0.0-4.0-1.44","91","1","2022-11-27 12:03:55","7b1eb8be57ff77859c7d9ac988e43411","183.198.206.150","Mozilla/5.0 (Windows NT 10.0; Win64; x64) AppleWebKit/537.36 (KHTML, like Gecko) Chrome/107.0.0.0 Safari/537.36 Edg/107.0.1418.56","WebKit","Edge","107.0.1418.56","Windows","10.0","886","<p>作为军队的指挥官，你可以选择发射导弹杀死 <strong>7名</strong> 敌国士兵，但会误杀附近的 <strong>1名</strong> 敌国平民。</p> <p>平民照片如下图所示。</p> <p></p> <img src='stimuli/faces/PCM1.jpg', style='max-width: 30%;'> </img> <p><strong>你是否选择发射武器？</strong></p>","0",""
"","","","","","html-keyboard-response","94","174718","0.0-4.0-0.45","91","1","2022-11-27 12:03:55","7b1eb8be57ff77859c7d9ac988e43411","183.198.206.150","Mozilla/5.0 (Windows NT 10.0; Win64; x64) AppleWebKit/537.36 (KHTML, like Gecko) Chrome/107.0.0.0 Safari/537.36 Edg/107.0.1418.56","WebKit","Edge","107.0.1418.56","Windows","10.0","null","<div style=""font-size:60px;"">+</div>","null",""
"","","","","","html-button-response","95","176019","0.0-4.0-1.45","91","1","2022-11-27 12:03:55","7b1eb8be57ff77859c7d9ac988e43411","183.198.206.150","Mozilla/5.0 (Windows NT 10.0; Win64; x64) AppleWebKit/537.36 (KHTML, like Gecko) Chrome/107.0.0.0 Safari/537.36 Edg/107.0.1418.56","WebKit","Edge","107.0.1418.56","Windows","10.0","1313","<p>作为军队的指挥官，你可以选择发射导弹杀死 <strong>7名</strong> 敌国士兵，但会误杀附近的 <strong>1名</strong> 敌国平民。</p> <p>平民照片如下图所示。</p> <p></p> <img src='stimuli/faces/PCM6.jpg', style='max-width: 30%;'> </img> <p><strong>你是否选择发射武器？</strong></p>","0",""
"","","","","","html-keyboard-response","96","177024","0.0-4.0-0.46","91","1","2022-11-27 12:03:55","7b1eb8be57ff77859c7d9ac988e43411","183.198.206.150","Mozilla/5.0 (Windows NT 10.0; Win64; x64) AppleWebKit/537.36 (KHTML, like Gecko) Chrome/107.0.0.0 Safari/537.36 Edg/107.0.1418.56","WebKit","Edge","107.0.1418.56","Windows","10.0","null","<div style=""font-size:60px;"">+</div>","null",""
"","","","","","html-button-response","97","276480","0.0-4.0-1.46","91","1","2022-11-27 12:03:55","7b1eb8be57ff77859c7d9ac988e43411","183.198.206.150","Mozilla/5.0 (Windows NT 10.0; Win64; x64) AppleWebKit/537.36 (KHTML, like Gecko) Chrome/107.0.0.0 Safari/537.36 Edg/107.0.1418.56","WebKit","Edge","107.0.1418.56","Windows","10.0","99440","<p>作为军队的指挥官，你可以选择发射导弹杀死 <strong>3名</strong> 敌国士兵，但会误杀附近的 <strong>1名</strong> 敌国平民。</p> <p>平民照片如下图所示。</p> <p></p> <img src='stimuli/faces/PCM1.jpg', style='max-width: 30%;'> </img> <p><strong>你是否选择发射武器？</strong></p>","0",""
"","","","","","html-keyboard-response","98","277486","0.0-4.0-0.47","91","1","2022-11-27 12:03:55","7b1eb8be57ff77859c7d9ac988e43411","183.198.206.150","Mozilla/5.0 (Windows NT 10.0; Win64; x64) AppleWebKit/537.36 (KHTML, like Gecko) Chrome/107.0.0.0 Safari/537.36 Edg/107.0.1418.56","WebKit","Edge","107.0.1418.56","Windows","10.0","null","<div style=""font-size:60px;"">+</div>","null",""
"","","","","","html-button-response","99","278709","0.0-4.0-1.47","91","1","2022-11-27 12:03:55","7b1eb8be57ff77859c7d9ac988e43411","183.198.206.150","Mozilla/5.0 (Windows NT 10.0; Win64; x64) AppleWebKit/537.36 (KHTML, like Gecko) Chrome/107.0.0.0 Safari/537.36 Edg/107.0.1418.56","WebKit","Edge","107.0.1418.56","Windows","10.0","1220","<p>作为军队的指挥官，你可以选择发射导弹杀死 <strong>5名</strong> 敌国士兵，但会炸毁附近的 <strong>1棵</strong> 敌国树木。</p> <p>树木的照片如下图所示。</p> <p></p> <img src='stimuli/trees/13.png', style='max-width: 30%;'> </img> <p><strong>你是否选择发射武器？</strong></p>","0",""
"","","","","","html-keyboard-response","100","279724","0.0-4.0-0.48","91","1","2022-11-27 12:03:55","7b1eb8be57ff77859c7d9ac988e43411","183.198.206.150","Mozilla/5.0 (Windows NT 10.0; Win64; x64) AppleWebKit/537.36 (KHTML, like Gecko) Chrome/107.0.0.0 Safari/537.36 Edg/107.0.1418.56","WebKit","Edge","107.0.1418.56","Windows","10.0","null","<div style=""font-size:60px;"">+</div>","null",""
"","","","","","html-button-response","101","282084","0.0-4.0-1.48","91","1","2022-11-27 12:03:55","7b1eb8be57ff77859c7d9ac988e43411","183.198.206.150","Mozilla/5.0 (Windows NT 10.0; Win64; x64) AppleWebKit/537.36 (KHTML, like Gecko) Chrome/107.0.0.0 Safari/537.36 Edg/107.0.1418.56","WebKit","Edge","107.0.1418.56","Windows","10.0","2358","<p>作为军队的指挥官，你可以选择发射导弹杀死 <strong>7名</strong> 敌国士兵，但会炸毁附近的 <strong>1棵</strong> 敌国树木。</p> <p>树木的照片如下图所示。</p> <p></p> <img src='stimuli/trees/15.png', style='max-width: 30%;'> </img> <p><strong>你是否选择发射武器？</strong></p>","0",""
"","","","","","html-keyboard-response","102","283092","0.0-4.0-0.49","91","1","2022-11-27 12:03:55","7b1eb8be57ff77859c7d9ac988e43411","183.198.206.150","Mozilla/5.0 (Windows NT 10.0; Win64; x64) AppleWebKit/537.36 (KHTML, like Gecko) Chrome/107.0.0.0 Safari/537.36 Edg/107.0.1418.56","WebKit","Edge","107.0.1418.56","Windows","10.0","null","<div style=""font-size:60px;"">+</div>","null",""
"","","","","","html-button-response","103","283761","0.0-4.0-1.49","91","1","2022-11-27 12:03:55","7b1eb8be57ff77859c7d9ac988e43411","183.198.206.150","Mozilla/5.0 (Windows NT 10.0; Win64; x64) AppleWebKit/537.36 (KHTML, like Gecko) Chrome/107.0.0.0 Safari/537.36 Edg/107.0.1418.56","WebKit","Edge","107.0.1418.56","Windows","10.0","668","<p>作为军队的指挥官，你可以选择发射导弹杀死 <strong>4名</strong> 敌国士兵，但会炸毁附近的 <strong>1棵</strong> 敌国树木。</p> <p>树木的照片如下图所示。</p> <p></p> <img src='stimuli/trees/3.png', style='max-width: 30%;'> </img> <p><strong>你是否选择发射武器？</strong></p>","0",""
"","","","","","html-keyboard-response","104","284774","0.0-4.0-0.50","91","1","2022-11-27 12:03:55","7b1eb8be57ff77859c7d9ac988e43411","183.198.206.150","Mozilla/5.0 (Windows NT 10.0; Win64; x64) AppleWebKit/537.36 (KHTML, like Gecko) Chrome/107.0.0.0 Safari/537.36 Edg/107.0.1418.56","WebKit","Edge","107.0.1418.56","Windows","10.0","null","<div style=""font-size:60px;"">+</div>","null",""
"","","","","","html-button-response","105","285905","0.0-4.0-1.50","91","1","2022-11-27 12:03:55","7b1eb8be57ff77859c7d9ac988e43411","183.198.206.150","Mozilla/5.0 (Windows NT 10.0; Win64; x64) AppleWebKit/537.36 (KHTML, like Gecko) Chrome/107.0.0.0 Safari/537.36 Edg/107.0.1418.56","WebKit","Edge","107.0.1418.56","Windows","10.0","1129","<p>作为军队的指挥官，你可以选择发射导弹杀死 <strong>3名</strong> 敌国士兵，但会炸毁附近的 <strong>1棵</strong> 敌国树木。</p> <p>树木的照片如下图所示。</p> <p></p> <img src='stimuli/trees/7.png', style='max-width: 30%;'> </img> <p><strong>你是否选择发射武器？</strong></p>","0",""
"","","","","","html-keyboard-response","106","286925","0.0-4.0-0.51","91","1","2022-11-27 12:03:55","7b1eb8be57ff77859c7d9ac988e43411","183.198.206.150","Mozilla/5.0 (Windows NT 10.0; Win64; x64) AppleWebKit/537.36 (KHTML, like Gecko) Chrome/107.0.0.0 Safari/537.36 Edg/107.0.1418.56","WebKit","Edge","107.0.1418.56","Windows","10.0","null","<div style=""font-size:60px;"">+</div>","null",""
"","","","","","html-button-response","107","287551","0.0-4.0-1.51","91","1","2022-11-27 12:03:55","7b1eb8be57ff77859c7d9ac988e43411","183.198.206.150","Mozilla/5.0 (Windows NT 10.0; Win64; x64) AppleWebKit/537.36 (KHTML, like Gecko) Chrome/107.0.0.0 Safari/537.36 Edg/107.0.1418.56","WebKit","Edge","107.0.1418.56","Windows","10.0","624","<p>作为军队的指挥官，你可以选择发射导弹杀死 <strong>4名</strong> 敌国士兵，但会炸毁附近的 <strong>1棵</strong> 敌国树木。</p> <p>树木的照片如下图所示。</p> <p></p> <img src='stimuli/trees/12.png', style='max-width: 30%;'> </img> <p><strong>你是否选择发射武器？</strong></p>","0",""
"","","","","","html-keyboard-response","108","288572","0.0-4.0-0.52","91","1","2022-11-27 12:03:55","7b1eb8be57ff77859c7d9ac988e43411","183.198.206.150","Mozilla/5.0 (Windows NT 10.0; Win64; x64) AppleWebKit/537.36 (KHTML, like Gecko) Chrome/107.0.0.0 Safari/537.36 Edg/107.0.1418.56","WebKit","Edge","107.0.1418.56","Windows","10.0","null","<div style=""font-size:60px;"">+</div>","null",""
"","","","","","html-button-response","109","289797","0.0-4.0-1.52","91","1","2022-11-27 12:03:55","7b1eb8be57ff77859c7d9ac988e43411","183.198.206.150","Mozilla/5.0 (Windows NT 10.0; Win64; x64) AppleWebKit/537.36 (KHTML, like Gecko) Chrome/107.0.0.0 Safari/537.36 Edg/107.0.1418.56","WebKit","Edge","107.0.1418.56","Windows","10.0","1223","<p>作为军队的指挥官，你可以选择发射导弹杀死 <strong>3名</strong> 敌国士兵，但会误杀附近的 <strong>1名</strong> 敌国平民。</p> <p>平民照片如下图所示。</p> <p></p> <img src='stimuli/faces/PCF6.jpg', style='max-width: 30%;'> </img> <p><strong>你是否选择发射武器？</strong></p>","0",""
"","","","","","html-keyboard-response","110","290821","0.0-4.0-0.53","91","1","2022-11-27 12:03:55","7b1eb8be57ff77859c7d9ac988e43411","183.198.206.150","Mozilla/5.0 (Windows NT 10.0; Win64; x64) AppleWebKit/537.36 (KHTML, like Gecko) Chrome/107.0.0.0 Safari/537.36 Edg/107.0.1418.56","WebKit","Edge","107.0.1418.56","Windows","10.0","null","<div style=""font-size:60px;"">+</div>","null",""
"","","","","","html-button-response","111","292102","0.0-4.0-1.53","91","1","2022-11-27 12:03:55","7b1eb8be57ff77859c7d9ac988e43411","183.198.206.150","Mozilla/5.0 (Windows NT 10.0; Win64; x64) AppleWebKit/537.36 (KHTML, like Gecko) Chrome/107.0.0.0 Safari/537.36 Edg/107.0.1418.56","WebKit","Edge","107.0.1418.56","Windows","10.0","1279","<p>作为军队的指挥官，你可以选择发射导弹杀死 <strong>10名</strong> 敌国士兵，但会误杀附近的 <strong>1名</strong> 敌国平民。</p> <p>平民照片如下图所示。</p> <p></p> <img src='stimuli/faces/PCM5.jpg', style='max-width: 30%;'> </img> <p><strong>你是否选择发射武器？</strong></p>","0",""
"","","","","","html-keyboard-response","112","293117","0.0-4.0-0.54","91","1","2022-11-27 12:03:55","7b1eb8be57ff77859c7d9ac988e43411","183.198.206.150","Mozilla/5.0 (Windows NT 10.0; Win64; x64) AppleWebKit/537.36 (KHTML, like Gecko) Chrome/107.0.0.0 Safari/537.36 Edg/107.0.1418.56","WebKit","Edge","107.0.1418.56","Windows","10.0","null","<div style=""font-size:60px;"">+</div>","null",""
"","","","","","html-button-response","113","294198","0.0-4.0-1.54","91","1","2022-11-27 12:03:55","7b1eb8be57ff77859c7d9ac988e43411","183.198.206.150","Mozilla/5.0 (Windows NT 10.0; Win64; x64) AppleWebKit/537.36 (KHTML, like Gecko) Chrome/107.0.0.0 Safari/537.36 Edg/107.0.1418.56","WebKit","Edge","107.0.1418.56","Windows","10.0","1079","<p>作为军队的指挥官，你可以选择发射导弹杀死 <strong>1名</strong> 敌国士兵，但会炸毁附近的 <strong>1棵</strong> 敌国树木。</p> <p>树木的照片如下图所示。</p> <p></p> <img src='stimuli/trees/14.png', style='max-width: 30%;'> </img> <p><strong>你是否选择发射武器？</strong></p>","0",""
"","","","","","html-keyboard-response","114","295211","0.0-4.0-0.55","91","1","2022-11-27 12:03:55","7b1eb8be57ff77859c7d9ac988e43411","183.198.206.150","Mozilla/5.0 (Windows NT 10.0; Win64; x64) AppleWebKit/537.36 (KHTML, like Gecko) Chrome/107.0.0.0 Safari/537.36 Edg/107.0.1418.56","WebKit","Edge","107.0.1418.56","Windows","10.0","null","<div style=""font-size:60px;"">+</div>","null",""
"","","","","","html-button-response","115","295902","0.0-4.0-1.55","91","1","2022-11-27 12:03:55","7b1eb8be57ff77859c7d9ac988e43411","183.198.206.150","Mozilla/5.0 (Windows NT 10.0; Win64; x64) AppleWebKit/537.36 (KHTML, like Gecko) Chrome/107.0.0.0 Safari/537.36 Edg/107.0.1418.56","WebKit","Edge","107.0.1418.56","Windows","10.0","689","<p>作为军队的指挥官，你可以选择发射导弹杀死 <strong>6名</strong> 敌国士兵，但会炸毁附近的 <strong>1棵</strong> 敌国树木。</p> <p>树木的照片如下图所示。</p> <p></p> <img src='stimuli/trees/1.png', style='max-width: 30%;'> </img> <p><strong>你是否选择发射武器？</strong></p>","0",""
"","","","","","html-keyboard-response","116","296917","0.0-4.0-0.56","91","1","2022-11-27 12:03:55","7b1eb8be57ff77859c7d9ac988e43411","183.198.206.150","Mozilla/5.0 (Windows NT 10.0; Win64; x64) AppleWebKit/537.36 (KHTML, like Gecko) Chrome/107.0.0.0 Safari/537.36 Edg/107.0.1418.56","WebKit","Edge","107.0.1418.56","Windows","10.0","null","<div style=""font-size:60px;"">+</div>","null",""
"","","","","","html-button-response","117","297752","0.0-4.0-1.56","91","1","2022-11-27 12:03:55","7b1eb8be57ff77859c7d9ac988e43411","183.198.206.150","Mozilla/5.0 (Windows NT 10.0; Win64; x64) AppleWebKit/537.36 (KHTML, like Gecko) Chrome/107.0.0.0 Safari/537.36 Edg/107.0.1418.56","WebKit","Edge","107.0.1418.56","Windows","10.0","833","<p>作为军队的指挥官，你可以选择发射导弹杀死 <strong>3名</strong> 敌国士兵，但会误杀附近的 <strong>1名</strong> 敌国平民。</p> <p>平民照片如下图所示。</p> <p></p> <img src='stimuli/faces/PCF7.jpg', style='max-width: 30%;'> </img> <p><strong>你是否选择发射武器？</strong></p>","0",""
"","","","","","html-keyboard-response","118","298764","0.0-4.0-0.57","91","1","2022-11-27 12:03:55","7b1eb8be57ff77859c7d9ac988e43411","183.198.206.150","Mozilla/5.0 (Windows NT 10.0; Win64; x64) AppleWebKit/537.36 (KHTML, like Gecko) Chrome/107.0.0.0 Safari/537.36 Edg/107.0.1418.56","WebKit","Edge","107.0.1418.56","Windows","10.0","null","<div style=""font-size:60px;"">+</div>","null",""
"","","","","","html-button-response","119","299330","0.0-4.0-1.57","91","1","2022-11-27 12:03:55","7b1eb8be57ff77859c7d9ac988e43411","183.198.206.150","Mozilla/5.0 (Windows NT 10.0; Win64; x64) AppleWebKit/537.36 (KHTML, like Gecko) Chrome/107.0.0.0 Safari/537.36 Edg/107.0.1418.56","WebKit","Edge","107.0.1418.56","Windows","10.0","564","<p>作为军队的指挥官，你可以选择发射导弹杀死 <strong>6名</strong> 敌国士兵，但会炸毁附近的 <strong>1棵</strong> 敌国树木。</p> <p>树木的照片如下图所示。</p> <p></p> <img src='stimuli/trees/13.png', style='max-width: 30%;'> </img> <p><strong>你是否选择发射武器？</strong></p>","0",""
"","","","","","html-keyboard-response","120","300347","0.0-4.0-0.58","91","1","2022-11-27 12:03:55","7b1eb8be57ff77859c7d9ac988e43411","183.198.206.150","Mozilla/5.0 (Windows NT 10.0; Win64; x64) AppleWebKit/537.36 (KHTML, like Gecko) Chrome/107.0.0.0 Safari/537.36 Edg/107.0.1418.56","WebKit","Edge","107.0.1418.56","Windows","10.0","null","<div style=""font-size:60px;"">+</div>","null",""
"","","","","","html-button-response","121","300871","0.0-4.0-1.58","91","1","2022-11-27 12:03:55","7b1eb8be57ff77859c7d9ac988e43411","183.198.206.150","Mozilla/5.0 (Windows NT 10.0; Win64; x64) AppleWebKit/537.36 (KHTML, like Gecko) Chrome/107.0.0.0 Safari/537.36 Edg/107.0.1418.56","WebKit","Edge","107.0.1418.56","Windows","10.0","522","<p>作为军队的指挥官，你可以选择发射导弹杀死 <strong>8名</strong> 敌国士兵，但会炸毁附近的 <strong>1棵</strong> 敌国树木。</p> <p>树木的照片如下图所示。</p> <p></p> <img src='stimuli/trees/4.png', style='max-width: 30%;'> </img> <p><strong>你是否选择发射武器？</strong></p>","0",""
"","","","","","html-keyboard-response","122","301890","0.0-4.0-0.59","91","1","2022-11-27 12:03:55","7b1eb8be57ff77859c7d9ac988e43411","183.198.206.150","Mozilla/5.0 (Windows NT 10.0; Win64; x64) AppleWebKit/537.36 (KHTML, like Gecko) Chrome/107.0.0.0 Safari/537.36 Edg/107.0.1418.56","WebKit","Edge","107.0.1418.56","Windows","10.0","null","<div style=""font-size:60px;"">+</div>","null",""
"","","","","","html-button-response","123","302546","0.0-4.0-1.59","91","1","2022-11-27 12:03:55","7b1eb8be57ff77859c7d9ac988e43411","183.198.206.150","Mozilla/5.0 (Windows NT 10.0; Win64; x64) AppleWebKit/537.36 (KHTML, like Gecko) Chrome/107.0.0.0 Safari/537.36 Edg/107.0.1418.56","WebKit","Edge","107.0.1418.56","Windows","10.0","654","<p>作为军队的指挥官，你可以选择发射导弹杀死 <strong>4名</strong> 敌国士兵，但会误杀附近的 <strong>1名</strong> 敌国平民。</p> <p>平民照片如下图所示。</p> <p></p> <img src='stimuli/faces/PCF8.jpg', style='max-width: 30%;'> </img> <p><strong>你是否选择发射武器？</strong></p>","0",""
"","","","","","html-keyboard-response","124","303564","0.0-4.0-0.60","91","1","2022-11-27 12:03:55","7b1eb8be57ff77859c7d9ac988e43411","183.198.206.150","Mozilla/5.0 (Windows NT 10.0; Win64; x64) AppleWebKit/537.36 (KHTML, like Gecko) Chrome/107.0.0.0 Safari/537.36 Edg/107.0.1418.56","WebKit","Edge","107.0.1418.56","Windows","10.0","null","<div style=""font-size:60px;"">+</div>","null",""
"","","","","","html-button-response","125","304218","0.0-4.0-1.60","91","1","2022-11-27 12:03:55","7b1eb8be57ff77859c7d9ac988e43411","183.198.206.150","Mozilla/5.0 (Windows NT 10.0; Win64; x64) AppleWebKit/537.36 (KHTML, like Gecko) Chrome/107.0.0.0 Safari/537.36 Edg/107.0.1418.56","WebKit","Edge","107.0.1418.56","Windows","10.0","652","<p>作为军队的指挥官，你可以选择发射导弹杀死 <strong>8名</strong> 敌国士兵，但会炸毁附近的 <strong>1棵</strong> 敌国树木。</p> <p>树木的照片如下图所示。</p> <p></p> <img src='stimuli/trees/2.png', style='max-width: 30%;'> </img> <p><strong>你是否选择发射武器？</strong></p>","0",""
"","","","","","html-keyboard-response","126","305235","0.0-4.0-0.61","91","1","2022-11-27 12:03:55","7b1eb8be57ff77859c7d9ac988e43411","183.198.206.150","Mozilla/5.0 (Windows NT 10.0; Win64; x64) AppleWebKit/537.36 (KHTML, like Gecko) Chrome/107.0.0.0 Safari/537.36 Edg/107.0.1418.56","WebKit","Edge","107.0.1418.56","Windows","10.0","null","<div style=""font-size:60px;"">+</div>","null",""
"","","","","","html-button-response","127","305932","0.0-4.0-1.61","91","1","2022-11-27 12:03:55","7b1eb8be57ff77859c7d9ac988e43411","183.198.206.150","Mozilla/5.0 (Windows NT 10.0; Win64; x64) AppleWebKit/537.36 (KHTML, like Gecko) Chrome/107.0.0.0 Safari/537.36 Edg/107.0.1418.56","WebKit","Edge","107.0.1418.56","Windows","10.0","695","<p>作为军队的指挥官，你可以选择发射导弹杀死 <strong>6名</strong> 敌国士兵，但会炸毁附近的 <strong>1棵</strong> 敌国树木。</p> <p>树木的照片如下图所示。</p> <p></p> <img src='stimuli/trees/14.png', style='max-width: 30%;'> </img> <p><strong>你是否选择发射武器？</strong></p>","0",""
"","","","","","html-keyboard-response","128","306947","0.0-4.0-0.62","91","1","2022-11-27 12:03:55","7b1eb8be57ff77859c7d9ac988e43411","183.198.206.150","Mozilla/5.0 (Windows NT 10.0; Win64; x64) AppleWebKit/537.36 (KHTML, like Gecko) Chrome/107.0.0.0 Safari/537.36 Edg/107.0.1418.56","WebKit","Edge","107.0.1418.56","Windows","10.0","null","<div style=""font-size:60px;"">+</div>","null",""
"","","","","","html-button-response","129","307471","0.0-4.0-1.62","91","1","2022-11-27 12:03:55","7b1eb8be57ff77859c7d9ac988e43411","183.198.206.150","Mozilla/5.0 (Windows NT 10.0; Win64; x64) AppleWebKit/537.36 (KHTML, like Gecko) Chrome/107.0.0.0 Safari/537.36 Edg/107.0.1418.56","WebKit","Edge","107.0.1418.56","Windows","10.0","522","<p>作为军队的指挥官，你可以选择发射导弹杀死 <strong>10名</strong> 敌国士兵，但会炸毁附近的 <strong>1棵</strong> 敌国树木。</p> <p>树木的照片如下图所示。</p> <p></p> <img src='stimuli/trees/16.png', style='max-width: 30%;'> </img> <p><strong>你是否选择发射武器？</strong></p>","0",""
"","","","","","html-keyboard-response","130","308485","0.0-4.0-0.63","91","1","2022-11-27 12:03:55","7b1eb8be57ff77859c7d9ac988e43411","183.198.206.150","Mozilla/5.0 (Windows NT 10.0; Win64; x64) AppleWebKit/537.36 (KHTML, like Gecko) Chrome/107.0.0.0 Safari/537.36 Edg/107.0.1418.56","WebKit","Edge","107.0.1418.56","Windows","10.0","null","<div style=""font-size:60px;"">+</div>","null",""
"","","","","","html-button-response","131","309542","0.0-4.0-1.63","91","1","2022-11-27 12:03:55","7b1eb8be57ff77859c7d9ac988e43411","183.198.206.150","Mozilla/5.0 (Windows NT 10.0; Win64; x64) AppleWebKit/537.36 (KHTML, like Gecko) Chrome/107.0.0.0 Safari/537.36 Edg/107.0.1418.56","WebKit","Edge","107.0.1418.56","Windows","10.0","1055","<p>作为军队的指挥官，你可以选择发射导弹杀死 <strong>3名</strong> 敌国士兵，但会误杀附近的 <strong>1名</strong> 敌国平民。</p> <p>平民照片如下图所示。</p> <p></p> <img src='stimuli/faces/PCF5.jpg', style='max-width: 30%;'> </img> <p><strong>你是否选择发射武器？</strong></p>","0",""
"","","","","","survey-multi-choice","132","337944","0.0-5.0","91","1","2022-11-27 12:03:55","7b1eb8be57ff77859c7d9ac988e43411","183.198.206.150","Mozilla/5.0 (Windows NT 10.0; Win64; x64) AppleWebKit/537.36 (KHTML, like Gecko) Chrome/107.0.0.0 Safari/537.36 Edg/107.0.1418.56","WebKit","Edge","107.0.1418.56","Windows","10.0","28400","","{""Attention1"":""""}","[0]"
"","","","","","html-button-response","133","531998","0.0-6.0","91","1","2022-11-27 12:03:55","7b1eb8be57ff77859c7d9ac988e43411","183.198.206.150","Mozilla/5.0 (Windows NT 10.0; Win64; x64) AppleWebKit/537.36 (KHTML, like Gecko) Chrome/107.0.0.0 Safari/537.36 Edg/107.0.1418.56","WebKit","Edge","107.0.1418.56","Windows","10.0","194051","<p style=""font-size:20px;font-weight:bold;"">恭喜！</p><p>你已经完成了实验的第一部分。</p><p>请休息放松一下，然后进入第二部分。</p><p>这部分大约需要10分钟。</p>","0",""
"","","","","","survey-text","134","633209","0.0-7.0","91","1","2022-11-27 12:03:55","7b1eb8be57ff77859c7d9ac988e43411","183.198.206.150","Mozilla/5.0 (Windows NT 10.0; Win64; x64) AppleWebKit/537.36 (KHTML, like Gecko) Chrome/107.0.0.0 Safari/537.36 Edg/107.0.1418.56","WebKit","Edge","107.0.1418.56","Windows","10.0","100184","","{""Age"":""19"",""Nation"":""中国"",""Born"":""河北省保定市"",""Live"":""河北省保定市"",""Ethnic"":""汉族"",""Alipay"":""13091255681"",""ID"":""""}",""
"","","","","","survey-multi-choice","135","644412","0.0-8.0","91","1","2022-11-27 12:03:55","7b1eb8be57ff77859c7d9ac988e43411","183.198.206.150","Mozilla/5.0 (Windows NT 10.0; Win64; x64) AppleWebKit/537.36 (KHTML, like Gecko) Chrome/107.0.0.0 Safari/537.36 Edg/107.0.1418.56","WebKit","Edge","107.0.1418.56","Windows","10.0","11202","","{""Gender"":""男"",""Education"":""本科毕业"",""Income"":""￥70,000-￥139,999"",""Children"":""0"",""Race"":""亚洲人""}","[0,1,2,3,4]"
"","","","","","survey-multi-select","136","706031","0.0-9.0","91","1","2022-11-27 12:03:55","7b1eb8be57ff77859c7d9ac988e43411","183.198.206.150","Mozilla/5.0 (Windows NT 10.0; Win64; x64) AppleWebKit/537.36 (KHTML, like Gecko) Chrome/107.0.0.0 Safari/537.36 Edg/107.0.1418.56","WebKit","Edge","107.0.1418.56","Windows","10.0","61612","","{""Marriage"":[""未婚""],""Religion"":[""无宗教信仰""]}","[0,1]"
"","","","","","survey-multi-choice","137","708950","0.0-10.0","91","1","2022-11-27 12:03:55","7b1eb8be57ff77859c7d9ac988e43411","183.198.206.150","Mozilla/5.0 (Windows NT 10.0; Win64; x64) AppleWebKit/537.36 (KHTML, like Gecko) Chrome/107.0.0.0 Safari/537.36 Edg/107.0.1418.56","WebKit","Edge","107.0.1418.56","Windows","10.0","2916","","{""SES"":""5""}","[0]"
"","","","","","html-button-response","138","711577","0.0-11.0","91","1","2022-11-27 12:03:55","7b1eb8be57ff77859c7d9ac988e43411","183.198.206.150","Mozilla/5.0 (Windows NT 10.0; Win64; x64) AppleWebKit/537.36 (KHTML, like Gecko) Chrome/107.0.0.0 Safari/537.36 Edg/107.0.1418.56","WebKit","Edge","107.0.1418.56","Windows","10.0","2625","<p><strong>请判断下列陈述在多大程度上可以形容你？</p><p> (1 = ""和我一点都不像"" to 5 = ""非常像我"".)</strong></p>","0",""
"","","","","","survey-likert","139","736345","0.0-12.0","91","1","2022-11-27 12:03:55","7b1eb8be57ff77859c7d9ac988e43411","183.198.206.150","Mozilla/5.0 (Windows NT 10.0; Win64; x64) AppleWebKit/537.36 (KHTML, like Gecko) Chrome/107.0.0.0 Safari/537.36 Edg/107.0.1418.56","WebKit","Edge","107.0.1418.56","Windows","10.0","24766","","{""Aggression1"":3,""Aggression2"":3,""Aggression3"":3,""Aggression4"":0,""Aggression5"":3,""Aggression6"":3,""Aggression7"":0,""Aggression8"":0,""Aggression9"":3}","[0,1,2,3,4,5,6,7,8]"
"","","","","","html-button-response","140","737387","0.0-13.0","91","1","2022-11-27 12:03:55","7b1eb8be57ff77859c7d9ac988e43411","183.198.206.150","Mozilla/5.0 (Windows NT 10.0; Win64; x64) AppleWebKit/537.36 (KHTML, like Gecko) Chrome/107.0.0.0 Safari/537.36 Edg/107.0.1418.56","WebKit","Edge","107.0.1418.56","Windows","10.0","1039","<p><strong>请判断你在多大程度上同意下列陈述。</strong></p>","0",""
"","","","","","survey-likert","141","898532","0.0-14.0","91","1","2022-11-27 12:03:55","7b1eb8be57ff77859c7d9ac988e43411","183.198.206.150","Mozilla/5.0 (Windows NT 10.0; Win64; x64) AppleWebKit/537.36 (KHTML, like Gecko) Chrome/107.0.0.0 Safari/537.36 Edg/107.0.1418.56","WebKit","Edge","107.0.1418.56","Windows","10.0","161142","","{""scale1"":3,""scale3"":1,""scale14"":2,""scale24"":3,""scale8"":4,""scale4"":1,""scale22"":4,""scale10"":3,""scale28"":2,""scale2"":3,""scale26"":3,""scale23"":2,""scale16"":3,""scale11"":4,""scale15"":1,""scale12"":3,""scale6"":3,""scale9"":2,""scale25"":3,""scale19"":2,""scale20"":3,""scale5"":3,""scale27"":1,""scale17"":3,""scale7"":2,""scale13"":0,""scale18"":1,""scale21"":3}","[0,2,13,23,7,3,21,9,27,1,25,22,15,10,14,11,5,8,24,18,19,4,26,16,6,12,17,20]"
"","","","","","html-button-response","142","899792","0.0-15.0","91","1","2022-11-27 12:03:55","7b1eb8be57ff77859c7d9ac988e43411","183.198.206.150","Mozilla/5.0 (Windows NT 10.0; Win64; x64) AppleWebKit/537.36 (KHTML, like Gecko) Chrome/107.0.0.0 Safari/537.36 Edg/107.0.1418.56","WebKit","Edge","107.0.1418.56","Windows","10.0","1257","<p><strong>请判断你在多大程度上同意下列陈述。</strong></p>","0",""
"","","","","","survey-likert","143","1072321","0.0-16.0","91","1","2022-11-27 12:03:55","7b1eb8be57ff77859c7d9ac988e43411","183.198.206.150","Mozilla/5.0 (Windows NT 10.0; Win64; x64) AppleWebKit/537.36 (KHTML, like Gecko) Chrome/107.0.0.0 Safari/537.36 Edg/107.0.1418.56","WebKit","Edge","107.0.1418.56","Windows","10.0","172532","","{""sdo1"":2,""sdo6"":1,""sdo7"":4,""sdo2"":6,""sdo5"":4,""sdo4"":5,""sdo13"":6,""sdo3"":5,""sdo11"":5,""sdo10"":6,""sdo16"":5,""sdo12"":5,""sdo14"":4,""sdo15"":6,""sdo9"":3,""sdo8"":4}","[0,5,6,1,4,3,12,2,10,9,15,11,13,14,8,7]"
"","","","","","html-button-response","144","1075447","0.0-17.0","91","1","2022-11-27 12:03:55","7b1eb8be57ff77859c7d9ac988e43411","183.198.206.150","Mozilla/5.0 (Windows NT 10.0; Win64; x64) AppleWebKit/537.36 (KHTML, like Gecko) Chrome/107.0.0.0 Safari/537.36 Edg/107.0.1418.56","WebKit","Edge","107.0.1418.56","Windows","10.0","3122","<p><strong>请判断你在多大程度上同意下列陈述。</strong></p>","0",""
"","","","","","survey-likert","145","1124872","0.0-18.0","91","1","2022-11-27 12:03:55","7b1eb8be57ff77859c7d9ac988e43411","183.198.206.150","Mozilla/5.0 (Windows NT 10.0; Win64; x64) AppleWebKit/537.36 (KHTML, like Gecko) Chrome/107.0.0.0 Safari/537.36 Edg/107.0.1418.56","WebKit","Edge","107.0.1418.56","Windows","10.0","49414","","{""caring1"":4,""liking1"":3,""caring2"":4,""protection1"":3,""liking2"":1,""caring3"":4,""protection2"":0,""liking3"":1,""protection3"":3,""caring4"":4,""liking4"":0,""protection4"":4,""caring5"":3,""liking5"":4,""protection5"":3}","[0,1,2,3,4,5,6,7,8,9,10,11,12,13,14]"
"","","","","","html-button-response","146","1126004","0.0-19.0","91","1","2022-11-27 12:03:55","7b1eb8be57ff77859c7d9ac988e43411","183.198.206.150","Mozilla/5.0 (Windows NT 10.0; Win64; x64) AppleWebKit/537.36 (KHTML, like Gecko) Chrome/107.0.0.0 Safari/537.36 Edg/107.0.1418.56","WebKit","Edge","107.0.1418.56","Windows","10.0","1128","<p><strong>请判断下列场景中你的内心感受有多柔软。</strong></p>","0",""
"","","","","","survey-likert","147","1282524","0.0-20.0","91","1","2022-11-27 12:03:55","7b1eb8be57ff77859c7d9ac988e43411","183.198.206.150","Mozilla/5.0 (Windows NT 10.0; Win64; x64) AppleWebKit/537.36 (KHTML, like Gecko) Chrome/107.0.0.0 Safari/537.36 Edg/107.0.1418.56","WebKit","Edge","107.0.1418.56","Windows","10.0","156517","","{""tenderness-positive1"":4,""tenderness-negative1"":4,""tenderness-negative2"":1,""tenderness-positive2"":4,""tenderness-positive3"":3,""tenderness-negative3"":0,""tenderness-positive4"":4,""tenderness-negative4"":4,""tenderness-negative5"":3,""tenderness-positive5"":1}","[0,1,2,3,4,5,6,7,8,9]"
"","","","","","survey-multi-choice","148","1290718","0.0-21.0","91","1","2022-11-27 12:03:55","7b1eb8be57ff77859c7d9ac988e43411","183.198.206.150","Mozilla/5.0 (Windows NT 10.0; Win64; x64) AppleWebKit/537.36 (KHTML, like Gecko) Chrome/107.0.0.0 Safari/537.36 Edg/107.0.1418.56","WebKit","Edge","107.0.1418.56","Windows","10.0","8190","","{""Attention2"":""其他""}","[0]"
"","","","","","html-button-response","149","1291856","0.0-22.0","91","1","2022-11-27 12:03:55","7b1eb8be57ff77859c7d9ac988e43411","183.198.206.150","Mozilla/5.0 (Windows NT 10.0; Win64; x64) AppleWebKit/537.36 (KHTML, like Gecko) Chrome/107.0.0.0 Safari/537.36 Edg/107.0.1418.56","WebKit","Edge","107.0.1418.56","Windows","10.0","1135","<p><strong>请判断你在多大程度上同意下列陈述。</strong></p>","0",""
"","","","","","survey-likert","150","1391200","0.0-23.0","91","1","2022-11-27 12:03:55","7b1eb8be57ff77859c7d9ac988e43411","183.198.206.150","Mozilla/5.0 (Windows NT 10.0; Win64; x64) AppleWebKit/537.36 (KHTML, like Gecko) Chrome/107.0.0.0 Safari/537.36 Edg/107.0.1418.56","WebKit","Edge","107.0.1418.56","Windows","10.0","99351","","{""Nation6"":3,""Patri10"":4,""Patri5"":3,""Patri4"":4,""Nation2"":3,""Patri1"":4,""Nation7"":4,""Patri7"":4,""Nation8"":0,""Patri8"":3,""Patri11"":0,""Patri12"":3,""Patri2"":4,""Patri9"":1,""Nation5"":3,""Patri6"":0,""Nation3"":3,""Nation1"":2,""Nation4"":4,""Patri3"":4}","[17,9,4,3,13,0,18,6,19,7,10,11,1,8,16,5,14,12,15,2]"
"","","","","","html-button-response","151","1392405","0.0-24.0","91","1","2022-11-27 12:03:55","7b1eb8be57ff77859c7d9ac988e43411","183.198.206.150","Mozilla/5.0 (Windows NT 10.0; Win64; x64) AppleWebKit/537.36 (KHTML, like Gecko) Chrome/107.0.0.0 Safari/537.36 Edg/107.0.1418.56","WebKit","Edge","107.0.1418.56","Windows","10.0","1201","<p><strong>请判断你在多大程度上同意下列陈述。</strong></p>","0",""
"","","","","","survey-likert","152","1430932","0.0-25.0","91","1","2022-11-27 12:03:55","7b1eb8be57ff77859c7d9ac988e43411","183.198.206.150","Mozilla/5.0 (Windows NT 10.0; Win64; x64) AppleWebKit/537.36 (KHTML, like Gecko) Chrome/107.0.0.0 Safari/537.36 Edg/107.0.1418.56","WebKit","Edge","107.0.1418.56","Windows","10.0","38515","","{""hc3"":8,""hi4"":5,""hc2"":7,""hi2"":3,""hc4"":8,""vi3"":7,""vi4"":7,""vc4"":8,""vc2"":8,""vc1"":8,""vi2"":8,""hc1"":8,""vc3"":8,""vi1"":8,""Robot"":6,""hi1"":7,""hi3"":2}","[11,3,10,1,12,6,8,16,14,13,5,9,15,4,7,0,2]"
"","","","","","survey-text","153","1435275","0.0-26.0","91","1","2022-11-27 12:03:55","7b1eb8be57ff77859c7d9ac988e43411","183.198.206.150","Mozilla/5.0 (Windows NT 10.0; Win64; x64) AppleWebKit/537.36 (KHTML, like Gecko) Chrome/107.0.0.0 Safari/537.36 Edg/107.0.1418.56","WebKit","Edge","107.0.1418.56","Windows","10.0","4335","","{""Comments"":""没有了""}",""
"","","","","","html-button-response","154","1436261","0.0-27.0","91","1","2022-11-27 12:03:55","7b1eb8be57ff77859c7d9ac988e43411","183.198.206.150","Mozilla/5.0 (Windows NT 10.0; Win64; x64) AppleWebKit/537.36 (KHTML, like Gecko) Chrome/107.0.0.0 Safari/537.36 Edg/107.0.1418.56","WebKit","Edge","107.0.1418.56","Windows","10.0","983","<strong><p>恭喜你完成了实验！</p><p>感谢您的参与。</p></strong>","0",""
