"success","timeout","failed_images","failed_audio","failed_video","trial_type","trial_index","time_elapsed","internal_node_id","run_id","condition","recorded_at","source_code_version","ip","user_agent","device","browser","browser_version","platform","platform_version","rt","stimulus","response","question_order"
"true","false","[]","[]","[]","preload","0","15027","0.0-0.0","50","1","2022-11-13 08:30:28","a60ee176136a54a92dc2853177adfa2c","111.199.65.35","Mozilla/5.0 (Macintosh; Intel Mac OS X 10_15_7) AppleWebKit/537.36 (KHTML, like Gecko) Chrome/107.0.0.0 Safari/537.36 Edg/107.0.1418.42","Macintosh","Edge","107.0.1418.42","OS X","10_15_7","","","",""
"true","","","","","fullscreen","1","40745","0.0-1.0","50","1","2022-11-13 08:30:28","a60ee176136a54a92dc2853177adfa2c","111.199.65.35","Mozilla/5.0 (Macintosh; Intel Mac OS X 10_15_7) AppleWebKit/537.36 (KHTML, like Gecko) Chrome/107.0.0.0 Safari/537.36 Edg/107.0.1418.42","Macintosh","Edge","107.0.1418.42","OS X","10_15_7","","","",""
"","","","","","html-button-response","2","57241","0.0-2.0","50","1","2022-11-13 08:30:28","a60ee176136a54a92dc2853177adfa2c","111.199.65.35","Mozilla/5.0 (Macintosh; Intel Mac OS X 10_15_7) AppleWebKit/537.36 (KHTML, like Gecko) Chrome/107.0.0.0 Safari/537.36 Edg/107.0.1418.42","Macintosh","Edge","107.0.1418.42","OS X","10_15_7","16491","<p style=""font-size:20px;font-weight:bold;"">实验知情同意书</p><p style=""text-align:left;""><strong>实验名称：</strong>社会冲突研究</p><p style=""text-align:left;""><strong>主要研究者：</strong>韩晓春副教授（北京师范大学心理学部）</p><p style=""text-align:left;""><strong>联系方式：</strong>发送邮件至xiaochun.han@bnu.edu.cn</p><p style=""text-align:left;""><strong>研究目的：</strong>研究旨在了解人类面对群体冲突时的决策方式，以及相关的心理学特质。实验调查大约需要20分钟。</p><p style=""text-align:left;""><strong>实验流程：</strong>实验包含两部分。第一部分呈现一系列群体冲突场景，请你决定如何对这些冲突进行反应，大约需要10分钟完成。第二部分包含一系列人口统计学信息收集和心理学问卷，大约需要10分钟完成。</p><p style=""text-align:left;""><strong>参加及退出规则：</strong>参加本实验完全取决于您的个人意愿。在参与过程中，您可以随时退出，并且不用承担任何后果。</p><p style=""text-align:left;""><strong>隐私：</strong>本实验完全匿名进行，不会收集您的姓名或其他能够识别您身份的信息。实验中收集的作答仅用作科学研究使用，可能会在学术期刊/书籍上发表，或者用于教学，您的数据未来可能会和其他研究者或实验室分享，但您的个人身份不会被识别。</p><p style=""text-align:left;""><strong>实验报酬：</strong>实验完成后，您将获得15元人民币报酬，以感谢您的时间和努力。调查问卷中包含几道题目用以测验您作答时的认真度。只有完成全部实验，并且正确回答认真度测验的被试才能获得实验报酬。实验报酬将通过支付宝转账发放。</p><p style=""text-align:left;font-size:20px;""><strong>如果您同意以上实验知情同意书的内容，请点击'同意并且开始实验'按钮；否则请关闭浏览器界面，退出实验。</strong></p>","0",""
"","","","","","html-button-response","3","65717","0.0-3.0","50","1","2022-11-13 08:30:28","a60ee176136a54a92dc2853177adfa2c","111.199.65.35","Mozilla/5.0 (Macintosh; Intel Mac OS X 10_15_7) AppleWebKit/537.36 (KHTML, like Gecko) Chrome/107.0.0.0 Safari/537.36 Edg/107.0.1418.42","Macintosh","Edge","107.0.1418.42","OS X","10_15_7","8472","<p ><strong>实验任务一：</strong></p><p>请想象你的国家与另一个国家发生了军事冲突。</p><p>你是国家军队的指挥官，你将如何在冲突中进行决策。</p><p>具体来说，作为军队指挥官，请你决定是否发射导弹进行打击。</p><p>接下来，你会面对一系列场景，请仔细阅读每个场景，然后进行决策。</p><p>这部分实验任务大约需要10分钟。</p><p><strong>实验过程中，请集中注意力。</strong></p>","0",""
"","","","","","html-keyboard-response","4","66731","0.0-4.0-0.0","50","1","2022-11-13 08:30:28","a60ee176136a54a92dc2853177adfa2c","111.199.65.35","Mozilla/5.0 (Macintosh; Intel Mac OS X 10_15_7) AppleWebKit/537.36 (KHTML, like Gecko) Chrome/107.0.0.0 Safari/537.36 Edg/107.0.1418.42","Macintosh","Edge","107.0.1418.42","OS X","10_15_7","null","<div style=""font-size:60px;"">+</div>","null",""
"","","","","","html-button-response","5","73480","0.0-4.0-1.0","50","1","2022-11-13 08:30:28","a60ee176136a54a92dc2853177adfa2c","111.199.65.35","Mozilla/5.0 (Macintosh; Intel Mac OS X 10_15_7) AppleWebKit/537.36 (KHTML, like Gecko) Chrome/107.0.0.0 Safari/537.36 Edg/107.0.1418.42","Macintosh","Edge","107.0.1418.42","OS X","10_15_7","6743","<p>作为军队的指挥官，你可以选择发射导弹杀死 <strong>3名</strong> 敌国士兵，但会炸毁附近的 <strong>1棵</strong> 敌国树木。</p> <p>树木的照片如下图所示。</p> <p></p> <img src='stimuli/trees/1.png', style='max-width: 30%;'> </img> <p><strong>你是否选择发射武器？</strong></p>","0",""
"","","","","","html-keyboard-response","6","74486","0.0-4.0-0.1","50","1","2022-11-13 08:30:28","a60ee176136a54a92dc2853177adfa2c","111.199.65.35","Mozilla/5.0 (Macintosh; Intel Mac OS X 10_15_7) AppleWebKit/537.36 (KHTML, like Gecko) Chrome/107.0.0.0 Safari/537.36 Edg/107.0.1418.42","Macintosh","Edge","107.0.1418.42","OS X","10_15_7","null","<div style=""font-size:60px;"">+</div>","null",""
"","","","","","html-button-response","7","81174","0.0-4.0-1.1","50","1","2022-11-13 08:30:28","a60ee176136a54a92dc2853177adfa2c","111.199.65.35","Mozilla/5.0 (Macintosh; Intel Mac OS X 10_15_7) AppleWebKit/537.36 (KHTML, like Gecko) Chrome/107.0.0.0 Safari/537.36 Edg/107.0.1418.42","Macintosh","Edge","107.0.1418.42","OS X","10_15_7","6683","<p>作为军队的指挥官，你可以选择发射导弹杀死 <strong>5名</strong> 敌国士兵，但会误杀附近的 <strong>1名</strong> 敌国平民。</p> <p>平民照片如下图所示。</p> <p></p> <img src='stimuli/faces/PCF5.jpg', style='max-width: 30%;'> </img> <p><strong>你是否选择发射武器？</strong></p>","1",""
"","","","","","html-keyboard-response","8","82186","0.0-4.0-0.2","50","1","2022-11-13 08:30:28","a60ee176136a54a92dc2853177adfa2c","111.199.65.35","Mozilla/5.0 (Macintosh; Intel Mac OS X 10_15_7) AppleWebKit/537.36 (KHTML, like Gecko) Chrome/107.0.0.0 Safari/537.36 Edg/107.0.1418.42","Macintosh","Edge","107.0.1418.42","OS X","10_15_7","null","<div style=""font-size:60px;"">+</div>","null",""
"","","","","","html-button-response","9","84932","0.0-4.0-1.2","50","1","2022-11-13 08:30:28","a60ee176136a54a92dc2853177adfa2c","111.199.65.35","Mozilla/5.0 (Macintosh; Intel Mac OS X 10_15_7) AppleWebKit/537.36 (KHTML, like Gecko) Chrome/107.0.0.0 Safari/537.36 Edg/107.0.1418.42","Macintosh","Edge","107.0.1418.42","OS X","10_15_7","2740","<p>作为军队的指挥官，你可以选择发射导弹杀死 <strong>8名</strong> 敌国士兵，但会炸毁附近的 <strong>1棵</strong> 敌国树木。</p> <p>树木的照片如下图所示。</p> <p></p> <img src='stimuli/trees/8.png', style='max-width: 30%;'> </img> <p><strong>你是否选择发射武器？</strong></p>","0",""
"","","","","","html-keyboard-response","10","85946","0.0-4.0-0.3","50","1","2022-11-13 08:30:28","a60ee176136a54a92dc2853177adfa2c","111.199.65.35","Mozilla/5.0 (Macintosh; Intel Mac OS X 10_15_7) AppleWebKit/537.36 (KHTML, like Gecko) Chrome/107.0.0.0 Safari/537.36 Edg/107.0.1418.42","Macintosh","Edge","107.0.1418.42","OS X","10_15_7","null","<div style=""font-size:60px;"">+</div>","null",""
"","","","","","html-button-response","11","89724","0.0-4.0-1.3","50","1","2022-11-13 08:30:28","a60ee176136a54a92dc2853177adfa2c","111.199.65.35","Mozilla/5.0 (Macintosh; Intel Mac OS X 10_15_7) AppleWebKit/537.36 (KHTML, like Gecko) Chrome/107.0.0.0 Safari/537.36 Edg/107.0.1418.42","Macintosh","Edge","107.0.1418.42","OS X","10_15_7","3773","<p>作为军队的指挥官，你可以选择发射导弹杀死 <strong>6名</strong> 敌国士兵，但会误杀附近的 <strong>1名</strong> 敌国平民。</p> <p>平民照片如下图所示。</p> <p></p> <img src='stimuli/faces/PCM8.jpg', style='max-width: 30%;'> </img> <p><strong>你是否选择发射武器？</strong></p>","1",""
"","","","","","html-keyboard-response","12","90736","0.0-4.0-0.4","50","1","2022-11-13 08:30:28","a60ee176136a54a92dc2853177adfa2c","111.199.65.35","Mozilla/5.0 (Macintosh; Intel Mac OS X 10_15_7) AppleWebKit/537.36 (KHTML, like Gecko) Chrome/107.0.0.0 Safari/537.36 Edg/107.0.1418.42","Macintosh","Edge","107.0.1418.42","OS X","10_15_7","null","<div style=""font-size:60px;"">+</div>","null",""
"","","","","","html-button-response","13","93256","0.0-4.0-1.4","50","1","2022-11-13 08:30:28","a60ee176136a54a92dc2853177adfa2c","111.199.65.35","Mozilla/5.0 (Macintosh; Intel Mac OS X 10_15_7) AppleWebKit/537.36 (KHTML, like Gecko) Chrome/107.0.0.0 Safari/537.36 Edg/107.0.1418.42","Macintosh","Edge","107.0.1418.42","OS X","10_15_7","2515","<p>作为军队的指挥官，你可以选择发射导弹杀死 <strong>5名</strong> 敌国士兵，但会炸毁附近的 <strong>1棵</strong> 敌国树木。</p> <p>树木的照片如下图所示。</p> <p></p> <img src='stimuli/trees/5.png', style='max-width: 30%;'> </img> <p><strong>你是否选择发射武器？</strong></p>","0",""
"","","","","","html-keyboard-response","14","94261","0.0-4.0-0.5","50","1","2022-11-13 08:30:28","a60ee176136a54a92dc2853177adfa2c","111.199.65.35","Mozilla/5.0 (Macintosh; Intel Mac OS X 10_15_7) AppleWebKit/537.36 (KHTML, like Gecko) Chrome/107.0.0.0 Safari/537.36 Edg/107.0.1418.42","Macintosh","Edge","107.0.1418.42","OS X","10_15_7","null","<div style=""font-size:60px;"">+</div>","null",""
"","","","","","html-button-response","15","98028","0.0-4.0-1.5","50","1","2022-11-13 08:30:28","a60ee176136a54a92dc2853177adfa2c","111.199.65.35","Mozilla/5.0 (Macintosh; Intel Mac OS X 10_15_7) AppleWebKit/537.36 (KHTML, like Gecko) Chrome/107.0.0.0 Safari/537.36 Edg/107.0.1418.42","Macintosh","Edge","107.0.1418.42","OS X","10_15_7","3761","<p>作为军队的指挥官，你可以选择发射导弹杀死 <strong>8名</strong> 敌国士兵，但会误杀附近的 <strong>1名</strong> 敌国平民。</p> <p>平民照片如下图所示。</p> <p></p> <img src='stimuli/faces/PCF2.jpg', style='max-width: 30%;'> </img> <p><strong>你是否选择发射武器？</strong></p>","1",""
"","","","","","html-keyboard-response","16","99042","0.0-4.0-0.6","50","1","2022-11-13 08:30:28","a60ee176136a54a92dc2853177adfa2c","111.199.65.35","Mozilla/5.0 (Macintosh; Intel Mac OS X 10_15_7) AppleWebKit/537.36 (KHTML, like Gecko) Chrome/107.0.0.0 Safari/537.36 Edg/107.0.1418.42","Macintosh","Edge","107.0.1418.42","OS X","10_15_7","null","<div style=""font-size:60px;"">+</div>","null",""
"","","","","","html-button-response","17","101740","0.0-4.0-1.6","50","1","2022-11-13 08:30:28","a60ee176136a54a92dc2853177adfa2c","111.199.65.35","Mozilla/5.0 (Macintosh; Intel Mac OS X 10_15_7) AppleWebKit/537.36 (KHTML, like Gecko) Chrome/107.0.0.0 Safari/537.36 Edg/107.0.1418.42","Macintosh","Edge","107.0.1418.42","OS X","10_15_7","2693","<p>作为军队的指挥官，你可以选择发射导弹杀死 <strong>9名</strong> 敌国士兵，但会误杀附近的 <strong>1名</strong> 敌国平民。</p> <p>平民照片如下图所示。</p> <p></p> <img src='stimuli/faces/PCF3.jpg', style='max-width: 30%;'> </img> <p><strong>你是否选择发射武器？</strong></p>","1",""
"","","","","","html-keyboard-response","18","102753","0.0-4.0-0.7","50","1","2022-11-13 08:30:28","a60ee176136a54a92dc2853177adfa2c","111.199.65.35","Mozilla/5.0 (Macintosh; Intel Mac OS X 10_15_7) AppleWebKit/537.36 (KHTML, like Gecko) Chrome/107.0.0.0 Safari/537.36 Edg/107.0.1418.42","Macintosh","Edge","107.0.1418.42","OS X","10_15_7","null","<div style=""font-size:60px;"">+</div>","null",""
"","","","","","html-button-response","19","106860","0.0-4.0-1.7","50","1","2022-11-13 08:30:28","a60ee176136a54a92dc2853177adfa2c","111.199.65.35","Mozilla/5.0 (Macintosh; Intel Mac OS X 10_15_7) AppleWebKit/537.36 (KHTML, like Gecko) Chrome/107.0.0.0 Safari/537.36 Edg/107.0.1418.42","Macintosh","Edge","107.0.1418.42","OS X","10_15_7","4102","<p>作为军队的指挥官，你可以选择发射导弹杀死 <strong>4名</strong> 敌国士兵，但会炸毁附近的 <strong>1棵</strong> 敌国树木。</p> <p>树木的照片如下图所示。</p> <p></p> <img src='stimuli/trees/13.png', style='max-width: 30%;'> </img> <p><strong>你是否选择发射武器？</strong></p>","0",""
"","","","","","html-keyboard-response","20","107873","0.0-4.0-0.8","50","1","2022-11-13 08:30:28","a60ee176136a54a92dc2853177adfa2c","111.199.65.35","Mozilla/5.0 (Macintosh; Intel Mac OS X 10_15_7) AppleWebKit/537.36 (KHTML, like Gecko) Chrome/107.0.0.0 Safari/537.36 Edg/107.0.1418.42","Macintosh","Edge","107.0.1418.42","OS X","10_15_7","null","<div style=""font-size:60px;"">+</div>","null",""
"","","","","","html-button-response","21","110425","0.0-4.0-1.8","50","1","2022-11-13 08:30:28","a60ee176136a54a92dc2853177adfa2c","111.199.65.35","Mozilla/5.0 (Macintosh; Intel Mac OS X 10_15_7) AppleWebKit/537.36 (KHTML, like Gecko) Chrome/107.0.0.0 Safari/537.36 Edg/107.0.1418.42","Macintosh","Edge","107.0.1418.42","OS X","10_15_7","2547","<p>作为军队的指挥官，你可以选择发射导弹杀死 <strong>9名</strong> 敌国士兵，但会炸毁附近的 <strong>1棵</strong> 敌国树木。</p> <p>树木的照片如下图所示。</p> <p></p> <img src='stimuli/trees/10.png', style='max-width: 30%;'> </img> <p><strong>你是否选择发射武器？</strong></p>","0",""
"","","","","","html-keyboard-response","22","111433","0.0-4.0-0.9","50","1","2022-11-13 08:30:28","a60ee176136a54a92dc2853177adfa2c","111.199.65.35","Mozilla/5.0 (Macintosh; Intel Mac OS X 10_15_7) AppleWebKit/537.36 (KHTML, like Gecko) Chrome/107.0.0.0 Safari/537.36 Edg/107.0.1418.42","Macintosh","Edge","107.0.1418.42","OS X","10_15_7","null","<div style=""font-size:60px;"">+</div>","null",""
"","","","","","html-button-response","23","118467","0.0-4.0-1.9","50","1","2022-11-13 08:30:28","a60ee176136a54a92dc2853177adfa2c","111.199.65.35","Mozilla/5.0 (Macintosh; Intel Mac OS X 10_15_7) AppleWebKit/537.36 (KHTML, like Gecko) Chrome/107.0.0.0 Safari/537.36 Edg/107.0.1418.42","Macintosh","Edge","107.0.1418.42","OS X","10_15_7","7029","<p>作为军队的指挥官，你可以选择发射导弹杀死 <strong>1名</strong> 敌国士兵，但会误杀附近的 <strong>1名</strong> 敌国平民。</p> <p>平民照片如下图所示。</p> <p></p> <img src='stimuli/faces/PCM4.jpg', style='max-width: 30%;'> </img> <p><strong>你是否选择发射武器？</strong></p>","1",""
"","","","","","html-keyboard-response","24","119481","0.0-4.0-0.10","50","1","2022-11-13 08:30:28","a60ee176136a54a92dc2853177adfa2c","111.199.65.35","Mozilla/5.0 (Macintosh; Intel Mac OS X 10_15_7) AppleWebKit/537.36 (KHTML, like Gecko) Chrome/107.0.0.0 Safari/537.36 Edg/107.0.1418.42","Macintosh","Edge","107.0.1418.42","OS X","10_15_7","null","<div style=""font-size:60px;"">+</div>","null",""
"","","","","","html-button-response","25","121393","0.0-4.0-1.10","50","1","2022-11-13 08:30:28","a60ee176136a54a92dc2853177adfa2c","111.199.65.35","Mozilla/5.0 (Macintosh; Intel Mac OS X 10_15_7) AppleWebKit/537.36 (KHTML, like Gecko) Chrome/107.0.0.0 Safari/537.36 Edg/107.0.1418.42","Macintosh","Edge","107.0.1418.42","OS X","10_15_7","1906","<p>作为军队的指挥官，你可以选择发射导弹杀死 <strong>3名</strong> 敌国士兵，但会误杀附近的 <strong>1名</strong> 敌国平民。</p> <p>平民照片如下图所示。</p> <p></p> <img src='stimuli/faces/PCM8.jpg', style='max-width: 30%;'> </img> <p><strong>你是否选择发射武器？</strong></p>","1",""
"","","","","","html-keyboard-response","26","122409","0.0-4.0-0.11","50","1","2022-11-13 08:30:28","a60ee176136a54a92dc2853177adfa2c","111.199.65.35","Mozilla/5.0 (Macintosh; Intel Mac OS X 10_15_7) AppleWebKit/537.36 (KHTML, like Gecko) Chrome/107.0.0.0 Safari/537.36 Edg/107.0.1418.42","Macintosh","Edge","107.0.1418.42","OS X","10_15_7","null","<div style=""font-size:60px;"">+</div>","null",""
"","","","","","html-button-response","27","124105","0.0-4.0-1.11","50","1","2022-11-13 08:30:28","a60ee176136a54a92dc2853177adfa2c","111.199.65.35","Mozilla/5.0 (Macintosh; Intel Mac OS X 10_15_7) AppleWebKit/537.36 (KHTML, like Gecko) Chrome/107.0.0.0 Safari/537.36 Edg/107.0.1418.42","Macintosh","Edge","107.0.1418.42","OS X","10_15_7","1691","<p>作为军队的指挥官，你可以选择发射导弹杀死 <strong>8名</strong> 敌国士兵，但会误杀附近的 <strong>1名</strong> 敌国平民。</p> <p>平民照片如下图所示。</p> <p></p> <img src='stimuli/faces/PCM7.jpg', style='max-width: 30%;'> </img> <p><strong>你是否选择发射武器？</strong></p>","1",""
"","","","","","html-keyboard-response","28","125121","0.0-4.0-0.12","50","1","2022-11-13 08:30:28","a60ee176136a54a92dc2853177adfa2c","111.199.65.35","Mozilla/5.0 (Macintosh; Intel Mac OS X 10_15_7) AppleWebKit/537.36 (KHTML, like Gecko) Chrome/107.0.0.0 Safari/537.36 Edg/107.0.1418.42","Macintosh","Edge","107.0.1418.42","OS X","10_15_7","null","<div style=""font-size:60px;"">+</div>","null",""
"","","","","","html-button-response","29","126837","0.0-4.0-1.12","50","1","2022-11-13 08:30:28","a60ee176136a54a92dc2853177adfa2c","111.199.65.35","Mozilla/5.0 (Macintosh; Intel Mac OS X 10_15_7) AppleWebKit/537.36 (KHTML, like Gecko) Chrome/107.0.0.0 Safari/537.36 Edg/107.0.1418.42","Macintosh","Edge","107.0.1418.42","OS X","10_15_7","1711","<p>作为军队的指挥官，你可以选择发射导弹杀死 <strong>8名</strong> 敌国士兵，但会误杀附近的 <strong>1名</strong> 敌国平民。</p> <p>平民照片如下图所示。</p> <p></p> <img src='stimuli/faces/PCF5.jpg', style='max-width: 30%;'> </img> <p><strong>你是否选择发射武器？</strong></p>","1",""
"","","","","","html-keyboard-response","30","127847","0.0-4.0-0.13","50","1","2022-11-13 08:30:28","a60ee176136a54a92dc2853177adfa2c","111.199.65.35","Mozilla/5.0 (Macintosh; Intel Mac OS X 10_15_7) AppleWebKit/537.36 (KHTML, like Gecko) Chrome/107.0.0.0 Safari/537.36 Edg/107.0.1418.42","Macintosh","Edge","107.0.1418.42","OS X","10_15_7","null","<div style=""font-size:60px;"">+</div>","null",""
"","","","","","html-button-response","31","129425","0.0-4.0-1.13","50","1","2022-11-13 08:30:28","a60ee176136a54a92dc2853177adfa2c","111.199.65.35","Mozilla/5.0 (Macintosh; Intel Mac OS X 10_15_7) AppleWebKit/537.36 (KHTML, like Gecko) Chrome/107.0.0.0 Safari/537.36 Edg/107.0.1418.42","Macintosh","Edge","107.0.1418.42","OS X","10_15_7","1572","<p>作为军队的指挥官，你可以选择发射导弹杀死 <strong>3名</strong> 敌国士兵，但会炸毁附近的 <strong>1棵</strong> 敌国树木。</p> <p>树木的照片如下图所示。</p> <p></p> <img src='stimuli/trees/11.png', style='max-width: 30%;'> </img> <p><strong>你是否选择发射武器？</strong></p>","0",""
"","","","","","html-keyboard-response","32","130438","0.0-4.0-0.14","50","1","2022-11-13 08:30:28","a60ee176136a54a92dc2853177adfa2c","111.199.65.35","Mozilla/5.0 (Macintosh; Intel Mac OS X 10_15_7) AppleWebKit/537.36 (KHTML, like Gecko) Chrome/107.0.0.0 Safari/537.36 Edg/107.0.1418.42","Macintosh","Edge","107.0.1418.42","OS X","10_15_7","null","<div style=""font-size:60px;"">+</div>","null",""
"","","","","","html-button-response","33","137052","0.0-4.0-1.14","50","1","2022-11-13 08:30:28","a60ee176136a54a92dc2853177adfa2c","111.199.65.35","Mozilla/5.0 (Macintosh; Intel Mac OS X 10_15_7) AppleWebKit/537.36 (KHTML, like Gecko) Chrome/107.0.0.0 Safari/537.36 Edg/107.0.1418.42","Macintosh","Edge","107.0.1418.42","OS X","10_15_7","6609","<p>作为军队的指挥官，你可以选择发射导弹杀死 <strong>4名</strong> 敌国士兵，但会误杀附近的 <strong>1名</strong> 敌国平民。</p> <p>平民照片如下图所示。</p> <p></p> <img src='stimuli/faces/PCF6.jpg', style='max-width: 30%;'> </img> <p><strong>你是否选择发射武器？</strong></p>","1",""
"","","","","","html-keyboard-response","34","138062","0.0-4.0-0.15","50","1","2022-11-13 08:30:28","a60ee176136a54a92dc2853177adfa2c","111.199.65.35","Mozilla/5.0 (Macintosh; Intel Mac OS X 10_15_7) AppleWebKit/537.36 (KHTML, like Gecko) Chrome/107.0.0.0 Safari/537.36 Edg/107.0.1418.42","Macintosh","Edge","107.0.1418.42","OS X","10_15_7","null","<div style=""font-size:60px;"">+</div>","null",""
"","","","","","html-button-response","35","151396","0.0-4.0-1.15","50","1","2022-11-13 08:30:28","a60ee176136a54a92dc2853177adfa2c","111.199.65.35","Mozilla/5.0 (Macintosh; Intel Mac OS X 10_15_7) AppleWebKit/537.36 (KHTML, like Gecko) Chrome/107.0.0.0 Safari/537.36 Edg/107.0.1418.42","Macintosh","Edge","107.0.1418.42","OS X","10_15_7","13329","<p>作为军队的指挥官，你可以选择发射导弹杀死 <strong>4名</strong> 敌国士兵，但会炸毁附近的 <strong>1棵</strong> 敌国树木。</p> <p>树木的照片如下图所示。</p> <p></p> <img src='stimuli/trees/6.png', style='max-width: 30%;'> </img> <p><strong>你是否选择发射武器？</strong></p>","0",""
"","","","","","html-keyboard-response","36","152408","0.0-4.0-0.16","50","1","2022-11-13 08:30:28","a60ee176136a54a92dc2853177adfa2c","111.199.65.35","Mozilla/5.0 (Macintosh; Intel Mac OS X 10_15_7) AppleWebKit/537.36 (KHTML, like Gecko) Chrome/107.0.0.0 Safari/537.36 Edg/107.0.1418.42","Macintosh","Edge","107.0.1418.42","OS X","10_15_7","null","<div style=""font-size:60px;"">+</div>","null",""
"","","","","","html-button-response","37","154321","0.0-4.0-1.16","50","1","2022-11-13 08:30:28","a60ee176136a54a92dc2853177adfa2c","111.199.65.35","Mozilla/5.0 (Macintosh; Intel Mac OS X 10_15_7) AppleWebKit/537.36 (KHTML, like Gecko) Chrome/107.0.0.0 Safari/537.36 Edg/107.0.1418.42","Macintosh","Edge","107.0.1418.42","OS X","10_15_7","1907","<p>作为军队的指挥官，你可以选择发射导弹杀死 <strong>8名</strong> 敌国士兵，但会炸毁附近的 <strong>1棵</strong> 敌国树木。</p> <p>树木的照片如下图所示。</p> <p></p> <img src='stimuli/trees/9.png', style='max-width: 30%;'> </img> <p><strong>你是否选择发射武器？</strong></p>","0",""
"","","","","","html-keyboard-response","38","155334","0.0-4.0-0.17","50","1","2022-11-13 08:30:28","a60ee176136a54a92dc2853177adfa2c","111.199.65.35","Mozilla/5.0 (Macintosh; Intel Mac OS X 10_15_7) AppleWebKit/537.36 (KHTML, like Gecko) Chrome/107.0.0.0 Safari/537.36 Edg/107.0.1418.42","Macintosh","Edge","107.0.1418.42","OS X","10_15_7","null","<div style=""font-size:60px;"">+</div>","null",""
"","","","","","html-button-response","39","156673","0.0-4.0-1.17","50","1","2022-11-13 08:30:28","a60ee176136a54a92dc2853177adfa2c","111.199.65.35","Mozilla/5.0 (Macintosh; Intel Mac OS X 10_15_7) AppleWebKit/537.36 (KHTML, like Gecko) Chrome/107.0.0.0 Safari/537.36 Edg/107.0.1418.42","Macintosh","Edge","107.0.1418.42","OS X","10_15_7","1334","<p>作为军队的指挥官，你可以选择发射导弹杀死 <strong>8名</strong> 敌国士兵，但会误杀附近的 <strong>1名</strong> 敌国平民。</p> <p>平民照片如下图所示。</p> <p></p> <img src='stimuli/faces/PCM4.jpg', style='max-width: 30%;'> </img> <p><strong>你是否选择发射武器？</strong></p>","1",""
"","","","","","html-keyboard-response","40","157679","0.0-4.0-0.18","50","1","2022-11-13 08:30:28","a60ee176136a54a92dc2853177adfa2c","111.199.65.35","Mozilla/5.0 (Macintosh; Intel Mac OS X 10_15_7) AppleWebKit/537.36 (KHTML, like Gecko) Chrome/107.0.0.0 Safari/537.36 Edg/107.0.1418.42","Macintosh","Edge","107.0.1418.42","OS X","10_15_7","null","<div style=""font-size:60px;"">+</div>","null",""
"","","","","","html-button-response","41","159057","0.0-4.0-1.18","50","1","2022-11-13 08:30:28","a60ee176136a54a92dc2853177adfa2c","111.199.65.35","Mozilla/5.0 (Macintosh; Intel Mac OS X 10_15_7) AppleWebKit/537.36 (KHTML, like Gecko) Chrome/107.0.0.0 Safari/537.36 Edg/107.0.1418.42","Macintosh","Edge","107.0.1418.42","OS X","10_15_7","1373","<p>作为军队的指挥官，你可以选择发射导弹杀死 <strong>8名</strong> 敌国士兵，但会误杀附近的 <strong>1名</strong> 敌国平民。</p> <p>平民照片如下图所示。</p> <p></p> <img src='stimuli/faces/PCM6.jpg', style='max-width: 30%;'> </img> <p><strong>你是否选择发射武器？</strong></p>","1",""
"","","","","","html-keyboard-response","42","160072","0.0-4.0-0.19","50","1","2022-11-13 08:30:28","a60ee176136a54a92dc2853177adfa2c","111.199.65.35","Mozilla/5.0 (Macintosh; Intel Mac OS X 10_15_7) AppleWebKit/537.36 (KHTML, like Gecko) Chrome/107.0.0.0 Safari/537.36 Edg/107.0.1418.42","Macintosh","Edge","107.0.1418.42","OS X","10_15_7","null","<div style=""font-size:60px;"">+</div>","null",""
"","","","","","html-button-response","43","161295","0.0-4.0-1.19","50","1","2022-11-13 08:30:28","a60ee176136a54a92dc2853177adfa2c","111.199.65.35","Mozilla/5.0 (Macintosh; Intel Mac OS X 10_15_7) AppleWebKit/537.36 (KHTML, like Gecko) Chrome/107.0.0.0 Safari/537.36 Edg/107.0.1418.42","Macintosh","Edge","107.0.1418.42","OS X","10_15_7","1218","<p>作为军队的指挥官，你可以选择发射导弹杀死 <strong>7名</strong> 敌国士兵，但会炸毁附近的 <strong>1棵</strong> 敌国树木。</p> <p>树木的照片如下图所示。</p> <p></p> <img src='stimuli/trees/11.png', style='max-width: 30%;'> </img> <p><strong>你是否选择发射武器？</strong></p>","0",""
"","","","","","html-keyboard-response","44","162302","0.0-4.0-0.20","50","1","2022-11-13 08:30:28","a60ee176136a54a92dc2853177adfa2c","111.199.65.35","Mozilla/5.0 (Macintosh; Intel Mac OS X 10_15_7) AppleWebKit/537.36 (KHTML, like Gecko) Chrome/107.0.0.0 Safari/537.36 Edg/107.0.1418.42","Macintosh","Edge","107.0.1418.42","OS X","10_15_7","null","<div style=""font-size:60px;"">+</div>","null",""
"","","","","","html-button-response","45","164547","0.0-4.0-1.20","50","1","2022-11-13 08:30:28","a60ee176136a54a92dc2853177adfa2c","111.199.65.35","Mozilla/5.0 (Macintosh; Intel Mac OS X 10_15_7) AppleWebKit/537.36 (KHTML, like Gecko) Chrome/107.0.0.0 Safari/537.36 Edg/107.0.1418.42","Macintosh","Edge","107.0.1418.42","OS X","10_15_7","2239","<p>作为军队的指挥官，你可以选择发射导弹杀死 <strong>9名</strong> 敌国士兵，但会误杀附近的 <strong>1名</strong> 敌国平民。</p> <p>平民照片如下图所示。</p> <p></p> <img src='stimuli/faces/PCF4.jpg', style='max-width: 30%;'> </img> <p><strong>你是否选择发射武器？</strong></p>","1",""
"","","","","","html-keyboard-response","46","165555","0.0-4.0-0.21","50","1","2022-11-13 08:30:28","a60ee176136a54a92dc2853177adfa2c","111.199.65.35","Mozilla/5.0 (Macintosh; Intel Mac OS X 10_15_7) AppleWebKit/537.36 (KHTML, like Gecko) Chrome/107.0.0.0 Safari/537.36 Edg/107.0.1418.42","Macintosh","Edge","107.0.1418.42","OS X","10_15_7","null","<div style=""font-size:60px;"">+</div>","null",""
"","","","","","html-button-response","47","168440","0.0-4.0-1.21","50","1","2022-11-13 08:30:28","a60ee176136a54a92dc2853177adfa2c","111.199.65.35","Mozilla/5.0 (Macintosh; Intel Mac OS X 10_15_7) AppleWebKit/537.36 (KHTML, like Gecko) Chrome/107.0.0.0 Safari/537.36 Edg/107.0.1418.42","Macintosh","Edge","107.0.1418.42","OS X","10_15_7","2881","<p>作为军队的指挥官，你可以选择发射导弹杀死 <strong>10名</strong> 敌国士兵，但会炸毁附近的 <strong>1棵</strong> 敌国树木。</p> <p>树木的照片如下图所示。</p> <p></p> <img src='stimuli/trees/2.png', style='max-width: 30%;'> </img> <p><strong>你是否选择发射武器？</strong></p>","0",""
"","","","","","html-keyboard-response","48","169451","0.0-4.0-0.22","50","1","2022-11-13 08:30:28","a60ee176136a54a92dc2853177adfa2c","111.199.65.35","Mozilla/5.0 (Macintosh; Intel Mac OS X 10_15_7) AppleWebKit/537.36 (KHTML, like Gecko) Chrome/107.0.0.0 Safari/537.36 Edg/107.0.1418.42","Macintosh","Edge","107.0.1418.42","OS X","10_15_7","null","<div style=""font-size:60px;"">+</div>","null",""
"","","","","","html-button-response","49","170644","0.0-4.0-1.22","50","1","2022-11-13 08:30:28","a60ee176136a54a92dc2853177adfa2c","111.199.65.35","Mozilla/5.0 (Macintosh; Intel Mac OS X 10_15_7) AppleWebKit/537.36 (KHTML, like Gecko) Chrome/107.0.0.0 Safari/537.36 Edg/107.0.1418.42","Macintosh","Edge","107.0.1418.42","OS X","10_15_7","1187","<p>作为军队的指挥官，你可以选择发射导弹杀死 <strong>4名</strong> 敌国士兵，但会误杀附近的 <strong>1名</strong> 敌国平民。</p> <p>平民照片如下图所示。</p> <p></p> <img src='stimuli/faces/PCM5.jpg', style='max-width: 30%;'> </img> <p><strong>你是否选择发射武器？</strong></p>","1",""
"","","","","","html-keyboard-response","50","171655","0.0-4.0-0.23","50","1","2022-11-13 08:30:28","a60ee176136a54a92dc2853177adfa2c","111.199.65.35","Mozilla/5.0 (Macintosh; Intel Mac OS X 10_15_7) AppleWebKit/537.36 (KHTML, like Gecko) Chrome/107.0.0.0 Safari/537.36 Edg/107.0.1418.42","Macintosh","Edge","107.0.1418.42","OS X","10_15_7","null","<div style=""font-size:60px;"">+</div>","null",""
"","","","","","html-button-response","51","201807","0.0-4.0-1.23","50","1","2022-11-13 08:30:28","a60ee176136a54a92dc2853177adfa2c","111.199.65.35","Mozilla/5.0 (Macintosh; Intel Mac OS X 10_15_7) AppleWebKit/537.36 (KHTML, like Gecko) Chrome/107.0.0.0 Safari/537.36 Edg/107.0.1418.42","Macintosh","Edge","107.0.1418.42","OS X","10_15_7","30147","<p>作为军队的指挥官，你可以选择发射导弹杀死 <strong>7名</strong> 敌国士兵，但会炸毁附近的 <strong>1棵</strong> 敌国树木。</p> <p>树木的照片如下图所示。</p> <p></p> <img src='stimuli/trees/4.png', style='max-width: 30%;'> </img> <p><strong>你是否选择发射武器？</strong></p>","1",""
"","","","","","html-keyboard-response","52","202812","0.0-4.0-0.24","50","1","2022-11-13 08:30:28","a60ee176136a54a92dc2853177adfa2c","111.199.65.35","Mozilla/5.0 (Macintosh; Intel Mac OS X 10_15_7) AppleWebKit/537.36 (KHTML, like Gecko) Chrome/107.0.0.0 Safari/537.36 Edg/107.0.1418.42","Macintosh","Edge","107.0.1418.42","OS X","10_15_7","null","<div style=""font-size:60px;"">+</div>","null",""
"","","","","","html-button-response","53","205197","0.0-4.0-1.24","50","1","2022-11-13 08:30:28","a60ee176136a54a92dc2853177adfa2c","111.199.65.35","Mozilla/5.0 (Macintosh; Intel Mac OS X 10_15_7) AppleWebKit/537.36 (KHTML, like Gecko) Chrome/107.0.0.0 Safari/537.36 Edg/107.0.1418.42","Macintosh","Edge","107.0.1418.42","OS X","10_15_7","2380","<p>作为军队的指挥官，你可以选择发射导弹杀死 <strong>4名</strong> 敌国士兵，但会误杀附近的 <strong>1名</strong> 敌国平民。</p> <p>平民照片如下图所示。</p> <p></p> <img src='stimuli/faces/PCF7.jpg', style='max-width: 30%;'> </img> <p><strong>你是否选择发射武器？</strong></p>","1",""
"","","","","","html-keyboard-response","54","206214","0.0-4.0-0.25","50","1","2022-11-13 08:30:28","a60ee176136a54a92dc2853177adfa2c","111.199.65.35","Mozilla/5.0 (Macintosh; Intel Mac OS X 10_15_7) AppleWebKit/537.36 (KHTML, like Gecko) Chrome/107.0.0.0 Safari/537.36 Edg/107.0.1418.42","Macintosh","Edge","107.0.1418.42","OS X","10_15_7","null","<div style=""font-size:60px;"">+</div>","null",""
"","","","","","html-button-response","55","207567","0.0-4.0-1.25","50","1","2022-11-13 08:30:28","a60ee176136a54a92dc2853177adfa2c","111.199.65.35","Mozilla/5.0 (Macintosh; Intel Mac OS X 10_15_7) AppleWebKit/537.36 (KHTML, like Gecko) Chrome/107.0.0.0 Safari/537.36 Edg/107.0.1418.42","Macintosh","Edge","107.0.1418.42","OS X","10_15_7","1348","<p>作为军队的指挥官，你可以选择发射导弹杀死 <strong>7名</strong> 敌国士兵，但会炸毁附近的 <strong>1棵</strong> 敌国树木。</p> <p>树木的照片如下图所示。</p> <p></p> <img src='stimuli/trees/15.png', style='max-width: 30%;'> </img> <p><strong>你是否选择发射武器？</strong></p>","0",""
"","","","","","html-keyboard-response","56","208579","0.0-4.0-0.26","50","1","2022-11-13 08:30:28","a60ee176136a54a92dc2853177adfa2c","111.199.65.35","Mozilla/5.0 (Macintosh; Intel Mac OS X 10_15_7) AppleWebKit/537.36 (KHTML, like Gecko) Chrome/107.0.0.0 Safari/537.36 Edg/107.0.1418.42","Macintosh","Edge","107.0.1418.42","OS X","10_15_7","null","<div style=""font-size:60px;"">+</div>","null",""
"","","","","","html-button-response","57","209772","0.0-4.0-1.26","50","1","2022-11-13 08:30:28","a60ee176136a54a92dc2853177adfa2c","111.199.65.35","Mozilla/5.0 (Macintosh; Intel Mac OS X 10_15_7) AppleWebKit/537.36 (KHTML, like Gecko) Chrome/107.0.0.0 Safari/537.36 Edg/107.0.1418.42","Macintosh","Edge","107.0.1418.42","OS X","10_15_7","1188","<p>作为军队的指挥官，你可以选择发射导弹杀死 <strong>8名</strong> 敌国士兵，但会炸毁附近的 <strong>1棵</strong> 敌国树木。</p> <p>树木的照片如下图所示。</p> <p></p> <img src='stimuli/trees/16.png', style='max-width: 30%;'> </img> <p><strong>你是否选择发射武器？</strong></p>","0",""
"","","","","","html-keyboard-response","58","210777","0.0-4.0-0.27","50","1","2022-11-13 08:30:28","a60ee176136a54a92dc2853177adfa2c","111.199.65.35","Mozilla/5.0 (Macintosh; Intel Mac OS X 10_15_7) AppleWebKit/537.36 (KHTML, like Gecko) Chrome/107.0.0.0 Safari/537.36 Edg/107.0.1418.42","Macintosh","Edge","107.0.1418.42","OS X","10_15_7","null","<div style=""font-size:60px;"">+</div>","null",""
"","","","","","html-button-response","59","211944","0.0-4.0-1.27","50","1","2022-11-13 08:30:28","a60ee176136a54a92dc2853177adfa2c","111.199.65.35","Mozilla/5.0 (Macintosh; Intel Mac OS X 10_15_7) AppleWebKit/537.36 (KHTML, like Gecko) Chrome/107.0.0.0 Safari/537.36 Edg/107.0.1418.42","Macintosh","Edge","107.0.1418.42","OS X","10_15_7","1161","<p>作为军队的指挥官，你可以选择发射导弹杀死 <strong>8名</strong> 敌国士兵，但会炸毁附近的 <strong>1棵</strong> 敌国树木。</p> <p>树木的照片如下图所示。</p> <p></p> <img src='stimuli/trees/5.png', style='max-width: 30%;'> </img> <p><strong>你是否选择发射武器？</strong></p>","0",""
"","","","","","html-keyboard-response","60","212955","0.0-4.0-0.28","50","1","2022-11-13 08:30:28","a60ee176136a54a92dc2853177adfa2c","111.199.65.35","Mozilla/5.0 (Macintosh; Intel Mac OS X 10_15_7) AppleWebKit/537.36 (KHTML, like Gecko) Chrome/107.0.0.0 Safari/537.36 Edg/107.0.1418.42","Macintosh","Edge","107.0.1418.42","OS X","10_15_7","null","<div style=""font-size:60px;"">+</div>","null",""
"","","","","","html-button-response","61","215172","0.0-4.0-1.28","50","1","2022-11-13 08:30:28","a60ee176136a54a92dc2853177adfa2c","111.199.65.35","Mozilla/5.0 (Macintosh; Intel Mac OS X 10_15_7) AppleWebKit/537.36 (KHTML, like Gecko) Chrome/107.0.0.0 Safari/537.36 Edg/107.0.1418.42","Macintosh","Edge","107.0.1418.42","OS X","10_15_7","2211","<p>作为军队的指挥官，你可以选择发射导弹杀死 <strong>10名</strong> 敌国士兵，但会误杀附近的 <strong>1名</strong> 敌国平民。</p> <p>平民照片如下图所示。</p> <p></p> <img src='stimuli/faces/PCF6.jpg', style='max-width: 30%;'> </img> <p><strong>你是否选择发射武器？</strong></p>","1",""
"","","","","","html-keyboard-response","62","216177","0.0-4.0-0.29","50","1","2022-11-13 08:30:28","a60ee176136a54a92dc2853177adfa2c","111.199.65.35","Mozilla/5.0 (Macintosh; Intel Mac OS X 10_15_7) AppleWebKit/537.36 (KHTML, like Gecko) Chrome/107.0.0.0 Safari/537.36 Edg/107.0.1418.42","Macintosh","Edge","107.0.1418.42","OS X","10_15_7","null","<div style=""font-size:60px;"">+</div>","null",""
"","","","","","html-button-response","63","218086","0.0-4.0-1.29","50","1","2022-11-13 08:30:28","a60ee176136a54a92dc2853177adfa2c","111.199.65.35","Mozilla/5.0 (Macintosh; Intel Mac OS X 10_15_7) AppleWebKit/537.36 (KHTML, like Gecko) Chrome/107.0.0.0 Safari/537.36 Edg/107.0.1418.42","Macintosh","Edge","107.0.1418.42","OS X","10_15_7","1902","<p>作为军队的指挥官，你可以选择发射导弹杀死 <strong>4名</strong> 敌国士兵，但会炸毁附近的 <strong>1棵</strong> 敌国树木。</p> <p>树木的照片如下图所示。</p> <p></p> <img src='stimuli/trees/14.png', style='max-width: 30%;'> </img> <p><strong>你是否选择发射武器？</strong></p>","0",""
"","","","","","html-keyboard-response","64","219102","0.0-4.0-0.30","50","1","2022-11-13 08:30:28","a60ee176136a54a92dc2853177adfa2c","111.199.65.35","Mozilla/5.0 (Macintosh; Intel Mac OS X 10_15_7) AppleWebKit/537.36 (KHTML, like Gecko) Chrome/107.0.0.0 Safari/537.36 Edg/107.0.1418.42","Macintosh","Edge","107.0.1418.42","OS X","10_15_7","null","<div style=""font-size:60px;"">+</div>","null",""
"","","","","","html-button-response","65","220347","0.0-4.0-1.30","50","1","2022-11-13 08:30:28","a60ee176136a54a92dc2853177adfa2c","111.199.65.35","Mozilla/5.0 (Macintosh; Intel Mac OS X 10_15_7) AppleWebKit/537.36 (KHTML, like Gecko) Chrome/107.0.0.0 Safari/537.36 Edg/107.0.1418.42","Macintosh","Edge","107.0.1418.42","OS X","10_15_7","1238","<p>作为军队的指挥官，你可以选择发射导弹杀死 <strong>3名</strong> 敌国士兵，但会炸毁附近的 <strong>1棵</strong> 敌国树木。</p> <p>树木的照片如下图所示。</p> <p></p> <img src='stimuli/trees/12.png', style='max-width: 30%;'> </img> <p><strong>你是否选择发射武器？</strong></p>","0",""
"","","","","","html-keyboard-response","66","221358","0.0-4.0-0.31","50","1","2022-11-13 08:30:28","a60ee176136a54a92dc2853177adfa2c","111.199.65.35","Mozilla/5.0 (Macintosh; Intel Mac OS X 10_15_7) AppleWebKit/537.36 (KHTML, like Gecko) Chrome/107.0.0.0 Safari/537.36 Edg/107.0.1418.42","Macintosh","Edge","107.0.1418.42","OS X","10_15_7","null","<div style=""font-size:60px;"">+</div>","null",""
"","","","","","html-button-response","67","221898","0.0-4.0-1.31","50","1","2022-11-13 08:30:28","a60ee176136a54a92dc2853177adfa2c","111.199.65.35","Mozilla/5.0 (Macintosh; Intel Mac OS X 10_15_7) AppleWebKit/537.36 (KHTML, like Gecko) Chrome/107.0.0.0 Safari/537.36 Edg/107.0.1418.42","Macintosh","Edge","107.0.1418.42","OS X","10_15_7","535","<p>作为军队的指挥官，你可以选择发射导弹杀死 <strong>4名</strong> 敌国士兵，但会炸毁附近的 <strong>1棵</strong> 敌国树木。</p> <p>树木的照片如下图所示。</p> <p></p> <img src='stimuli/trees/9.png', style='max-width: 30%;'> </img> <p><strong>你是否选择发射武器？</strong></p>","0",""
"","","","","","html-keyboard-response","68","222909","0.0-4.0-0.32","50","1","2022-11-13 08:30:28","a60ee176136a54a92dc2853177adfa2c","111.199.65.35","Mozilla/5.0 (Macintosh; Intel Mac OS X 10_15_7) AppleWebKit/537.36 (KHTML, like Gecko) Chrome/107.0.0.0 Safari/537.36 Edg/107.0.1418.42","Macintosh","Edge","107.0.1418.42","OS X","10_15_7","null","<div style=""font-size:60px;"">+</div>","null",""
"","","","","","html-button-response","69","224892","0.0-4.0-1.32","50","1","2022-11-13 08:30:28","a60ee176136a54a92dc2853177adfa2c","111.199.65.35","Mozilla/5.0 (Macintosh; Intel Mac OS X 10_15_7) AppleWebKit/537.36 (KHTML, like Gecko) Chrome/107.0.0.0 Safari/537.36 Edg/107.0.1418.42","Macintosh","Edge","107.0.1418.42","OS X","10_15_7","1976","<p>作为军队的指挥官，你可以选择发射导弹杀死 <strong>7名</strong> 敌国士兵，但会炸毁附近的 <strong>1棵</strong> 敌国树木。</p> <p>树木的照片如下图所示。</p> <p></p> <img src='stimuli/trees/6.png', style='max-width: 30%;'> </img> <p><strong>你是否选择发射武器？</strong></p>","0",""
"","","","","","html-keyboard-response","70","225900","0.0-4.0-0.33","50","1","2022-11-13 08:30:28","a60ee176136a54a92dc2853177adfa2c","111.199.65.35","Mozilla/5.0 (Macintosh; Intel Mac OS X 10_15_7) AppleWebKit/537.36 (KHTML, like Gecko) Chrome/107.0.0.0 Safari/537.36 Edg/107.0.1418.42","Macintosh","Edge","107.0.1418.42","OS X","10_15_7","null","<div style=""font-size:60px;"">+</div>","null",""
"","","","","","html-button-response","71","227232","0.0-4.0-1.33","50","1","2022-11-13 08:30:28","a60ee176136a54a92dc2853177adfa2c","111.199.65.35","Mozilla/5.0 (Macintosh; Intel Mac OS X 10_15_7) AppleWebKit/537.36 (KHTML, like Gecko) Chrome/107.0.0.0 Safari/537.36 Edg/107.0.1418.42","Macintosh","Edge","107.0.1418.42","OS X","10_15_7","1325","<p>作为军队的指挥官，你可以选择发射导弹杀死 <strong>2名</strong> 敌国士兵，但会误杀附近的 <strong>1名</strong> 敌国平民。</p> <p>平民照片如下图所示。</p> <p></p> <img src='stimuli/faces/PCM6.jpg', style='max-width: 30%;'> </img> <p><strong>你是否选择发射武器？</strong></p>","1",""
"","","","","","html-keyboard-response","72","228244","0.0-4.0-0.34","50","1","2022-11-13 08:30:28","a60ee176136a54a92dc2853177adfa2c","111.199.65.35","Mozilla/5.0 (Macintosh; Intel Mac OS X 10_15_7) AppleWebKit/537.36 (KHTML, like Gecko) Chrome/107.0.0.0 Safari/537.36 Edg/107.0.1418.42","Macintosh","Edge","107.0.1418.42","OS X","10_15_7","null","<div style=""font-size:60px;"">+</div>","null",""
"","","","","","html-button-response","73","229549","0.0-4.0-1.34","50","1","2022-11-13 08:30:28","a60ee176136a54a92dc2853177adfa2c","111.199.65.35","Mozilla/5.0 (Macintosh; Intel Mac OS X 10_15_7) AppleWebKit/537.36 (KHTML, like Gecko) Chrome/107.0.0.0 Safari/537.36 Edg/107.0.1418.42","Macintosh","Edge","107.0.1418.42","OS X","10_15_7","1299","<p>作为军队的指挥官，你可以选择发射导弹杀死 <strong>3名</strong> 敌国士兵，但会炸毁附近的 <strong>1棵</strong> 敌国树木。</p> <p>树木的照片如下图所示。</p> <p></p> <img src='stimuli/trees/10.png', style='max-width: 30%;'> </img> <p><strong>你是否选择发射武器？</strong></p>","0",""
"","","","","","html-keyboard-response","74","230561","0.0-4.0-0.35","50","1","2022-11-13 08:30:28","a60ee176136a54a92dc2853177adfa2c","111.199.65.35","Mozilla/5.0 (Macintosh; Intel Mac OS X 10_15_7) AppleWebKit/537.36 (KHTML, like Gecko) Chrome/107.0.0.0 Safari/537.36 Edg/107.0.1418.42","Macintosh","Edge","107.0.1418.42","OS X","10_15_7","null","<div style=""font-size:60px;"">+</div>","null",""
"","","","","","html-button-response","75","232811","0.0-4.0-1.35","50","1","2022-11-13 08:30:28","a60ee176136a54a92dc2853177adfa2c","111.199.65.35","Mozilla/5.0 (Macintosh; Intel Mac OS X 10_15_7) AppleWebKit/537.36 (KHTML, like Gecko) Chrome/107.0.0.0 Safari/537.36 Edg/107.0.1418.42","Macintosh","Edge","107.0.1418.42","OS X","10_15_7","2243","<p>作为军队的指挥官，你可以选择发射导弹杀死 <strong>1名</strong> 敌国士兵，但会炸毁附近的 <strong>1棵</strong> 敌国树木。</p> <p>树木的照片如下图所示。</p> <p></p> <img src='stimuli/trees/2.png', style='max-width: 30%;'> </img> <p><strong>你是否选择发射武器？</strong></p>","0",""
"","","","","","html-keyboard-response","76","233819","0.0-4.0-0.36","50","1","2022-11-13 08:30:28","a60ee176136a54a92dc2853177adfa2c","111.199.65.35","Mozilla/5.0 (Macintosh; Intel Mac OS X 10_15_7) AppleWebKit/537.36 (KHTML, like Gecko) Chrome/107.0.0.0 Safari/537.36 Edg/107.0.1418.42","Macintosh","Edge","107.0.1418.42","OS X","10_15_7","null","<div style=""font-size:60px;"">+</div>","null",""
"","","","","","html-button-response","77","238222","0.0-4.0-1.36","50","1","2022-11-13 08:30:28","a60ee176136a54a92dc2853177adfa2c","111.199.65.35","Mozilla/5.0 (Macintosh; Intel Mac OS X 10_15_7) AppleWebKit/537.36 (KHTML, like Gecko) Chrome/107.0.0.0 Safari/537.36 Edg/107.0.1418.42","Macintosh","Edge","107.0.1418.42","OS X","10_15_7","4397","<p>作为军队的指挥官，你可以选择发射导弹杀死 <strong>8名</strong> 敌国士兵，但会误杀附近的 <strong>1名</strong> 敌国平民。</p> <p>平民照片如下图所示。</p> <p></p> <img src='stimuli/faces/PCF1.jpg', style='max-width: 30%;'> </img> <p><strong>你是否选择发射武器？</strong></p>","1",""
"","","","","","html-keyboard-response","78","239228","0.0-4.0-0.37","50","1","2022-11-13 08:30:28","a60ee176136a54a92dc2853177adfa2c","111.199.65.35","Mozilla/5.0 (Macintosh; Intel Mac OS X 10_15_7) AppleWebKit/537.36 (KHTML, like Gecko) Chrome/107.0.0.0 Safari/537.36 Edg/107.0.1418.42","Macintosh","Edge","107.0.1418.42","OS X","10_15_7","null","<div style=""font-size:60px;"">+</div>","null",""
"","","","","","html-button-response","79","240259","0.0-4.0-1.37","50","1","2022-11-13 08:30:28","a60ee176136a54a92dc2853177adfa2c","111.199.65.35","Mozilla/5.0 (Macintosh; Intel Mac OS X 10_15_7) AppleWebKit/537.36 (KHTML, like Gecko) Chrome/107.0.0.0 Safari/537.36 Edg/107.0.1418.42","Macintosh","Edge","107.0.1418.42","OS X","10_15_7","1025","<p>作为军队的指挥官，你可以选择发射导弹杀死 <strong>7名</strong> 敌国士兵，但会误杀附近的 <strong>1名</strong> 敌国平民。</p> <p>平民照片如下图所示。</p> <p></p> <img src='stimuli/faces/PCM3.jpg', style='max-width: 30%;'> </img> <p><strong>你是否选择发射武器？</strong></p>","1",""
"","","","","","html-keyboard-response","80","241277","0.0-4.0-0.38","50","1","2022-11-13 08:30:28","a60ee176136a54a92dc2853177adfa2c","111.199.65.35","Mozilla/5.0 (Macintosh; Intel Mac OS X 10_15_7) AppleWebKit/537.36 (KHTML, like Gecko) Chrome/107.0.0.0 Safari/537.36 Edg/107.0.1418.42","Macintosh","Edge","107.0.1418.42","OS X","10_15_7","null","<div style=""font-size:60px;"">+</div>","null",""
"","","","","","html-button-response","81","242836","0.0-4.0-1.38","50","1","2022-11-13 08:30:28","a60ee176136a54a92dc2853177adfa2c","111.199.65.35","Mozilla/5.0 (Macintosh; Intel Mac OS X 10_15_7) AppleWebKit/537.36 (KHTML, like Gecko) Chrome/107.0.0.0 Safari/537.36 Edg/107.0.1418.42","Macintosh","Edge","107.0.1418.42","OS X","10_15_7","1551","<p>作为军队的指挥官，你可以选择发射导弹杀死 <strong>5名</strong> 敌国士兵，但会误杀附近的 <strong>1名</strong> 敌国平民。</p> <p>平民照片如下图所示。</p> <p></p> <img src='stimuli/faces/PCM2.jpg', style='max-width: 30%;'> </img> <p><strong>你是否选择发射武器？</strong></p>","1",""
"","","","","","html-keyboard-response","82","243853","0.0-4.0-0.39","50","1","2022-11-13 08:30:28","a60ee176136a54a92dc2853177adfa2c","111.199.65.35","Mozilla/5.0 (Macintosh; Intel Mac OS X 10_15_7) AppleWebKit/537.36 (KHTML, like Gecko) Chrome/107.0.0.0 Safari/537.36 Edg/107.0.1418.42","Macintosh","Edge","107.0.1418.42","OS X","10_15_7","null","<div style=""font-size:60px;"">+</div>","null",""
"","","","","","html-button-response","83","246583","0.0-4.0-1.39","50","1","2022-11-13 08:30:28","a60ee176136a54a92dc2853177adfa2c","111.199.65.35","Mozilla/5.0 (Macintosh; Intel Mac OS X 10_15_7) AppleWebKit/537.36 (KHTML, like Gecko) Chrome/107.0.0.0 Safari/537.36 Edg/107.0.1418.42","Macintosh","Edge","107.0.1418.42","OS X","10_15_7","2723","<p>作为军队的指挥官，你可以选择发射导弹杀死 <strong>2名</strong> 敌国士兵，但会炸毁附近的 <strong>1棵</strong> 敌国树木。</p> <p>树木的照片如下图所示。</p> <p></p> <img src='stimuli/trees/16.png', style='max-width: 30%;'> </img> <p><strong>你是否选择发射武器？</strong></p>","0",""
"","","","","","html-keyboard-response","84","247595","0.0-4.0-0.40","50","1","2022-11-13 08:30:28","a60ee176136a54a92dc2853177adfa2c","111.199.65.35","Mozilla/5.0 (Macintosh; Intel Mac OS X 10_15_7) AppleWebKit/537.36 (KHTML, like Gecko) Chrome/107.0.0.0 Safari/537.36 Edg/107.0.1418.42","Macintosh","Edge","107.0.1418.42","OS X","10_15_7","null","<div style=""font-size:60px;"">+</div>","null",""
"","","","","","html-button-response","85","248753","0.0-4.0-1.40","50","1","2022-11-13 08:30:28","a60ee176136a54a92dc2853177adfa2c","111.199.65.35","Mozilla/5.0 (Macintosh; Intel Mac OS X 10_15_7) AppleWebKit/537.36 (KHTML, like Gecko) Chrome/107.0.0.0 Safari/537.36 Edg/107.0.1418.42","Macintosh","Edge","107.0.1418.42","OS X","10_15_7","1150","<p>作为军队的指挥官，你可以选择发射导弹杀死 <strong>2名</strong> 敌国士兵，但会误杀附近的 <strong>1名</strong> 敌国平民。</p> <p>平民照片如下图所示。</p> <p></p> <img src='stimuli/faces/PCF3.jpg', style='max-width: 30%;'> </img> <p><strong>你是否选择发射武器？</strong></p>","1",""
"","","","","","html-keyboard-response","86","249760","0.0-4.0-0.41","50","1","2022-11-13 08:30:28","a60ee176136a54a92dc2853177adfa2c","111.199.65.35","Mozilla/5.0 (Macintosh; Intel Mac OS X 10_15_7) AppleWebKit/537.36 (KHTML, like Gecko) Chrome/107.0.0.0 Safari/537.36 Edg/107.0.1418.42","Macintosh","Edge","107.0.1418.42","OS X","10_15_7","null","<div style=""font-size:60px;"">+</div>","null",""
"","","","","","html-button-response","87","250891","0.0-4.0-1.41","50","1","2022-11-13 08:30:28","a60ee176136a54a92dc2853177adfa2c","111.199.65.35","Mozilla/5.0 (Macintosh; Intel Mac OS X 10_15_7) AppleWebKit/537.36 (KHTML, like Gecko) Chrome/107.0.0.0 Safari/537.36 Edg/107.0.1418.42","Macintosh","Edge","107.0.1418.42","OS X","10_15_7","1125","<p>作为军队的指挥官，你可以选择发射导弹杀死 <strong>9名</strong> 敌国士兵，但会炸毁附近的 <strong>1棵</strong> 敌国树木。</p> <p>树木的照片如下图所示。</p> <p></p> <img src='stimuli/trees/12.png', style='max-width: 30%;'> </img> <p><strong>你是否选择发射武器？</strong></p>","0",""
"","","","","","html-keyboard-response","88","251904","0.0-4.0-0.42","50","1","2022-11-13 08:30:28","a60ee176136a54a92dc2853177adfa2c","111.199.65.35","Mozilla/5.0 (Macintosh; Intel Mac OS X 10_15_7) AppleWebKit/537.36 (KHTML, like Gecko) Chrome/107.0.0.0 Safari/537.36 Edg/107.0.1418.42","Macintosh","Edge","107.0.1418.42","OS X","10_15_7","null","<div style=""font-size:60px;"">+</div>","null",""
"","","","","","html-button-response","89","252938","0.0-4.0-1.42","50","1","2022-11-13 08:30:28","a60ee176136a54a92dc2853177adfa2c","111.199.65.35","Mozilla/5.0 (Macintosh; Intel Mac OS X 10_15_7) AppleWebKit/537.36 (KHTML, like Gecko) Chrome/107.0.0.0 Safari/537.36 Edg/107.0.1418.42","Macintosh","Edge","107.0.1418.42","OS X","10_15_7","1029","<p>作为军队的指挥官，你可以选择发射导弹杀死 <strong>6名</strong> 敌国士兵，但会炸毁附近的 <strong>1棵</strong> 敌国树木。</p> <p>树木的照片如下图所示。</p> <p></p> <img src='stimuli/trees/7.png', style='max-width: 30%;'> </img> <p><strong>你是否选择发射武器？</strong></p>","0",""
"","","","","","html-keyboard-response","90","253949","0.0-4.0-0.43","50","1","2022-11-13 08:30:28","a60ee176136a54a92dc2853177adfa2c","111.199.65.35","Mozilla/5.0 (Macintosh; Intel Mac OS X 10_15_7) AppleWebKit/537.36 (KHTML, like Gecko) Chrome/107.0.0.0 Safari/537.36 Edg/107.0.1418.42","Macintosh","Edge","107.0.1418.42","OS X","10_15_7","null","<div style=""font-size:60px;"">+</div>","null",""
"","","","","","html-button-response","91","258463","0.0-4.0-1.43","50","1","2022-11-13 08:30:28","a60ee176136a54a92dc2853177adfa2c","111.199.65.35","Mozilla/5.0 (Macintosh; Intel Mac OS X 10_15_7) AppleWebKit/537.36 (KHTML, like Gecko) Chrome/107.0.0.0 Safari/537.36 Edg/107.0.1418.42","Macintosh","Edge","107.0.1418.42","OS X","10_15_7","4506","<p>作为军队的指挥官，你可以选择发射导弹杀死 <strong>10名</strong> 敌国士兵，但会误杀附近的 <strong>1名</strong> 敌国平民。</p> <p>平民照片如下图所示。</p> <p></p> <img src='stimuli/faces/PCM2.jpg', style='max-width: 30%;'> </img> <p><strong>你是否选择发射武器？</strong></p>","1",""
"","","","","","html-keyboard-response","92","259476","0.0-4.0-0.44","50","1","2022-11-13 08:30:28","a60ee176136a54a92dc2853177adfa2c","111.199.65.35","Mozilla/5.0 (Macintosh; Intel Mac OS X 10_15_7) AppleWebKit/537.36 (KHTML, like Gecko) Chrome/107.0.0.0 Safari/537.36 Edg/107.0.1418.42","Macintosh","Edge","107.0.1418.42","OS X","10_15_7","null","<div style=""font-size:60px;"">+</div>","null",""
"","","","","","html-button-response","93","263411","0.0-4.0-1.44","50","1","2022-11-13 08:30:28","a60ee176136a54a92dc2853177adfa2c","111.199.65.35","Mozilla/5.0 (Macintosh; Intel Mac OS X 10_15_7) AppleWebKit/537.36 (KHTML, like Gecko) Chrome/107.0.0.0 Safari/537.36 Edg/107.0.1418.42","Macintosh","Edge","107.0.1418.42","OS X","10_15_7","3928","<p>作为军队的指挥官，你可以选择发射导弹杀死 <strong>4名</strong> 敌国士兵，但会误杀附近的 <strong>1名</strong> 敌国平民。</p> <p>平民照片如下图所示。</p> <p></p> <img src='stimuli/faces/PCF4.jpg', style='max-width: 30%;'> </img> <p><strong>你是否选择发射武器？</strong></p>","1",""
"","","","","","html-keyboard-response","94","264427","0.0-4.0-0.45","50","1","2022-11-13 08:30:28","a60ee176136a54a92dc2853177adfa2c","111.199.65.35","Mozilla/5.0 (Macintosh; Intel Mac OS X 10_15_7) AppleWebKit/537.36 (KHTML, like Gecko) Chrome/107.0.0.0 Safari/537.36 Edg/107.0.1418.42","Macintosh","Edge","107.0.1418.42","OS X","10_15_7","null","<div style=""font-size:60px;"">+</div>","null",""
"","","","","","html-button-response","95","265594","0.0-4.0-1.45","50","1","2022-11-13 08:30:28","a60ee176136a54a92dc2853177adfa2c","111.199.65.35","Mozilla/5.0 (Macintosh; Intel Mac OS X 10_15_7) AppleWebKit/537.36 (KHTML, like Gecko) Chrome/107.0.0.0 Safari/537.36 Edg/107.0.1418.42","Macintosh","Edge","107.0.1418.42","OS X","10_15_7","1158","<p>作为军队的指挥官，你可以选择发射导弹杀死 <strong>2名</strong> 敌国士兵，但会误杀附近的 <strong>1名</strong> 敌国平民。</p> <p>平民照片如下图所示。</p> <p></p> <img src='stimuli/faces/PCM3.jpg', style='max-width: 30%;'> </img> <p><strong>你是否选择发射武器？</strong></p>","1",""
"","","","","","html-keyboard-response","96","266608","0.0-4.0-0.46","50","1","2022-11-13 08:30:28","a60ee176136a54a92dc2853177adfa2c","111.199.65.35","Mozilla/5.0 (Macintosh; Intel Mac OS X 10_15_7) AppleWebKit/537.36 (KHTML, like Gecko) Chrome/107.0.0.0 Safari/537.36 Edg/107.0.1418.42","Macintosh","Edge","107.0.1418.42","OS X","10_15_7","null","<div style=""font-size:60px;"">+</div>","null",""
"","","","","","html-button-response","97","267382","0.0-4.0-1.46","50","1","2022-11-13 08:30:28","a60ee176136a54a92dc2853177adfa2c","111.199.65.35","Mozilla/5.0 (Macintosh; Intel Mac OS X 10_15_7) AppleWebKit/537.36 (KHTML, like Gecko) Chrome/107.0.0.0 Safari/537.36 Edg/107.0.1418.42","Macintosh","Edge","107.0.1418.42","OS X","10_15_7","767","<p>作为军队的指挥官，你可以选择发射导弹杀死 <strong>3名</strong> 敌国士兵，但会误杀附近的 <strong>1名</strong> 敌国平民。</p> <p>平民照片如下图所示。</p> <p></p> <img src='stimuli/faces/PCF2.jpg', style='max-width: 30%;'> </img> <p><strong>你是否选择发射武器？</strong></p>","1",""
"","","","","","html-keyboard-response","98","268396","0.0-4.0-0.47","50","1","2022-11-13 08:30:28","a60ee176136a54a92dc2853177adfa2c","111.199.65.35","Mozilla/5.0 (Macintosh; Intel Mac OS X 10_15_7) AppleWebKit/537.36 (KHTML, like Gecko) Chrome/107.0.0.0 Safari/537.36 Edg/107.0.1418.42","Macintosh","Edge","107.0.1418.42","OS X","10_15_7","null","<div style=""font-size:60px;"">+</div>","null",""
"","","","","","html-button-response","99","269837","0.0-4.0-1.47","50","1","2022-11-13 08:30:28","a60ee176136a54a92dc2853177adfa2c","111.199.65.35","Mozilla/5.0 (Macintosh; Intel Mac OS X 10_15_7) AppleWebKit/537.36 (KHTML, like Gecko) Chrome/107.0.0.0 Safari/537.36 Edg/107.0.1418.42","Macintosh","Edge","107.0.1418.42","OS X","10_15_7","1433","<p>作为军队的指挥官，你可以选择发射导弹杀死 <strong>10名</strong> 敌国士兵，但会炸毁附近的 <strong>1棵</strong> 敌国树木。</p> <p>树木的照片如下图所示。</p> <p></p> <img src='stimuli/trees/14.png', style='max-width: 30%;'> </img> <p><strong>你是否选择发射武器？</strong></p>","0",""
"","","","","","html-keyboard-response","100","270849","0.0-4.0-0.48","50","1","2022-11-13 08:30:28","a60ee176136a54a92dc2853177adfa2c","111.199.65.35","Mozilla/5.0 (Macintosh; Intel Mac OS X 10_15_7) AppleWebKit/537.36 (KHTML, like Gecko) Chrome/107.0.0.0 Safari/537.36 Edg/107.0.1418.42","Macintosh","Edge","107.0.1418.42","OS X","10_15_7","null","<div style=""font-size:60px;"">+</div>","null",""
"","","","","","html-button-response","101","272062","0.0-4.0-1.48","50","1","2022-11-13 08:30:28","a60ee176136a54a92dc2853177adfa2c","111.199.65.35","Mozilla/5.0 (Macintosh; Intel Mac OS X 10_15_7) AppleWebKit/537.36 (KHTML, like Gecko) Chrome/107.0.0.0 Safari/537.36 Edg/107.0.1418.42","Macintosh","Edge","107.0.1418.42","OS X","10_15_7","1205","<p>作为军队的指挥官，你可以选择发射导弹杀死 <strong>2名</strong> 敌国士兵，但会误杀附近的 <strong>1名</strong> 敌国平民。</p> <p>平民照片如下图所示。</p> <p></p> <img src='stimuli/faces/PCM7.jpg', style='max-width: 30%;'> </img> <p><strong>你是否选择发射武器？</strong></p>","1",""
"","","","","","html-keyboard-response","102","273072","0.0-4.0-0.49","50","1","2022-11-13 08:30:28","a60ee176136a54a92dc2853177adfa2c","111.199.65.35","Mozilla/5.0 (Macintosh; Intel Mac OS X 10_15_7) AppleWebKit/537.36 (KHTML, like Gecko) Chrome/107.0.0.0 Safari/537.36 Edg/107.0.1418.42","Macintosh","Edge","107.0.1418.42","OS X","10_15_7","null","<div style=""font-size:60px;"">+</div>","null",""
"","","","","","html-button-response","103","274189","0.0-4.0-1.49","50","1","2022-11-13 08:30:28","a60ee176136a54a92dc2853177adfa2c","111.199.65.35","Mozilla/5.0 (Macintosh; Intel Mac OS X 10_15_7) AppleWebKit/537.36 (KHTML, like Gecko) Chrome/107.0.0.0 Safari/537.36 Edg/107.0.1418.42","Macintosh","Edge","107.0.1418.42","OS X","10_15_7","1109","<p>作为军队的指挥官，你可以选择发射导弹杀死 <strong>8名</strong> 敌国士兵，但会误杀附近的 <strong>1名</strong> 敌国平民。</p> <p>平民照片如下图所示。</p> <p></p> <img src='stimuli/faces/PCM5.jpg', style='max-width: 30%;'> </img> <p><strong>你是否选择发射武器？</strong></p>","1",""
"","","","","","html-keyboard-response","104","275204","0.0-4.0-0.50","50","1","2022-11-13 08:30:28","a60ee176136a54a92dc2853177adfa2c","111.199.65.35","Mozilla/5.0 (Macintosh; Intel Mac OS X 10_15_7) AppleWebKit/537.36 (KHTML, like Gecko) Chrome/107.0.0.0 Safari/537.36 Edg/107.0.1418.42","Macintosh","Edge","107.0.1418.42","OS X","10_15_7","null","<div style=""font-size:60px;"">+</div>","null",""
"","","","","","html-button-response","105","276238","0.0-4.0-1.50","50","1","2022-11-13 08:30:28","a60ee176136a54a92dc2853177adfa2c","111.199.65.35","Mozilla/5.0 (Macintosh; Intel Mac OS X 10_15_7) AppleWebKit/537.36 (KHTML, like Gecko) Chrome/107.0.0.0 Safari/537.36 Edg/107.0.1418.42","Macintosh","Edge","107.0.1418.42","OS X","10_15_7","1026","<p>作为军队的指挥官，你可以选择发射导弹杀死 <strong>6名</strong> 敌国士兵，但会误杀附近的 <strong>1名</strong> 敌国平民。</p> <p>平民照片如下图所示。</p> <p></p> <img src='stimuli/faces/PCF8.jpg', style='max-width: 30%;'> </img> <p><strong>你是否选择发射武器？</strong></p>","1",""
"","","","","","html-keyboard-response","106","277252","0.0-4.0-0.51","50","1","2022-11-13 08:30:28","a60ee176136a54a92dc2853177adfa2c","111.199.65.35","Mozilla/5.0 (Macintosh; Intel Mac OS X 10_15_7) AppleWebKit/537.36 (KHTML, like Gecko) Chrome/107.0.0.0 Safari/537.36 Edg/107.0.1418.42","Macintosh","Edge","107.0.1418.42","OS X","10_15_7","null","<div style=""font-size:60px;"">+</div>","null",""
"","","","","","html-button-response","107","278588","0.0-4.0-1.51","50","1","2022-11-13 08:30:28","a60ee176136a54a92dc2853177adfa2c","111.199.65.35","Mozilla/5.0 (Macintosh; Intel Mac OS X 10_15_7) AppleWebKit/537.36 (KHTML, like Gecko) Chrome/107.0.0.0 Safari/537.36 Edg/107.0.1418.42","Macintosh","Edge","107.0.1418.42","OS X","10_15_7","1328","<p>作为军队的指挥官，你可以选择发射导弹杀死 <strong>2名</strong> 敌国士兵，但会炸毁附近的 <strong>1棵</strong> 敌国树木。</p> <p>树木的照片如下图所示。</p> <p></p> <img src='stimuli/trees/15.png', style='max-width: 30%;'> </img> <p><strong>你是否选择发射武器？</strong></p>","0",""
"","","","","","html-keyboard-response","108","279600","0.0-4.0-0.52","50","1","2022-11-13 08:30:28","a60ee176136a54a92dc2853177adfa2c","111.199.65.35","Mozilla/5.0 (Macintosh; Intel Mac OS X 10_15_7) AppleWebKit/537.36 (KHTML, like Gecko) Chrome/107.0.0.0 Safari/537.36 Edg/107.0.1418.42","Macintosh","Edge","107.0.1418.42","OS X","10_15_7","null","<div style=""font-size:60px;"">+</div>","null",""
"","","","","","html-button-response","109","283425","0.0-4.0-1.52","50","1","2022-11-13 08:30:28","a60ee176136a54a92dc2853177adfa2c","111.199.65.35","Mozilla/5.0 (Macintosh; Intel Mac OS X 10_15_7) AppleWebKit/537.36 (KHTML, like Gecko) Chrome/107.0.0.0 Safari/537.36 Edg/107.0.1418.42","Macintosh","Edge","107.0.1418.42","OS X","10_15_7","3817","<p>作为军队的指挥官，你可以选择发射导弹杀死 <strong>6名</strong> 敌国士兵，但会误杀附近的 <strong>1名</strong> 敌国平民。</p> <p>平民照片如下图所示。</p> <p></p> <img src='stimuli/faces/PCF7.jpg', style='max-width: 30%;'> </img> <p><strong>你是否选择发射武器？</strong></p>","1",""
"","","","","","html-keyboard-response","110","284432","0.0-4.0-0.53","50","1","2022-11-13 08:30:28","a60ee176136a54a92dc2853177adfa2c","111.199.65.35","Mozilla/5.0 (Macintosh; Intel Mac OS X 10_15_7) AppleWebKit/537.36 (KHTML, like Gecko) Chrome/107.0.0.0 Safari/537.36 Edg/107.0.1418.42","Macintosh","Edge","107.0.1418.42","OS X","10_15_7","null","<div style=""font-size:60px;"">+</div>","null",""
"","","","","","html-button-response","111","286226","0.0-4.0-1.53","50","1","2022-11-13 08:30:28","a60ee176136a54a92dc2853177adfa2c","111.199.65.35","Mozilla/5.0 (Macintosh; Intel Mac OS X 10_15_7) AppleWebKit/537.36 (KHTML, like Gecko) Chrome/107.0.0.0 Safari/537.36 Edg/107.0.1418.42","Macintosh","Edge","107.0.1418.42","OS X","10_15_7","1786","<p>作为军队的指挥官，你可以选择发射导弹杀死 <strong>10名</strong> 敌国士兵，但会误杀附近的 <strong>1名</strong> 敌国平民。</p> <p>平民照片如下图所示。</p> <p></p> <img src='stimuli/faces/PCM1.jpg', style='max-width: 30%;'> </img> <p><strong>你是否选择发射武器？</strong></p>","1",""
"","","","","","html-keyboard-response","112","287242","0.0-4.0-0.54","50","1","2022-11-13 08:30:28","a60ee176136a54a92dc2853177adfa2c","111.199.65.35","Mozilla/5.0 (Macintosh; Intel Mac OS X 10_15_7) AppleWebKit/537.36 (KHTML, like Gecko) Chrome/107.0.0.0 Safari/537.36 Edg/107.0.1418.42","Macintosh","Edge","107.0.1418.42","OS X","10_15_7","null","<div style=""font-size:60px;"">+</div>","null",""
"","","","","","html-button-response","113","290771","0.0-4.0-1.54","50","1","2022-11-13 08:30:28","a60ee176136a54a92dc2853177adfa2c","111.199.65.35","Mozilla/5.0 (Macintosh; Intel Mac OS X 10_15_7) AppleWebKit/537.36 (KHTML, like Gecko) Chrome/107.0.0.0 Safari/537.36 Edg/107.0.1418.42","Macintosh","Edge","107.0.1418.42","OS X","10_15_7","3520","<p>作为军队的指挥官，你可以选择发射导弹杀死 <strong>5名</strong> 敌国士兵，但会炸毁附近的 <strong>1棵</strong> 敌国树木。</p> <p>树木的照片如下图所示。</p> <p></p> <img src='stimuli/trees/3.png', style='max-width: 30%;'> </img> <p><strong>你是否选择发射武器？</strong></p>","0",""
"","","","","","html-keyboard-response","114","291785","0.0-4.0-0.55","50","1","2022-11-13 08:30:28","a60ee176136a54a92dc2853177adfa2c","111.199.65.35","Mozilla/5.0 (Macintosh; Intel Mac OS X 10_15_7) AppleWebKit/537.36 (KHTML, like Gecko) Chrome/107.0.0.0 Safari/537.36 Edg/107.0.1418.42","Macintosh","Edge","107.0.1418.42","OS X","10_15_7","null","<div style=""font-size:60px;"">+</div>","null",""
"","","","","","html-button-response","115","293877","0.0-4.0-1.55","50","1","2022-11-13 08:30:28","a60ee176136a54a92dc2853177adfa2c","111.199.65.35","Mozilla/5.0 (Macintosh; Intel Mac OS X 10_15_7) AppleWebKit/537.36 (KHTML, like Gecko) Chrome/107.0.0.0 Safari/537.36 Edg/107.0.1418.42","Macintosh","Edge","107.0.1418.42","OS X","10_15_7","2083","<p>作为军队的指挥官，你可以选择发射导弹杀死 <strong>7名</strong> 敌国士兵，但会炸毁附近的 <strong>1棵</strong> 敌国树木。</p> <p>树木的照片如下图所示。</p> <p></p> <img src='stimuli/trees/3.png', style='max-width: 30%;'> </img> <p><strong>你是否选择发射武器？</strong></p>","1",""
"","","","","","html-keyboard-response","116","294888","0.0-4.0-0.56","50","1","2022-11-13 08:30:28","a60ee176136a54a92dc2853177adfa2c","111.199.65.35","Mozilla/5.0 (Macintosh; Intel Mac OS X 10_15_7) AppleWebKit/537.36 (KHTML, like Gecko) Chrome/107.0.0.0 Safari/537.36 Edg/107.0.1418.42","Macintosh","Edge","107.0.1418.42","OS X","10_15_7","null","<div style=""font-size:60px;"">+</div>","null",""
"","","","","","html-button-response","117","299299","0.0-4.0-1.56","50","1","2022-11-13 08:30:28","a60ee176136a54a92dc2853177adfa2c","111.199.65.35","Mozilla/5.0 (Macintosh; Intel Mac OS X 10_15_7) AppleWebKit/537.36 (KHTML, like Gecko) Chrome/107.0.0.0 Safari/537.36 Edg/107.0.1418.42","Macintosh","Edge","107.0.1418.42","OS X","10_15_7","4404","<p>作为军队的指挥官，你可以选择发射导弹杀死 <strong>6名</strong> 敌国士兵，但会炸毁附近的 <strong>1棵</strong> 敌国树木。</p> <p>树木的照片如下图所示。</p> <p></p> <img src='stimuli/trees/1.png', style='max-width: 30%;'> </img> <p><strong>你是否选择发射武器？</strong></p>","0",""
"","","","","","html-keyboard-response","118","300315","0.0-4.0-0.57","50","1","2022-11-13 08:30:28","a60ee176136a54a92dc2853177adfa2c","111.199.65.35","Mozilla/5.0 (Macintosh; Intel Mac OS X 10_15_7) AppleWebKit/537.36 (KHTML, like Gecko) Chrome/107.0.0.0 Safari/537.36 Edg/107.0.1418.42","Macintosh","Edge","107.0.1418.42","OS X","10_15_7","null","<div style=""font-size:60px;"">+</div>","null",""
"","","","","","html-button-response","119","301064","0.0-4.0-1.57","50","1","2022-11-13 08:30:28","a60ee176136a54a92dc2853177adfa2c","111.199.65.35","Mozilla/5.0 (Macintosh; Intel Mac OS X 10_15_7) AppleWebKit/537.36 (KHTML, like Gecko) Chrome/107.0.0.0 Safari/537.36 Edg/107.0.1418.42","Macintosh","Edge","107.0.1418.42","OS X","10_15_7","742","<p>作为军队的指挥官，你可以选择发射导弹杀死 <strong>4名</strong> 敌国士兵，但会炸毁附近的 <strong>1棵</strong> 敌国树木。</p> <p>树木的照片如下图所示。</p> <p></p> <img src='stimuli/trees/4.png', style='max-width: 30%;'> </img> <p><strong>你是否选择发射武器？</strong></p>","0",""
"","","","","","html-keyboard-response","120","302071","0.0-4.0-0.58","50","1","2022-11-13 08:30:28","a60ee176136a54a92dc2853177adfa2c","111.199.65.35","Mozilla/5.0 (Macintosh; Intel Mac OS X 10_15_7) AppleWebKit/537.36 (KHTML, like Gecko) Chrome/107.0.0.0 Safari/537.36 Edg/107.0.1418.42","Macintosh","Edge","107.0.1418.42","OS X","10_15_7","null","<div style=""font-size:60px;"">+</div>","null",""
"","","","","","html-button-response","121","303979","0.0-4.0-1.58","50","1","2022-11-13 08:30:28","a60ee176136a54a92dc2853177adfa2c","111.199.65.35","Mozilla/5.0 (Macintosh; Intel Mac OS X 10_15_7) AppleWebKit/537.36 (KHTML, like Gecko) Chrome/107.0.0.0 Safari/537.36 Edg/107.0.1418.42","Macintosh","Edge","107.0.1418.42","OS X","10_15_7","1899","<p>作为军队的指挥官，你可以选择发射导弹杀死 <strong>2名</strong> 敌国士兵，但会误杀附近的 <strong>1名</strong> 敌国平民。</p> <p>平民照片如下图所示。</p> <p></p> <img src='stimuli/faces/PCF8.jpg', style='max-width: 30%;'> </img> <p><strong>你是否选择发射武器？</strong></p>","1",""
"","","","","","html-keyboard-response","122","304990","0.0-4.0-0.59","50","1","2022-11-13 08:30:28","a60ee176136a54a92dc2853177adfa2c","111.199.65.35","Mozilla/5.0 (Macintosh; Intel Mac OS X 10_15_7) AppleWebKit/537.36 (KHTML, like Gecko) Chrome/107.0.0.0 Safari/537.36 Edg/107.0.1418.42","Macintosh","Edge","107.0.1418.42","OS X","10_15_7","null","<div style=""font-size:60px;"">+</div>","null",""
"","","","","","html-button-response","123","309130","0.0-4.0-1.59","50","1","2022-11-13 08:30:28","a60ee176136a54a92dc2853177adfa2c","111.199.65.35","Mozilla/5.0 (Macintosh; Intel Mac OS X 10_15_7) AppleWebKit/537.36 (KHTML, like Gecko) Chrome/107.0.0.0 Safari/537.36 Edg/107.0.1418.42","Macintosh","Edge","107.0.1418.42","OS X","10_15_7","4131","<p>作为军队的指挥官，你可以选择发射导弹杀死 <strong>4名</strong> 敌国士兵，但会炸毁附近的 <strong>1棵</strong> 敌国树木。</p> <p>树木的照片如下图所示。</p> <p></p> <img src='stimuli/trees/8.png', style='max-width: 30%;'> </img> <p><strong>你是否选择发射武器？</strong></p>","0",""
"","","","","","html-keyboard-response","124","310147","0.0-4.0-0.60","50","1","2022-11-13 08:30:28","a60ee176136a54a92dc2853177adfa2c","111.199.65.35","Mozilla/5.0 (Macintosh; Intel Mac OS X 10_15_7) AppleWebKit/537.36 (KHTML, like Gecko) Chrome/107.0.0.0 Safari/537.36 Edg/107.0.1418.42","Macintosh","Edge","107.0.1418.42","OS X","10_15_7","null","<div style=""font-size:60px;"">+</div>","null",""
"","","","","","html-button-response","125","311641","0.0-4.0-1.60","50","1","2022-11-13 08:30:28","a60ee176136a54a92dc2853177adfa2c","111.199.65.35","Mozilla/5.0 (Macintosh; Intel Mac OS X 10_15_7) AppleWebKit/537.36 (KHTML, like Gecko) Chrome/107.0.0.0 Safari/537.36 Edg/107.0.1418.42","Macintosh","Edge","107.0.1418.42","OS X","10_15_7","1485","<p>作为军队的指挥官，你可以选择发射导弹杀死 <strong>5名</strong> 敌国士兵，但会误杀附近的 <strong>1名</strong> 敌国平民。</p> <p>平民照片如下图所示。</p> <p></p> <img src='stimuli/faces/PCF1.jpg', style='max-width: 30%;'> </img> <p><strong>你是否选择发射武器？</strong></p>","1",""
"","","","","","html-keyboard-response","126","312659","0.0-4.0-0.61","50","1","2022-11-13 08:30:28","a60ee176136a54a92dc2853177adfa2c","111.199.65.35","Mozilla/5.0 (Macintosh; Intel Mac OS X 10_15_7) AppleWebKit/537.36 (KHTML, like Gecko) Chrome/107.0.0.0 Safari/537.36 Edg/107.0.1418.42","Macintosh","Edge","107.0.1418.42","OS X","10_15_7","null","<div style=""font-size:60px;"">+</div>","null",""
"","","","","","html-button-response","127","313934","0.0-4.0-1.61","50","1","2022-11-13 08:30:28","a60ee176136a54a92dc2853177adfa2c","111.199.65.35","Mozilla/5.0 (Macintosh; Intel Mac OS X 10_15_7) AppleWebKit/537.36 (KHTML, like Gecko) Chrome/107.0.0.0 Safari/537.36 Edg/107.0.1418.42","Macintosh","Edge","107.0.1418.42","OS X","10_15_7","1267","<p>作为军队的指挥官，你可以选择发射导弹杀死 <strong>1名</strong> 敌国士兵，但会误杀附近的 <strong>1名</strong> 敌国平民。</p> <p>平民照片如下图所示。</p> <p></p> <img src='stimuli/faces/PCM1.jpg', style='max-width: 30%;'> </img> <p><strong>你是否选择发射武器？</strong></p>","1",""
"","","","","","html-keyboard-response","128","314946","0.0-4.0-0.62","50","1","2022-11-13 08:30:28","a60ee176136a54a92dc2853177adfa2c","111.199.65.35","Mozilla/5.0 (Macintosh; Intel Mac OS X 10_15_7) AppleWebKit/537.36 (KHTML, like Gecko) Chrome/107.0.0.0 Safari/537.36 Edg/107.0.1418.42","Macintosh","Edge","107.0.1418.42","OS X","10_15_7","null","<div style=""font-size:60px;"">+</div>","null",""
"","","","","","html-button-response","129","317310","0.0-4.0-1.62","50","1","2022-11-13 08:30:28","a60ee176136a54a92dc2853177adfa2c","111.199.65.35","Mozilla/5.0 (Macintosh; Intel Mac OS X 10_15_7) AppleWebKit/537.36 (KHTML, like Gecko) Chrome/107.0.0.0 Safari/537.36 Edg/107.0.1418.42","Macintosh","Edge","107.0.1418.42","OS X","10_15_7","2356","<p>作为军队的指挥官，你可以选择发射导弹杀死 <strong>9名</strong> 敌国士兵，但会炸毁附近的 <strong>1棵</strong> 敌国树木。</p> <p>树木的照片如下图所示。</p> <p></p> <img src='stimuli/trees/13.png', style='max-width: 30%;'> </img> <p><strong>你是否选择发射武器？</strong></p>","0",""
"","","","","","html-keyboard-response","130","318320","0.0-4.0-0.63","50","1","2022-11-13 08:30:28","a60ee176136a54a92dc2853177adfa2c","111.199.65.35","Mozilla/5.0 (Macintosh; Intel Mac OS X 10_15_7) AppleWebKit/537.36 (KHTML, like Gecko) Chrome/107.0.0.0 Safari/537.36 Edg/107.0.1418.42","Macintosh","Edge","107.0.1418.42","OS X","10_15_7","null","<div style=""font-size:60px;"">+</div>","null",""
"","","","","","html-button-response","131","320742","0.0-4.0-1.63","50","1","2022-11-13 08:30:28","a60ee176136a54a92dc2853177adfa2c","111.199.65.35","Mozilla/5.0 (Macintosh; Intel Mac OS X 10_15_7) AppleWebKit/537.36 (KHTML, like Gecko) Chrome/107.0.0.0 Safari/537.36 Edg/107.0.1418.42","Macintosh","Edge","107.0.1418.42","OS X","10_15_7","2413","<p>作为军队的指挥官，你可以选择发射导弹杀死 <strong>1名</strong> 敌国士兵，但会炸毁附近的 <strong>1棵</strong> 敌国树木。</p> <p>树木的照片如下图所示。</p> <p></p> <img src='stimuli/trees/7.png', style='max-width: 30%;'> </img> <p><strong>你是否选择发射武器？</strong></p>","0",""
"","","","","","survey-multi-choice","132","345525","0.0-5.0","50","1","2022-11-13 08:30:28","a60ee176136a54a92dc2853177adfa2c","111.199.65.35","Mozilla/5.0 (Macintosh; Intel Mac OS X 10_15_7) AppleWebKit/537.36 (KHTML, like Gecko) Chrome/107.0.0.0 Safari/537.36 Edg/107.0.1418.42","Macintosh","Edge","107.0.1418.42","OS X","10_15_7","24776","","{""Attention1"":""""}","[0]"
"","","","","","html-button-response","133","347290","0.0-6.0","50","1","2022-11-13 08:30:28","a60ee176136a54a92dc2853177adfa2c","111.199.65.35","Mozilla/5.0 (Macintosh; Intel Mac OS X 10_15_7) AppleWebKit/537.36 (KHTML, like Gecko) Chrome/107.0.0.0 Safari/537.36 Edg/107.0.1418.42","Macintosh","Edge","107.0.1418.42","OS X","10_15_7","1754","<p style=""font-size:20px;font-weight:bold;"">恭喜！</p><p>你已经完成了实验的第一部分。</p><p>请休息放松一下，然后进入第二部分。</p><p>这部分大约需要10分钟。</p>","0",""
"","","","","","survey-text","134","376270","0.0-7.0","50","1","2022-11-13 08:30:28","a60ee176136a54a92dc2853177adfa2c","111.199.65.35","Mozilla/5.0 (Macintosh; Intel Mac OS X 10_15_7) AppleWebKit/537.36 (KHTML, like Gecko) Chrome/107.0.0.0 Safari/537.36 Edg/107.0.1418.42","Macintosh","Edge","107.0.1418.42","OS X","10_15_7","27960","","{""Age"":""22"",""Nation"":""中国"",""Born"":""河南濮阳"",""Live"":""北京"",""Ethnic"":""汉"",""Alipay"":""15510391625""}",""
"","","","","","survey-multi-choice","135","396196","0.0-8.0","50","1","2022-11-13 08:30:28","a60ee176136a54a92dc2853177adfa2c","111.199.65.35","Mozilla/5.0 (Macintosh; Intel Mac OS X 10_15_7) AppleWebKit/537.36 (KHTML, like Gecko) Chrome/107.0.0.0 Safari/537.36 Edg/107.0.1418.42","Macintosh","Edge","107.0.1418.42","OS X","10_15_7","19917","","{""Gender"":""女"",""Education"":""本科毕业"",""Income"":""￥35,000-￥69,999"",""Children"":""0"",""Race"":""亚洲人""}","[0,1,2,3,4]"
"","","","","","survey-multi-select","136","402890","0.0-9.0","50","1","2022-11-13 08:30:28","a60ee176136a54a92dc2853177adfa2c","111.199.65.35","Mozilla/5.0 (Macintosh; Intel Mac OS X 10_15_7) AppleWebKit/537.36 (KHTML, like Gecko) Chrome/107.0.0.0 Safari/537.36 Edg/107.0.1418.42","Macintosh","Edge","107.0.1418.42","OS X","10_15_7","6672","","{""Marriage"":[""未婚""],""Religion"":[""无宗教信仰""]}","[0,1]"
"","","","","","survey-multi-choice","137","412159","0.0-10.0","50","1","2022-11-13 08:30:28","a60ee176136a54a92dc2853177adfa2c","111.199.65.35","Mozilla/5.0 (Macintosh; Intel Mac OS X 10_15_7) AppleWebKit/537.36 (KHTML, like Gecko) Chrome/107.0.0.0 Safari/537.36 Edg/107.0.1418.42","Macintosh","Edge","107.0.1418.42","OS X","10_15_7","9256","","{""SES"":""3""}","[0]"
"","","","","","html-button-response","138","416984","0.0-11.0","50","1","2022-11-13 08:30:28","a60ee176136a54a92dc2853177adfa2c","111.199.65.35","Mozilla/5.0 (Macintosh; Intel Mac OS X 10_15_7) AppleWebKit/537.36 (KHTML, like Gecko) Chrome/107.0.0.0 Safari/537.36 Edg/107.0.1418.42","Macintosh","Edge","107.0.1418.42","OS X","10_15_7","4813","<p><strong>请判断下列陈述在多大程度上可以形容你？</p><p> (1 = ""和我一点都不像"" to 5 = ""非常像我"".)</strong></p>","0",""
"","","","","","survey-likert","139","446327","0.0-12.0","50","1","2022-11-13 08:30:28","a60ee176136a54a92dc2853177adfa2c","111.199.65.35","Mozilla/5.0 (Macintosh; Intel Mac OS X 10_15_7) AppleWebKit/537.36 (KHTML, like Gecko) Chrome/107.0.0.0 Safari/537.36 Edg/107.0.1418.42","Macintosh","Edge","107.0.1418.42","OS X","10_15_7","29333","","{""Aggression1"":0,""Aggression2"":0,""Aggression3"":2,""Aggression4"":2,""Aggression5"":3,""Aggression6"":2,""Aggression7"":2,""Aggression8"":0,""Aggression9"":3}","[0,1,2,3,4,5,6,7,8]"
"","","","","","html-button-response","140","447552","0.0-13.0","50","1","2022-11-13 08:30:28","a60ee176136a54a92dc2853177adfa2c","111.199.65.35","Mozilla/5.0 (Macintosh; Intel Mac OS X 10_15_7) AppleWebKit/537.36 (KHTML, like Gecko) Chrome/107.0.0.0 Safari/537.36 Edg/107.0.1418.42","Macintosh","Edge","107.0.1418.42","OS X","10_15_7","1211","<p><strong>请判断你在多大程度上同意下列陈述。</strong></p>","0",""
"","","","","","survey-likert","141","590432","0.0-14.0","50","1","2022-11-13 08:30:28","a60ee176136a54a92dc2853177adfa2c","111.199.65.35","Mozilla/5.0 (Macintosh; Intel Mac OS X 10_15_7) AppleWebKit/537.36 (KHTML, like Gecko) Chrome/107.0.0.0 Safari/537.36 Edg/107.0.1418.42","Macintosh","Edge","107.0.1418.42","OS X","10_15_7","142873","","{""scale17"":3,""scale27"":1,""scale12"":1,""scale5"":3,""scale20"":2,""scale18"":2,""scale21"":2,""scale2"":2,""scale10"":3,""scale15"":3,""scale1"":3,""scale3"":3,""scale9"":2,""scale16"":1,""scale13"":1,""scale25"":2,""scale4"":2,""scale28"":2,""scale19"":2,""scale26"":3,""scale24"":1,""scale14"":2,""scale7"":1,""scale6"":3,""scale22"":3,""scale11"":3,""scale23"":3,""scale8"":3}","[16,26,11,4,19,17,20,1,9,14,0,2,8,15,12,24,3,27,18,25,23,13,6,5,21,10,22,7]"
"","","","","","html-button-response","142","591912","0.0-15.0","50","1","2022-11-13 08:30:28","a60ee176136a54a92dc2853177adfa2c","111.199.65.35","Mozilla/5.0 (Macintosh; Intel Mac OS X 10_15_7) AppleWebKit/537.36 (KHTML, like Gecko) Chrome/107.0.0.0 Safari/537.36 Edg/107.0.1418.42","Macintosh","Edge","107.0.1418.42","OS X","10_15_7","1468","<p><strong>请判断你在多大程度上同意下列陈述。</strong></p>","0",""
"","","","","","survey-likert","143","653779","0.0-16.0","50","1","2022-11-13 08:30:28","a60ee176136a54a92dc2853177adfa2c","111.199.65.35","Mozilla/5.0 (Macintosh; Intel Mac OS X 10_15_7) AppleWebKit/537.36 (KHTML, like Gecko) Chrome/107.0.0.0 Safari/537.36 Edg/107.0.1418.42","Macintosh","Edge","107.0.1418.42","OS X","10_15_7","61859","","{""sdo16"":5,""sdo8"":3,""sdo9"":3,""sdo1"":3,""sdo5"":3,""sdo7"":3,""sdo12"":4,""sdo6"":3,""sdo3"":3,""sdo10"":3,""sdo13"":4,""sdo4"":3,""sdo15"":3,""sdo14"":3,""sdo2"":2,""sdo11"":3}","[15,7,8,0,4,6,11,5,2,9,12,3,14,13,1,10]"
"","","","","","html-button-response","144","654845","0.0-17.0","50","1","2022-11-13 08:30:28","a60ee176136a54a92dc2853177adfa2c","111.199.65.35","Mozilla/5.0 (Macintosh; Intel Mac OS X 10_15_7) AppleWebKit/537.36 (KHTML, like Gecko) Chrome/107.0.0.0 Safari/537.36 Edg/107.0.1418.42","Macintosh","Edge","107.0.1418.42","OS X","10_15_7","1053","<p><strong>请判断你在多大程度上同意下列陈述。</strong></p>","0",""
"","","","","","survey-likert","145","719986","0.0-18.0","50","1","2022-11-13 08:30:28","a60ee176136a54a92dc2853177adfa2c","111.199.65.35","Mozilla/5.0 (Macintosh; Intel Mac OS X 10_15_7) AppleWebKit/537.36 (KHTML, like Gecko) Chrome/107.0.0.0 Safari/537.36 Edg/107.0.1418.42","Macintosh","Edge","107.0.1418.42","OS X","10_15_7","65134","","{""caring1"":1,""liking1"":4,""caring2"":2,""protection1"":2,""liking2"":3,""caring3"":1,""protection2"":1,""liking3"":3,""protection3"":2,""caring4"":3,""liking4"":3,""protection4"":2,""caring5"":0,""liking5"":2,""protection5"":2}","[0,1,2,3,4,5,6,7,8,9,10,11,12,13,14]"
"","","","","","html-button-response","146","721321","0.0-19.0","50","1","2022-11-13 08:30:28","a60ee176136a54a92dc2853177adfa2c","111.199.65.35","Mozilla/5.0 (Macintosh; Intel Mac OS X 10_15_7) AppleWebKit/537.36 (KHTML, like Gecko) Chrome/107.0.0.0 Safari/537.36 Edg/107.0.1418.42","Macintosh","Edge","107.0.1418.42","OS X","10_15_7","1321","<p><strong>请判断下列场景中你的内心感受有多柔软。</strong></p>","0",""
"","","","","","survey-likert","147","746192","0.0-20.0","50","1","2022-11-13 08:30:28","a60ee176136a54a92dc2853177adfa2c","111.199.65.35","Mozilla/5.0 (Macintosh; Intel Mac OS X 10_15_7) AppleWebKit/537.36 (KHTML, like Gecko) Chrome/107.0.0.0 Safari/537.36 Edg/107.0.1418.42","Macintosh","Edge","107.0.1418.42","OS X","10_15_7","24864","","{""tenderness-positive1"":3,""tenderness-negative1"":2,""tenderness-negative2"":0,""tenderness-positive2"":2,""tenderness-positive3"":3,""tenderness-negative3"":0,""tenderness-positive4"":3,""tenderness-negative4"":0,""tenderness-negative5"":1,""tenderness-positive5"":2}","[0,1,2,3,4,5,6,7,8,9]"
"","","","","","survey-multi-choice","148","757571","0.0-21.0","50","1","2022-11-13 08:30:28","a60ee176136a54a92dc2853177adfa2c","111.199.65.35","Mozilla/5.0 (Macintosh; Intel Mac OS X 10_15_7) AppleWebKit/537.36 (KHTML, like Gecko) Chrome/107.0.0.0 Safari/537.36 Edg/107.0.1418.42","Macintosh","Edge","107.0.1418.42","OS X","10_15_7","11364","","{""Attention2"":""其他""}","[0]"
"","","","","","html-button-response","149","759134","0.0-22.0","50","1","2022-11-13 08:30:28","a60ee176136a54a92dc2853177adfa2c","111.199.65.35","Mozilla/5.0 (Macintosh; Intel Mac OS X 10_15_7) AppleWebKit/537.36 (KHTML, like Gecko) Chrome/107.0.0.0 Safari/537.36 Edg/107.0.1418.42","Macintosh","Edge","107.0.1418.42","OS X","10_15_7","1548","<p><strong>请判断你在多大程度上同意下列陈述。</strong></p>","0",""
"","","","","","survey-likert","150","841409","0.0-23.0","50","1","2022-11-13 08:30:28","a60ee176136a54a92dc2853177adfa2c","111.199.65.35","Mozilla/5.0 (Macintosh; Intel Mac OS X 10_15_7) AppleWebKit/537.36 (KHTML, like Gecko) Chrome/107.0.0.0 Safari/537.36 Edg/107.0.1418.42","Macintosh","Edge","107.0.1418.42","OS X","10_15_7","82266","","{""Patri11"":1,""Patri6"":1,""Nation3"":2,""Patri7"":2,""Patri1"":3,""Nation8"":3,""Nation5"":1,""Nation1"":2,""Nation6"":2,""Nation7"":2,""Patri4"":2,""Patri2"":2,""Patri9"":2,""Nation2"":2,""Patri3"":2,""Patri10"":1,""Patri12"":2,""Nation4"":2,""Patri5"":2,""Patri8"":2}","[10,5,14,6,0,19,16,12,17,18,3,1,8,13,2,9,11,15,4,7]"
"","","","","","html-button-response","151","842463","0.0-24.0","50","1","2022-11-13 08:30:28","a60ee176136a54a92dc2853177adfa2c","111.199.65.35","Mozilla/5.0 (Macintosh; Intel Mac OS X 10_15_7) AppleWebKit/537.36 (KHTML, like Gecko) Chrome/107.0.0.0 Safari/537.36 Edg/107.0.1418.42","Macintosh","Edge","107.0.1418.42","OS X","10_15_7","1041","<p><strong>请判断你在多大程度上同意下列陈述。</strong></p>","0",""
"","","","","","survey-likert","152","912817","0.0-25.0","50","1","2022-11-13 08:30:28","a60ee176136a54a92dc2853177adfa2c","111.199.65.35","Mozilla/5.0 (Macintosh; Intel Mac OS X 10_15_7) AppleWebKit/537.36 (KHTML, like Gecko) Chrome/107.0.0.0 Safari/537.36 Edg/107.0.1418.42","Macintosh","Edge","107.0.1418.42","OS X","10_15_7","70298","","{""hi3"":7,""hc1"":5,""hc3"":2,""hi2"":7,""vi4"":5,""vc4"":4,""hc2"":5,""hi4"":7,""vc2"":4,""vi3"":5,""hc4"":3,""hi1"":6,""vc3"":4,""vi1"":4,""vc1"":4,""Robot"":6,""vi2"":4}","[2,9,11,1,8,16,10,3,14,6,12,0,15,4,13,7,5]"
"","","","","","survey-text","153","914891","0.0-26.0","50","1","2022-11-13 08:30:28","a60ee176136a54a92dc2853177adfa2c","111.199.65.35","Mozilla/5.0 (Macintosh; Intel Mac OS X 10_15_7) AppleWebKit/537.36 (KHTML, like Gecko) Chrome/107.0.0.0 Safari/537.36 Edg/107.0.1418.42","Macintosh","Edge","107.0.1418.42","OS X","10_15_7","2039","","{""Comments"":""""}",""
"","","","","","html-button-response","154","915770","0.0-27.0","50","1","2022-11-13 08:30:28","a60ee176136a54a92dc2853177adfa2c","111.199.65.35","Mozilla/5.0 (Macintosh; Intel Mac OS X 10_15_7) AppleWebKit/537.36 (KHTML, like Gecko) Chrome/107.0.0.0 Safari/537.36 Edg/107.0.1418.42","Macintosh","Edge","107.0.1418.42","OS X","10_15_7","876","<strong><p>恭喜你完成了实验！</p><p>感谢您的参与。</p></strong>","0",""
