"success","timeout","failed_images","failed_audio","failed_video","trial_type","trial_index","time_elapsed","internal_node_id","run_id","condition","recorded_at","source_code_version","ip","user_agent","device","browser","browser_version","platform","platform_version","rt","stimulus","response","question_order"
"true","false","[]","[]","[]","preload","0","1046","0.0-0.0","59","1","2022-11-13 08:34:56","a60ee176136a54a92dc2853177adfa2c","111.203.185.90","Mozilla/5.0 (Windows NT 10.0; WOW64) AppleWebKit/537.36 (KHTML, like Gecko) Chrome/92.0.4515.131 Safari/537.36 SLBrowser/8.0.0.10171 SLBChan/30","WebKit","Chrome","92.0.4515.131","Windows","10.0","","","",""
"true","","","","","fullscreen","1","5180","0.0-1.0","59","1","2022-11-13 08:34:56","a60ee176136a54a92dc2853177adfa2c","111.203.185.90","Mozilla/5.0 (Windows NT 10.0; WOW64) AppleWebKit/537.36 (KHTML, like Gecko) Chrome/92.0.4515.131 Safari/537.36 SLBrowser/8.0.0.10171 SLBChan/30","WebKit","Chrome","92.0.4515.131","Windows","10.0","","","",""
"","","","","","html-button-response","2","51439","0.0-2.0","59","1","2022-11-13 08:34:56","a60ee176136a54a92dc2853177adfa2c","111.203.185.90","Mozilla/5.0 (Windows NT 10.0; WOW64) AppleWebKit/537.36 (KHTML, like Gecko) Chrome/92.0.4515.131 Safari/537.36 SLBrowser/8.0.0.10171 SLBChan/30","WebKit","Chrome","92.0.4515.131","Windows","10.0","46256","<p style=""font-size:20px;font-weight:bold;"">实验知情同意书</p><p style=""text-align:left;""><strong>实验名称：</strong>社会冲突研究</p><p style=""text-align:left;""><strong>主要研究者：</strong>韩晓春副教授（北京师范大学心理学部）</p><p style=""text-align:left;""><strong>联系方式：</strong>发送邮件至xiaochun.han@bnu.edu.cn</p><p style=""text-align:left;""><strong>研究目的：</strong>研究旨在了解人类面对群体冲突时的决策方式，以及相关的心理学特质。实验调查大约需要20分钟。</p><p style=""text-align:left;""><strong>实验流程：</strong>实验包含两部分。第一部分呈现一系列群体冲突场景，请你决定如何对这些冲突进行反应，大约需要10分钟完成。第二部分包含一系列人口统计学信息收集和心理学问卷，大约需要10分钟完成。</p><p style=""text-align:left;""><strong>参加及退出规则：</strong>参加本实验完全取决于您的个人意愿。在参与过程中，您可以随时退出，并且不用承担任何后果。</p><p style=""text-align:left;""><strong>隐私：</strong>本实验完全匿名进行，不会收集您的姓名或其他能够识别您身份的信息。实验中收集的作答仅用作科学研究使用，可能会在学术期刊/书籍上发表，或者用于教学，您的数据未来可能会和其他研究者或实验室分享，但您的个人身份不会被识别。</p><p style=""text-align:left;""><strong>实验报酬：</strong>实验完成后，您将获得15元人民币报酬，以感谢您的时间和努力。调查问卷中包含几道题目用以测验您作答时的认真度。只有完成全部实验，并且正确回答认真度测验的被试才能获得实验报酬。实验报酬将通过支付宝转账发放。</p><p style=""text-align:left;font-size:20px;""><strong>如果您同意以上实验知情同意书的内容，请点击'同意并且开始实验'按钮；否则请关闭浏览器界面，退出实验。</strong></p>","0",""
"","","","","","html-button-response","3","67471","0.0-3.0","59","1","2022-11-13 08:34:56","a60ee176136a54a92dc2853177adfa2c","111.203.185.90","Mozilla/5.0 (Windows NT 10.0; WOW64) AppleWebKit/537.36 (KHTML, like Gecko) Chrome/92.0.4515.131 Safari/537.36 SLBrowser/8.0.0.10171 SLBChan/30","WebKit","Chrome","92.0.4515.131","Windows","10.0","16030","<p ><strong>实验任务一：</strong></p><p>请想象你的国家与另一个国家发生了军事冲突。</p><p>你是国家军队的指挥官，你将如何在冲突中进行决策。</p><p>具体来说，作为军队指挥官，请你决定是否发射导弹进行打击。</p><p>接下来，你会面对一系列场景，请仔细阅读每个场景，然后进行决策。</p><p>这部分实验任务大约需要10分钟。</p><p><strong>实验过程中，请集中注意力。</strong></p>","0",""
"","","","","","html-keyboard-response","4","68474","0.0-4.0-0.0","59","1","2022-11-13 08:34:56","a60ee176136a54a92dc2853177adfa2c","111.203.185.90","Mozilla/5.0 (Windows NT 10.0; WOW64) AppleWebKit/537.36 (KHTML, like Gecko) Chrome/92.0.4515.131 Safari/537.36 SLBrowser/8.0.0.10171 SLBChan/30","WebKit","Chrome","92.0.4515.131","Windows","10.0","null","<div style=""font-size:60px;"">+</div>","null",""
"","","","","","html-button-response","5","82869","0.0-4.0-1.0","59","1","2022-11-13 08:34:56","a60ee176136a54a92dc2853177adfa2c","111.203.185.90","Mozilla/5.0 (Windows NT 10.0; WOW64) AppleWebKit/537.36 (KHTML, like Gecko) Chrome/92.0.4515.131 Safari/537.36 SLBrowser/8.0.0.10171 SLBChan/30","WebKit","Chrome","92.0.4515.131","Windows","10.0","14392","<p>作为军队的指挥官，你可以选择发射导弹杀死 <strong>9名</strong> 敌国士兵，但会炸毁附近的 <strong>1棵</strong> 敌国树木。</p> <p>树木的照片如下图所示。</p> <p></p> <img src='stimuli/trees/1.png', style='max-width: 30%;'> </img> <p><strong>你是否选择发射武器？</strong></p>","0",""
"","","","","","html-keyboard-response","6","83882","0.0-4.0-0.1","59","1","2022-11-13 08:34:56","a60ee176136a54a92dc2853177adfa2c","111.203.185.90","Mozilla/5.0 (Windows NT 10.0; WOW64) AppleWebKit/537.36 (KHTML, like Gecko) Chrome/92.0.4515.131 Safari/537.36 SLBrowser/8.0.0.10171 SLBChan/30","WebKit","Chrome","92.0.4515.131","Windows","10.0","null","<div style=""font-size:60px;"">+</div>","null",""
"","","","","","html-button-response","7","109407","0.0-4.0-1.1","59","1","2022-11-13 08:34:56","a60ee176136a54a92dc2853177adfa2c","111.203.185.90","Mozilla/5.0 (Windows NT 10.0; WOW64) AppleWebKit/537.36 (KHTML, like Gecko) Chrome/92.0.4515.131 Safari/537.36 SLBrowser/8.0.0.10171 SLBChan/30","WebKit","Chrome","92.0.4515.131","Windows","10.0","25523","<p>作为军队的指挥官，你可以选择发射导弹杀死 <strong>3名</strong> 敌国士兵，但会误杀附近的 <strong>1名</strong> 敌国平民。</p> <p>平民照片如下图所示。</p> <p></p> <img src='stimuli/faces/PCM8.jpg', style='max-width: 30%;'> </img> <p><strong>你是否选择发射武器？</strong></p>","1",""
"","","","","","html-keyboard-response","8","110420","0.0-4.0-0.2","59","1","2022-11-13 08:34:56","a60ee176136a54a92dc2853177adfa2c","111.203.185.90","Mozilla/5.0 (Windows NT 10.0; WOW64) AppleWebKit/537.36 (KHTML, like Gecko) Chrome/92.0.4515.131 Safari/537.36 SLBrowser/8.0.0.10171 SLBChan/30","WebKit","Chrome","92.0.4515.131","Windows","10.0","null","<div style=""font-size:60px;"">+</div>","null",""
"","","","","","html-button-response","9","125320","0.0-4.0-1.2","59","1","2022-11-13 08:34:56","a60ee176136a54a92dc2853177adfa2c","111.203.185.90","Mozilla/5.0 (Windows NT 10.0; WOW64) AppleWebKit/537.36 (KHTML, like Gecko) Chrome/92.0.4515.131 Safari/537.36 SLBrowser/8.0.0.10171 SLBChan/30","WebKit","Chrome","92.0.4515.131","Windows","10.0","14898","<p>作为军队的指挥官，你可以选择发射导弹杀死 <strong>9名</strong> 敌国士兵，但会炸毁附近的 <strong>1棵</strong> 敌国树木。</p> <p>树木的照片如下图所示。</p> <p></p> <img src='stimuli/trees/16.png', style='max-width: 30%;'> </img> <p><strong>你是否选择发射武器？</strong></p>","1",""
"","","","","","html-keyboard-response","10","126331","0.0-4.0-0.3","59","1","2022-11-13 08:34:56","a60ee176136a54a92dc2853177adfa2c","111.203.185.90","Mozilla/5.0 (Windows NT 10.0; WOW64) AppleWebKit/537.36 (KHTML, like Gecko) Chrome/92.0.4515.131 Safari/537.36 SLBrowser/8.0.0.10171 SLBChan/30","WebKit","Chrome","92.0.4515.131","Windows","10.0","null","<div style=""font-size:60px;"">+</div>","null",""
"","","","","","html-button-response","11","133675","0.0-4.0-1.3","59","1","2022-11-13 08:34:56","a60ee176136a54a92dc2853177adfa2c","111.203.185.90","Mozilla/5.0 (Windows NT 10.0; WOW64) AppleWebKit/537.36 (KHTML, like Gecko) Chrome/92.0.4515.131 Safari/537.36 SLBrowser/8.0.0.10171 SLBChan/30","WebKit","Chrome","92.0.4515.131","Windows","10.0","7341","<p>作为军队的指挥官，你可以选择发射导弹杀死 <strong>8名</strong> 敌国士兵，但会误杀附近的 <strong>1名</strong> 敌国平民。</p> <p>平民照片如下图所示。</p> <p></p> <img src='stimuli/faces/PCF5.jpg', style='max-width: 30%;'> </img> <p><strong>你是否选择发射武器？</strong></p>","1",""
"","","","","","html-keyboard-response","12","134691","0.0-4.0-0.4","59","1","2022-11-13 08:34:56","a60ee176136a54a92dc2853177adfa2c","111.203.185.90","Mozilla/5.0 (Windows NT 10.0; WOW64) AppleWebKit/537.36 (KHTML, like Gecko) Chrome/92.0.4515.131 Safari/537.36 SLBrowser/8.0.0.10171 SLBChan/30","WebKit","Chrome","92.0.4515.131","Windows","10.0","null","<div style=""font-size:60px;"">+</div>","null",""
"","","","","","html-button-response","13","144378","0.0-4.0-1.4","59","1","2022-11-13 08:34:56","a60ee176136a54a92dc2853177adfa2c","111.203.185.90","Mozilla/5.0 (Windows NT 10.0; WOW64) AppleWebKit/537.36 (KHTML, like Gecko) Chrome/92.0.4515.131 Safari/537.36 SLBrowser/8.0.0.10171 SLBChan/30","WebKit","Chrome","92.0.4515.131","Windows","10.0","9684","<p>作为军队的指挥官，你可以选择发射导弹杀死 <strong>9名</strong> 敌国士兵，但会炸毁附近的 <strong>1棵</strong> 敌国树木。</p> <p>树木的照片如下图所示。</p> <p></p> <img src='stimuli/trees/14.png', style='max-width: 30%;'> </img> <p><strong>你是否选择发射武器？</strong></p>","0",""
"","","","","","html-keyboard-response","14","145380","0.0-4.0-0.5","59","1","2022-11-13 08:34:56","a60ee176136a54a92dc2853177adfa2c","111.203.185.90","Mozilla/5.0 (Windows NT 10.0; WOW64) AppleWebKit/537.36 (KHTML, like Gecko) Chrome/92.0.4515.131 Safari/537.36 SLBrowser/8.0.0.10171 SLBChan/30","WebKit","Chrome","92.0.4515.131","Windows","10.0","null","<div style=""font-size:60px;"">+</div>","null",""
"","","","","","html-button-response","15","157862","0.0-4.0-1.5","59","1","2022-11-13 08:34:56","a60ee176136a54a92dc2853177adfa2c","111.203.185.90","Mozilla/5.0 (Windows NT 10.0; WOW64) AppleWebKit/537.36 (KHTML, like Gecko) Chrome/92.0.4515.131 Safari/537.36 SLBrowser/8.0.0.10171 SLBChan/30","WebKit","Chrome","92.0.4515.131","Windows","10.0","12481","<p>作为军队的指挥官，你可以选择发射导弹杀死 <strong>9名</strong> 敌国士兵，但会误杀附近的 <strong>1名</strong> 敌国平民。</p> <p>平民照片如下图所示。</p> <p></p> <img src='stimuli/faces/PCM8.jpg', style='max-width: 30%;'> </img> <p><strong>你是否选择发射武器？</strong></p>","0",""
"","","","","","html-keyboard-response","16","158870","0.0-4.0-0.6","59","1","2022-11-13 08:34:56","a60ee176136a54a92dc2853177adfa2c","111.203.185.90","Mozilla/5.0 (Windows NT 10.0; WOW64) AppleWebKit/537.36 (KHTML, like Gecko) Chrome/92.0.4515.131 Safari/537.36 SLBrowser/8.0.0.10171 SLBChan/30","WebKit","Chrome","92.0.4515.131","Windows","10.0","null","<div style=""font-size:60px;"">+</div>","null",""
"","","","","","html-button-response","17","169723","0.0-4.0-1.6","59","1","2022-11-13 08:34:56","a60ee176136a54a92dc2853177adfa2c","111.203.185.90","Mozilla/5.0 (Windows NT 10.0; WOW64) AppleWebKit/537.36 (KHTML, like Gecko) Chrome/92.0.4515.131 Safari/537.36 SLBrowser/8.0.0.10171 SLBChan/30","WebKit","Chrome","92.0.4515.131","Windows","10.0","10851","<p>作为军队的指挥官，你可以选择发射导弹杀死 <strong>6名</strong> 敌国士兵，但会炸毁附近的 <strong>1棵</strong> 敌国树木。</p> <p>树木的照片如下图所示。</p> <p></p> <img src='stimuli/trees/8.png', style='max-width: 30%;'> </img> <p><strong>你是否选择发射武器？</strong></p>","0",""
"","","","","","html-keyboard-response","18","170733","0.0-4.0-0.7","59","1","2022-11-13 08:34:56","a60ee176136a54a92dc2853177adfa2c","111.203.185.90","Mozilla/5.0 (Windows NT 10.0; WOW64) AppleWebKit/537.36 (KHTML, like Gecko) Chrome/92.0.4515.131 Safari/537.36 SLBrowser/8.0.0.10171 SLBChan/30","WebKit","Chrome","92.0.4515.131","Windows","10.0","null","<div style=""font-size:60px;"">+</div>","null",""
"","","","","","html-button-response","19","174389","0.0-4.0-1.7","59","1","2022-11-13 08:34:56","a60ee176136a54a92dc2853177adfa2c","111.203.185.90","Mozilla/5.0 (Windows NT 10.0; WOW64) AppleWebKit/537.36 (KHTML, like Gecko) Chrome/92.0.4515.131 Safari/537.36 SLBrowser/8.0.0.10171 SLBChan/30","WebKit","Chrome","92.0.4515.131","Windows","10.0","3654","<p>作为军队的指挥官，你可以选择发射导弹杀死 <strong>3名</strong> 敌国士兵，但会误杀附近的 <strong>1名</strong> 敌国平民。</p> <p>平民照片如下图所示。</p> <p></p> <img src='stimuli/faces/PCF2.jpg', style='max-width: 30%;'> </img> <p><strong>你是否选择发射武器？</strong></p>","1",""
"","","","","","html-keyboard-response","20","175392","0.0-4.0-0.8","59","1","2022-11-13 08:34:56","a60ee176136a54a92dc2853177adfa2c","111.203.185.90","Mozilla/5.0 (Windows NT 10.0; WOW64) AppleWebKit/537.36 (KHTML, like Gecko) Chrome/92.0.4515.131 Safari/537.36 SLBrowser/8.0.0.10171 SLBChan/30","WebKit","Chrome","92.0.4515.131","Windows","10.0","null","<div style=""font-size:60px;"">+</div>","null",""
"","","","","","html-button-response","21","183574","0.0-4.0-1.8","59","1","2022-11-13 08:34:56","a60ee176136a54a92dc2853177adfa2c","111.203.185.90","Mozilla/5.0 (Windows NT 10.0; WOW64) AppleWebKit/537.36 (KHTML, like Gecko) Chrome/92.0.4515.131 Safari/537.36 SLBrowser/8.0.0.10171 SLBChan/30","WebKit","Chrome","92.0.4515.131","Windows","10.0","8180","<p>作为军队的指挥官，你可以选择发射导弹杀死 <strong>5名</strong> 敌国士兵，但会炸毁附近的 <strong>1棵</strong> 敌国树木。</p> <p>树木的照片如下图所示。</p> <p></p> <img src='stimuli/trees/1.png', style='max-width: 30%;'> </img> <p><strong>你是否选择发射武器？</strong></p>","1",""
"","","","","","html-keyboard-response","22","184589","0.0-4.0-0.9","59","1","2022-11-13 08:34:56","a60ee176136a54a92dc2853177adfa2c","111.203.185.90","Mozilla/5.0 (Windows NT 10.0; WOW64) AppleWebKit/537.36 (KHTML, like Gecko) Chrome/92.0.4515.131 Safari/537.36 SLBrowser/8.0.0.10171 SLBChan/30","WebKit","Chrome","92.0.4515.131","Windows","10.0","null","<div style=""font-size:60px;"">+</div>","null",""
"","","","","","html-button-response","23","189887","0.0-4.0-1.9","59","1","2022-11-13 08:34:56","a60ee176136a54a92dc2853177adfa2c","111.203.185.90","Mozilla/5.0 (Windows NT 10.0; WOW64) AppleWebKit/537.36 (KHTML, like Gecko) Chrome/92.0.4515.131 Safari/537.36 SLBrowser/8.0.0.10171 SLBChan/30","WebKit","Chrome","92.0.4515.131","Windows","10.0","5296","<p>作为军队的指挥官，你可以选择发射导弹杀死 <strong>7名</strong> 敌国士兵，但会误杀附近的 <strong>1名</strong> 敌国平民。</p> <p>平民照片如下图所示。</p> <p></p> <img src='stimuli/faces/PCF3.jpg', style='max-width: 30%;'> </img> <p><strong>你是否选择发射武器？</strong></p>","1",""
"","","","","","html-keyboard-response","24","190902","0.0-4.0-0.10","59","1","2022-11-13 08:34:56","a60ee176136a54a92dc2853177adfa2c","111.203.185.90","Mozilla/5.0 (Windows NT 10.0; WOW64) AppleWebKit/537.36 (KHTML, like Gecko) Chrome/92.0.4515.131 Safari/537.36 SLBrowser/8.0.0.10171 SLBChan/30","WebKit","Chrome","92.0.4515.131","Windows","10.0","null","<div style=""font-size:60px;"">+</div>","null",""
"","","","","","html-button-response","25","198807","0.0-4.0-1.10","59","1","2022-11-13 08:34:56","a60ee176136a54a92dc2853177adfa2c","111.203.185.90","Mozilla/5.0 (Windows NT 10.0; WOW64) AppleWebKit/537.36 (KHTML, like Gecko) Chrome/92.0.4515.131 Safari/537.36 SLBrowser/8.0.0.10171 SLBChan/30","WebKit","Chrome","92.0.4515.131","Windows","10.0","7903","<p>作为军队的指挥官，你可以选择发射导弹杀死 <strong>1名</strong> 敌国士兵，但会炸毁附近的 <strong>1棵</strong> 敌国树木。</p> <p>树木的照片如下图所示。</p> <p></p> <img src='stimuli/trees/5.png', style='max-width: 30%;'> </img> <p><strong>你是否选择发射武器？</strong></p>","1",""
"","","","","","html-keyboard-response","26","199808","0.0-4.0-0.11","59","1","2022-11-13 08:34:56","a60ee176136a54a92dc2853177adfa2c","111.203.185.90","Mozilla/5.0 (Windows NT 10.0; WOW64) AppleWebKit/537.36 (KHTML, like Gecko) Chrome/92.0.4515.131 Safari/537.36 SLBrowser/8.0.0.10171 SLBChan/30","WebKit","Chrome","92.0.4515.131","Windows","10.0","null","<div style=""font-size:60px;"">+</div>","null",""
"","","","","","html-button-response","27","205826","0.0-4.0-1.11","59","1","2022-11-13 08:34:56","a60ee176136a54a92dc2853177adfa2c","111.203.185.90","Mozilla/5.0 (Windows NT 10.0; WOW64) AppleWebKit/537.36 (KHTML, like Gecko) Chrome/92.0.4515.131 Safari/537.36 SLBrowser/8.0.0.10171 SLBChan/30","WebKit","Chrome","92.0.4515.131","Windows","10.0","6015","<p>作为军队的指挥官，你可以选择发射导弹杀死 <strong>3名</strong> 敌国士兵，但会炸毁附近的 <strong>1棵</strong> 敌国树木。</p> <p>树木的照片如下图所示。</p> <p></p> <img src='stimuli/trees/11.png', style='max-width: 30%;'> </img> <p><strong>你是否选择发射武器？</strong></p>","0",""
"","","","","","html-keyboard-response","28","206835","0.0-4.0-0.12","59","1","2022-11-13 08:34:56","a60ee176136a54a92dc2853177adfa2c","111.203.185.90","Mozilla/5.0 (Windows NT 10.0; WOW64) AppleWebKit/537.36 (KHTML, like Gecko) Chrome/92.0.4515.131 Safari/537.36 SLBrowser/8.0.0.10171 SLBChan/30","WebKit","Chrome","92.0.4515.131","Windows","10.0","null","<div style=""font-size:60px;"">+</div>","null",""
"","","","","","html-button-response","29","211919","0.0-4.0-1.12","59","1","2022-11-13 08:34:56","a60ee176136a54a92dc2853177adfa2c","111.203.185.90","Mozilla/5.0 (Windows NT 10.0; WOW64) AppleWebKit/537.36 (KHTML, like Gecko) Chrome/92.0.4515.131 Safari/537.36 SLBrowser/8.0.0.10171 SLBChan/30","WebKit","Chrome","92.0.4515.131","Windows","10.0","5082","<p>作为军队的指挥官，你可以选择发射导弹杀死 <strong>4名</strong> 敌国士兵，但会误杀附近的 <strong>1名</strong> 敌国平民。</p> <p>平民照片如下图所示。</p> <p></p> <img src='stimuli/faces/PCF3.jpg', style='max-width: 30%;'> </img> <p><strong>你是否选择发射武器？</strong></p>","1",""
"","","","","","html-keyboard-response","30","212929","0.0-4.0-0.13","59","1","2022-11-13 08:34:56","a60ee176136a54a92dc2853177adfa2c","111.203.185.90","Mozilla/5.0 (Windows NT 10.0; WOW64) AppleWebKit/537.36 (KHTML, like Gecko) Chrome/92.0.4515.131 Safari/537.36 SLBrowser/8.0.0.10171 SLBChan/30","WebKit","Chrome","92.0.4515.131","Windows","10.0","null","<div style=""font-size:60px;"">+</div>","null",""
"","","","","","html-button-response","31","215091","0.0-4.0-1.13","59","1","2022-11-13 08:34:56","a60ee176136a54a92dc2853177adfa2c","111.203.185.90","Mozilla/5.0 (Windows NT 10.0; WOW64) AppleWebKit/537.36 (KHTML, like Gecko) Chrome/92.0.4515.131 Safari/537.36 SLBrowser/8.0.0.10171 SLBChan/30","WebKit","Chrome","92.0.4515.131","Windows","10.0","2160","<p>作为军队的指挥官，你可以选择发射导弹杀死 <strong>1名</strong> 敌国士兵，但会误杀附近的 <strong>1名</strong> 敌国平民。</p> <p>平民照片如下图所示。</p> <p></p> <img src='stimuli/faces/PCF7.jpg', style='max-width: 30%;'> </img> <p><strong>你是否选择发射武器？</strong></p>","1",""
"","","","","","html-keyboard-response","32","216094","0.0-4.0-0.14","59","1","2022-11-13 08:34:56","a60ee176136a54a92dc2853177adfa2c","111.203.185.90","Mozilla/5.0 (Windows NT 10.0; WOW64) AppleWebKit/537.36 (KHTML, like Gecko) Chrome/92.0.4515.131 Safari/537.36 SLBrowser/8.0.0.10171 SLBChan/30","WebKit","Chrome","92.0.4515.131","Windows","10.0","null","<div style=""font-size:60px;"">+</div>","null",""
"","","","","","html-button-response","33","221550","0.0-4.0-1.14","59","1","2022-11-13 08:34:56","a60ee176136a54a92dc2853177adfa2c","111.203.185.90","Mozilla/5.0 (Windows NT 10.0; WOW64) AppleWebKit/537.36 (KHTML, like Gecko) Chrome/92.0.4515.131 Safari/537.36 SLBrowser/8.0.0.10171 SLBChan/30","WebKit","Chrome","92.0.4515.131","Windows","10.0","5454","<p>作为军队的指挥官，你可以选择发射导弹杀死 <strong>5名</strong> 敌国士兵，但会误杀附近的 <strong>1名</strong> 敌国平民。</p> <p>平民照片如下图所示。</p> <p></p> <img src='stimuli/faces/PCM7.jpg', style='max-width: 30%;'> </img> <p><strong>你是否选择发射武器？</strong></p>","0",""
"","","","","","html-keyboard-response","34","222557","0.0-4.0-0.15","59","1","2022-11-13 08:34:56","a60ee176136a54a92dc2853177adfa2c","111.203.185.90","Mozilla/5.0 (Windows NT 10.0; WOW64) AppleWebKit/537.36 (KHTML, like Gecko) Chrome/92.0.4515.131 Safari/537.36 SLBrowser/8.0.0.10171 SLBChan/30","WebKit","Chrome","92.0.4515.131","Windows","10.0","null","<div style=""font-size:60px;"">+</div>","null",""
"","","","","","html-button-response","35","224303","0.0-4.0-1.15","59","1","2022-11-13 08:34:56","a60ee176136a54a92dc2853177adfa2c","111.203.185.90","Mozilla/5.0 (Windows NT 10.0; WOW64) AppleWebKit/537.36 (KHTML, like Gecko) Chrome/92.0.4515.131 Safari/537.36 SLBrowser/8.0.0.10171 SLBChan/30","WebKit","Chrome","92.0.4515.131","Windows","10.0","1743","<p>作为军队的指挥官，你可以选择发射导弹杀死 <strong>1名</strong> 敌国士兵，但会误杀附近的 <strong>1名</strong> 敌国平民。</p> <p>平民照片如下图所示。</p> <p></p> <img src='stimuli/faces/PCF8.jpg', style='max-width: 30%;'> </img> <p><strong>你是否选择发射武器？</strong></p>","1",""
"","","","","","html-keyboard-response","36","225315","0.0-4.0-0.16","59","1","2022-11-13 08:34:56","a60ee176136a54a92dc2853177adfa2c","111.203.185.90","Mozilla/5.0 (Windows NT 10.0; WOW64) AppleWebKit/537.36 (KHTML, like Gecko) Chrome/92.0.4515.131 Safari/537.36 SLBrowser/8.0.0.10171 SLBChan/30","WebKit","Chrome","92.0.4515.131","Windows","10.0","null","<div style=""font-size:60px;"">+</div>","null",""
"","","","","","html-button-response","37","227844","0.0-4.0-1.16","59","1","2022-11-13 08:34:56","a60ee176136a54a92dc2853177adfa2c","111.203.185.90","Mozilla/5.0 (Windows NT 10.0; WOW64) AppleWebKit/537.36 (KHTML, like Gecko) Chrome/92.0.4515.131 Safari/537.36 SLBrowser/8.0.0.10171 SLBChan/30","WebKit","Chrome","92.0.4515.131","Windows","10.0","2527","<p>作为军队的指挥官，你可以选择发射导弹杀死 <strong>10名</strong> 敌国士兵，但会误杀附近的 <strong>1名</strong> 敌国平民。</p> <p>平民照片如下图所示。</p> <p></p> <img src='stimuli/faces/PCM4.jpg', style='max-width: 30%;'> </img> <p><strong>你是否选择发射武器？</strong></p>","0",""
"","","","","","html-keyboard-response","38","228856","0.0-4.0-0.17","59","1","2022-11-13 08:34:56","a60ee176136a54a92dc2853177adfa2c","111.203.185.90","Mozilla/5.0 (Windows NT 10.0; WOW64) AppleWebKit/537.36 (KHTML, like Gecko) Chrome/92.0.4515.131 Safari/537.36 SLBrowser/8.0.0.10171 SLBChan/30","WebKit","Chrome","92.0.4515.131","Windows","10.0","null","<div style=""font-size:60px;"">+</div>","null",""
"","","","","","html-button-response","39","233467","0.0-4.0-1.17","59","1","2022-11-13 08:34:56","a60ee176136a54a92dc2853177adfa2c","111.203.185.90","Mozilla/5.0 (Windows NT 10.0; WOW64) AppleWebKit/537.36 (KHTML, like Gecko) Chrome/92.0.4515.131 Safari/537.36 SLBrowser/8.0.0.10171 SLBChan/30","WebKit","Chrome","92.0.4515.131","Windows","10.0","4610","<p>作为军队的指挥官，你可以选择发射导弹杀死 <strong>5名</strong> 敌国士兵，但会误杀附近的 <strong>1名</strong> 敌国平民。</p> <p>平民照片如下图所示。</p> <p></p> <img src='stimuli/faces/PCM2.jpg', style='max-width: 30%;'> </img> <p><strong>你是否选择发射武器？</strong></p>","1",""
"","","","","","html-keyboard-response","40","234485","0.0-4.0-0.18","59","1","2022-11-13 08:34:56","a60ee176136a54a92dc2853177adfa2c","111.203.185.90","Mozilla/5.0 (Windows NT 10.0; WOW64) AppleWebKit/537.36 (KHTML, like Gecko) Chrome/92.0.4515.131 Safari/537.36 SLBrowser/8.0.0.10171 SLBChan/30","WebKit","Chrome","92.0.4515.131","Windows","10.0","null","<div style=""font-size:60px;"">+</div>","null",""
"","","","","","html-button-response","41","242400","0.0-4.0-1.18","59","1","2022-11-13 08:34:56","a60ee176136a54a92dc2853177adfa2c","111.203.185.90","Mozilla/5.0 (Windows NT 10.0; WOW64) AppleWebKit/537.36 (KHTML, like Gecko) Chrome/92.0.4515.131 Safari/537.36 SLBrowser/8.0.0.10171 SLBChan/30","WebKit","Chrome","92.0.4515.131","Windows","10.0","7912","<p>作为军队的指挥官，你可以选择发射导弹杀死 <strong>8名</strong> 敌国士兵，但会炸毁附近的 <strong>1棵</strong> 敌国树木。</p> <p>树木的照片如下图所示。</p> <p></p> <img src='stimuli/trees/10.png', style='max-width: 30%;'> </img> <p><strong>你是否选择发射武器？</strong></p>","0",""
"","","","","","html-keyboard-response","42","243404","0.0-4.0-0.19","59","1","2022-11-13 08:34:56","a60ee176136a54a92dc2853177adfa2c","111.203.185.90","Mozilla/5.0 (Windows NT 10.0; WOW64) AppleWebKit/537.36 (KHTML, like Gecko) Chrome/92.0.4515.131 Safari/537.36 SLBrowser/8.0.0.10171 SLBChan/30","WebKit","Chrome","92.0.4515.131","Windows","10.0","null","<div style=""font-size:60px;"">+</div>","null",""
"","","","","","html-button-response","43","248611","0.0-4.0-1.19","59","1","2022-11-13 08:34:56","a60ee176136a54a92dc2853177adfa2c","111.203.185.90","Mozilla/5.0 (Windows NT 10.0; WOW64) AppleWebKit/537.36 (KHTML, like Gecko) Chrome/92.0.4515.131 Safari/537.36 SLBrowser/8.0.0.10171 SLBChan/30","WebKit","Chrome","92.0.4515.131","Windows","10.0","5204","<p>作为军队的指挥官，你可以选择发射导弹杀死 <strong>9名</strong> 敌国士兵，但会误杀附近的 <strong>1名</strong> 敌国平民。</p> <p>平民照片如下图所示。</p> <p></p> <img src='stimuli/faces/PCM2.jpg', style='max-width: 30%;'> </img> <p><strong>你是否选择发射武器？</strong></p>","0",""
"","","","","","html-keyboard-response","44","249623","0.0-4.0-0.20","59","1","2022-11-13 08:34:56","a60ee176136a54a92dc2853177adfa2c","111.203.185.90","Mozilla/5.0 (Windows NT 10.0; WOW64) AppleWebKit/537.36 (KHTML, like Gecko) Chrome/92.0.4515.131 Safari/537.36 SLBrowser/8.0.0.10171 SLBChan/30","WebKit","Chrome","92.0.4515.131","Windows","10.0","null","<div style=""font-size:60px;"">+</div>","null",""
"","","","","","html-button-response","45","253986","0.0-4.0-1.20","59","1","2022-11-13 08:34:56","a60ee176136a54a92dc2853177adfa2c","111.203.185.90","Mozilla/5.0 (Windows NT 10.0; WOW64) AppleWebKit/537.36 (KHTML, like Gecko) Chrome/92.0.4515.131 Safari/537.36 SLBrowser/8.0.0.10171 SLBChan/30","WebKit","Chrome","92.0.4515.131","Windows","10.0","4359","<p>作为军队的指挥官，你可以选择发射导弹杀死 <strong>10名</strong> 敌国士兵，但会炸毁附近的 <strong>1棵</strong> 敌国树木。</p> <p>树木的照片如下图所示。</p> <p></p> <img src='stimuli/trees/3.png', style='max-width: 30%;'> </img> <p><strong>你是否选择发射武器？</strong></p>","0",""
"","","","","","html-keyboard-response","46","255001","0.0-4.0-0.21","59","1","2022-11-13 08:34:56","a60ee176136a54a92dc2853177adfa2c","111.203.185.90","Mozilla/5.0 (Windows NT 10.0; WOW64) AppleWebKit/537.36 (KHTML, like Gecko) Chrome/92.0.4515.131 Safari/537.36 SLBrowser/8.0.0.10171 SLBChan/30","WebKit","Chrome","92.0.4515.131","Windows","10.0","null","<div style=""font-size:60px;"">+</div>","null",""
"","","","","","html-button-response","47","256934","0.0-4.0-1.21","59","1","2022-11-13 08:34:56","a60ee176136a54a92dc2853177adfa2c","111.203.185.90","Mozilla/5.0 (Windows NT 10.0; WOW64) AppleWebKit/537.36 (KHTML, like Gecko) Chrome/92.0.4515.131 Safari/537.36 SLBrowser/8.0.0.10171 SLBChan/30","WebKit","Chrome","92.0.4515.131","Windows","10.0","1930","<p>作为军队的指挥官，你可以选择发射导弹杀死 <strong>2名</strong> 敌国士兵，但会炸毁附近的 <strong>1棵</strong> 敌国树木。</p> <p>树木的照片如下图所示。</p> <p></p> <img src='stimuli/trees/16.png', style='max-width: 30%;'> </img> <p><strong>你是否选择发射武器？</strong></p>","1",""
"","","","","","html-keyboard-response","48","257938","0.0-4.0-0.22","59","1","2022-11-13 08:34:56","a60ee176136a54a92dc2853177adfa2c","111.203.185.90","Mozilla/5.0 (Windows NT 10.0; WOW64) AppleWebKit/537.36 (KHTML, like Gecko) Chrome/92.0.4515.131 Safari/537.36 SLBrowser/8.0.0.10171 SLBChan/30","WebKit","Chrome","92.0.4515.131","Windows","10.0","null","<div style=""font-size:60px;"">+</div>","null",""
"","","","","","html-button-response","49","260784","0.0-4.0-1.22","59","1","2022-11-13 08:34:56","a60ee176136a54a92dc2853177adfa2c","111.203.185.90","Mozilla/5.0 (Windows NT 10.0; WOW64) AppleWebKit/537.36 (KHTML, like Gecko) Chrome/92.0.4515.131 Safari/537.36 SLBrowser/8.0.0.10171 SLBChan/30","WebKit","Chrome","92.0.4515.131","Windows","10.0","2845","<p>作为军队的指挥官，你可以选择发射导弹杀死 <strong>10名</strong> 敌国士兵，但会炸毁附近的 <strong>1棵</strong> 敌国树木。</p> <p>树木的照片如下图所示。</p> <p></p> <img src='stimuli/trees/12.png', style='max-width: 30%;'> </img> <p><strong>你是否选择发射武器？</strong></p>","0",""
"","","","","","html-keyboard-response","50","261791","0.0-4.0-0.23","59","1","2022-11-13 08:34:56","a60ee176136a54a92dc2853177adfa2c","111.203.185.90","Mozilla/5.0 (Windows NT 10.0; WOW64) AppleWebKit/537.36 (KHTML, like Gecko) Chrome/92.0.4515.131 Safari/537.36 SLBrowser/8.0.0.10171 SLBChan/30","WebKit","Chrome","92.0.4515.131","Windows","10.0","null","<div style=""font-size:60px;"">+</div>","null",""
"","","","","","html-button-response","51","263410","0.0-4.0-1.23","59","1","2022-11-13 08:34:56","a60ee176136a54a92dc2853177adfa2c","111.203.185.90","Mozilla/5.0 (Windows NT 10.0; WOW64) AppleWebKit/537.36 (KHTML, like Gecko) Chrome/92.0.4515.131 Safari/537.36 SLBrowser/8.0.0.10171 SLBChan/30","WebKit","Chrome","92.0.4515.131","Windows","10.0","1616","<p>作为军队的指挥官，你可以选择发射导弹杀死 <strong>2名</strong> 敌国士兵，但会误杀附近的 <strong>1名</strong> 敌国平民。</p> <p>平民照片如下图所示。</p> <p></p> <img src='stimuli/faces/PCF1.jpg', style='max-width: 30%;'> </img> <p><strong>你是否选择发射武器？</strong></p>","1",""
"","","","","","html-keyboard-response","52","264426","0.0-4.0-0.24","59","1","2022-11-13 08:34:56","a60ee176136a54a92dc2853177adfa2c","111.203.185.90","Mozilla/5.0 (Windows NT 10.0; WOW64) AppleWebKit/537.36 (KHTML, like Gecko) Chrome/92.0.4515.131 Safari/537.36 SLBrowser/8.0.0.10171 SLBChan/30","WebKit","Chrome","92.0.4515.131","Windows","10.0","null","<div style=""font-size:60px;"">+</div>","null",""
"","","","","","html-button-response","53","266979","0.0-4.0-1.24","59","1","2022-11-13 08:34:56","a60ee176136a54a92dc2853177adfa2c","111.203.185.90","Mozilla/5.0 (Windows NT 10.0; WOW64) AppleWebKit/537.36 (KHTML, like Gecko) Chrome/92.0.4515.131 Safari/537.36 SLBrowser/8.0.0.10171 SLBChan/30","WebKit","Chrome","92.0.4515.131","Windows","10.0","2550","<p>作为军队的指挥官，你可以选择发射导弹杀死 <strong>6名</strong> 敌国士兵，但会误杀附近的 <strong>1名</strong> 敌国平民。</p> <p>平民照片如下图所示。</p> <p></p> <img src='stimuli/faces/PCF8.jpg', style='max-width: 30%;'> </img> <p><strong>你是否选择发射武器？</strong></p>","1",""
"","","","","","html-keyboard-response","54","267992","0.0-4.0-0.25","59","1","2022-11-13 08:34:56","a60ee176136a54a92dc2853177adfa2c","111.203.185.90","Mozilla/5.0 (Windows NT 10.0; WOW64) AppleWebKit/537.36 (KHTML, like Gecko) Chrome/92.0.4515.131 Safari/537.36 SLBrowser/8.0.0.10171 SLBChan/30","WebKit","Chrome","92.0.4515.131","Windows","10.0","null","<div style=""font-size:60px;"">+</div>","null",""
"","","","","","html-button-response","55","272008","0.0-4.0-1.25","59","1","2022-11-13 08:34:56","a60ee176136a54a92dc2853177adfa2c","111.203.185.90","Mozilla/5.0 (Windows NT 10.0; WOW64) AppleWebKit/537.36 (KHTML, like Gecko) Chrome/92.0.4515.131 Safari/537.36 SLBrowser/8.0.0.10171 SLBChan/30","WebKit","Chrome","92.0.4515.131","Windows","10.0","4010","<p>作为军队的指挥官，你可以选择发射导弹杀死 <strong>10名</strong> 敌国士兵，但会炸毁附近的 <strong>1棵</strong> 敌国树木。</p> <p>树木的照片如下图所示。</p> <p></p> <img src='stimuli/trees/15.png', style='max-width: 30%;'> </img> <p><strong>你是否选择发射武器？</strong></p>","0",""
"","","","","","html-keyboard-response","56","273019","0.0-4.0-0.26","59","1","2022-11-13 08:34:56","a60ee176136a54a92dc2853177adfa2c","111.203.185.90","Mozilla/5.0 (Windows NT 10.0; WOW64) AppleWebKit/537.36 (KHTML, like Gecko) Chrome/92.0.4515.131 Safari/537.36 SLBrowser/8.0.0.10171 SLBChan/30","WebKit","Chrome","92.0.4515.131","Windows","10.0","null","<div style=""font-size:60px;"">+</div>","null",""
"","","","","","html-button-response","57","280120","0.0-4.0-1.26","59","1","2022-11-13 08:34:56","a60ee176136a54a92dc2853177adfa2c","111.203.185.90","Mozilla/5.0 (Windows NT 10.0; WOW64) AppleWebKit/537.36 (KHTML, like Gecko) Chrome/92.0.4515.131 Safari/537.36 SLBrowser/8.0.0.10171 SLBChan/30","WebKit","Chrome","92.0.4515.131","Windows","10.0","7097","<p>作为军队的指挥官，你可以选择发射导弹杀死 <strong>7名</strong> 敌国士兵，但会误杀附近的 <strong>1名</strong> 敌国平民。</p> <p>平民照片如下图所示。</p> <p></p> <img src='stimuli/faces/PCM5.jpg', style='max-width: 30%;'> </img> <p><strong>你是否选择发射武器？</strong></p>","1",""
"","","","","","html-keyboard-response","58","281123","0.0-4.0-0.27","59","1","2022-11-13 08:34:56","a60ee176136a54a92dc2853177adfa2c","111.203.185.90","Mozilla/5.0 (Windows NT 10.0; WOW64) AppleWebKit/537.36 (KHTML, like Gecko) Chrome/92.0.4515.131 Safari/537.36 SLBrowser/8.0.0.10171 SLBChan/30","WebKit","Chrome","92.0.4515.131","Windows","10.0","null","<div style=""font-size:60px;"">+</div>","null",""
"","","","","","html-button-response","59","287524","0.0-4.0-1.27","59","1","2022-11-13 08:34:56","a60ee176136a54a92dc2853177adfa2c","111.203.185.90","Mozilla/5.0 (Windows NT 10.0; WOW64) AppleWebKit/537.36 (KHTML, like Gecko) Chrome/92.0.4515.131 Safari/537.36 SLBrowser/8.0.0.10171 SLBChan/30","WebKit","Chrome","92.0.4515.131","Windows","10.0","6399","<p>作为军队的指挥官，你可以选择发射导弹杀死 <strong>4名</strong> 敌国士兵，但会炸毁附近的 <strong>1棵</strong> 敌国树木。</p> <p>树木的照片如下图所示。</p> <p></p> <img src='stimuli/trees/12.png', style='max-width: 30%;'> </img> <p><strong>你是否选择发射武器？</strong></p>","1",""
"","","","","","html-keyboard-response","60","288538","0.0-4.0-0.28","59","1","2022-11-13 08:34:56","a60ee176136a54a92dc2853177adfa2c","111.203.185.90","Mozilla/5.0 (Windows NT 10.0; WOW64) AppleWebKit/537.36 (KHTML, like Gecko) Chrome/92.0.4515.131 Safari/537.36 SLBrowser/8.0.0.10171 SLBChan/30","WebKit","Chrome","92.0.4515.131","Windows","10.0","null","<div style=""font-size:60px;"">+</div>","null",""
"","","","","","html-button-response","61","294465","0.0-4.0-1.28","59","1","2022-11-13 08:34:56","a60ee176136a54a92dc2853177adfa2c","111.203.185.90","Mozilla/5.0 (Windows NT 10.0; WOW64) AppleWebKit/537.36 (KHTML, like Gecko) Chrome/92.0.4515.131 Safari/537.36 SLBrowser/8.0.0.10171 SLBChan/30","WebKit","Chrome","92.0.4515.131","Windows","10.0","5924","<p>作为军队的指挥官，你可以选择发射导弹杀死 <strong>6名</strong> 敌国士兵，但会炸毁附近的 <strong>1棵</strong> 敌国树木。</p> <p>树木的照片如下图所示。</p> <p></p> <img src='stimuli/trees/7.png', style='max-width: 30%;'> </img> <p><strong>你是否选择发射武器？</strong></p>","1",""
"","","","","","html-keyboard-response","62","295478","0.0-4.0-0.29","59","1","2022-11-13 08:34:56","a60ee176136a54a92dc2853177adfa2c","111.203.185.90","Mozilla/5.0 (Windows NT 10.0; WOW64) AppleWebKit/537.36 (KHTML, like Gecko) Chrome/92.0.4515.131 Safari/537.36 SLBrowser/8.0.0.10171 SLBChan/30","WebKit","Chrome","92.0.4515.131","Windows","10.0","null","<div style=""font-size:60px;"">+</div>","null",""
"","","","","","html-button-response","63","302135","0.0-4.0-1.29","59","1","2022-11-13 08:34:56","a60ee176136a54a92dc2853177adfa2c","111.203.185.90","Mozilla/5.0 (Windows NT 10.0; WOW64) AppleWebKit/537.36 (KHTML, like Gecko) Chrome/92.0.4515.131 Safari/537.36 SLBrowser/8.0.0.10171 SLBChan/30","WebKit","Chrome","92.0.4515.131","Windows","10.0","6655","<p>作为军队的指挥官，你可以选择发射导弹杀死 <strong>9名</strong> 敌国士兵，但会炸毁附近的 <strong>1棵</strong> 敌国树木。</p> <p>树木的照片如下图所示。</p> <p></p> <img src='stimuli/trees/5.png', style='max-width: 30%;'> </img> <p><strong>你是否选择发射武器？</strong></p>","0",""
"","","","","","html-keyboard-response","64","303150","0.0-4.0-0.30","59","1","2022-11-13 08:34:56","a60ee176136a54a92dc2853177adfa2c","111.203.185.90","Mozilla/5.0 (Windows NT 10.0; WOW64) AppleWebKit/537.36 (KHTML, like Gecko) Chrome/92.0.4515.131 Safari/537.36 SLBrowser/8.0.0.10171 SLBChan/30","WebKit","Chrome","92.0.4515.131","Windows","10.0","null","<div style=""font-size:60px;"">+</div>","null",""
"","","","","","html-button-response","65","304989","0.0-4.0-1.30","59","1","2022-11-13 08:34:56","a60ee176136a54a92dc2853177adfa2c","111.203.185.90","Mozilla/5.0 (Windows NT 10.0; WOW64) AppleWebKit/537.36 (KHTML, like Gecko) Chrome/92.0.4515.131 Safari/537.36 SLBrowser/8.0.0.10171 SLBChan/30","WebKit","Chrome","92.0.4515.131","Windows","10.0","1835","<p>作为军队的指挥官，你可以选择发射导弹杀死 <strong>2名</strong> 敌国士兵，但会炸毁附近的 <strong>1棵</strong> 敌国树木。</p> <p>树木的照片如下图所示。</p> <p></p> <img src='stimuli/trees/15.png', style='max-width: 30%;'> </img> <p><strong>你是否选择发射武器？</strong></p>","1",""
"","","","","","html-keyboard-response","66","306001","0.0-4.0-0.31","59","1","2022-11-13 08:34:56","a60ee176136a54a92dc2853177adfa2c","111.203.185.90","Mozilla/5.0 (Windows NT 10.0; WOW64) AppleWebKit/537.36 (KHTML, like Gecko) Chrome/92.0.4515.131 Safari/537.36 SLBrowser/8.0.0.10171 SLBChan/30","WebKit","Chrome","92.0.4515.131","Windows","10.0","null","<div style=""font-size:60px;"">+</div>","null",""
"","","","","","html-button-response","67","307362","0.0-4.0-1.31","59","1","2022-11-13 08:34:56","a60ee176136a54a92dc2853177adfa2c","111.203.185.90","Mozilla/5.0 (Windows NT 10.0; WOW64) AppleWebKit/537.36 (KHTML, like Gecko) Chrome/92.0.4515.131 Safari/537.36 SLBrowser/8.0.0.10171 SLBChan/30","WebKit","Chrome","92.0.4515.131","Windows","10.0","1358","<p>作为军队的指挥官，你可以选择发射导弹杀死 <strong>1名</strong> 敌国士兵，但会炸毁附近的 <strong>1棵</strong> 敌国树木。</p> <p>树木的照片如下图所示。</p> <p></p> <img src='stimuli/trees/13.png', style='max-width: 30%;'> </img> <p><strong>你是否选择发射武器？</strong></p>","1",""
"","","","","","html-keyboard-response","68","308373","0.0-4.0-0.32","59","1","2022-11-13 08:34:56","a60ee176136a54a92dc2853177adfa2c","111.203.185.90","Mozilla/5.0 (Windows NT 10.0; WOW64) AppleWebKit/537.36 (KHTML, like Gecko) Chrome/92.0.4515.131 Safari/537.36 SLBrowser/8.0.0.10171 SLBChan/30","WebKit","Chrome","92.0.4515.131","Windows","10.0","null","<div style=""font-size:60px;"">+</div>","null",""
"","","","","","html-button-response","69","309998","0.0-4.0-1.32","59","1","2022-11-13 08:34:56","a60ee176136a54a92dc2853177adfa2c","111.203.185.90","Mozilla/5.0 (Windows NT 10.0; WOW64) AppleWebKit/537.36 (KHTML, like Gecko) Chrome/92.0.4515.131 Safari/537.36 SLBrowser/8.0.0.10171 SLBChan/30","WebKit","Chrome","92.0.4515.131","Windows","10.0","1622","<p>作为军队的指挥官，你可以选择发射导弹杀死 <strong>2名</strong> 敌国士兵，但会误杀附近的 <strong>1名</strong> 敌国平民。</p> <p>平民照片如下图所示。</p> <p></p> <img src='stimuli/faces/PCF5.jpg', style='max-width: 30%;'> </img> <p><strong>你是否选择发射武器？</strong></p>","1",""
"","","","","","html-keyboard-response","70","311014","0.0-4.0-0.33","59","1","2022-11-13 08:34:56","a60ee176136a54a92dc2853177adfa2c","111.203.185.90","Mozilla/5.0 (Windows NT 10.0; WOW64) AppleWebKit/537.36 (KHTML, like Gecko) Chrome/92.0.4515.131 Safari/537.36 SLBrowser/8.0.0.10171 SLBChan/30","WebKit","Chrome","92.0.4515.131","Windows","10.0","null","<div style=""font-size:60px;"">+</div>","null",""
"","","","","","html-button-response","71","319192","0.0-4.0-1.33","59","1","2022-11-13 08:34:56","a60ee176136a54a92dc2853177adfa2c","111.203.185.90","Mozilla/5.0 (Windows NT 10.0; WOW64) AppleWebKit/537.36 (KHTML, like Gecko) Chrome/92.0.4515.131 Safari/537.36 SLBrowser/8.0.0.10171 SLBChan/30","WebKit","Chrome","92.0.4515.131","Windows","10.0","8165","<p>作为军队的指挥官，你可以选择发射导弹杀死 <strong>6名</strong> 敌国士兵，但会炸毁附近的 <strong>1棵</strong> 敌国树木。</p> <p>树木的照片如下图所示。</p> <p></p> <img src='stimuli/trees/4.png', style='max-width: 30%;'> </img> <p><strong>你是否选择发射武器？</strong></p>","0",""
"","","","","","html-keyboard-response","72","320207","0.0-4.0-0.34","59","1","2022-11-13 08:34:56","a60ee176136a54a92dc2853177adfa2c","111.203.185.90","Mozilla/5.0 (Windows NT 10.0; WOW64) AppleWebKit/537.36 (KHTML, like Gecko) Chrome/92.0.4515.131 Safari/537.36 SLBrowser/8.0.0.10171 SLBChan/30","WebKit","Chrome","92.0.4515.131","Windows","10.0","null","<div style=""font-size:60px;"">+</div>","null",""
"","","","","","html-button-response","73","326581","0.0-4.0-1.34","59","1","2022-11-13 08:34:56","a60ee176136a54a92dc2853177adfa2c","111.203.185.90","Mozilla/5.0 (Windows NT 10.0; WOW64) AppleWebKit/537.36 (KHTML, like Gecko) Chrome/92.0.4515.131 Safari/537.36 SLBrowser/8.0.0.10171 SLBChan/30","WebKit","Chrome","92.0.4515.131","Windows","10.0","6372","<p>作为军队的指挥官，你可以选择发射导弹杀死 <strong>8名</strong> 敌国士兵，但会误杀附近的 <strong>1名</strong> 敌国平民。</p> <p>平民照片如下图所示。</p> <p></p> <img src='stimuli/faces/PCM1.jpg', style='max-width: 30%;'> </img> <p><strong>你是否选择发射武器？</strong></p>","0",""
"","","","","","html-keyboard-response","74","327597","0.0-4.0-0.35","59","1","2022-11-13 08:34:56","a60ee176136a54a92dc2853177adfa2c","111.203.185.90","Mozilla/5.0 (Windows NT 10.0; WOW64) AppleWebKit/537.36 (KHTML, like Gecko) Chrome/92.0.4515.131 Safari/537.36 SLBrowser/8.0.0.10171 SLBChan/30","WebKit","Chrome","92.0.4515.131","Windows","10.0","null","<div style=""font-size:60px;"">+</div>","null",""
"","","","","","html-button-response","75","330827","0.0-4.0-1.35","59","1","2022-11-13 08:34:56","a60ee176136a54a92dc2853177adfa2c","111.203.185.90","Mozilla/5.0 (Windows NT 10.0; WOW64) AppleWebKit/537.36 (KHTML, like Gecko) Chrome/92.0.4515.131 Safari/537.36 SLBrowser/8.0.0.10171 SLBChan/30","WebKit","Chrome","92.0.4515.131","Windows","10.0","3228","<p>作为军队的指挥官，你可以选择发射导弹杀死 <strong>4名</strong> 敌国士兵，但会误杀附近的 <strong>1名</strong> 敌国平民。</p> <p>平民照片如下图所示。</p> <p></p> <img src='stimuli/faces/PCF6.jpg', style='max-width: 30%;'> </img> <p><strong>你是否选择发射武器？</strong></p>","1",""
"","","","","","html-keyboard-response","76","331835","0.0-4.0-0.36","59","1","2022-11-13 08:34:56","a60ee176136a54a92dc2853177adfa2c","111.203.185.90","Mozilla/5.0 (Windows NT 10.0; WOW64) AppleWebKit/537.36 (KHTML, like Gecko) Chrome/92.0.4515.131 Safari/537.36 SLBrowser/8.0.0.10171 SLBChan/30","WebKit","Chrome","92.0.4515.131","Windows","10.0","null","<div style=""font-size:60px;"">+</div>","null",""
"","","","","","html-button-response","77","334600","0.0-4.0-1.36","59","1","2022-11-13 08:34:56","a60ee176136a54a92dc2853177adfa2c","111.203.185.90","Mozilla/5.0 (Windows NT 10.0; WOW64) AppleWebKit/537.36 (KHTML, like Gecko) Chrome/92.0.4515.131 Safari/537.36 SLBrowser/8.0.0.10171 SLBChan/30","WebKit","Chrome","92.0.4515.131","Windows","10.0","2762","<p>作为军队的指挥官，你可以选择发射导弹杀死 <strong>1名</strong> 敌国士兵，但会炸毁附近的 <strong>1棵</strong> 敌国树木。</p> <p>树木的照片如下图所示。</p> <p></p> <img src='stimuli/trees/9.png', style='max-width: 30%;'> </img> <p><strong>你是否选择发射武器？</strong></p>","1",""
"","","","","","html-keyboard-response","78","335611","0.0-4.0-0.37","59","1","2022-11-13 08:34:56","a60ee176136a54a92dc2853177adfa2c","111.203.185.90","Mozilla/5.0 (Windows NT 10.0; WOW64) AppleWebKit/537.36 (KHTML, like Gecko) Chrome/92.0.4515.131 Safari/537.36 SLBrowser/8.0.0.10171 SLBChan/30","WebKit","Chrome","92.0.4515.131","Windows","10.0","null","<div style=""font-size:60px;"">+</div>","null",""
"","","","","","html-button-response","79","338018","0.0-4.0-1.37","59","1","2022-11-13 08:34:56","a60ee176136a54a92dc2853177adfa2c","111.203.185.90","Mozilla/5.0 (Windows NT 10.0; WOW64) AppleWebKit/537.36 (KHTML, like Gecko) Chrome/92.0.4515.131 Safari/537.36 SLBrowser/8.0.0.10171 SLBChan/30","WebKit","Chrome","92.0.4515.131","Windows","10.0","2403","<p>作为军队的指挥官，你可以选择发射导弹杀死 <strong>4名</strong> 敌国士兵，但会误杀附近的 <strong>1名</strong> 敌国平民。</p> <p>平民照片如下图所示。</p> <p></p> <img src='stimuli/faces/PCM1.jpg', style='max-width: 30%;'> </img> <p><strong>你是否选择发射武器？</strong></p>","1",""
"","","","","","html-keyboard-response","80","339036","0.0-4.0-0.38","59","1","2022-11-13 08:34:56","a60ee176136a54a92dc2853177adfa2c","111.203.185.90","Mozilla/5.0 (Windows NT 10.0; WOW64) AppleWebKit/537.36 (KHTML, like Gecko) Chrome/92.0.4515.131 Safari/537.36 SLBrowser/8.0.0.10171 SLBChan/30","WebKit","Chrome","92.0.4515.131","Windows","10.0","null","<div style=""font-size:60px;"">+</div>","null",""
"","","","","","html-button-response","81","342467","0.0-4.0-1.38","59","1","2022-11-13 08:34:56","a60ee176136a54a92dc2853177adfa2c","111.203.185.90","Mozilla/5.0 (Windows NT 10.0; WOW64) AppleWebKit/537.36 (KHTML, like Gecko) Chrome/92.0.4515.131 Safari/537.36 SLBrowser/8.0.0.10171 SLBChan/30","WebKit","Chrome","92.0.4515.131","Windows","10.0","3429","<p>作为军队的指挥官，你可以选择发射导弹杀死 <strong>7名</strong> 敌国士兵，但会误杀附近的 <strong>1名</strong> 敌国平民。</p> <p>平民照片如下图所示。</p> <p></p> <img src='stimuli/faces/PCM7.jpg', style='max-width: 30%;'> </img> <p><strong>你是否选择发射武器？</strong></p>","0",""
"","","","","","html-keyboard-response","82","343477","0.0-4.0-0.39","59","1","2022-11-13 08:34:56","a60ee176136a54a92dc2853177adfa2c","111.203.185.90","Mozilla/5.0 (Windows NT 10.0; WOW64) AppleWebKit/537.36 (KHTML, like Gecko) Chrome/92.0.4515.131 Safari/537.36 SLBrowser/8.0.0.10171 SLBChan/30","WebKit","Chrome","92.0.4515.131","Windows","10.0","null","<div style=""font-size:60px;"">+</div>","null",""
"","","","","","html-button-response","83","350572","0.0-4.0-1.39","59","1","2022-11-13 08:34:56","a60ee176136a54a92dc2853177adfa2c","111.203.185.90","Mozilla/5.0 (Windows NT 10.0; WOW64) AppleWebKit/537.36 (KHTML, like Gecko) Chrome/92.0.4515.131 Safari/537.36 SLBrowser/8.0.0.10171 SLBChan/30","WebKit","Chrome","92.0.4515.131","Windows","10.0","7089","<p>作为军队的指挥官，你可以选择发射导弹杀死 <strong>8名</strong> 敌国士兵，但会误杀附近的 <strong>1名</strong> 敌国平民。</p> <p>平民照片如下图所示。</p> <p></p> <img src='stimuli/faces/PCF6.jpg', style='max-width: 30%;'> </img> <p><strong>你是否选择发射武器？</strong></p>","0",""
"","","","","","html-keyboard-response","84","351586","0.0-4.0-0.40","59","1","2022-11-13 08:34:56","a60ee176136a54a92dc2853177adfa2c","111.203.185.90","Mozilla/5.0 (Windows NT 10.0; WOW64) AppleWebKit/537.36 (KHTML, like Gecko) Chrome/92.0.4515.131 Safari/537.36 SLBrowser/8.0.0.10171 SLBChan/30","WebKit","Chrome","92.0.4515.131","Windows","10.0","null","<div style=""font-size:60px;"">+</div>","null",""
"","","","","","html-button-response","85","357178","0.0-4.0-1.40","59","1","2022-11-13 08:34:56","a60ee176136a54a92dc2853177adfa2c","111.203.185.90","Mozilla/5.0 (Windows NT 10.0; WOW64) AppleWebKit/537.36 (KHTML, like Gecko) Chrome/92.0.4515.131 Safari/537.36 SLBrowser/8.0.0.10171 SLBChan/30","WebKit","Chrome","92.0.4515.131","Windows","10.0","5587","<p>作为军队的指挥官，你可以选择发射导弹杀死 <strong>6名</strong> 敌国士兵，但会误杀附近的 <strong>1名</strong> 敌国平民。</p> <p>平民照片如下图所示。</p> <p></p> <img src='stimuli/faces/PCM6.jpg', style='max-width: 30%;'> </img> <p><strong>你是否选择发射武器？</strong></p>","0",""
"","","","","","html-keyboard-response","86","358187","0.0-4.0-0.41","59","1","2022-11-13 08:34:56","a60ee176136a54a92dc2853177adfa2c","111.203.185.90","Mozilla/5.0 (Windows NT 10.0; WOW64) AppleWebKit/537.36 (KHTML, like Gecko) Chrome/92.0.4515.131 Safari/537.36 SLBrowser/8.0.0.10171 SLBChan/30","WebKit","Chrome","92.0.4515.131","Windows","10.0","null","<div style=""font-size:60px;"">+</div>","null",""
"","","","","","html-button-response","87","360006","0.0-4.0-1.41","59","1","2022-11-13 08:34:56","a60ee176136a54a92dc2853177adfa2c","111.203.185.90","Mozilla/5.0 (Windows NT 10.0; WOW64) AppleWebKit/537.36 (KHTML, like Gecko) Chrome/92.0.4515.131 Safari/537.36 SLBrowser/8.0.0.10171 SLBChan/30","WebKit","Chrome","92.0.4515.131","Windows","10.0","1816","<p>作为军队的指挥官，你可以选择发射导弹杀死 <strong>1名</strong> 敌国士兵，但会误杀附近的 <strong>1名</strong> 敌国平民。</p> <p>平民照片如下图所示。</p> <p></p> <img src='stimuli/faces/PCM6.jpg', style='max-width: 30%;'> </img> <p><strong>你是否选择发射武器？</strong></p>","1",""
"","","","","","html-keyboard-response","88","361010","0.0-4.0-0.42","59","1","2022-11-13 08:34:56","a60ee176136a54a92dc2853177adfa2c","111.203.185.90","Mozilla/5.0 (Windows NT 10.0; WOW64) AppleWebKit/537.36 (KHTML, like Gecko) Chrome/92.0.4515.131 Safari/537.36 SLBrowser/8.0.0.10171 SLBChan/30","WebKit","Chrome","92.0.4515.131","Windows","10.0","null","<div style=""font-size:60px;"">+</div>","null",""
"","","","","","html-button-response","89","362551","0.0-4.0-1.42","59","1","2022-11-13 08:34:56","a60ee176136a54a92dc2853177adfa2c","111.203.185.90","Mozilla/5.0 (Windows NT 10.0; WOW64) AppleWebKit/537.36 (KHTML, like Gecko) Chrome/92.0.4515.131 Safari/537.36 SLBrowser/8.0.0.10171 SLBChan/30","WebKit","Chrome","92.0.4515.131","Windows","10.0","1539","<p>作为军队的指挥官，你可以选择发射导弹杀死 <strong>2名</strong> 敌国士兵，但会炸毁附近的 <strong>1棵</strong> 敌国树木。</p> <p>树木的照片如下图所示。</p> <p></p> <img src='stimuli/trees/4.png', style='max-width: 30%;'> </img> <p><strong>你是否选择发射武器？</strong></p>","1",""
"","","","","","html-keyboard-response","90","363567","0.0-4.0-0.43","59","1","2022-11-13 08:34:56","a60ee176136a54a92dc2853177adfa2c","111.203.185.90","Mozilla/5.0 (Windows NT 10.0; WOW64) AppleWebKit/537.36 (KHTML, like Gecko) Chrome/92.0.4515.131 Safari/537.36 SLBrowser/8.0.0.10171 SLBChan/30","WebKit","Chrome","92.0.4515.131","Windows","10.0","null","<div style=""font-size:60px;"">+</div>","null",""
"","","","","","html-button-response","91","368564","0.0-4.0-1.43","59","1","2022-11-13 08:34:56","a60ee176136a54a92dc2853177adfa2c","111.203.185.90","Mozilla/5.0 (Windows NT 10.0; WOW64) AppleWebKit/537.36 (KHTML, like Gecko) Chrome/92.0.4515.131 Safari/537.36 SLBrowser/8.0.0.10171 SLBChan/30","WebKit","Chrome","92.0.4515.131","Windows","10.0","4993","<p>作为军队的指挥官，你可以选择发射导弹杀死 <strong>1名</strong> 敌国士兵，但会误杀附近的 <strong>1名</strong> 敌国平民。</p> <p>平民照片如下图所示。</p> <p></p> <img src='stimuli/faces/PCM5.jpg', style='max-width: 30%;'> </img> <p><strong>你是否选择发射武器？</strong></p>","1",""
"","","","","","html-keyboard-response","92","369576","0.0-4.0-0.44","59","1","2022-11-13 08:34:56","a60ee176136a54a92dc2853177adfa2c","111.203.185.90","Mozilla/5.0 (Windows NT 10.0; WOW64) AppleWebKit/537.36 (KHTML, like Gecko) Chrome/92.0.4515.131 Safari/537.36 SLBrowser/8.0.0.10171 SLBChan/30","WebKit","Chrome","92.0.4515.131","Windows","10.0","null","<div style=""font-size:60px;"">+</div>","null",""
"","","","","","html-button-response","93","372833","0.0-4.0-1.44","59","1","2022-11-13 08:34:56","a60ee176136a54a92dc2853177adfa2c","111.203.185.90","Mozilla/5.0 (Windows NT 10.0; WOW64) AppleWebKit/537.36 (KHTML, like Gecko) Chrome/92.0.4515.131 Safari/537.36 SLBrowser/8.0.0.10171 SLBChan/30","WebKit","Chrome","92.0.4515.131","Windows","10.0","3254","<p>作为军队的指挥官，你可以选择发射导弹杀死 <strong>8名</strong> 敌国士兵，但会误杀附近的 <strong>1名</strong> 敌国平民。</p> <p>平民照片如下图所示。</p> <p></p> <img src='stimuli/faces/PCM3.jpg', style='max-width: 30%;'> </img> <p><strong>你是否选择发射武器？</strong></p>","0",""
"","","","","","html-keyboard-response","94","373848","0.0-4.0-0.45","59","1","2022-11-13 08:34:56","a60ee176136a54a92dc2853177adfa2c","111.203.185.90","Mozilla/5.0 (Windows NT 10.0; WOW64) AppleWebKit/537.36 (KHTML, like Gecko) Chrome/92.0.4515.131 Safari/537.36 SLBrowser/8.0.0.10171 SLBChan/30","WebKit","Chrome","92.0.4515.131","Windows","10.0","null","<div style=""font-size:60px;"">+</div>","null",""
"","","","","","html-button-response","95","375759","0.0-4.0-1.45","59","1","2022-11-13 08:34:56","a60ee176136a54a92dc2853177adfa2c","111.203.185.90","Mozilla/5.0 (Windows NT 10.0; WOW64) AppleWebKit/537.36 (KHTML, like Gecko) Chrome/92.0.4515.131 Safari/537.36 SLBrowser/8.0.0.10171 SLBChan/30","WebKit","Chrome","92.0.4515.131","Windows","10.0","1908","<p>作为军队的指挥官，你可以选择发射导弹杀死 <strong>1名</strong> 敌国士兵，但会炸毁附近的 <strong>1棵</strong> 敌国树木。</p> <p>树木的照片如下图所示。</p> <p></p> <img src='stimuli/trees/6.png', style='max-width: 30%;'> </img> <p><strong>你是否选择发射武器？</strong></p>","1",""
"","","","","","html-keyboard-response","96","376774","0.0-4.0-0.46","59","1","2022-11-13 08:34:56","a60ee176136a54a92dc2853177adfa2c","111.203.185.90","Mozilla/5.0 (Windows NT 10.0; WOW64) AppleWebKit/537.36 (KHTML, like Gecko) Chrome/92.0.4515.131 Safari/537.36 SLBrowser/8.0.0.10171 SLBChan/30","WebKit","Chrome","92.0.4515.131","Windows","10.0","null","<div style=""font-size:60px;"">+</div>","null",""
"","","","","","html-button-response","97","395482","0.0-4.0-1.46","59","1","2022-11-13 08:34:56","a60ee176136a54a92dc2853177adfa2c","111.203.185.90","Mozilla/5.0 (Windows NT 10.0; WOW64) AppleWebKit/537.36 (KHTML, like Gecko) Chrome/92.0.4515.131 Safari/537.36 SLBrowser/8.0.0.10171 SLBChan/30","WebKit","Chrome","92.0.4515.131","Windows","10.0","18704","<p>作为军队的指挥官，你可以选择发射导弹杀死 <strong>6名</strong> 敌国士兵，但会误杀附近的 <strong>1名</strong> 敌国平民。</p> <p>平民照片如下图所示。</p> <p></p> <img src='stimuli/faces/PCF2.jpg', style='max-width: 30%;'> </img> <p><strong>你是否选择发射武器？</strong></p>","1",""
"","","","","","html-keyboard-response","98","396493","0.0-4.0-0.47","59","1","2022-11-13 08:34:56","a60ee176136a54a92dc2853177adfa2c","111.203.185.90","Mozilla/5.0 (Windows NT 10.0; WOW64) AppleWebKit/537.36 (KHTML, like Gecko) Chrome/92.0.4515.131 Safari/537.36 SLBrowser/8.0.0.10171 SLBChan/30","WebKit","Chrome","92.0.4515.131","Windows","10.0","null","<div style=""font-size:60px;"">+</div>","null",""
"","","","","","html-button-response","99","399542","0.0-4.0-1.47","59","1","2022-11-13 08:34:56","a60ee176136a54a92dc2853177adfa2c","111.203.185.90","Mozilla/5.0 (Windows NT 10.0; WOW64) AppleWebKit/537.36 (KHTML, like Gecko) Chrome/92.0.4515.131 Safari/537.36 SLBrowser/8.0.0.10171 SLBChan/30","WebKit","Chrome","92.0.4515.131","Windows","10.0","3045","<p>作为军队的指挥官，你可以选择发射导弹杀死 <strong>4名</strong> 敌国士兵，但会炸毁附近的 <strong>1棵</strong> 敌国树木。</p> <p>树木的照片如下图所示。</p> <p></p> <img src='stimuli/trees/7.png', style='max-width: 30%;'> </img> <p><strong>你是否选择发射武器？</strong></p>","1",""
"","","","","","html-keyboard-response","100","400554","0.0-4.0-0.48","59","1","2022-11-13 08:34:56","a60ee176136a54a92dc2853177adfa2c","111.203.185.90","Mozilla/5.0 (Windows NT 10.0; WOW64) AppleWebKit/537.36 (KHTML, like Gecko) Chrome/92.0.4515.131 Safari/537.36 SLBrowser/8.0.0.10171 SLBChan/30","WebKit","Chrome","92.0.4515.131","Windows","10.0","null","<div style=""font-size:60px;"">+</div>","null",""
"","","","","","html-button-response","101","403904","0.0-4.0-1.48","59","1","2022-11-13 08:34:56","a60ee176136a54a92dc2853177adfa2c","111.203.185.90","Mozilla/5.0 (Windows NT 10.0; WOW64) AppleWebKit/537.36 (KHTML, like Gecko) Chrome/92.0.4515.131 Safari/537.36 SLBrowser/8.0.0.10171 SLBChan/30","WebKit","Chrome","92.0.4515.131","Windows","10.0","3346","<p>作为军队的指挥官，你可以选择发射导弹杀死 <strong>9名</strong> 敌国士兵，但会误杀附近的 <strong>1名</strong> 敌国平民。</p> <p>平民照片如下图所示。</p> <p></p> <img src='stimuli/faces/PCF7.jpg', style='max-width: 30%;'> </img> <p><strong>你是否选择发射武器？</strong></p>","0",""
"","","","","","html-keyboard-response","102","404922","0.0-4.0-0.49","59","1","2022-11-13 08:34:56","a60ee176136a54a92dc2853177adfa2c","111.203.185.90","Mozilla/5.0 (Windows NT 10.0; WOW64) AppleWebKit/537.36 (KHTML, like Gecko) Chrome/92.0.4515.131 Safari/537.36 SLBrowser/8.0.0.10171 SLBChan/30","WebKit","Chrome","92.0.4515.131","Windows","10.0","null","<div style=""font-size:60px;"">+</div>","null",""
"","","","","","html-button-response","103","409523","0.0-4.0-1.49","59","1","2022-11-13 08:34:56","a60ee176136a54a92dc2853177adfa2c","111.203.185.90","Mozilla/5.0 (Windows NT 10.0; WOW64) AppleWebKit/537.36 (KHTML, like Gecko) Chrome/92.0.4515.131 Safari/537.36 SLBrowser/8.0.0.10171 SLBChan/30","WebKit","Chrome","92.0.4515.131","Windows","10.0","4599","<p>作为军队的指挥官，你可以选择发射导弹杀死 <strong>3名</strong> 敌国士兵，但会炸毁附近的 <strong>1棵</strong> 敌国树木。</p> <p>树木的照片如下图所示。</p> <p></p> <img src='stimuli/trees/8.png', style='max-width: 30%;'> </img> <p><strong>你是否选择发射武器？</strong></p>","0",""
"","","","","","html-keyboard-response","104","410542","0.0-4.0-0.50","59","1","2022-11-13 08:34:56","a60ee176136a54a92dc2853177adfa2c","111.203.185.90","Mozilla/5.0 (Windows NT 10.0; WOW64) AppleWebKit/537.36 (KHTML, like Gecko) Chrome/92.0.4515.131 Safari/537.36 SLBrowser/8.0.0.10171 SLBChan/30","WebKit","Chrome","92.0.4515.131","Windows","10.0","null","<div style=""font-size:60px;"">+</div>","null",""
"","","","","","html-button-response","105","412579","0.0-4.0-1.50","59","1","2022-11-13 08:34:56","a60ee176136a54a92dc2853177adfa2c","111.203.185.90","Mozilla/5.0 (Windows NT 10.0; WOW64) AppleWebKit/537.36 (KHTML, like Gecko) Chrome/92.0.4515.131 Safari/537.36 SLBrowser/8.0.0.10171 SLBChan/30","WebKit","Chrome","92.0.4515.131","Windows","10.0","2033","<p>作为军队的指挥官，你可以选择发射导弹杀死 <strong>4名</strong> 敌国士兵，但会误杀附近的 <strong>1名</strong> 敌国平民。</p> <p>平民照片如下图所示。</p> <p></p> <img src='stimuli/faces/PCM3.jpg', style='max-width: 30%;'> </img> <p><strong>你是否选择发射武器？</strong></p>","1",""
"","","","","","html-keyboard-response","106","413582","0.0-4.0-0.51","59","1","2022-11-13 08:34:56","a60ee176136a54a92dc2853177adfa2c","111.203.185.90","Mozilla/5.0 (Windows NT 10.0; WOW64) AppleWebKit/537.36 (KHTML, like Gecko) Chrome/92.0.4515.131 Safari/537.36 SLBrowser/8.0.0.10171 SLBChan/30","WebKit","Chrome","92.0.4515.131","Windows","10.0","null","<div style=""font-size:60px;"">+</div>","null",""
"","","","","","html-button-response","107","419841","0.0-4.0-1.51","59","1","2022-11-13 08:34:56","a60ee176136a54a92dc2853177adfa2c","111.203.185.90","Mozilla/5.0 (Windows NT 10.0; WOW64) AppleWebKit/537.36 (KHTML, like Gecko) Chrome/92.0.4515.131 Safari/537.36 SLBrowser/8.0.0.10171 SLBChan/30","WebKit","Chrome","92.0.4515.131","Windows","10.0","6255","<p>作为军队的指挥官，你可以选择发射导弹杀死 <strong>6名</strong> 敌国士兵，但会误杀附近的 <strong>1名</strong> 敌国平民。</p> <p>平民照片如下图所示。</p> <p></p> <img src='stimuli/faces/PCF4.jpg', style='max-width: 30%;'> </img> <p><strong>你是否选择发射武器？</strong></p>","1",""
"","","","","","html-keyboard-response","108","420853","0.0-4.0-0.52","59","1","2022-11-13 08:34:56","a60ee176136a54a92dc2853177adfa2c","111.203.185.90","Mozilla/5.0 (Windows NT 10.0; WOW64) AppleWebKit/537.36 (KHTML, like Gecko) Chrome/92.0.4515.131 Safari/537.36 SLBrowser/8.0.0.10171 SLBChan/30","WebKit","Chrome","92.0.4515.131","Windows","10.0","null","<div style=""font-size:60px;"">+</div>","null",""
"","","","","","html-button-response","109","423005","0.0-4.0-1.52","59","1","2022-11-13 08:34:56","a60ee176136a54a92dc2853177adfa2c","111.203.185.90","Mozilla/5.0 (Windows NT 10.0; WOW64) AppleWebKit/537.36 (KHTML, like Gecko) Chrome/92.0.4515.131 Safari/537.36 SLBrowser/8.0.0.10171 SLBChan/30","WebKit","Chrome","92.0.4515.131","Windows","10.0","2148","<p>作为军队的指挥官，你可以选择发射导弹杀死 <strong>3名</strong> 敌国士兵，但会炸毁附近的 <strong>1棵</strong> 敌国树木。</p> <p>树木的照片如下图所示。</p> <p></p> <img src='stimuli/trees/3.png', style='max-width: 30%;'> </img> <p><strong>你是否选择发射武器？</strong></p>","1",""
"","","","","","html-keyboard-response","110","424022","0.0-4.0-0.53","59","1","2022-11-13 08:34:56","a60ee176136a54a92dc2853177adfa2c","111.203.185.90","Mozilla/5.0 (Windows NT 10.0; WOW64) AppleWebKit/537.36 (KHTML, like Gecko) Chrome/92.0.4515.131 Safari/537.36 SLBrowser/8.0.0.10171 SLBChan/30","WebKit","Chrome","92.0.4515.131","Windows","10.0","null","<div style=""font-size:60px;"">+</div>","null",""
"","","","","","html-button-response","111","427734","0.0-4.0-1.53","59","1","2022-11-13 08:34:56","a60ee176136a54a92dc2853177adfa2c","111.203.185.90","Mozilla/5.0 (Windows NT 10.0; WOW64) AppleWebKit/537.36 (KHTML, like Gecko) Chrome/92.0.4515.131 Safari/537.36 SLBrowser/8.0.0.10171 SLBChan/30","WebKit","Chrome","92.0.4515.131","Windows","10.0","3708","<p>作为军队的指挥官，你可以选择发射导弹杀死 <strong>5名</strong> 敌国士兵，但会误杀附近的 <strong>1名</strong> 敌国平民。</p> <p>平民照片如下图所示。</p> <p></p> <img src='stimuli/faces/PCF4.jpg', style='max-width: 30%;'> </img> <p><strong>你是否选择发射武器？</strong></p>","1",""
"","","","","","html-keyboard-response","112","428747","0.0-4.0-0.54","59","1","2022-11-13 08:34:56","a60ee176136a54a92dc2853177adfa2c","111.203.185.90","Mozilla/5.0 (Windows NT 10.0; WOW64) AppleWebKit/537.36 (KHTML, like Gecko) Chrome/92.0.4515.131 Safari/537.36 SLBrowser/8.0.0.10171 SLBChan/30","WebKit","Chrome","92.0.4515.131","Windows","10.0","null","<div style=""font-size:60px;"">+</div>","null",""
"","","","","","html-button-response","113","430888","0.0-4.0-1.54","59","1","2022-11-13 08:34:56","a60ee176136a54a92dc2853177adfa2c","111.203.185.90","Mozilla/5.0 (Windows NT 10.0; WOW64) AppleWebKit/537.36 (KHTML, like Gecko) Chrome/92.0.4515.131 Safari/537.36 SLBrowser/8.0.0.10171 SLBChan/30","WebKit","Chrome","92.0.4515.131","Windows","10.0","2138","<p>作为军队的指挥官，你可以选择发射导弹杀死 <strong>7名</strong> 敌国士兵，但会炸毁附近的 <strong>1棵</strong> 敌国树木。</p> <p>树木的照片如下图所示。</p> <p></p> <img src='stimuli/trees/11.png', style='max-width: 30%;'> </img> <p><strong>你是否选择发射武器？</strong></p>","0",""
"","","","","","html-keyboard-response","114","431906","0.0-4.0-0.55","59","1","2022-11-13 08:34:56","a60ee176136a54a92dc2853177adfa2c","111.203.185.90","Mozilla/5.0 (Windows NT 10.0; WOW64) AppleWebKit/537.36 (KHTML, like Gecko) Chrome/92.0.4515.131 Safari/537.36 SLBrowser/8.0.0.10171 SLBChan/30","WebKit","Chrome","92.0.4515.131","Windows","10.0","null","<div style=""font-size:60px;"">+</div>","null",""
"","","","","","html-button-response","115","435198","0.0-4.0-1.55","59","1","2022-11-13 08:34:56","a60ee176136a54a92dc2853177adfa2c","111.203.185.90","Mozilla/5.0 (Windows NT 10.0; WOW64) AppleWebKit/537.36 (KHTML, like Gecko) Chrome/92.0.4515.131 Safari/537.36 SLBrowser/8.0.0.10171 SLBChan/30","WebKit","Chrome","92.0.4515.131","Windows","10.0","3288","<p>作为军队的指挥官，你可以选择发射导弹杀死 <strong>10名</strong> 敌国士兵，但会炸毁附近的 <strong>1棵</strong> 敌国树木。</p> <p>树木的照片如下图所示。</p> <p></p> <img src='stimuli/trees/2.png', style='max-width: 30%;'> </img> <p><strong>你是否选择发射武器？</strong></p>","0",""
"","","","","","html-keyboard-response","116","436215","0.0-4.0-0.56","59","1","2022-11-13 08:34:56","a60ee176136a54a92dc2853177adfa2c","111.203.185.90","Mozilla/5.0 (Windows NT 10.0; WOW64) AppleWebKit/537.36 (KHTML, like Gecko) Chrome/92.0.4515.131 Safari/537.36 SLBrowser/8.0.0.10171 SLBChan/30","WebKit","Chrome","92.0.4515.131","Windows","10.0","null","<div style=""font-size:60px;"">+</div>","null",""
"","","","","","html-button-response","117","438181","0.0-4.0-1.56","59","1","2022-11-13 08:34:56","a60ee176136a54a92dc2853177adfa2c","111.203.185.90","Mozilla/5.0 (Windows NT 10.0; WOW64) AppleWebKit/537.36 (KHTML, like Gecko) Chrome/92.0.4515.131 Safari/537.36 SLBrowser/8.0.0.10171 SLBChan/30","WebKit","Chrome","92.0.4515.131","Windows","10.0","1960","<p>作为军队的指挥官，你可以选择发射导弹杀死 <strong>4名</strong> 敌国士兵，但会炸毁附近的 <strong>1棵</strong> 敌国树木。</p> <p>树木的照片如下图所示。</p> <p></p> <img src='stimuli/trees/2.png', style='max-width: 30%;'> </img> <p><strong>你是否选择发射武器？</strong></p>","0",""
"","","","","","html-keyboard-response","118","439183","0.0-4.0-0.57","59","1","2022-11-13 08:34:56","a60ee176136a54a92dc2853177adfa2c","111.203.185.90","Mozilla/5.0 (Windows NT 10.0; WOW64) AppleWebKit/537.36 (KHTML, like Gecko) Chrome/92.0.4515.131 Safari/537.36 SLBrowser/8.0.0.10171 SLBChan/30","WebKit","Chrome","92.0.4515.131","Windows","10.0","null","<div style=""font-size:60px;"">+</div>","null",""
"","","","","","html-button-response","119","441462","0.0-4.0-1.57","59","1","2022-11-13 08:34:56","a60ee176136a54a92dc2853177adfa2c","111.203.185.90","Mozilla/5.0 (Windows NT 10.0; WOW64) AppleWebKit/537.36 (KHTML, like Gecko) Chrome/92.0.4515.131 Safari/537.36 SLBrowser/8.0.0.10171 SLBChan/30","WebKit","Chrome","92.0.4515.131","Windows","10.0","2273","<p>作为军队的指挥官，你可以选择发射导弹杀死 <strong>2名</strong> 敌国士兵，但会炸毁附近的 <strong>1棵</strong> 敌国树木。</p> <p>树木的照片如下图所示。</p> <p></p> <img src='stimuli/trees/14.png', style='max-width: 30%;'> </img> <p><strong>你是否选择发射武器？</strong></p>","1",""
"","","","","","html-keyboard-response","120","442480","0.0-4.0-0.58","59","1","2022-11-13 08:34:56","a60ee176136a54a92dc2853177adfa2c","111.203.185.90","Mozilla/5.0 (Windows NT 10.0; WOW64) AppleWebKit/537.36 (KHTML, like Gecko) Chrome/92.0.4515.131 Safari/537.36 SLBrowser/8.0.0.10171 SLBChan/30","WebKit","Chrome","92.0.4515.131","Windows","10.0","null","<div style=""font-size:60px;"">+</div>","null",""
"","","","","","html-button-response","121","451344","0.0-4.0-1.58","59","1","2022-11-13 08:34:56","a60ee176136a54a92dc2853177adfa2c","111.203.185.90","Mozilla/5.0 (Windows NT 10.0; WOW64) AppleWebKit/537.36 (KHTML, like Gecko) Chrome/92.0.4515.131 Safari/537.36 SLBrowser/8.0.0.10171 SLBChan/30","WebKit","Chrome","92.0.4515.131","Windows","10.0","8858","<p>作为军队的指挥官，你可以选择发射导弹杀死 <strong>7名</strong> 敌国士兵，但会误杀附近的 <strong>1名</strong> 敌国平民。</p> <p>平民照片如下图所示。</p> <p></p> <img src='stimuli/faces/PCF1.jpg', style='max-width: 30%;'> </img> <p><strong>你是否选择发射武器？</strong></p>","1",""
"","","","","","html-keyboard-response","122","452358","0.0-4.0-0.59","59","1","2022-11-13 08:34:56","a60ee176136a54a92dc2853177adfa2c","111.203.185.90","Mozilla/5.0 (Windows NT 10.0; WOW64) AppleWebKit/537.36 (KHTML, like Gecko) Chrome/92.0.4515.131 Safari/537.36 SLBrowser/8.0.0.10171 SLBChan/30","WebKit","Chrome","92.0.4515.131","Windows","10.0","null","<div style=""font-size:60px;"">+</div>","null",""
"","","","","","html-button-response","123","454674","0.0-4.0-1.59","59","1","2022-11-13 08:34:56","a60ee176136a54a92dc2853177adfa2c","111.203.185.90","Mozilla/5.0 (Windows NT 10.0; WOW64) AppleWebKit/537.36 (KHTML, like Gecko) Chrome/92.0.4515.131 Safari/537.36 SLBrowser/8.0.0.10171 SLBChan/30","WebKit","Chrome","92.0.4515.131","Windows","10.0","2311","<p>作为军队的指挥官，你可以选择发射导弹杀死 <strong>8名</strong> 敌国士兵，但会炸毁附近的 <strong>1棵</strong> 敌国树木。</p> <p>树木的照片如下图所示。</p> <p></p> <img src='stimuli/trees/9.png', style='max-width: 30%;'> </img> <p><strong>你是否选择发射武器？</strong></p>","0",""
"","","","","","html-keyboard-response","124","455688","0.0-4.0-0.60","59","1","2022-11-13 08:34:56","a60ee176136a54a92dc2853177adfa2c","111.203.185.90","Mozilla/5.0 (Windows NT 10.0; WOW64) AppleWebKit/537.36 (KHTML, like Gecko) Chrome/92.0.4515.131 Safari/537.36 SLBrowser/8.0.0.10171 SLBChan/30","WebKit","Chrome","92.0.4515.131","Windows","10.0","null","<div style=""font-size:60px;"">+</div>","null",""
"","","","","","html-button-response","125","458983","0.0-4.0-1.60","59","1","2022-11-13 08:34:56","a60ee176136a54a92dc2853177adfa2c","111.203.185.90","Mozilla/5.0 (Windows NT 10.0; WOW64) AppleWebKit/537.36 (KHTML, like Gecko) Chrome/92.0.4515.131 Safari/537.36 SLBrowser/8.0.0.10171 SLBChan/30","WebKit","Chrome","92.0.4515.131","Windows","10.0","3290","<p>作为军队的指挥官，你可以选择发射导弹杀死 <strong>7名</strong> 敌国士兵，但会炸毁附近的 <strong>1棵</strong> 敌国树木。</p> <p>树木的照片如下图所示。</p> <p></p> <img src='stimuli/trees/6.png', style='max-width: 30%;'> </img> <p><strong>你是否选择发射武器？</strong></p>","1",""
"","","","","","html-keyboard-response","126","459990","0.0-4.0-0.61","59","1","2022-11-13 08:34:56","a60ee176136a54a92dc2853177adfa2c","111.203.185.90","Mozilla/5.0 (Windows NT 10.0; WOW64) AppleWebKit/537.36 (KHTML, like Gecko) Chrome/92.0.4515.131 Safari/537.36 SLBrowser/8.0.0.10171 SLBChan/30","WebKit","Chrome","92.0.4515.131","Windows","10.0","null","<div style=""font-size:60px;"">+</div>","null",""
"","","","","","html-button-response","127","461670","0.0-4.0-1.61","59","1","2022-11-13 08:34:56","a60ee176136a54a92dc2853177adfa2c","111.203.185.90","Mozilla/5.0 (Windows NT 10.0; WOW64) AppleWebKit/537.36 (KHTML, like Gecko) Chrome/92.0.4515.131 Safari/537.36 SLBrowser/8.0.0.10171 SLBChan/30","WebKit","Chrome","92.0.4515.131","Windows","10.0","1675","<p>作为军队的指挥官，你可以选择发射导弹杀死 <strong>2名</strong> 敌国士兵，但会误杀附近的 <strong>1名</strong> 敌国平民。</p> <p>平民照片如下图所示。</p> <p></p> <img src='stimuli/faces/PCM4.jpg', style='max-width: 30%;'> </img> <p><strong>你是否选择发射武器？</strong></p>","1",""
"","","","","","html-keyboard-response","128","462683","0.0-4.0-0.62","59","1","2022-11-13 08:34:56","a60ee176136a54a92dc2853177adfa2c","111.203.185.90","Mozilla/5.0 (Windows NT 10.0; WOW64) AppleWebKit/537.36 (KHTML, like Gecko) Chrome/92.0.4515.131 Safari/537.36 SLBrowser/8.0.0.10171 SLBChan/30","WebKit","Chrome","92.0.4515.131","Windows","10.0","null","<div style=""font-size:60px;"">+</div>","null",""
"","","","","","html-button-response","129","463922","0.0-4.0-1.62","59","1","2022-11-13 08:34:56","a60ee176136a54a92dc2853177adfa2c","111.203.185.90","Mozilla/5.0 (Windows NT 10.0; WOW64) AppleWebKit/537.36 (KHTML, like Gecko) Chrome/92.0.4515.131 Safari/537.36 SLBrowser/8.0.0.10171 SLBChan/30","WebKit","Chrome","92.0.4515.131","Windows","10.0","1236","<p>作为军队的指挥官，你可以选择发射导弹杀死 <strong>1名</strong> 敌国士兵，但会炸毁附近的 <strong>1棵</strong> 敌国树木。</p> <p>树木的照片如下图所示。</p> <p></p> <img src='stimuli/trees/10.png', style='max-width: 30%;'> </img> <p><strong>你是否选择发射武器？</strong></p>","1",""
"","","","","","html-keyboard-response","130","464932","0.0-4.0-0.63","59","1","2022-11-13 08:34:56","a60ee176136a54a92dc2853177adfa2c","111.203.185.90","Mozilla/5.0 (Windows NT 10.0; WOW64) AppleWebKit/537.36 (KHTML, like Gecko) Chrome/92.0.4515.131 Safari/537.36 SLBrowser/8.0.0.10171 SLBChan/30","WebKit","Chrome","92.0.4515.131","Windows","10.0","null","<div style=""font-size:60px;"">+</div>","null",""
"","","","","","html-button-response","131","470039","0.0-4.0-1.63","59","1","2022-11-13 08:34:56","a60ee176136a54a92dc2853177adfa2c","111.203.185.90","Mozilla/5.0 (Windows NT 10.0; WOW64) AppleWebKit/537.36 (KHTML, like Gecko) Chrome/92.0.4515.131 Safari/537.36 SLBrowser/8.0.0.10171 SLBChan/30","WebKit","Chrome","92.0.4515.131","Windows","10.0","5103","<p>作为军队的指挥官，你可以选择发射导弹杀死 <strong>6名</strong> 敌国士兵，但会炸毁附近的 <strong>1棵</strong> 敌国树木。</p> <p>树木的照片如下图所示。</p> <p></p> <img src='stimuli/trees/13.png', style='max-width: 30%;'> </img> <p><strong>你是否选择发射武器？</strong></p>","0",""
"","","","","","survey-multi-choice","132","494238","0.0-5.0","59","1","2022-11-13 08:34:56","a60ee176136a54a92dc2853177adfa2c","111.203.185.90","Mozilla/5.0 (Windows NT 10.0; WOW64) AppleWebKit/537.36 (KHTML, like Gecko) Chrome/92.0.4515.131 Safari/537.36 SLBrowser/8.0.0.10171 SLBChan/30","WebKit","Chrome","92.0.4515.131","Windows","10.0","24196","","{""Attention1"":""""}","[0]"
"","","","","","html-button-response","133","508424","0.0-6.0","59","1","2022-11-13 08:34:56","a60ee176136a54a92dc2853177adfa2c","111.203.185.90","Mozilla/5.0 (Windows NT 10.0; WOW64) AppleWebKit/537.36 (KHTML, like Gecko) Chrome/92.0.4515.131 Safari/537.36 SLBrowser/8.0.0.10171 SLBChan/30","WebKit","Chrome","92.0.4515.131","Windows","10.0","14178","<p style=""font-size:20px;font-weight:bold;"">恭喜！</p><p>你已经完成了实验的第一部分。</p><p>请休息放松一下，然后进入第二部分。</p><p>这部分大约需要10分钟。</p>","0",""
"","","","","","survey-text","134","534793","0.0-7.0","59","1","2022-11-13 08:34:56","a60ee176136a54a92dc2853177adfa2c","111.203.185.90","Mozilla/5.0 (Windows NT 10.0; WOW64) AppleWebKit/537.36 (KHTML, like Gecko) Chrome/92.0.4515.131 Safari/537.36 SLBrowser/8.0.0.10171 SLBChan/30","WebKit","Chrome","92.0.4515.131","Windows","10.0","25343","","{""Age"":""20"",""Nation"":""中国"",""Born"":""山西省"",""Live"":""北京市"",""Ethnic"":""汉族"",""Alipay"":""13552745675""}",""
"","","","","","survey-multi-choice","135","639501","0.0-8.0","59","1","2022-11-13 08:34:56","a60ee176136a54a92dc2853177adfa2c","111.203.185.90","Mozilla/5.0 (Windows NT 10.0; WOW64) AppleWebKit/537.36 (KHTML, like Gecko) Chrome/92.0.4515.131 Safari/537.36 SLBrowser/8.0.0.10171 SLBChan/30","WebKit","Chrome","92.0.4515.131","Windows","10.0","104701","","{""Gender"":""女"",""Education"":""本科毕业"",""Income"":""￥140,000-￥269,999"",""Children"":""2"",""Race"":""亚洲人""}","[0,1,2,3,4]"
"","","","","","survey-multi-select","136","649386","0.0-9.0","59","1","2022-11-13 08:34:56","a60ee176136a54a92dc2853177adfa2c","111.203.185.90","Mozilla/5.0 (Windows NT 10.0; WOW64) AppleWebKit/537.36 (KHTML, like Gecko) Chrome/92.0.4515.131 Safari/537.36 SLBrowser/8.0.0.10171 SLBChan/30","WebKit","Chrome","92.0.4515.131","Windows","10.0","9872","","{""Marriage"":[""未婚""],""Religion"":[""无宗教信仰""]}","[0,1]"
"","","","","","survey-multi-choice","137","682981","0.0-10.0","59","1","2022-11-13 08:34:56","a60ee176136a54a92dc2853177adfa2c","111.203.185.90","Mozilla/5.0 (Windows NT 10.0; WOW64) AppleWebKit/537.36 (KHTML, like Gecko) Chrome/92.0.4515.131 Safari/537.36 SLBrowser/8.0.0.10171 SLBChan/30","WebKit","Chrome","92.0.4515.131","Windows","10.0","33583","","{""SES"":""5""}","[0]"
"","","","","","html-button-response","138","687298","0.0-11.0","59","1","2022-11-13 08:34:56","a60ee176136a54a92dc2853177adfa2c","111.203.185.90","Mozilla/5.0 (Windows NT 10.0; WOW64) AppleWebKit/537.36 (KHTML, like Gecko) Chrome/92.0.4515.131 Safari/537.36 SLBrowser/8.0.0.10171 SLBChan/30","WebKit","Chrome","92.0.4515.131","Windows","10.0","4310","<p><strong>请判断下列陈述在多大程度上可以形容你？</p><p> (1 = ""和我一点都不像"" to 5 = ""非常像我"".)</strong></p>","0",""
"","","","","","survey-likert","139","746918","0.0-12.0","59","1","2022-11-13 08:34:56","a60ee176136a54a92dc2853177adfa2c","111.203.185.90","Mozilla/5.0 (Windows NT 10.0; WOW64) AppleWebKit/537.36 (KHTML, like Gecko) Chrome/92.0.4515.131 Safari/537.36 SLBrowser/8.0.0.10171 SLBChan/30","WebKit","Chrome","92.0.4515.131","Windows","10.0","59615","","{""Aggression1"":1,""Aggression2"":1,""Aggression3"":3,""Aggression4"":0,""Aggression5"":2,""Aggression6"":2,""Aggression7"":1,""Aggression8"":1,""Aggression9"":1}","[0,1,2,3,4,5,6,7,8]"
"","","","","","html-button-response","140","749053","0.0-13.0","59","1","2022-11-13 08:34:56","a60ee176136a54a92dc2853177adfa2c","111.203.185.90","Mozilla/5.0 (Windows NT 10.0; WOW64) AppleWebKit/537.36 (KHTML, like Gecko) Chrome/92.0.4515.131 Safari/537.36 SLBrowser/8.0.0.10171 SLBChan/30","WebKit","Chrome","92.0.4515.131","Windows","10.0","2131","<p><strong>请判断你在多大程度上同意下列陈述。</strong></p>","0",""
"","","","","","survey-likert","141","967778","0.0-14.0","59","1","2022-11-13 08:34:56","a60ee176136a54a92dc2853177adfa2c","111.203.185.90","Mozilla/5.0 (Windows NT 10.0; WOW64) AppleWebKit/537.36 (KHTML, like Gecko) Chrome/92.0.4515.131 Safari/537.36 SLBrowser/8.0.0.10171 SLBChan/30","WebKit","Chrome","92.0.4515.131","Windows","10.0","218718","","{""scale8"":3,""scale21"":4,""scale17"":1,""scale25"":2,""scale22"":3,""scale26"":3,""scale28"":3,""scale3"":3,""scale24"":1,""scale14"":2,""scale13"":3,""scale12"":0,""scale9"":3,""scale18"":0,""scale11"":3,""scale27"":2,""scale5"":2,""scale10"":2,""scale20"":3,""scale23"":1,""scale1"":3,""scale2"":2,""scale7"":2,""scale16"":1,""scale6"":2,""scale19"":2,""scale15"":1,""scale4"":1}","[7,20,16,24,21,25,27,2,23,13,12,11,8,17,10,26,4,9,19,22,0,1,6,15,5,18,14,3]"
"","","","","","html-button-response","142","969549","0.0-15.0","59","1","2022-11-13 08:34:56","a60ee176136a54a92dc2853177adfa2c","111.203.185.90","Mozilla/5.0 (Windows NT 10.0; WOW64) AppleWebKit/537.36 (KHTML, like Gecko) Chrome/92.0.4515.131 Safari/537.36 SLBrowser/8.0.0.10171 SLBChan/30","WebKit","Chrome","92.0.4515.131","Windows","10.0","1761","<p><strong>请判断你在多大程度上同意下列陈述。</strong></p>","0",""
"","","","","","survey-likert","143","1096801","0.0-16.0","59","1","2022-11-13 08:34:56","a60ee176136a54a92dc2853177adfa2c","111.203.185.90","Mozilla/5.0 (Windows NT 10.0; WOW64) AppleWebKit/537.36 (KHTML, like Gecko) Chrome/92.0.4515.131 Safari/537.36 SLBrowser/8.0.0.10171 SLBChan/30","WebKit","Chrome","92.0.4515.131","Windows","10.0","127241","","{""sdo16"":5,""sdo2"":4,""sdo12"":5,""sdo14"":5,""sdo3"":2,""sdo7"":2,""sdo13"":5,""sdo10"":5,""sdo5"":1,""sdo1"":1,""sdo11"":5,""sdo4"":2,""sdo15"":5,""sdo8"":3,""sdo6"":2,""sdo9"":4}","[15,1,11,13,2,6,12,9,4,0,10,3,14,7,5,8]"
"","","","","","html-button-response","144","1098527","0.0-17.0","59","1","2022-11-13 08:34:56","a60ee176136a54a92dc2853177adfa2c","111.203.185.90","Mozilla/5.0 (Windows NT 10.0; WOW64) AppleWebKit/537.36 (KHTML, like Gecko) Chrome/92.0.4515.131 Safari/537.36 SLBrowser/8.0.0.10171 SLBChan/30","WebKit","Chrome","92.0.4515.131","Windows","10.0","1715","<p><strong>请判断你在多大程度上同意下列陈述。</strong></p>","0",""
"","","","","","survey-likert","145","1176399","0.0-18.0","59","1","2022-11-13 08:34:56","a60ee176136a54a92dc2853177adfa2c","111.203.185.90","Mozilla/5.0 (Windows NT 10.0; WOW64) AppleWebKit/537.36 (KHTML, like Gecko) Chrome/92.0.4515.131 Safari/537.36 SLBrowser/8.0.0.10171 SLBChan/30","WebKit","Chrome","92.0.4515.131","Windows","10.0","77865","","{""caring1"":1,""liking1"":2,""caring2"":3,""protection1"":3,""liking2"":3,""caring3"":3,""protection2"":1,""liking3"":2,""protection3"":2,""caring4"":3,""liking4"":3,""protection4"":2,""caring5"":3,""liking5"":3,""protection5"":1}","[0,1,2,3,4,5,6,7,8,9,10,11,12,13,14]"
"","","","","","html-button-response","146","1178043","0.0-19.0","59","1","2022-11-13 08:34:56","a60ee176136a54a92dc2853177adfa2c","111.203.185.90","Mozilla/5.0 (Windows NT 10.0; WOW64) AppleWebKit/537.36 (KHTML, like Gecko) Chrome/92.0.4515.131 Safari/537.36 SLBrowser/8.0.0.10171 SLBChan/30","WebKit","Chrome","92.0.4515.131","Windows","10.0","1638","<p><strong>请判断下列场景中你的内心感受有多柔软。</strong></p>","0",""
"","","","","","survey-likert","147","1227738","0.0-20.0","59","1","2022-11-13 08:34:56","a60ee176136a54a92dc2853177adfa2c","111.203.185.90","Mozilla/5.0 (Windows NT 10.0; WOW64) AppleWebKit/537.36 (KHTML, like Gecko) Chrome/92.0.4515.131 Safari/537.36 SLBrowser/8.0.0.10171 SLBChan/30","WebKit","Chrome","92.0.4515.131","Windows","10.0","49690","","{""tenderness-positive1"":3,""tenderness-negative1"":3,""tenderness-negative2"":1,""tenderness-positive2"":3,""tenderness-positive3"":4,""tenderness-negative3"":1,""tenderness-positive4"":4,""tenderness-negative4"":3,""tenderness-negative5"":3,""tenderness-positive5"":4}","[0,1,2,3,4,5,6,7,8,9]"
"","","","","","survey-multi-choice","148","1240815","0.0-21.0","59","1","2022-11-13 08:34:56","a60ee176136a54a92dc2853177adfa2c","111.203.185.90","Mozilla/5.0 (Windows NT 10.0; WOW64) AppleWebKit/537.36 (KHTML, like Gecko) Chrome/92.0.4515.131 Safari/537.36 SLBrowser/8.0.0.10171 SLBChan/30","WebKit","Chrome","92.0.4515.131","Windows","10.0","13068","","{""Attention2"":""其他""}","[0]"
"","","","","","html-button-response","149","1242692","0.0-22.0","59","1","2022-11-13 08:34:56","a60ee176136a54a92dc2853177adfa2c","111.203.185.90","Mozilla/5.0 (Windows NT 10.0; WOW64) AppleWebKit/537.36 (KHTML, like Gecko) Chrome/92.0.4515.131 Safari/537.36 SLBrowser/8.0.0.10171 SLBChan/30","WebKit","Chrome","92.0.4515.131","Windows","10.0","1871","<p><strong>请判断你在多大程度上同意下列陈述。</strong></p>","0",""
"","","","","","survey-likert","150","1366252","0.0-23.0","59","1","2022-11-13 08:34:56","a60ee176136a54a92dc2853177adfa2c","111.203.185.90","Mozilla/5.0 (Windows NT 10.0; WOW64) AppleWebKit/537.36 (KHTML, like Gecko) Chrome/92.0.4515.131 Safari/537.36 SLBrowser/8.0.0.10171 SLBChan/30","WebKit","Chrome","92.0.4515.131","Windows","10.0","123552","","{""Nation3"":1,""Patri12"":0,""Nation1"":4,""Patri9"":1,""Patri7"":4,""Patri11"":0,""Patri1"":4,""Patri4"":4,""Patri10"":0,""Nation6"":4,""Patri5"":4,""Nation4"":3,""Patri8"":3,""Nation5"":3,""Nation8"":1,""Patri6"":1,""Nation2"":3,""Nation7"":4,""Patri3"":4,""Patri2"":4}","[14,11,12,8,6,10,0,3,9,17,4,15,7,16,19,5,13,18,2,1]"
"","","","","","html-button-response","151","1367792","0.0-24.0","59","1","2022-11-13 08:34:56","a60ee176136a54a92dc2853177adfa2c","111.203.185.90","Mozilla/5.0 (Windows NT 10.0; WOW64) AppleWebKit/537.36 (KHTML, like Gecko) Chrome/92.0.4515.131 Safari/537.36 SLBrowser/8.0.0.10171 SLBChan/30","WebKit","Chrome","92.0.4515.131","Windows","10.0","1533","<p><strong>请判断你在多大程度上同意下列陈述。</strong></p>","0",""
"","","","","","survey-likert","152","1470508","0.0-25.0","59","1","2022-11-13 08:34:56","a60ee176136a54a92dc2853177adfa2c","111.203.185.90","Mozilla/5.0 (Windows NT 10.0; WOW64) AppleWebKit/537.36 (KHTML, like Gecko) Chrome/92.0.4515.131 Safari/537.36 SLBrowser/8.0.0.10171 SLBChan/30","WebKit","Chrome","92.0.4515.131","Windows","10.0","102709","","{""vi3"":6,""Robot"":6,""hc2"":5,""vi2"":3,""vi4"":4,""hc4"":5,""hc1"":5,""hi4"":6,""hi1"":8,""hc3"":5,""vc2"":5,""vc3"":5,""vi1"":6,""vc4"":5,""hi2"":7,""hi3"":3,""vc1"":6}","[6,7,10,5,8,12,9,3,0,11,14,15,4,16,1,2,13]"
"","","","","","survey-text","153","1527160","0.0-26.0","59","1","2022-11-13 08:34:56","a60ee176136a54a92dc2853177adfa2c","111.203.185.90","Mozilla/5.0 (Windows NT 10.0; WOW64) AppleWebKit/537.36 (KHTML, like Gecko) Chrome/92.0.4515.131 Safari/537.36 SLBrowser/8.0.0.10171 SLBChan/30","WebKit","Chrome","92.0.4515.131","Windows","10.0","56637","","{""Comments"":""评分直接从有一点同意跳到了非常同意，跨度过大""}",""
"","","","","","html-button-response","154","1528703","0.0-27.0","59","1","2022-11-13 08:34:56","a60ee176136a54a92dc2853177adfa2c","111.203.185.90","Mozilla/5.0 (Windows NT 10.0; WOW64) AppleWebKit/537.36 (KHTML, like Gecko) Chrome/92.0.4515.131 Safari/537.36 SLBrowser/8.0.0.10171 SLBChan/30","WebKit","Chrome","92.0.4515.131","Windows","10.0","1538","<strong><p>恭喜你完成了实验！</p><p>感谢您的参与。</p></strong>","0",""
