"success","timeout","failed_images","failed_audio","failed_video","trial_type","trial_index","time_elapsed","internal_node_id","run_id","condition","recorded_at","source_code_version","ip","user_agent","device","browser","browser_version","platform","platform_version","rt","stimulus","response","question_order"
"true","false","[]","[]","[]","preload","0","2629","0.0-0.0","61","1","2022-11-13 08:36:01","a60ee176136a54a92dc2853177adfa2c","124.160.213.244","Mozilla/5.0 (Linux; Android 12; SAMSUNG SM-G973U1) AppleWebKit/537.36 (KHTML, like Gecko) SamsungBrowser/19.0 Chrome/102.0.5005.125 Mobile Safari/537.36","Samsung","Chrome","102.0.5005.125","AndroidOS","12","","","",""
"true","","","","","fullscreen","1","10282","0.0-1.0","61","1","2022-11-13 08:36:01","a60ee176136a54a92dc2853177adfa2c","124.160.213.244","Mozilla/5.0 (Linux; Android 12; SAMSUNG SM-G973U1) AppleWebKit/537.36 (KHTML, like Gecko) SamsungBrowser/19.0 Chrome/102.0.5005.125 Mobile Safari/537.36","Samsung","Chrome","102.0.5005.125","AndroidOS","12","","","",""
"","","","","","html-button-response","2","26511","0.0-2.0","61","1","2022-11-13 08:36:01","a60ee176136a54a92dc2853177adfa2c","124.160.213.244","Mozilla/5.0 (Linux; Android 12; SAMSUNG SM-G973U1) AppleWebKit/537.36 (KHTML, like Gecko) SamsungBrowser/19.0 Chrome/102.0.5005.125 Mobile Safari/537.36","Samsung","Chrome","102.0.5005.125","AndroidOS","12","16219","<p style=""font-size:20px;font-weight:bold;"">实验知情同意书</p><p style=""text-align:left;""><strong>实验名称：</strong>社会冲突研究</p><p style=""text-align:left;""><strong>主要研究者：</strong>韩晓春副教授（北京师范大学心理学部）</p><p style=""text-align:left;""><strong>联系方式：</strong>发送邮件至xiaochun.han@bnu.edu.cn</p><p style=""text-align:left;""><strong>研究目的：</strong>研究旨在了解人类面对群体冲突时的决策方式，以及相关的心理学特质。实验调查大约需要20分钟。</p><p style=""text-align:left;""><strong>实验流程：</strong>实验包含两部分。第一部分呈现一系列群体冲突场景，请你决定如何对这些冲突进行反应，大约需要10分钟完成。第二部分包含一系列人口统计学信息收集和心理学问卷，大约需要10分钟完成。</p><p style=""text-align:left;""><strong>参加及退出规则：</strong>参加本实验完全取决于您的个人意愿。在参与过程中，您可以随时退出，并且不用承担任何后果。</p><p style=""text-align:left;""><strong>隐私：</strong>本实验完全匿名进行，不会收集您的姓名或其他能够识别您身份的信息。实验中收集的作答仅用作科学研究使用，可能会在学术期刊/书籍上发表，或者用于教学，您的数据未来可能会和其他研究者或实验室分享，但您的个人身份不会被识别。</p><p style=""text-align:left;""><strong>实验报酬：</strong>实验完成后，您将获得15元人民币报酬，以感谢您的时间和努力。调查问卷中包含几道题目用以测验您作答时的认真度。只有完成全部实验，并且正确回答认真度测验的被试才能获得实验报酬。实验报酬将通过支付宝转账发放。</p><p style=""text-align:left;font-size:20px;""><strong>如果您同意以上实验知情同意书的内容，请点击'同意并且开始实验'按钮；否则请关闭浏览器界面，退出实验。</strong></p>","0",""
"","","","","","html-button-response","3","44913","0.0-3.0","61","1","2022-11-13 08:36:01","a60ee176136a54a92dc2853177adfa2c","124.160.213.244","Mozilla/5.0 (Linux; Android 12; SAMSUNG SM-G973U1) AppleWebKit/537.36 (KHTML, like Gecko) SamsungBrowser/19.0 Chrome/102.0.5005.125 Mobile Safari/537.36","Samsung","Chrome","102.0.5005.125","AndroidOS","12","18396","<p ><strong>实验任务一：</strong></p><p>请想象你的国家与另一个国家发生了军事冲突。</p><p>你是国家军队的指挥官，你将如何在冲突中进行决策。</p><p>具体来说，作为军队指挥官，请你决定是否发射导弹进行打击。</p><p>接下来，你会面对一系列场景，请仔细阅读每个场景，然后进行决策。</p><p>这部分实验任务大约需要10分钟。</p><p><strong>实验过程中，请集中注意力。</strong></p>","0",""
"","","","","","html-keyboard-response","4","45919","0.0-4.0-0.0","61","1","2022-11-13 08:36:01","a60ee176136a54a92dc2853177adfa2c","124.160.213.244","Mozilla/5.0 (Linux; Android 12; SAMSUNG SM-G973U1) AppleWebKit/537.36 (KHTML, like Gecko) SamsungBrowser/19.0 Chrome/102.0.5005.125 Mobile Safari/537.36","Samsung","Chrome","102.0.5005.125","AndroidOS","12","null","<div style=""font-size:60px;"">+</div>","null",""
"","","","","","html-button-response","5","50328","0.0-4.0-1.0","61","1","2022-11-13 08:36:01","a60ee176136a54a92dc2853177adfa2c","124.160.213.244","Mozilla/5.0 (Linux; Android 12; SAMSUNG SM-G973U1) AppleWebKit/537.36 (KHTML, like Gecko) SamsungBrowser/19.0 Chrome/102.0.5005.125 Mobile Safari/537.36","Samsung","Chrome","102.0.5005.125","AndroidOS","12","4398","<p>作为军队的指挥官，你可以选择发射导弹杀死 <strong>6名</strong> 敌国士兵，但会误杀附近的 <strong>1名</strong> 敌国平民。</p> <p>平民照片如下图所示。</p> <p></p> <img src='stimuli/faces/PCF8.jpg', style='max-width: 30%;'> </img> <p><strong>你是否选择发射武器？</strong></p>","1",""
"","","","","","html-keyboard-response","6","51336","0.0-4.0-0.1","61","1","2022-11-13 08:36:01","a60ee176136a54a92dc2853177adfa2c","124.160.213.244","Mozilla/5.0 (Linux; Android 12; SAMSUNG SM-G973U1) AppleWebKit/537.36 (KHTML, like Gecko) SamsungBrowser/19.0 Chrome/102.0.5005.125 Mobile Safari/537.36","Samsung","Chrome","102.0.5005.125","AndroidOS","12","null","<div style=""font-size:60px;"">+</div>","null",""
"","","","","","html-button-response","7","59060","0.0-4.0-1.1","61","1","2022-11-13 08:36:01","a60ee176136a54a92dc2853177adfa2c","124.160.213.244","Mozilla/5.0 (Linux; Android 12; SAMSUNG SM-G973U1) AppleWebKit/537.36 (KHTML, like Gecko) SamsungBrowser/19.0 Chrome/102.0.5005.125 Mobile Safari/537.36","Samsung","Chrome","102.0.5005.125","AndroidOS","12","7716","<p>作为军队的指挥官，你可以选择发射导弹杀死 <strong>2名</strong> 敌国士兵，但会炸毁附近的 <strong>1棵</strong> 敌国树木。</p> <p>树木的照片如下图所示。</p> <p></p> <img src='stimuli/trees/3.png', style='max-width: 30%;'> </img> <p><strong>你是否选择发射武器？</strong></p>","0",""
"","","","","","html-keyboard-response","8","60065","0.0-4.0-0.2","61","1","2022-11-13 08:36:01","a60ee176136a54a92dc2853177adfa2c","124.160.213.244","Mozilla/5.0 (Linux; Android 12; SAMSUNG SM-G973U1) AppleWebKit/537.36 (KHTML, like Gecko) SamsungBrowser/19.0 Chrome/102.0.5005.125 Mobile Safari/537.36","Samsung","Chrome","102.0.5005.125","AndroidOS","12","null","<div style=""font-size:60px;"">+</div>","null",""
"","","","","","html-button-response","9","64347","0.0-4.0-1.2","61","1","2022-11-13 08:36:01","a60ee176136a54a92dc2853177adfa2c","124.160.213.244","Mozilla/5.0 (Linux; Android 12; SAMSUNG SM-G973U1) AppleWebKit/537.36 (KHTML, like Gecko) SamsungBrowser/19.0 Chrome/102.0.5005.125 Mobile Safari/537.36","Samsung","Chrome","102.0.5005.125","AndroidOS","12","4275","<p>作为军队的指挥官，你可以选择发射导弹杀死 <strong>8名</strong> 敌国士兵，但会炸毁附近的 <strong>1棵</strong> 敌国树木。</p> <p>树木的照片如下图所示。</p> <p></p> <img src='stimuli/trees/7.png', style='max-width: 30%;'> </img> <p><strong>你是否选择发射武器？</strong></p>","0",""
"","","","","","html-keyboard-response","10","65351","0.0-4.0-0.3","61","1","2022-11-13 08:36:01","a60ee176136a54a92dc2853177adfa2c","124.160.213.244","Mozilla/5.0 (Linux; Android 12; SAMSUNG SM-G973U1) AppleWebKit/537.36 (KHTML, like Gecko) SamsungBrowser/19.0 Chrome/102.0.5005.125 Mobile Safari/537.36","Samsung","Chrome","102.0.5005.125","AndroidOS","12","null","<div style=""font-size:60px;"">+</div>","null",""
"","","","","","html-button-response","11","70022","0.0-4.0-1.3","61","1","2022-11-13 08:36:01","a60ee176136a54a92dc2853177adfa2c","124.160.213.244","Mozilla/5.0 (Linux; Android 12; SAMSUNG SM-G973U1) AppleWebKit/537.36 (KHTML, like Gecko) SamsungBrowser/19.0 Chrome/102.0.5005.125 Mobile Safari/537.36","Samsung","Chrome","102.0.5005.125","AndroidOS","12","4666","<p>作为军队的指挥官，你可以选择发射导弹杀死 <strong>9名</strong> 敌国士兵，但会炸毁附近的 <strong>1棵</strong> 敌国树木。</p> <p>树木的照片如下图所示。</p> <p></p> <img src='stimuli/trees/13.png', style='max-width: 30%;'> </img> <p><strong>你是否选择发射武器？</strong></p>","0",""
"","","","","","html-keyboard-response","12","71038","0.0-4.0-0.4","61","1","2022-11-13 08:36:01","a60ee176136a54a92dc2853177adfa2c","124.160.213.244","Mozilla/5.0 (Linux; Android 12; SAMSUNG SM-G973U1) AppleWebKit/537.36 (KHTML, like Gecko) SamsungBrowser/19.0 Chrome/102.0.5005.125 Mobile Safari/537.36","Samsung","Chrome","102.0.5005.125","AndroidOS","12","null","<div style=""font-size:60px;"">+</div>","null",""
"","","","","","html-button-response","13","75019","0.0-4.0-1.4","61","1","2022-11-13 08:36:01","a60ee176136a54a92dc2853177adfa2c","124.160.213.244","Mozilla/5.0 (Linux; Android 12; SAMSUNG SM-G973U1) AppleWebKit/537.36 (KHTML, like Gecko) SamsungBrowser/19.0 Chrome/102.0.5005.125 Mobile Safari/537.36","Samsung","Chrome","102.0.5005.125","AndroidOS","12","3969","<p>作为军队的指挥官，你可以选择发射导弹杀死 <strong>6名</strong> 敌国士兵，但会误杀附近的 <strong>1名</strong> 敌国平民。</p> <p>平民照片如下图所示。</p> <p></p> <img src='stimuli/faces/PCM1.jpg', style='max-width: 30%;'> </img> <p><strong>你是否选择发射武器？</strong></p>","1",""
"","","","","","html-keyboard-response","14","76026","0.0-4.0-0.5","61","1","2022-11-13 08:36:01","a60ee176136a54a92dc2853177adfa2c","124.160.213.244","Mozilla/5.0 (Linux; Android 12; SAMSUNG SM-G973U1) AppleWebKit/537.36 (KHTML, like Gecko) SamsungBrowser/19.0 Chrome/102.0.5005.125 Mobile Safari/537.36","Samsung","Chrome","102.0.5005.125","AndroidOS","12","null","<div style=""font-size:60px;"">+</div>","null",""
"","","","","","html-button-response","15","79929","0.0-4.0-1.5","61","1","2022-11-13 08:36:01","a60ee176136a54a92dc2853177adfa2c","124.160.213.244","Mozilla/5.0 (Linux; Android 12; SAMSUNG SM-G973U1) AppleWebKit/537.36 (KHTML, like Gecko) SamsungBrowser/19.0 Chrome/102.0.5005.125 Mobile Safari/537.36","Samsung","Chrome","102.0.5005.125","AndroidOS","12","3895","<p>作为军队的指挥官，你可以选择发射导弹杀死 <strong>4名</strong> 敌国士兵，但会炸毁附近的 <strong>1棵</strong> 敌国树木。</p> <p>树木的照片如下图所示。</p> <p></p> <img src='stimuli/trees/12.png', style='max-width: 30%;'> </img> <p><strong>你是否选择发射武器？</strong></p>","0",""
"","","","","","html-keyboard-response","16","80934","0.0-4.0-0.6","61","1","2022-11-13 08:36:01","a60ee176136a54a92dc2853177adfa2c","124.160.213.244","Mozilla/5.0 (Linux; Android 12; SAMSUNG SM-G973U1) AppleWebKit/537.36 (KHTML, like Gecko) SamsungBrowser/19.0 Chrome/102.0.5005.125 Mobile Safari/537.36","Samsung","Chrome","102.0.5005.125","AndroidOS","12","null","<div style=""font-size:60px;"">+</div>","null",""
"","","","","","html-button-response","17","86391","0.0-4.0-1.6","61","1","2022-11-13 08:36:01","a60ee176136a54a92dc2853177adfa2c","124.160.213.244","Mozilla/5.0 (Linux; Android 12; SAMSUNG SM-G973U1) AppleWebKit/537.36 (KHTML, like Gecko) SamsungBrowser/19.0 Chrome/102.0.5005.125 Mobile Safari/537.36","Samsung","Chrome","102.0.5005.125","AndroidOS","12","5449","<p>作为军队的指挥官，你可以选择发射导弹杀死 <strong>9名</strong> 敌国士兵，但会炸毁附近的 <strong>1棵</strong> 敌国树木。</p> <p>树木的照片如下图所示。</p> <p></p> <img src='stimuli/trees/11.png', style='max-width: 30%;'> </img> <p><strong>你是否选择发射武器？</strong></p>","0",""
"","","","","","html-keyboard-response","18","87396","0.0-4.0-0.7","61","1","2022-11-13 08:36:01","a60ee176136a54a92dc2853177adfa2c","124.160.213.244","Mozilla/5.0 (Linux; Android 12; SAMSUNG SM-G973U1) AppleWebKit/537.36 (KHTML, like Gecko) SamsungBrowser/19.0 Chrome/102.0.5005.125 Mobile Safari/537.36","Samsung","Chrome","102.0.5005.125","AndroidOS","12","null","<div style=""font-size:60px;"">+</div>","null",""
"","","","","","html-button-response","19","90127","0.0-4.0-1.7","61","1","2022-11-13 08:36:01","a60ee176136a54a92dc2853177adfa2c","124.160.213.244","Mozilla/5.0 (Linux; Android 12; SAMSUNG SM-G973U1) AppleWebKit/537.36 (KHTML, like Gecko) SamsungBrowser/19.0 Chrome/102.0.5005.125 Mobile Safari/537.36","Samsung","Chrome","102.0.5005.125","AndroidOS","12","2723","<p>作为军队的指挥官，你可以选择发射导弹杀死 <strong>8名</strong> 敌国士兵，但会误杀附近的 <strong>1名</strong> 敌国平民。</p> <p>平民照片如下图所示。</p> <p></p> <img src='stimuli/faces/PCF2.jpg', style='max-width: 30%;'> </img> <p><strong>你是否选择发射武器？</strong></p>","1",""
"","","","","","html-keyboard-response","20","91133","0.0-4.0-0.8","61","1","2022-11-13 08:36:01","a60ee176136a54a92dc2853177adfa2c","124.160.213.244","Mozilla/5.0 (Linux; Android 12; SAMSUNG SM-G973U1) AppleWebKit/537.36 (KHTML, like Gecko) SamsungBrowser/19.0 Chrome/102.0.5005.125 Mobile Safari/537.36","Samsung","Chrome","102.0.5005.125","AndroidOS","12","null","<div style=""font-size:60px;"">+</div>","null",""
"","","","","","html-button-response","21","92398","0.0-4.0-1.8","61","1","2022-11-13 08:36:01","a60ee176136a54a92dc2853177adfa2c","124.160.213.244","Mozilla/5.0 (Linux; Android 12; SAMSUNG SM-G973U1) AppleWebKit/537.36 (KHTML, like Gecko) SamsungBrowser/19.0 Chrome/102.0.5005.125 Mobile Safari/537.36","Samsung","Chrome","102.0.5005.125","AndroidOS","12","1257","<p>作为军队的指挥官，你可以选择发射导弹杀死 <strong>3名</strong> 敌国士兵，但会炸毁附近的 <strong>1棵</strong> 敌国树木。</p> <p>树木的照片如下图所示。</p> <p></p> <img src='stimuli/trees/7.png', style='max-width: 30%;'> </img> <p><strong>你是否选择发射武器？</strong></p>","0",""
"","","","","","html-keyboard-response","22","93403","0.0-4.0-0.9","61","1","2022-11-13 08:36:01","a60ee176136a54a92dc2853177adfa2c","124.160.213.244","Mozilla/5.0 (Linux; Android 12; SAMSUNG SM-G973U1) AppleWebKit/537.36 (KHTML, like Gecko) SamsungBrowser/19.0 Chrome/102.0.5005.125 Mobile Safari/537.36","Samsung","Chrome","102.0.5005.125","AndroidOS","12","null","<div style=""font-size:60px;"">+</div>","null",""
"","","","","","html-button-response","23","95233","0.0-4.0-1.9","61","1","2022-11-13 08:36:01","a60ee176136a54a92dc2853177adfa2c","124.160.213.244","Mozilla/5.0 (Linux; Android 12; SAMSUNG SM-G973U1) AppleWebKit/537.36 (KHTML, like Gecko) SamsungBrowser/19.0 Chrome/102.0.5005.125 Mobile Safari/537.36","Samsung","Chrome","102.0.5005.125","AndroidOS","12","1822","<p>作为军队的指挥官，你可以选择发射导弹杀死 <strong>10名</strong> 敌国士兵，但会炸毁附近的 <strong>1棵</strong> 敌国树木。</p> <p>树木的照片如下图所示。</p> <p></p> <img src='stimuli/trees/15.png', style='max-width: 30%;'> </img> <p><strong>你是否选择发射武器？</strong></p>","0",""
"","","","","","html-keyboard-response","24","96240","0.0-4.0-0.10","61","1","2022-11-13 08:36:01","a60ee176136a54a92dc2853177adfa2c","124.160.213.244","Mozilla/5.0 (Linux; Android 12; SAMSUNG SM-G973U1) AppleWebKit/537.36 (KHTML, like Gecko) SamsungBrowser/19.0 Chrome/102.0.5005.125 Mobile Safari/537.36","Samsung","Chrome","102.0.5005.125","AndroidOS","12","null","<div style=""font-size:60px;"">+</div>","null",""
"","","","","","html-button-response","25","101342","0.0-4.0-1.10","61","1","2022-11-13 08:36:01","a60ee176136a54a92dc2853177adfa2c","124.160.213.244","Mozilla/5.0 (Linux; Android 12; SAMSUNG SM-G973U1) AppleWebKit/537.36 (KHTML, like Gecko) SamsungBrowser/19.0 Chrome/102.0.5005.125 Mobile Safari/537.36","Samsung","Chrome","102.0.5005.125","AndroidOS","12","5093","<p>作为军队的指挥官，你可以选择发射导弹杀死 <strong>5名</strong> 敌国士兵，但会误杀附近的 <strong>1名</strong> 敌国平民。</p> <p>平民照片如下图所示。</p> <p></p> <img src='stimuli/faces/PCM1.jpg', style='max-width: 30%;'> </img> <p><strong>你是否选择发射武器？</strong></p>","1",""
"","","","","","html-keyboard-response","26","102348","0.0-4.0-0.11","61","1","2022-11-13 08:36:01","a60ee176136a54a92dc2853177adfa2c","124.160.213.244","Mozilla/5.0 (Linux; Android 12; SAMSUNG SM-G973U1) AppleWebKit/537.36 (KHTML, like Gecko) SamsungBrowser/19.0 Chrome/102.0.5005.125 Mobile Safari/537.36","Samsung","Chrome","102.0.5005.125","AndroidOS","12","null","<div style=""font-size:60px;"">+</div>","null",""
"","","","","","html-button-response","27","107617","0.0-4.0-1.11","61","1","2022-11-13 08:36:01","a60ee176136a54a92dc2853177adfa2c","124.160.213.244","Mozilla/5.0 (Linux; Android 12; SAMSUNG SM-G973U1) AppleWebKit/537.36 (KHTML, like Gecko) SamsungBrowser/19.0 Chrome/102.0.5005.125 Mobile Safari/537.36","Samsung","Chrome","102.0.5005.125","AndroidOS","12","5261","<p>作为军队的指挥官，你可以选择发射导弹杀死 <strong>9名</strong> 敌国士兵，但会误杀附近的 <strong>1名</strong> 敌国平民。</p> <p>平民照片如下图所示。</p> <p></p> <img src='stimuli/faces/PCM4.jpg', style='max-width: 30%;'> </img> <p><strong>你是否选择发射武器？</strong></p>","1",""
"","","","","","html-keyboard-response","28","108622","0.0-4.0-0.12","61","1","2022-11-13 08:36:01","a60ee176136a54a92dc2853177adfa2c","124.160.213.244","Mozilla/5.0 (Linux; Android 12; SAMSUNG SM-G973U1) AppleWebKit/537.36 (KHTML, like Gecko) SamsungBrowser/19.0 Chrome/102.0.5005.125 Mobile Safari/537.36","Samsung","Chrome","102.0.5005.125","AndroidOS","12","null","<div style=""font-size:60px;"">+</div>","null",""
"","","","","","html-button-response","29","113869","0.0-4.0-1.12","61","1","2022-11-13 08:36:01","a60ee176136a54a92dc2853177adfa2c","124.160.213.244","Mozilla/5.0 (Linux; Android 12; SAMSUNG SM-G973U1) AppleWebKit/537.36 (KHTML, like Gecko) SamsungBrowser/19.0 Chrome/102.0.5005.125 Mobile Safari/537.36","Samsung","Chrome","102.0.5005.125","AndroidOS","12","5239","<p>作为军队的指挥官，你可以选择发射导弹杀死 <strong>7名</strong> 敌国士兵，但会误杀附近的 <strong>1名</strong> 敌国平民。</p> <p>平民照片如下图所示。</p> <p></p> <img src='stimuli/faces/PCF3.jpg', style='max-width: 30%;'> </img> <p><strong>你是否选择发射武器？</strong></p>","1",""
"","","","","","html-keyboard-response","30","114875","0.0-4.0-0.13","61","1","2022-11-13 08:36:01","a60ee176136a54a92dc2853177adfa2c","124.160.213.244","Mozilla/5.0 (Linux; Android 12; SAMSUNG SM-G973U1) AppleWebKit/537.36 (KHTML, like Gecko) SamsungBrowser/19.0 Chrome/102.0.5005.125 Mobile Safari/537.36","Samsung","Chrome","102.0.5005.125","AndroidOS","12","null","<div style=""font-size:60px;"">+</div>","null",""
"","","","","","html-button-response","31","117606","0.0-4.0-1.13","61","1","2022-11-13 08:36:01","a60ee176136a54a92dc2853177adfa2c","124.160.213.244","Mozilla/5.0 (Linux; Android 12; SAMSUNG SM-G973U1) AppleWebKit/537.36 (KHTML, like Gecko) SamsungBrowser/19.0 Chrome/102.0.5005.125 Mobile Safari/537.36","Samsung","Chrome","102.0.5005.125","AndroidOS","12","2722","<p>作为军队的指挥官，你可以选择发射导弹杀死 <strong>5名</strong> 敌国士兵，但会误杀附近的 <strong>1名</strong> 敌国平民。</p> <p>平民照片如下图所示。</p> <p></p> <img src='stimuli/faces/PCM3.jpg', style='max-width: 30%;'> </img> <p><strong>你是否选择发射武器？</strong></p>","1",""
"","","","","","html-keyboard-response","32","118612","0.0-4.0-0.14","61","1","2022-11-13 08:36:01","a60ee176136a54a92dc2853177adfa2c","124.160.213.244","Mozilla/5.0 (Linux; Android 12; SAMSUNG SM-G973U1) AppleWebKit/537.36 (KHTML, like Gecko) SamsungBrowser/19.0 Chrome/102.0.5005.125 Mobile Safari/537.36","Samsung","Chrome","102.0.5005.125","AndroidOS","12","null","<div style=""font-size:60px;"">+</div>","null",""
"","","","","","html-button-response","33","121312","0.0-4.0-1.14","61","1","2022-11-13 08:36:01","a60ee176136a54a92dc2853177adfa2c","124.160.213.244","Mozilla/5.0 (Linux; Android 12; SAMSUNG SM-G973U1) AppleWebKit/537.36 (KHTML, like Gecko) SamsungBrowser/19.0 Chrome/102.0.5005.125 Mobile Safari/537.36","Samsung","Chrome","102.0.5005.125","AndroidOS","12","2691","<p>作为军队的指挥官，你可以选择发射导弹杀死 <strong>1名</strong> 敌国士兵，但会炸毁附近的 <strong>1棵</strong> 敌国树木。</p> <p>树木的照片如下图所示。</p> <p></p> <img src='stimuli/trees/2.png', style='max-width: 30%;'> </img> <p><strong>你是否选择发射武器？</strong></p>","0",""
"","","","","","html-keyboard-response","34","122319","0.0-4.0-0.15","61","1","2022-11-13 08:36:01","a60ee176136a54a92dc2853177adfa2c","124.160.213.244","Mozilla/5.0 (Linux; Android 12; SAMSUNG SM-G973U1) AppleWebKit/537.36 (KHTML, like Gecko) SamsungBrowser/19.0 Chrome/102.0.5005.125 Mobile Safari/537.36","Samsung","Chrome","102.0.5005.125","AndroidOS","12","null","<div style=""font-size:60px;"">+</div>","null",""
"","","","","","html-button-response","35","124678","0.0-4.0-1.15","61","1","2022-11-13 08:36:01","a60ee176136a54a92dc2853177adfa2c","124.160.213.244","Mozilla/5.0 (Linux; Android 12; SAMSUNG SM-G973U1) AppleWebKit/537.36 (KHTML, like Gecko) SamsungBrowser/19.0 Chrome/102.0.5005.125 Mobile Safari/537.36","Samsung","Chrome","102.0.5005.125","AndroidOS","12","2350","<p>作为军队的指挥官，你可以选择发射导弹杀死 <strong>2名</strong> 敌国士兵，但会误杀附近的 <strong>1名</strong> 敌国平民。</p> <p>平民照片如下图所示。</p> <p></p> <img src='stimuli/faces/PCM2.jpg', style='max-width: 30%;'> </img> <p><strong>你是否选择发射武器？</strong></p>","1",""
"","","","","","html-keyboard-response","36","125683","0.0-4.0-0.16","61","1","2022-11-13 08:36:01","a60ee176136a54a92dc2853177adfa2c","124.160.213.244","Mozilla/5.0 (Linux; Android 12; SAMSUNG SM-G973U1) AppleWebKit/537.36 (KHTML, like Gecko) SamsungBrowser/19.0 Chrome/102.0.5005.125 Mobile Safari/537.36","Samsung","Chrome","102.0.5005.125","AndroidOS","12","null","<div style=""font-size:60px;"">+</div>","null",""
"","","","","","html-button-response","37","127472","0.0-4.0-1.16","61","1","2022-11-13 08:36:01","a60ee176136a54a92dc2853177adfa2c","124.160.213.244","Mozilla/5.0 (Linux; Android 12; SAMSUNG SM-G973U1) AppleWebKit/537.36 (KHTML, like Gecko) SamsungBrowser/19.0 Chrome/102.0.5005.125 Mobile Safari/537.36","Samsung","Chrome","102.0.5005.125","AndroidOS","12","1779","<p>作为军队的指挥官，你可以选择发射导弹杀死 <strong>4名</strong> 敌国士兵，但会误杀附近的 <strong>1名</strong> 敌国平民。</p> <p>平民照片如下图所示。</p> <p></p> <img src='stimuli/faces/PCM5.jpg', style='max-width: 30%;'> </img> <p><strong>你是否选择发射武器？</strong></p>","1",""
"","","","","","html-keyboard-response","38","128476","0.0-4.0-0.17","61","1","2022-11-13 08:36:01","a60ee176136a54a92dc2853177adfa2c","124.160.213.244","Mozilla/5.0 (Linux; Android 12; SAMSUNG SM-G973U1) AppleWebKit/537.36 (KHTML, like Gecko) SamsungBrowser/19.0 Chrome/102.0.5005.125 Mobile Safari/537.36","Samsung","Chrome","102.0.5005.125","AndroidOS","12","null","<div style=""font-size:60px;"">+</div>","null",""
"","","","","","html-button-response","39","130541","0.0-4.0-1.17","61","1","2022-11-13 08:36:01","a60ee176136a54a92dc2853177adfa2c","124.160.213.244","Mozilla/5.0 (Linux; Android 12; SAMSUNG SM-G973U1) AppleWebKit/537.36 (KHTML, like Gecko) SamsungBrowser/19.0 Chrome/102.0.5005.125 Mobile Safari/537.36","Samsung","Chrome","102.0.5005.125","AndroidOS","12","2058","<p>作为军队的指挥官，你可以选择发射导弹杀死 <strong>2名</strong> 敌国士兵，但会炸毁附近的 <strong>1棵</strong> 敌国树木。</p> <p>树木的照片如下图所示。</p> <p></p> <img src='stimuli/trees/10.png', style='max-width: 30%;'> </img> <p><strong>你是否选择发射武器？</strong></p>","0",""
"","","","","","html-keyboard-response","40","131546","0.0-4.0-0.18","61","1","2022-11-13 08:36:01","a60ee176136a54a92dc2853177adfa2c","124.160.213.244","Mozilla/5.0 (Linux; Android 12; SAMSUNG SM-G973U1) AppleWebKit/537.36 (KHTML, like Gecko) SamsungBrowser/19.0 Chrome/102.0.5005.125 Mobile Safari/537.36","Samsung","Chrome","102.0.5005.125","AndroidOS","12","null","<div style=""font-size:60px;"">+</div>","null",""
"","","","","","html-button-response","41","133668","0.0-4.0-1.18","61","1","2022-11-13 08:36:01","a60ee176136a54a92dc2853177adfa2c","124.160.213.244","Mozilla/5.0 (Linux; Android 12; SAMSUNG SM-G973U1) AppleWebKit/537.36 (KHTML, like Gecko) SamsungBrowser/19.0 Chrome/102.0.5005.125 Mobile Safari/537.36","Samsung","Chrome","102.0.5005.125","AndroidOS","12","2113","<p>作为军队的指挥官，你可以选择发射导弹杀死 <strong>3名</strong> 敌国士兵，但会误杀附近的 <strong>1名</strong> 敌国平民。</p> <p>平民照片如下图所示。</p> <p></p> <img src='stimuli/faces/PCM6.jpg', style='max-width: 30%;'> </img> <p><strong>你是否选择发射武器？</strong></p>","1",""
"","","","","","html-keyboard-response","42","134673","0.0-4.0-0.19","61","1","2022-11-13 08:36:01","a60ee176136a54a92dc2853177adfa2c","124.160.213.244","Mozilla/5.0 (Linux; Android 12; SAMSUNG SM-G973U1) AppleWebKit/537.36 (KHTML, like Gecko) SamsungBrowser/19.0 Chrome/102.0.5005.125 Mobile Safari/537.36","Samsung","Chrome","102.0.5005.125","AndroidOS","12","null","<div style=""font-size:60px;"">+</div>","null",""
"","","","","","html-button-response","43","136396","0.0-4.0-1.19","61","1","2022-11-13 08:36:01","a60ee176136a54a92dc2853177adfa2c","124.160.213.244","Mozilla/5.0 (Linux; Android 12; SAMSUNG SM-G973U1) AppleWebKit/537.36 (KHTML, like Gecko) SamsungBrowser/19.0 Chrome/102.0.5005.125 Mobile Safari/537.36","Samsung","Chrome","102.0.5005.125","AndroidOS","12","1713","<p>作为军队的指挥官，你可以选择发射导弹杀死 <strong>10名</strong> 敌国士兵，但会炸毁附近的 <strong>1棵</strong> 敌国树木。</p> <p>树木的照片如下图所示。</p> <p></p> <img src='stimuli/trees/4.png', style='max-width: 30%;'> </img> <p><strong>你是否选择发射武器？</strong></p>","0",""
"","","","","","html-keyboard-response","44","137401","0.0-4.0-0.20","61","1","2022-11-13 08:36:01","a60ee176136a54a92dc2853177adfa2c","124.160.213.244","Mozilla/5.0 (Linux; Android 12; SAMSUNG SM-G973U1) AppleWebKit/537.36 (KHTML, like Gecko) SamsungBrowser/19.0 Chrome/102.0.5005.125 Mobile Safari/537.36","Samsung","Chrome","102.0.5005.125","AndroidOS","12","null","<div style=""font-size:60px;"">+</div>","null",""
"","","","","","html-button-response","45","138899","0.0-4.0-1.20","61","1","2022-11-13 08:36:01","a60ee176136a54a92dc2853177adfa2c","124.160.213.244","Mozilla/5.0 (Linux; Android 12; SAMSUNG SM-G973U1) AppleWebKit/537.36 (KHTML, like Gecko) SamsungBrowser/19.0 Chrome/102.0.5005.125 Mobile Safari/537.36","Samsung","Chrome","102.0.5005.125","AndroidOS","12","1490","<p>作为军队的指挥官，你可以选择发射导弹杀死 <strong>3名</strong> 敌国士兵，但会炸毁附近的 <strong>1棵</strong> 敌国树木。</p> <p>树木的照片如下图所示。</p> <p></p> <img src='stimuli/trees/6.png', style='max-width: 30%;'> </img> <p><strong>你是否选择发射武器？</strong></p>","0",""
"","","","","","html-keyboard-response","46","139906","0.0-4.0-0.21","61","1","2022-11-13 08:36:01","a60ee176136a54a92dc2853177adfa2c","124.160.213.244","Mozilla/5.0 (Linux; Android 12; SAMSUNG SM-G973U1) AppleWebKit/537.36 (KHTML, like Gecko) SamsungBrowser/19.0 Chrome/102.0.5005.125 Mobile Safari/537.36","Samsung","Chrome","102.0.5005.125","AndroidOS","12","null","<div style=""font-size:60px;"">+</div>","null",""
"","","","","","html-button-response","47","141574","0.0-4.0-1.21","61","1","2022-11-13 08:36:01","a60ee176136a54a92dc2853177adfa2c","124.160.213.244","Mozilla/5.0 (Linux; Android 12; SAMSUNG SM-G973U1) AppleWebKit/537.36 (KHTML, like Gecko) SamsungBrowser/19.0 Chrome/102.0.5005.125 Mobile Safari/537.36","Samsung","Chrome","102.0.5005.125","AndroidOS","12","1659","<p>作为军队的指挥官，你可以选择发射导弹杀死 <strong>7名</strong> 敌国士兵，但会误杀附近的 <strong>1名</strong> 敌国平民。</p> <p>平民照片如下图所示。</p> <p></p> <img src='stimuli/faces/PCM7.jpg', style='max-width: 30%;'> </img> <p><strong>你是否选择发射武器？</strong></p>","1",""
"","","","","","html-keyboard-response","48","142579","0.0-4.0-0.22","61","1","2022-11-13 08:36:01","a60ee176136a54a92dc2853177adfa2c","124.160.213.244","Mozilla/5.0 (Linux; Android 12; SAMSUNG SM-G973U1) AppleWebKit/537.36 (KHTML, like Gecko) SamsungBrowser/19.0 Chrome/102.0.5005.125 Mobile Safari/537.36","Samsung","Chrome","102.0.5005.125","AndroidOS","12","null","<div style=""font-size:60px;"">+</div>","null",""
"","","","","","html-button-response","49","144432","0.0-4.0-1.22","61","1","2022-11-13 08:36:01","a60ee176136a54a92dc2853177adfa2c","124.160.213.244","Mozilla/5.0 (Linux; Android 12; SAMSUNG SM-G973U1) AppleWebKit/537.36 (KHTML, like Gecko) SamsungBrowser/19.0 Chrome/102.0.5005.125 Mobile Safari/537.36","Samsung","Chrome","102.0.5005.125","AndroidOS","12","1845","<p>作为军队的指挥官，你可以选择发射导弹杀死 <strong>3名</strong> 敌国士兵，但会炸毁附近的 <strong>1棵</strong> 敌国树木。</p> <p>树木的照片如下图所示。</p> <p></p> <img src='stimuli/trees/1.png', style='max-width: 30%;'> </img> <p><strong>你是否选择发射武器？</strong></p>","0",""
"","","","","","html-keyboard-response","50","145440","0.0-4.0-0.23","61","1","2022-11-13 08:36:01","a60ee176136a54a92dc2853177adfa2c","124.160.213.244","Mozilla/5.0 (Linux; Android 12; SAMSUNG SM-G973U1) AppleWebKit/537.36 (KHTML, like Gecko) SamsungBrowser/19.0 Chrome/102.0.5005.125 Mobile Safari/537.36","Samsung","Chrome","102.0.5005.125","AndroidOS","12","null","<div style=""font-size:60px;"">+</div>","null",""
"","","","","","html-button-response","51","148329","0.0-4.0-1.23","61","1","2022-11-13 08:36:01","a60ee176136a54a92dc2853177adfa2c","124.160.213.244","Mozilla/5.0 (Linux; Android 12; SAMSUNG SM-G973U1) AppleWebKit/537.36 (KHTML, like Gecko) SamsungBrowser/19.0 Chrome/102.0.5005.125 Mobile Safari/537.36","Samsung","Chrome","102.0.5005.125","AndroidOS","12","2879","<p>作为军队的指挥官，你可以选择发射导弹杀死 <strong>3名</strong> 敌国士兵，但会炸毁附近的 <strong>1棵</strong> 敌国树木。</p> <p>树木的照片如下图所示。</p> <p></p> <img src='stimuli/trees/8.png', style='max-width: 30%;'> </img> <p><strong>你是否选择发射武器？</strong></p>","0",""
"","","","","","html-keyboard-response","52","149338","0.0-4.0-0.24","61","1","2022-11-13 08:36:01","a60ee176136a54a92dc2853177adfa2c","124.160.213.244","Mozilla/5.0 (Linux; Android 12; SAMSUNG SM-G973U1) AppleWebKit/537.36 (KHTML, like Gecko) SamsungBrowser/19.0 Chrome/102.0.5005.125 Mobile Safari/537.36","Samsung","Chrome","102.0.5005.125","AndroidOS","12","null","<div style=""font-size:60px;"">+</div>","null",""
"","","","","","html-button-response","53","150775","0.0-4.0-1.24","61","1","2022-11-13 08:36:01","a60ee176136a54a92dc2853177adfa2c","124.160.213.244","Mozilla/5.0 (Linux; Android 12; SAMSUNG SM-G973U1) AppleWebKit/537.36 (KHTML, like Gecko) SamsungBrowser/19.0 Chrome/102.0.5005.125 Mobile Safari/537.36","Samsung","Chrome","102.0.5005.125","AndroidOS","12","1426","<p>作为军队的指挥官，你可以选择发射导弹杀死 <strong>5名</strong> 敌国士兵，但会炸毁附近的 <strong>1棵</strong> 敌国树木。</p> <p>树木的照片如下图所示。</p> <p></p> <img src='stimuli/trees/15.png', style='max-width: 30%;'> </img> <p><strong>你是否选择发射武器？</strong></p>","0",""
"","","","","","html-keyboard-response","54","151783","0.0-4.0-0.25","61","1","2022-11-13 08:36:01","a60ee176136a54a92dc2853177adfa2c","124.160.213.244","Mozilla/5.0 (Linux; Android 12; SAMSUNG SM-G973U1) AppleWebKit/537.36 (KHTML, like Gecko) SamsungBrowser/19.0 Chrome/102.0.5005.125 Mobile Safari/537.36","Samsung","Chrome","102.0.5005.125","AndroidOS","12","null","<div style=""font-size:60px;"">+</div>","null",""
"","","","","","html-button-response","55","153448","0.0-4.0-1.25","61","1","2022-11-13 08:36:01","a60ee176136a54a92dc2853177adfa2c","124.160.213.244","Mozilla/5.0 (Linux; Android 12; SAMSUNG SM-G973U1) AppleWebKit/537.36 (KHTML, like Gecko) SamsungBrowser/19.0 Chrome/102.0.5005.125 Mobile Safari/537.36","Samsung","Chrome","102.0.5005.125","AndroidOS","12","1655","<p>作为军队的指挥官，你可以选择发射导弹杀死 <strong>3名</strong> 敌国士兵，但会误杀附近的 <strong>1名</strong> 敌国平民。</p> <p>平民照片如下图所示。</p> <p></p> <img src='stimuli/faces/PCM7.jpg', style='max-width: 30%;'> </img> <p><strong>你是否选择发射武器？</strong></p>","1",""
"","","","","","html-keyboard-response","56","154456","0.0-4.0-0.26","61","1","2022-11-13 08:36:01","a60ee176136a54a92dc2853177adfa2c","124.160.213.244","Mozilla/5.0 (Linux; Android 12; SAMSUNG SM-G973U1) AppleWebKit/537.36 (KHTML, like Gecko) SamsungBrowser/19.0 Chrome/102.0.5005.125 Mobile Safari/537.36","Samsung","Chrome","102.0.5005.125","AndroidOS","12","null","<div style=""font-size:60px;"">+</div>","null",""
"","","","","","html-button-response","57","155878","0.0-4.0-1.26","61","1","2022-11-13 08:36:01","a60ee176136a54a92dc2853177adfa2c","124.160.213.244","Mozilla/5.0 (Linux; Android 12; SAMSUNG SM-G973U1) AppleWebKit/537.36 (KHTML, like Gecko) SamsungBrowser/19.0 Chrome/102.0.5005.125 Mobile Safari/537.36","Samsung","Chrome","102.0.5005.125","AndroidOS","12","1412","<p>作为军队的指挥官，你可以选择发射导弹杀死 <strong>3名</strong> 敌国士兵，但会误杀附近的 <strong>1名</strong> 敌国平民。</p> <p>平民照片如下图所示。</p> <p></p> <img src='stimuli/faces/PCF7.jpg', style='max-width: 30%;'> </img> <p><strong>你是否选择发射武器？</strong></p>","1",""
"","","","","","html-keyboard-response","58","156886","0.0-4.0-0.27","61","1","2022-11-13 08:36:01","a60ee176136a54a92dc2853177adfa2c","124.160.213.244","Mozilla/5.0 (Linux; Android 12; SAMSUNG SM-G973U1) AppleWebKit/537.36 (KHTML, like Gecko) SamsungBrowser/19.0 Chrome/102.0.5005.125 Mobile Safari/537.36","Samsung","Chrome","102.0.5005.125","AndroidOS","12","null","<div style=""font-size:60px;"">+</div>","null",""
"","","","","","html-button-response","59","159774","0.0-4.0-1.27","61","1","2022-11-13 08:36:01","a60ee176136a54a92dc2853177adfa2c","124.160.213.244","Mozilla/5.0 (Linux; Android 12; SAMSUNG SM-G973U1) AppleWebKit/537.36 (KHTML, like Gecko) SamsungBrowser/19.0 Chrome/102.0.5005.125 Mobile Safari/537.36","Samsung","Chrome","102.0.5005.125","AndroidOS","12","2879","<p>作为军队的指挥官，你可以选择发射导弹杀死 <strong>1名</strong> 敌国士兵，但会误杀附近的 <strong>1名</strong> 敌国平民。</p> <p>平民照片如下图所示。</p> <p></p> <img src='stimuli/faces/PCF1.jpg', style='max-width: 30%;'> </img> <p><strong>你是否选择发射武器？</strong></p>","1",""
"","","","","","html-keyboard-response","60","160781","0.0-4.0-0.28","61","1","2022-11-13 08:36:01","a60ee176136a54a92dc2853177adfa2c","124.160.213.244","Mozilla/5.0 (Linux; Android 12; SAMSUNG SM-G973U1) AppleWebKit/537.36 (KHTML, like Gecko) SamsungBrowser/19.0 Chrome/102.0.5005.125 Mobile Safari/537.36","Samsung","Chrome","102.0.5005.125","AndroidOS","12","null","<div style=""font-size:60px;"">+</div>","null",""
"","","","","","html-button-response","61","161829","0.0-4.0-1.28","61","1","2022-11-13 08:36:01","a60ee176136a54a92dc2853177adfa2c","124.160.213.244","Mozilla/5.0 (Linux; Android 12; SAMSUNG SM-G973U1) AppleWebKit/537.36 (KHTML, like Gecko) SamsungBrowser/19.0 Chrome/102.0.5005.125 Mobile Safari/537.36","Samsung","Chrome","102.0.5005.125","AndroidOS","12","1036","<p>作为军队的指挥官，你可以选择发射导弹杀死 <strong>7名</strong> 敌国士兵，但会炸毁附近的 <strong>1棵</strong> 敌国树木。</p> <p>树木的照片如下图所示。</p> <p></p> <img src='stimuli/trees/6.png', style='max-width: 30%;'> </img> <p><strong>你是否选择发射武器？</strong></p>","0",""
"","","","","","html-keyboard-response","62","162836","0.0-4.0-0.29","61","1","2022-11-13 08:36:01","a60ee176136a54a92dc2853177adfa2c","124.160.213.244","Mozilla/5.0 (Linux; Android 12; SAMSUNG SM-G973U1) AppleWebKit/537.36 (KHTML, like Gecko) SamsungBrowser/19.0 Chrome/102.0.5005.125 Mobile Safari/537.36","Samsung","Chrome","102.0.5005.125","AndroidOS","12","null","<div style=""font-size:60px;"">+</div>","null",""
"","","","","","html-button-response","63","165158","0.0-4.0-1.29","61","1","2022-11-13 08:36:01","a60ee176136a54a92dc2853177adfa2c","124.160.213.244","Mozilla/5.0 (Linux; Android 12; SAMSUNG SM-G973U1) AppleWebKit/537.36 (KHTML, like Gecko) SamsungBrowser/19.0 Chrome/102.0.5005.125 Mobile Safari/537.36","Samsung","Chrome","102.0.5005.125","AndroidOS","12","2314","<p>作为军队的指挥官，你可以选择发射导弹杀死 <strong>4名</strong> 敌国士兵，但会误杀附近的 <strong>1名</strong> 敌国平民。</p> <p>平民照片如下图所示。</p> <p></p> <img src='stimuli/faces/PCF8.jpg', style='max-width: 30%;'> </img> <p><strong>你是否选择发射武器？</strong></p>","1",""
"","","","","","html-keyboard-response","64","166165","0.0-4.0-0.30","61","1","2022-11-13 08:36:01","a60ee176136a54a92dc2853177adfa2c","124.160.213.244","Mozilla/5.0 (Linux; Android 12; SAMSUNG SM-G973U1) AppleWebKit/537.36 (KHTML, like Gecko) SamsungBrowser/19.0 Chrome/102.0.5005.125 Mobile Safari/537.36","Samsung","Chrome","102.0.5005.125","AndroidOS","12","null","<div style=""font-size:60px;"">+</div>","null",""
"","","","","","html-button-response","65","168600","0.0-4.0-1.30","61","1","2022-11-13 08:36:01","a60ee176136a54a92dc2853177adfa2c","124.160.213.244","Mozilla/5.0 (Linux; Android 12; SAMSUNG SM-G973U1) AppleWebKit/537.36 (KHTML, like Gecko) SamsungBrowser/19.0 Chrome/102.0.5005.125 Mobile Safari/537.36","Samsung","Chrome","102.0.5005.125","AndroidOS","12","2421","<p>作为军队的指挥官，你可以选择发射导弹杀死 <strong>6名</strong> 敌国士兵，但会误杀附近的 <strong>1名</strong> 敌国平民。</p> <p>平民照片如下图所示。</p> <p></p> <img src='stimuli/faces/PCM6.jpg', style='max-width: 30%;'> </img> <p><strong>你是否选择发射武器？</strong></p>","1",""
"","","","","","html-keyboard-response","66","169606","0.0-4.0-0.31","61","1","2022-11-13 08:36:01","a60ee176136a54a92dc2853177adfa2c","124.160.213.244","Mozilla/5.0 (Linux; Android 12; SAMSUNG SM-G973U1) AppleWebKit/537.36 (KHTML, like Gecko) SamsungBrowser/19.0 Chrome/102.0.5005.125 Mobile Safari/537.36","Samsung","Chrome","102.0.5005.125","AndroidOS","12","null","<div style=""font-size:60px;"">+</div>","null",""
"","","","","","html-button-response","67","171369","0.0-4.0-1.31","61","1","2022-11-13 08:36:01","a60ee176136a54a92dc2853177adfa2c","124.160.213.244","Mozilla/5.0 (Linux; Android 12; SAMSUNG SM-G973U1) AppleWebKit/537.36 (KHTML, like Gecko) SamsungBrowser/19.0 Chrome/102.0.5005.125 Mobile Safari/537.36","Samsung","Chrome","102.0.5005.125","AndroidOS","12","1752","<p>作为军队的指挥官，你可以选择发射导弹杀死 <strong>9名</strong> 敌国士兵，但会炸毁附近的 <strong>1棵</strong> 敌国树木。</p> <p>树木的照片如下图所示。</p> <p></p> <img src='stimuli/trees/2.png', style='max-width: 30%;'> </img> <p><strong>你是否选择发射武器？</strong></p>","0",""
"","","","","","html-keyboard-response","68","172374","0.0-4.0-0.32","61","1","2022-11-13 08:36:01","a60ee176136a54a92dc2853177adfa2c","124.160.213.244","Mozilla/5.0 (Linux; Android 12; SAMSUNG SM-G973U1) AppleWebKit/537.36 (KHTML, like Gecko) SamsungBrowser/19.0 Chrome/102.0.5005.125 Mobile Safari/537.36","Samsung","Chrome","102.0.5005.125","AndroidOS","12","null","<div style=""font-size:60px;"">+</div>","null",""
"","","","","","html-button-response","69","174046","0.0-4.0-1.32","61","1","2022-11-13 08:36:01","a60ee176136a54a92dc2853177adfa2c","124.160.213.244","Mozilla/5.0 (Linux; Android 12; SAMSUNG SM-G973U1) AppleWebKit/537.36 (KHTML, like Gecko) SamsungBrowser/19.0 Chrome/102.0.5005.125 Mobile Safari/537.36","Samsung","Chrome","102.0.5005.125","AndroidOS","12","1663","<p>作为军队的指挥官，你可以选择发射导弹杀死 <strong>5名</strong> 敌国士兵，但会炸毁附近的 <strong>1棵</strong> 敌国树木。</p> <p>树木的照片如下图所示。</p> <p></p> <img src='stimuli/trees/4.png', style='max-width: 30%;'> </img> <p><strong>你是否选择发射武器？</strong></p>","0",""
"","","","","","html-keyboard-response","70","175054","0.0-4.0-0.33","61","1","2022-11-13 08:36:01","a60ee176136a54a92dc2853177adfa2c","124.160.213.244","Mozilla/5.0 (Linux; Android 12; SAMSUNG SM-G973U1) AppleWebKit/537.36 (KHTML, like Gecko) SamsungBrowser/19.0 Chrome/102.0.5005.125 Mobile Safari/537.36","Samsung","Chrome","102.0.5005.125","AndroidOS","12","null","<div style=""font-size:60px;"">+</div>","null",""
"","","","","","html-button-response","71","176535","0.0-4.0-1.33","61","1","2022-11-13 08:36:01","a60ee176136a54a92dc2853177adfa2c","124.160.213.244","Mozilla/5.0 (Linux; Android 12; SAMSUNG SM-G973U1) AppleWebKit/537.36 (KHTML, like Gecko) SamsungBrowser/19.0 Chrome/102.0.5005.125 Mobile Safari/537.36","Samsung","Chrome","102.0.5005.125","AndroidOS","12","1469","<p>作为军队的指挥官，你可以选择发射导弹杀死 <strong>7名</strong> 敌国士兵，但会误杀附近的 <strong>1名</strong> 敌国平民。</p> <p>平民照片如下图所示。</p> <p></p> <img src='stimuli/faces/PCF1.jpg', style='max-width: 30%;'> </img> <p><strong>你是否选择发射武器？</strong></p>","1",""
"","","","","","html-keyboard-response","72","177541","0.0-4.0-0.34","61","1","2022-11-13 08:36:01","a60ee176136a54a92dc2853177adfa2c","124.160.213.244","Mozilla/5.0 (Linux; Android 12; SAMSUNG SM-G973U1) AppleWebKit/537.36 (KHTML, like Gecko) SamsungBrowser/19.0 Chrome/102.0.5005.125 Mobile Safari/537.36","Samsung","Chrome","102.0.5005.125","AndroidOS","12","null","<div style=""font-size:60px;"">+</div>","null",""
"","","","","","html-button-response","73","178826","0.0-4.0-1.34","61","1","2022-11-13 08:36:01","a60ee176136a54a92dc2853177adfa2c","124.160.213.244","Mozilla/5.0 (Linux; Android 12; SAMSUNG SM-G973U1) AppleWebKit/537.36 (KHTML, like Gecko) SamsungBrowser/19.0 Chrome/102.0.5005.125 Mobile Safari/537.36","Samsung","Chrome","102.0.5005.125","AndroidOS","12","1273","<p>作为军队的指挥官，你可以选择发射导弹杀死 <strong>4名</strong> 敌国士兵，但会炸毁附近的 <strong>1棵</strong> 敌国树木。</p> <p>树木的照片如下图所示。</p> <p></p> <img src='stimuli/trees/11.png', style='max-width: 30%;'> </img> <p><strong>你是否选择发射武器？</strong></p>","0",""
"","","","","","html-keyboard-response","74","179834","0.0-4.0-0.35","61","1","2022-11-13 08:36:01","a60ee176136a54a92dc2853177adfa2c","124.160.213.244","Mozilla/5.0 (Linux; Android 12; SAMSUNG SM-G973U1) AppleWebKit/537.36 (KHTML, like Gecko) SamsungBrowser/19.0 Chrome/102.0.5005.125 Mobile Safari/537.36","Samsung","Chrome","102.0.5005.125","AndroidOS","12","null","<div style=""font-size:60px;"">+</div>","null",""
"","","","","","html-button-response","75","181140","0.0-4.0-1.35","61","1","2022-11-13 08:36:01","a60ee176136a54a92dc2853177adfa2c","124.160.213.244","Mozilla/5.0 (Linux; Android 12; SAMSUNG SM-G973U1) AppleWebKit/537.36 (KHTML, like Gecko) SamsungBrowser/19.0 Chrome/102.0.5005.125 Mobile Safari/537.36","Samsung","Chrome","102.0.5005.125","AndroidOS","12","1294","<p>作为军队的指挥官，你可以选择发射导弹杀死 <strong>10名</strong> 敌国士兵，但会误杀附近的 <strong>1名</strong> 敌国平民。</p> <p>平民照片如下图所示。</p> <p></p> <img src='stimuli/faces/PCM8.jpg', style='max-width: 30%;'> </img> <p><strong>你是否选择发射武器？</strong></p>","1",""
"","","","","","html-keyboard-response","76","182147","0.0-4.0-0.36","61","1","2022-11-13 08:36:01","a60ee176136a54a92dc2853177adfa2c","124.160.213.244","Mozilla/5.0 (Linux; Android 12; SAMSUNG SM-G973U1) AppleWebKit/537.36 (KHTML, like Gecko) SamsungBrowser/19.0 Chrome/102.0.5005.125 Mobile Safari/537.36","Samsung","Chrome","102.0.5005.125","AndroidOS","12","null","<div style=""font-size:60px;"">+</div>","null",""
"","","","","","html-button-response","77","183349","0.0-4.0-1.36","61","1","2022-11-13 08:36:01","a60ee176136a54a92dc2853177adfa2c","124.160.213.244","Mozilla/5.0 (Linux; Android 12; SAMSUNG SM-G973U1) AppleWebKit/537.36 (KHTML, like Gecko) SamsungBrowser/19.0 Chrome/102.0.5005.125 Mobile Safari/537.36","Samsung","Chrome","102.0.5005.125","AndroidOS","12","1188","<p>作为军队的指挥官，你可以选择发射导弹杀死 <strong>8名</strong> 敌国士兵，但会炸毁附近的 <strong>1棵</strong> 敌国树木。</p> <p>树木的照片如下图所示。</p> <p></p> <img src='stimuli/trees/14.png', style='max-width: 30%;'> </img> <p><strong>你是否选择发射武器？</strong></p>","0",""
"","","","","","html-keyboard-response","78","184358","0.0-4.0-0.37","61","1","2022-11-13 08:36:01","a60ee176136a54a92dc2853177adfa2c","124.160.213.244","Mozilla/5.0 (Linux; Android 12; SAMSUNG SM-G973U1) AppleWebKit/537.36 (KHTML, like Gecko) SamsungBrowser/19.0 Chrome/102.0.5005.125 Mobile Safari/537.36","Samsung","Chrome","102.0.5005.125","AndroidOS","12","null","<div style=""font-size:60px;"">+</div>","null",""
"","","","","","html-button-response","79","186229","0.0-4.0-1.37","61","1","2022-11-13 08:36:01","a60ee176136a54a92dc2853177adfa2c","124.160.213.244","Mozilla/5.0 (Linux; Android 12; SAMSUNG SM-G973U1) AppleWebKit/537.36 (KHTML, like Gecko) SamsungBrowser/19.0 Chrome/102.0.5005.125 Mobile Safari/537.36","Samsung","Chrome","102.0.5005.125","AndroidOS","12","1860","<p>作为军队的指挥官，你可以选择发射导弹杀死 <strong>4名</strong> 敌国士兵，但会炸毁附近的 <strong>1棵</strong> 敌国树木。</p> <p>树木的照片如下图所示。</p> <p></p> <img src='stimuli/trees/9.png', style='max-width: 30%;'> </img> <p><strong>你是否选择发射武器？</strong></p>","0",""
"","","","","","html-keyboard-response","80","187238","0.0-4.0-0.38","61","1","2022-11-13 08:36:01","a60ee176136a54a92dc2853177adfa2c","124.160.213.244","Mozilla/5.0 (Linux; Android 12; SAMSUNG SM-G973U1) AppleWebKit/537.36 (KHTML, like Gecko) SamsungBrowser/19.0 Chrome/102.0.5005.125 Mobile Safari/537.36","Samsung","Chrome","102.0.5005.125","AndroidOS","12","null","<div style=""font-size:60px;"">+</div>","null",""
"","","","","","html-button-response","81","189131","0.0-4.0-1.38","61","1","2022-11-13 08:36:01","a60ee176136a54a92dc2853177adfa2c","124.160.213.244","Mozilla/5.0 (Linux; Android 12; SAMSUNG SM-G973U1) AppleWebKit/537.36 (KHTML, like Gecko) SamsungBrowser/19.0 Chrome/102.0.5005.125 Mobile Safari/537.36","Samsung","Chrome","102.0.5005.125","AndroidOS","12","1880","<p>作为军队的指挥官，你可以选择发射导弹杀死 <strong>7名</strong> 敌国士兵，但会误杀附近的 <strong>1名</strong> 敌国平民。</p> <p>平民照片如下图所示。</p> <p></p> <img src='stimuli/faces/PCF4.jpg', style='max-width: 30%;'> </img> <p><strong>你是否选择发射武器？</strong></p>","1",""
"","","","","","html-keyboard-response","82","190141","0.0-4.0-0.39","61","1","2022-11-13 08:36:01","a60ee176136a54a92dc2853177adfa2c","124.160.213.244","Mozilla/5.0 (Linux; Android 12; SAMSUNG SM-G973U1) AppleWebKit/537.36 (KHTML, like Gecko) SamsungBrowser/19.0 Chrome/102.0.5005.125 Mobile Safari/537.36","Samsung","Chrome","102.0.5005.125","AndroidOS","12","null","<div style=""font-size:60px;"">+</div>","null",""
"","","","","","html-button-response","83","192011","0.0-4.0-1.39","61","1","2022-11-13 08:36:01","a60ee176136a54a92dc2853177adfa2c","124.160.213.244","Mozilla/5.0 (Linux; Android 12; SAMSUNG SM-G973U1) AppleWebKit/537.36 (KHTML, like Gecko) SamsungBrowser/19.0 Chrome/102.0.5005.125 Mobile Safari/537.36","Samsung","Chrome","102.0.5005.125","AndroidOS","12","1856","<p>作为军队的指挥官，你可以选择发射导弹杀死 <strong>1名</strong> 敌国士兵，但会误杀附近的 <strong>1名</strong> 敌国平民。</p> <p>平民照片如下图所示。</p> <p></p> <img src='stimuli/faces/PCF2.jpg', style='max-width: 30%;'> </img> <p><strong>你是否选择发射武器？</strong></p>","1",""
"","","","","","html-keyboard-response","84","193020","0.0-4.0-0.40","61","1","2022-11-13 08:36:01","a60ee176136a54a92dc2853177adfa2c","124.160.213.244","Mozilla/5.0 (Linux; Android 12; SAMSUNG SM-G973U1) AppleWebKit/537.36 (KHTML, like Gecko) SamsungBrowser/19.0 Chrome/102.0.5005.125 Mobile Safari/537.36","Samsung","Chrome","102.0.5005.125","AndroidOS","12","null","<div style=""font-size:60px;"">+</div>","null",""
"","","","","","html-button-response","85","194817","0.0-4.0-1.40","61","1","2022-11-13 08:36:01","a60ee176136a54a92dc2853177adfa2c","124.160.213.244","Mozilla/5.0 (Linux; Android 12; SAMSUNG SM-G973U1) AppleWebKit/537.36 (KHTML, like Gecko) SamsungBrowser/19.0 Chrome/102.0.5005.125 Mobile Safari/537.36","Samsung","Chrome","102.0.5005.125","AndroidOS","12","1786","<p>作为军队的指挥官，你可以选择发射导弹杀死 <strong>5名</strong> 敌国士兵，但会误杀附近的 <strong>1名</strong> 敌国平民。</p> <p>平民照片如下图所示。</p> <p></p> <img src='stimuli/faces/PCF5.jpg', style='max-width: 30%;'> </img> <p><strong>你是否选择发射武器？</strong></p>","1",""
"","","","","","html-keyboard-response","86","195825","0.0-4.0-0.41","61","1","2022-11-13 08:36:01","a60ee176136a54a92dc2853177adfa2c","124.160.213.244","Mozilla/5.0 (Linux; Android 12; SAMSUNG SM-G973U1) AppleWebKit/537.36 (KHTML, like Gecko) SamsungBrowser/19.0 Chrome/102.0.5005.125 Mobile Safari/537.36","Samsung","Chrome","102.0.5005.125","AndroidOS","12","null","<div style=""font-size:60px;"">+</div>","null",""
"","","","","","html-button-response","87","196589","0.0-4.0-1.41","61","1","2022-11-13 08:36:01","a60ee176136a54a92dc2853177adfa2c","124.160.213.244","Mozilla/5.0 (Linux; Android 12; SAMSUNG SM-G973U1) AppleWebKit/537.36 (KHTML, like Gecko) SamsungBrowser/19.0 Chrome/102.0.5005.125 Mobile Safari/537.36","Samsung","Chrome","102.0.5005.125","AndroidOS","12","753","<p>作为军队的指挥官，你可以选择发射导弹杀死 <strong>7名</strong> 敌国士兵，但会炸毁附近的 <strong>1棵</strong> 敌国树木。</p> <p>树木的照片如下图所示。</p> <p></p> <img src='stimuli/trees/10.png', style='max-width: 30%;'> </img> <p><strong>你是否选择发射武器？</strong></p>","0",""
"","","","","","html-keyboard-response","88","197597","0.0-4.0-0.42","61","1","2022-11-13 08:36:01","a60ee176136a54a92dc2853177adfa2c","124.160.213.244","Mozilla/5.0 (Linux; Android 12; SAMSUNG SM-G973U1) AppleWebKit/537.36 (KHTML, like Gecko) SamsungBrowser/19.0 Chrome/102.0.5005.125 Mobile Safari/537.36","Samsung","Chrome","102.0.5005.125","AndroidOS","12","null","<div style=""font-size:60px;"">+</div>","null",""
"","","","","","html-button-response","89","198679","0.0-4.0-1.42","61","1","2022-11-13 08:36:01","a60ee176136a54a92dc2853177adfa2c","124.160.213.244","Mozilla/5.0 (Linux; Android 12; SAMSUNG SM-G973U1) AppleWebKit/537.36 (KHTML, like Gecko) SamsungBrowser/19.0 Chrome/102.0.5005.125 Mobile Safari/537.36","Samsung","Chrome","102.0.5005.125","AndroidOS","12","1071","<p>作为军队的指挥官，你可以选择发射导弹杀死 <strong>2名</strong> 敌国士兵，但会误杀附近的 <strong>1名</strong> 敌国平民。</p> <p>平民照片如下图所示。</p> <p></p> <img src='stimuli/faces/PCF3.jpg', style='max-width: 30%;'> </img> <p><strong>你是否选择发射武器？</strong></p>","1",""
"","","","","","html-keyboard-response","90","199685","0.0-4.0-0.43","61","1","2022-11-13 08:36:01","a60ee176136a54a92dc2853177adfa2c","124.160.213.244","Mozilla/5.0 (Linux; Android 12; SAMSUNG SM-G973U1) AppleWebKit/537.36 (KHTML, like Gecko) SamsungBrowser/19.0 Chrome/102.0.5005.125 Mobile Safari/537.36","Samsung","Chrome","102.0.5005.125","AndroidOS","12","null","<div style=""font-size:60px;"">+</div>","null",""
"","","","","","html-button-response","91","201106","0.0-4.0-1.43","61","1","2022-11-13 08:36:01","a60ee176136a54a92dc2853177adfa2c","124.160.213.244","Mozilla/5.0 (Linux; Android 12; SAMSUNG SM-G973U1) AppleWebKit/537.36 (KHTML, like Gecko) SamsungBrowser/19.0 Chrome/102.0.5005.125 Mobile Safari/537.36","Samsung","Chrome","102.0.5005.125","AndroidOS","12","1413","<p>作为军队的指挥官，你可以选择发射导弹杀死 <strong>9名</strong> 敌国士兵，但会误杀附近的 <strong>1名</strong> 敌国平民。</p> <p>平民照片如下图所示。</p> <p></p> <img src='stimuli/faces/PCF7.jpg', style='max-width: 30%;'> </img> <p><strong>你是否选择发射武器？</strong></p>","1",""
"","","","","","html-keyboard-response","92","202112","0.0-4.0-0.44","61","1","2022-11-13 08:36:01","a60ee176136a54a92dc2853177adfa2c","124.160.213.244","Mozilla/5.0 (Linux; Android 12; SAMSUNG SM-G973U1) AppleWebKit/537.36 (KHTML, like Gecko) SamsungBrowser/19.0 Chrome/102.0.5005.125 Mobile Safari/537.36","Samsung","Chrome","102.0.5005.125","AndroidOS","12","null","<div style=""font-size:60px;"">+</div>","null",""
"","","","","","html-button-response","93","203277","0.0-4.0-1.44","61","1","2022-11-13 08:36:01","a60ee176136a54a92dc2853177adfa2c","124.160.213.244","Mozilla/5.0 (Linux; Android 12; SAMSUNG SM-G973U1) AppleWebKit/537.36 (KHTML, like Gecko) SamsungBrowser/19.0 Chrome/102.0.5005.125 Mobile Safari/537.36","Samsung","Chrome","102.0.5005.125","AndroidOS","12","1153","<p>作为军队的指挥官，你可以选择发射导弹杀死 <strong>7名</strong> 敌国士兵，但会误杀附近的 <strong>1名</strong> 敌国平民。</p> <p>平民照片如下图所示。</p> <p></p> <img src='stimuli/faces/PCM3.jpg', style='max-width: 30%;'> </img> <p><strong>你是否选择发射武器？</strong></p>","1",""
"","","","","","html-keyboard-response","94","204285","0.0-4.0-0.45","61","1","2022-11-13 08:36:01","a60ee176136a54a92dc2853177adfa2c","124.160.213.244","Mozilla/5.0 (Linux; Android 12; SAMSUNG SM-G973U1) AppleWebKit/537.36 (KHTML, like Gecko) SamsungBrowser/19.0 Chrome/102.0.5005.125 Mobile Safari/537.36","Samsung","Chrome","102.0.5005.125","AndroidOS","12","null","<div style=""font-size:60px;"">+</div>","null",""
"","","","","","html-button-response","95","205539","0.0-4.0-1.45","61","1","2022-11-13 08:36:01","a60ee176136a54a92dc2853177adfa2c","124.160.213.244","Mozilla/5.0 (Linux; Android 12; SAMSUNG SM-G973U1) AppleWebKit/537.36 (KHTML, like Gecko) SamsungBrowser/19.0 Chrome/102.0.5005.125 Mobile Safari/537.36","Samsung","Chrome","102.0.5005.125","AndroidOS","12","1239","<p>作为军队的指挥官，你可以选择发射导弹杀死 <strong>1名</strong> 敌国士兵，但会误杀附近的 <strong>1名</strong> 敌国平民。</p> <p>平民照片如下图所示。</p> <p></p> <img src='stimuli/faces/PCF6.jpg', style='max-width: 30%;'> </img> <p><strong>你是否选择发射武器？</strong></p>","1",""
"","","","","","html-keyboard-response","96","206546","0.0-4.0-0.46","61","1","2022-11-13 08:36:01","a60ee176136a54a92dc2853177adfa2c","124.160.213.244","Mozilla/5.0 (Linux; Android 12; SAMSUNG SM-G973U1) AppleWebKit/537.36 (KHTML, like Gecko) SamsungBrowser/19.0 Chrome/102.0.5005.125 Mobile Safari/537.36","Samsung","Chrome","102.0.5005.125","AndroidOS","12","null","<div style=""font-size:60px;"">+</div>","null",""
"","","","","","html-button-response","97","208823","0.0-4.0-1.46","61","1","2022-11-13 08:36:01","a60ee176136a54a92dc2853177adfa2c","124.160.213.244","Mozilla/5.0 (Linux; Android 12; SAMSUNG SM-G973U1) AppleWebKit/537.36 (KHTML, like Gecko) SamsungBrowser/19.0 Chrome/102.0.5005.125 Mobile Safari/537.36","Samsung","Chrome","102.0.5005.125","AndroidOS","12","2264","<p>作为军队的指挥官，你可以选择发射导弹杀死 <strong>5名</strong> 敌国士兵，但会炸毁附近的 <strong>1棵</strong> 敌国树木。</p> <p>树木的照片如下图所示。</p> <p></p> <img src='stimuli/trees/16.png', style='max-width: 30%;'> </img> <p><strong>你是否选择发射武器？</strong></p>","0",""
"","","","","","html-keyboard-response","98","209832","0.0-4.0-0.47","61","1","2022-11-13 08:36:01","a60ee176136a54a92dc2853177adfa2c","124.160.213.244","Mozilla/5.0 (Linux; Android 12; SAMSUNG SM-G973U1) AppleWebKit/537.36 (KHTML, like Gecko) SamsungBrowser/19.0 Chrome/102.0.5005.125 Mobile Safari/537.36","Samsung","Chrome","102.0.5005.125","AndroidOS","12","null","<div style=""font-size:60px;"">+</div>","null",""
"","","","","","html-button-response","99","210728","0.0-4.0-1.47","61","1","2022-11-13 08:36:01","a60ee176136a54a92dc2853177adfa2c","124.160.213.244","Mozilla/5.0 (Linux; Android 12; SAMSUNG SM-G973U1) AppleWebKit/537.36 (KHTML, like Gecko) SamsungBrowser/19.0 Chrome/102.0.5005.125 Mobile Safari/537.36","Samsung","Chrome","102.0.5005.125","AndroidOS","12","885","<p>作为军队的指挥官，你可以选择发射导弹杀死 <strong>6名</strong> 敌国士兵，但会炸毁附近的 <strong>1棵</strong> 敌国树木。</p> <p>树木的照片如下图所示。</p> <p></p> <img src='stimuli/trees/3.png', style='max-width: 30%;'> </img> <p><strong>你是否选择发射武器？</strong></p>","0",""
"","","","","","html-keyboard-response","100","211737","0.0-4.0-0.48","61","1","2022-11-13 08:36:01","a60ee176136a54a92dc2853177adfa2c","124.160.213.244","Mozilla/5.0 (Linux; Android 12; SAMSUNG SM-G973U1) AppleWebKit/537.36 (KHTML, like Gecko) SamsungBrowser/19.0 Chrome/102.0.5005.125 Mobile Safari/537.36","Samsung","Chrome","102.0.5005.125","AndroidOS","12","null","<div style=""font-size:60px;"">+</div>","null",""
"","","","","","html-button-response","101","212884","0.0-4.0-1.48","61","1","2022-11-13 08:36:01","a60ee176136a54a92dc2853177adfa2c","124.160.213.244","Mozilla/5.0 (Linux; Android 12; SAMSUNG SM-G973U1) AppleWebKit/537.36 (KHTML, like Gecko) SamsungBrowser/19.0 Chrome/102.0.5005.125 Mobile Safari/537.36","Samsung","Chrome","102.0.5005.125","AndroidOS","12","1135","<p>作为军队的指挥官，你可以选择发射导弹杀死 <strong>4名</strong> 敌国士兵，但会炸毁附近的 <strong>1棵</strong> 敌国树木。</p> <p>树木的照片如下图所示。</p> <p></p> <img src='stimuli/trees/13.png', style='max-width: 30%;'> </img> <p><strong>你是否选择发射武器？</strong></p>","0",""
"","","","","","html-keyboard-response","102","213893","0.0-4.0-0.49","61","1","2022-11-13 08:36:01","a60ee176136a54a92dc2853177adfa2c","124.160.213.244","Mozilla/5.0 (Linux; Android 12; SAMSUNG SM-G973U1) AppleWebKit/537.36 (KHTML, like Gecko) SamsungBrowser/19.0 Chrome/102.0.5005.125 Mobile Safari/537.36","Samsung","Chrome","102.0.5005.125","AndroidOS","12","null","<div style=""font-size:60px;"">+</div>","null",""
"","","","","","html-button-response","103","214721","0.0-4.0-1.49","61","1","2022-11-13 08:36:01","a60ee176136a54a92dc2853177adfa2c","124.160.213.244","Mozilla/5.0 (Linux; Android 12; SAMSUNG SM-G973U1) AppleWebKit/537.36 (KHTML, like Gecko) SamsungBrowser/19.0 Chrome/102.0.5005.125 Mobile Safari/537.36","Samsung","Chrome","102.0.5005.125","AndroidOS","12","814","<p>作为军队的指挥官，你可以选择发射导弹杀死 <strong>8名</strong> 敌国士兵，但会炸毁附近的 <strong>1棵</strong> 敌国树木。</p> <p>树木的照片如下图所示。</p> <p></p> <img src='stimuli/trees/9.png', style='max-width: 30%;'> </img> <p><strong>你是否选择发射武器？</strong></p>","0",""
"","","","","","html-keyboard-response","104","215728","0.0-4.0-0.50","61","1","2022-11-13 08:36:01","a60ee176136a54a92dc2853177adfa2c","124.160.213.244","Mozilla/5.0 (Linux; Android 12; SAMSUNG SM-G973U1) AppleWebKit/537.36 (KHTML, like Gecko) SamsungBrowser/19.0 Chrome/102.0.5005.125 Mobile Safari/537.36","Samsung","Chrome","102.0.5005.125","AndroidOS","12","null","<div style=""font-size:60px;"">+</div>","null",""
"","","","","","html-button-response","105","218647","0.0-4.0-1.50","61","1","2022-11-13 08:36:01","a60ee176136a54a92dc2853177adfa2c","124.160.213.244","Mozilla/5.0 (Linux; Android 12; SAMSUNG SM-G973U1) AppleWebKit/537.36 (KHTML, like Gecko) SamsungBrowser/19.0 Chrome/102.0.5005.125 Mobile Safari/537.36","Samsung","Chrome","102.0.5005.125","AndroidOS","12","2907","<p>作为军队的指挥官，你可以选择发射导弹杀死 <strong>10名</strong> 敌国士兵，但会误杀附近的 <strong>1名</strong> 敌国平民。</p> <p>平民照片如下图所示。</p> <p></p> <img src='stimuli/faces/PCF6.jpg', style='max-width: 30%;'> </img> <p><strong>你是否选择发射武器？</strong></p>","1",""
"","","","","","html-keyboard-response","106","219656","0.0-4.0-0.51","61","1","2022-11-13 08:36:01","a60ee176136a54a92dc2853177adfa2c","124.160.213.244","Mozilla/5.0 (Linux; Android 12; SAMSUNG SM-G973U1) AppleWebKit/537.36 (KHTML, like Gecko) SamsungBrowser/19.0 Chrome/102.0.5005.125 Mobile Safari/537.36","Samsung","Chrome","102.0.5005.125","AndroidOS","12","null","<div style=""font-size:60px;"">+</div>","null",""
"","","","","","html-button-response","107","221471","0.0-4.0-1.51","61","1","2022-11-13 08:36:01","a60ee176136a54a92dc2853177adfa2c","124.160.213.244","Mozilla/5.0 (Linux; Android 12; SAMSUNG SM-G973U1) AppleWebKit/537.36 (KHTML, like Gecko) SamsungBrowser/19.0 Chrome/102.0.5005.125 Mobile Safari/537.36","Samsung","Chrome","102.0.5005.125","AndroidOS","12","1802","<p>作为军队的指挥官，你可以选择发射导弹杀死 <strong>5名</strong> 敌国士兵，但会炸毁附近的 <strong>1棵</strong> 敌国树木。</p> <p>树木的照片如下图所示。</p> <p></p> <img src='stimuli/trees/14.png', style='max-width: 30%;'> </img> <p><strong>你是否选择发射武器？</strong></p>","0",""
"","","","","","html-keyboard-response","108","222478","0.0-4.0-0.52","61","1","2022-11-13 08:36:01","a60ee176136a54a92dc2853177adfa2c","124.160.213.244","Mozilla/5.0 (Linux; Android 12; SAMSUNG SM-G973U1) AppleWebKit/537.36 (KHTML, like Gecko) SamsungBrowser/19.0 Chrome/102.0.5005.125 Mobile Safari/537.36","Samsung","Chrome","102.0.5005.125","AndroidOS","12","null","<div style=""font-size:60px;"">+</div>","null",""
"","","","","","html-button-response","109","223309","0.0-4.0-1.52","61","1","2022-11-13 08:36:01","a60ee176136a54a92dc2853177adfa2c","124.160.213.244","Mozilla/5.0 (Linux; Android 12; SAMSUNG SM-G973U1) AppleWebKit/537.36 (KHTML, like Gecko) SamsungBrowser/19.0 Chrome/102.0.5005.125 Mobile Safari/537.36","Samsung","Chrome","102.0.5005.125","AndroidOS","12","816","<p>作为军队的指挥官，你可以选择发射导弹杀死 <strong>9名</strong> 敌国士兵，但会炸毁附近的 <strong>1棵</strong> 敌国树木。</p> <p>树木的照片如下图所示。</p> <p></p> <img src='stimuli/trees/8.png', style='max-width: 30%;'> </img> <p><strong>你是否选择发射武器？</strong></p>","0",""
"","","","","","html-keyboard-response","110","224318","0.0-4.0-0.53","61","1","2022-11-13 08:36:01","a60ee176136a54a92dc2853177adfa2c","124.160.213.244","Mozilla/5.0 (Linux; Android 12; SAMSUNG SM-G973U1) AppleWebKit/537.36 (KHTML, like Gecko) SamsungBrowser/19.0 Chrome/102.0.5005.125 Mobile Safari/537.36","Samsung","Chrome","102.0.5005.125","AndroidOS","12","null","<div style=""font-size:60px;"">+</div>","null",""
"","","","","","html-button-response","111","225139","0.0-4.0-1.53","61","1","2022-11-13 08:36:01","a60ee176136a54a92dc2853177adfa2c","124.160.213.244","Mozilla/5.0 (Linux; Android 12; SAMSUNG SM-G973U1) AppleWebKit/537.36 (KHTML, like Gecko) SamsungBrowser/19.0 Chrome/102.0.5005.125 Mobile Safari/537.36","Samsung","Chrome","102.0.5005.125","AndroidOS","12","807","<p>作为军队的指挥官，你可以选择发射导弹杀死 <strong>8名</strong> 敌国士兵，但会炸毁附近的 <strong>1棵</strong> 敌国树木。</p> <p>树木的照片如下图所示。</p> <p></p> <img src='stimuli/trees/1.png', style='max-width: 30%;'> </img> <p><strong>你是否选择发射武器？</strong></p>","0",""
"","","","","","html-keyboard-response","112","226149","0.0-4.0-0.54","61","1","2022-11-13 08:36:01","a60ee176136a54a92dc2853177adfa2c","124.160.213.244","Mozilla/5.0 (Linux; Android 12; SAMSUNG SM-G973U1) AppleWebKit/537.36 (KHTML, like Gecko) SamsungBrowser/19.0 Chrome/102.0.5005.125 Mobile Safari/537.36","Samsung","Chrome","102.0.5005.125","AndroidOS","12","null","<div style=""font-size:60px;"">+</div>","null",""
"","","","","","html-button-response","113","226909","0.0-4.0-1.54","61","1","2022-11-13 08:36:01","a60ee176136a54a92dc2853177adfa2c","124.160.213.244","Mozilla/5.0 (Linux; Android 12; SAMSUNG SM-G973U1) AppleWebKit/537.36 (KHTML, like Gecko) SamsungBrowser/19.0 Chrome/102.0.5005.125 Mobile Safari/537.36","Samsung","Chrome","102.0.5005.125","AndroidOS","12","748","<p>作为军队的指挥官，你可以选择发射导弹杀死 <strong>9名</strong> 敌国士兵，但会炸毁附近的 <strong>1棵</strong> 敌国树木。</p> <p>树木的照片如下图所示。</p> <p></p> <img src='stimuli/trees/12.png', style='max-width: 30%;'> </img> <p><strong>你是否选择发射武器？</strong></p>","0",""
"","","","","","html-keyboard-response","114","227918","0.0-4.0-0.55","61","1","2022-11-13 08:36:01","a60ee176136a54a92dc2853177adfa2c","124.160.213.244","Mozilla/5.0 (Linux; Android 12; SAMSUNG SM-G973U1) AppleWebKit/537.36 (KHTML, like Gecko) SamsungBrowser/19.0 Chrome/102.0.5005.125 Mobile Safari/537.36","Samsung","Chrome","102.0.5005.125","AndroidOS","12","null","<div style=""font-size:60px;"">+</div>","null",""
"","","","","","html-button-response","115","228782","0.0-4.0-1.55","61","1","2022-11-13 08:36:01","a60ee176136a54a92dc2853177adfa2c","124.160.213.244","Mozilla/5.0 (Linux; Android 12; SAMSUNG SM-G973U1) AppleWebKit/537.36 (KHTML, like Gecko) SamsungBrowser/19.0 Chrome/102.0.5005.125 Mobile Safari/537.36","Samsung","Chrome","102.0.5005.125","AndroidOS","12","850","<p>作为军队的指挥官，你可以选择发射导弹杀死 <strong>8名</strong> 敌国士兵，但会误杀附近的 <strong>1名</strong> 敌国平民。</p> <p>平民照片如下图所示。</p> <p></p> <img src='stimuli/faces/PCM2.jpg', style='max-width: 30%;'> </img> <p><strong>你是否选择发射武器？</strong></p>","1",""
"","","","","","html-keyboard-response","116","229792","0.0-4.0-0.56","61","1","2022-11-13 08:36:01","a60ee176136a54a92dc2853177adfa2c","124.160.213.244","Mozilla/5.0 (Linux; Android 12; SAMSUNG SM-G973U1) AppleWebKit/537.36 (KHTML, like Gecko) SamsungBrowser/19.0 Chrome/102.0.5005.125 Mobile Safari/537.36","Samsung","Chrome","102.0.5005.125","AndroidOS","12","null","<div style=""font-size:60px;"">+</div>","null",""
"","","","","","html-button-response","117","230832","0.0-4.0-1.56","61","1","2022-11-13 08:36:01","a60ee176136a54a92dc2853177adfa2c","124.160.213.244","Mozilla/5.0 (Linux; Android 12; SAMSUNG SM-G973U1) AppleWebKit/537.36 (KHTML, like Gecko) SamsungBrowser/19.0 Chrome/102.0.5005.125 Mobile Safari/537.36","Samsung","Chrome","102.0.5005.125","AndroidOS","12","1027","<p>作为军队的指挥官，你可以选择发射导弹杀死 <strong>4名</strong> 敌国士兵，但会误杀附近的 <strong>1名</strong> 敌国平民。</p> <p>平民照片如下图所示。</p> <p></p> <img src='stimuli/faces/PCM4.jpg', style='max-width: 30%;'> </img> <p><strong>你是否选择发射武器？</strong></p>","1",""
"","","","","","html-keyboard-response","118","231843","0.0-4.0-0.57","61","1","2022-11-13 08:36:01","a60ee176136a54a92dc2853177adfa2c","124.160.213.244","Mozilla/5.0 (Linux; Android 12; SAMSUNG SM-G973U1) AppleWebKit/537.36 (KHTML, like Gecko) SamsungBrowser/19.0 Chrome/102.0.5005.125 Mobile Safari/537.36","Samsung","Chrome","102.0.5005.125","AndroidOS","12","null","<div style=""font-size:60px;"">+</div>","null",""
"","","","","","html-button-response","119","233356","0.0-4.0-1.57","61","1","2022-11-13 08:36:01","a60ee176136a54a92dc2853177adfa2c","124.160.213.244","Mozilla/5.0 (Linux; Android 12; SAMSUNG SM-G973U1) AppleWebKit/537.36 (KHTML, like Gecko) SamsungBrowser/19.0 Chrome/102.0.5005.125 Mobile Safari/537.36","Samsung","Chrome","102.0.5005.125","AndroidOS","12","1498","<p>作为军队的指挥官，你可以选择发射导弹杀死 <strong>3名</strong> 敌国士兵，但会误杀附近的 <strong>1名</strong> 敌国平民。</p> <p>平民照片如下图所示。</p> <p></p> <img src='stimuli/faces/PCF4.jpg', style='max-width: 30%;'> </img> <p><strong>你是否选择发射武器？</strong></p>","1",""
"","","","","","html-keyboard-response","120","234363","0.0-4.0-0.58","61","1","2022-11-13 08:36:01","a60ee176136a54a92dc2853177adfa2c","124.160.213.244","Mozilla/5.0 (Linux; Android 12; SAMSUNG SM-G973U1) AppleWebKit/537.36 (KHTML, like Gecko) SamsungBrowser/19.0 Chrome/102.0.5005.125 Mobile Safari/537.36","Samsung","Chrome","102.0.5005.125","AndroidOS","12","null","<div style=""font-size:60px;"">+</div>","null",""
"","","","","","html-button-response","121","237188","0.0-4.0-1.58","61","1","2022-11-13 08:36:01","a60ee176136a54a92dc2853177adfa2c","124.160.213.244","Mozilla/5.0 (Linux; Android 12; SAMSUNG SM-G973U1) AppleWebKit/537.36 (KHTML, like Gecko) SamsungBrowser/19.0 Chrome/102.0.5005.125 Mobile Safari/537.36","Samsung","Chrome","102.0.5005.125","AndroidOS","12","2811","<p>作为军队的指挥官，你可以选择发射导弹杀死 <strong>6名</strong> 敌国士兵，但会炸毁附近的 <strong>1棵</strong> 敌国树木。</p> <p>树木的照片如下图所示。</p> <p></p> <img src='stimuli/trees/16.png', style='max-width: 30%;'> </img> <p><strong>你是否选择发射武器？</strong></p>","0",""
"","","","","","html-keyboard-response","122","238202","0.0-4.0-0.59","61","1","2022-11-13 08:36:01","a60ee176136a54a92dc2853177adfa2c","124.160.213.244","Mozilla/5.0 (Linux; Android 12; SAMSUNG SM-G973U1) AppleWebKit/537.36 (KHTML, like Gecko) SamsungBrowser/19.0 Chrome/102.0.5005.125 Mobile Safari/537.36","Samsung","Chrome","102.0.5005.125","AndroidOS","12","null","<div style=""font-size:60px;"">+</div>","null",""
"","","","","","html-button-response","123","239300","0.0-4.0-1.59","61","1","2022-11-13 08:36:01","a60ee176136a54a92dc2853177adfa2c","124.160.213.244","Mozilla/5.0 (Linux; Android 12; SAMSUNG SM-G973U1) AppleWebKit/537.36 (KHTML, like Gecko) SamsungBrowser/19.0 Chrome/102.0.5005.125 Mobile Safari/537.36","Samsung","Chrome","102.0.5005.125","AndroidOS","12","1082","<p>作为军队的指挥官，你可以选择发射导弹杀死 <strong>10名</strong> 敌国士兵，但会误杀附近的 <strong>1名</strong> 敌国平民。</p> <p>平民照片如下图所示。</p> <p></p> <img src='stimuli/faces/PCF5.jpg', style='max-width: 30%;'> </img> <p><strong>你是否选择发射武器？</strong></p>","1",""
"","","","","","html-keyboard-response","124","240309","0.0-4.0-0.60","61","1","2022-11-13 08:36:01","a60ee176136a54a92dc2853177adfa2c","124.160.213.244","Mozilla/5.0 (Linux; Android 12; SAMSUNG SM-G973U1) AppleWebKit/537.36 (KHTML, like Gecko) SamsungBrowser/19.0 Chrome/102.0.5005.125 Mobile Safari/537.36","Samsung","Chrome","102.0.5005.125","AndroidOS","12","null","<div style=""font-size:60px;"">+</div>","null",""
"","","","","","html-button-response","125","241858","0.0-4.0-1.60","61","1","2022-11-13 08:36:01","a60ee176136a54a92dc2853177adfa2c","124.160.213.244","Mozilla/5.0 (Linux; Android 12; SAMSUNG SM-G973U1) AppleWebKit/537.36 (KHTML, like Gecko) SamsungBrowser/19.0 Chrome/102.0.5005.125 Mobile Safari/537.36","Samsung","Chrome","102.0.5005.125","AndroidOS","12","1536","<p>作为军队的指挥官，你可以选择发射导弹杀死 <strong>6名</strong> 敌国士兵，但会炸毁附近的 <strong>1棵</strong> 敌国树木。</p> <p>树木的照片如下图所示。</p> <p></p> <img src='stimuli/trees/5.png', style='max-width: 30%;'> </img> <p><strong>你是否选择发射武器？</strong></p>","0",""
"","","","","","html-keyboard-response","126","242868","0.0-4.0-0.61","61","1","2022-11-13 08:36:01","a60ee176136a54a92dc2853177adfa2c","124.160.213.244","Mozilla/5.0 (Linux; Android 12; SAMSUNG SM-G973U1) AppleWebKit/537.36 (KHTML, like Gecko) SamsungBrowser/19.0 Chrome/102.0.5005.125 Mobile Safari/537.36","Samsung","Chrome","102.0.5005.125","AndroidOS","12","null","<div style=""font-size:60px;"">+</div>","null",""
"","","","","","html-button-response","127","243683","0.0-4.0-1.61","61","1","2022-11-13 08:36:01","a60ee176136a54a92dc2853177adfa2c","124.160.213.244","Mozilla/5.0 (Linux; Android 12; SAMSUNG SM-G973U1) AppleWebKit/537.36 (KHTML, like Gecko) SamsungBrowser/19.0 Chrome/102.0.5005.125 Mobile Safari/537.36","Samsung","Chrome","102.0.5005.125","AndroidOS","12","802","<p>作为军队的指挥官，你可以选择发射导弹杀死 <strong>5名</strong> 敌国士兵，但会炸毁附近的 <strong>1棵</strong> 敌国树木。</p> <p>树木的照片如下图所示。</p> <p></p> <img src='stimuli/trees/5.png', style='max-width: 30%;'> </img> <p><strong>你是否选择发射武器？</strong></p>","0",""
"","","","","","html-keyboard-response","128","244692","0.0-4.0-0.62","61","1","2022-11-13 08:36:01","a60ee176136a54a92dc2853177adfa2c","124.160.213.244","Mozilla/5.0 (Linux; Android 12; SAMSUNG SM-G973U1) AppleWebKit/537.36 (KHTML, like Gecko) SamsungBrowser/19.0 Chrome/102.0.5005.125 Mobile Safari/537.36","Samsung","Chrome","102.0.5005.125","AndroidOS","12","null","<div style=""font-size:60px;"">+</div>","null",""
"","","","","","html-button-response","129","245643","0.0-4.0-1.62","61","1","2022-11-13 08:36:01","a60ee176136a54a92dc2853177adfa2c","124.160.213.244","Mozilla/5.0 (Linux; Android 12; SAMSUNG SM-G973U1) AppleWebKit/537.36 (KHTML, like Gecko) SamsungBrowser/19.0 Chrome/102.0.5005.125 Mobile Safari/537.36","Samsung","Chrome","102.0.5005.125","AndroidOS","12","935","<p>作为军队的指挥官，你可以选择发射导弹杀死 <strong>5名</strong> 敌国士兵，但会误杀附近的 <strong>1名</strong> 敌国平民。</p> <p>平民照片如下图所示。</p> <p></p> <img src='stimuli/faces/PCM8.jpg', style='max-width: 30%;'> </img> <p><strong>你是否选择发射武器？</strong></p>","1",""
"","","","","","html-keyboard-response","130","246653","0.0-4.0-0.63","61","1","2022-11-13 08:36:01","a60ee176136a54a92dc2853177adfa2c","124.160.213.244","Mozilla/5.0 (Linux; Android 12; SAMSUNG SM-G973U1) AppleWebKit/537.36 (KHTML, like Gecko) SamsungBrowser/19.0 Chrome/102.0.5005.125 Mobile Safari/537.36","Samsung","Chrome","102.0.5005.125","AndroidOS","12","null","<div style=""font-size:60px;"">+</div>","null",""
"","","","","","html-button-response","131","247934","0.0-4.0-1.63","61","1","2022-11-13 08:36:01","a60ee176136a54a92dc2853177adfa2c","124.160.213.244","Mozilla/5.0 (Linux; Android 12; SAMSUNG SM-G973U1) AppleWebKit/537.36 (KHTML, like Gecko) SamsungBrowser/19.0 Chrome/102.0.5005.125 Mobile Safari/537.36","Samsung","Chrome","102.0.5005.125","AndroidOS","12","1267","<p>作为军队的指挥官，你可以选择发射导弹杀死 <strong>9名</strong> 敌国士兵，但会误杀附近的 <strong>1名</strong> 敌国平民。</p> <p>平民照片如下图所示。</p> <p></p> <img src='stimuli/faces/PCM5.jpg', style='max-width: 30%;'> </img> <p><strong>你是否选择发射武器？</strong></p>","1",""
"","","","","","survey-multi-choice","132","272467","0.0-5.0","61","1","2022-11-13 08:36:01","a60ee176136a54a92dc2853177adfa2c","124.160.213.244","Mozilla/5.0 (Linux; Android 12; SAMSUNG SM-G973U1) AppleWebKit/537.36 (KHTML, like Gecko) SamsungBrowser/19.0 Chrome/102.0.5005.125 Mobile Safari/537.36","Samsung","Chrome","102.0.5005.125","AndroidOS","12","24520","","{""Attention1"":""""}","[0]"
"","","","","","html-button-response","133","275770","0.0-6.0","61","1","2022-11-13 08:36:01","a60ee176136a54a92dc2853177adfa2c","124.160.213.244","Mozilla/5.0 (Linux; Android 12; SAMSUNG SM-G973U1) AppleWebKit/537.36 (KHTML, like Gecko) SamsungBrowser/19.0 Chrome/102.0.5005.125 Mobile Safari/537.36","Samsung","Chrome","102.0.5005.125","AndroidOS","12","3290","<p style=""font-size:20px;font-weight:bold;"">恭喜！</p><p>你已经完成了实验的第一部分。</p><p>请休息放松一下，然后进入第二部分。</p><p>这部分大约需要10分钟。</p>","0",""
"","","","","","survey-text","134","313066","0.0-7.0","61","1","2022-11-13 08:36:01","a60ee176136a54a92dc2853177adfa2c","124.160.213.244","Mozilla/5.0 (Linux; Android 12; SAMSUNG SM-G973U1) AppleWebKit/537.36 (KHTML, like Gecko) SamsungBrowser/19.0 Chrome/102.0.5005.125 Mobile Safari/537.36","Samsung","Chrome","102.0.5005.125","AndroidOS","12","36264","","{""Age"":""26"",""Nation"":""中国"",""Born"":""宁夏回族自治区固原市"",""Live"":""北京市"",""Ethnic"":""汉族"",""Alipay"":""975993094@qq.com""}",""
"","","","","","survey-multi-choice","135","344245","0.0-8.0","61","1","2022-11-13 08:36:01","a60ee176136a54a92dc2853177adfa2c","124.160.213.244","Mozilla/5.0 (Linux; Android 12; SAMSUNG SM-G973U1) AppleWebKit/537.36 (KHTML, like Gecko) SamsungBrowser/19.0 Chrome/102.0.5005.125 Mobile Safari/537.36","Samsung","Chrome","102.0.5005.125","AndroidOS","12","31168","","{""Gender"":""男"",""Education"":""硕士研究生毕业"",""Income"":""￥140,000-￥269,999"",""Children"":""0"",""Race"":""亚洲人""}","[0,1,2,3,4]"
"","","","","","survey-multi-select","136","350363","0.0-9.0","61","1","2022-11-13 08:36:01","a60ee176136a54a92dc2853177adfa2c","124.160.213.244","Mozilla/5.0 (Linux; Android 12; SAMSUNG SM-G973U1) AppleWebKit/537.36 (KHTML, like Gecko) SamsungBrowser/19.0 Chrome/102.0.5005.125 Mobile Safari/537.36","Samsung","Chrome","102.0.5005.125","AndroidOS","12","6091","","{""Marriage"":[""未婚""],""Religion"":[""无宗教信仰""]}","[0,1]"
"","","","","","survey-multi-choice","137","366241","0.0-10.0","61","1","2022-11-13 08:36:01","a60ee176136a54a92dc2853177adfa2c","124.160.213.244","Mozilla/5.0 (Linux; Android 12; SAMSUNG SM-G973U1) AppleWebKit/537.36 (KHTML, like Gecko) SamsungBrowser/19.0 Chrome/102.0.5005.125 Mobile Safari/537.36","Samsung","Chrome","102.0.5005.125","AndroidOS","12","15865","","{""SES"":""4""}","[0]"
"","","","","","html-button-response","138","371194","0.0-11.0","61","1","2022-11-13 08:36:01","a60ee176136a54a92dc2853177adfa2c","124.160.213.244","Mozilla/5.0 (Linux; Android 12; SAMSUNG SM-G973U1) AppleWebKit/537.36 (KHTML, like Gecko) SamsungBrowser/19.0 Chrome/102.0.5005.125 Mobile Safari/537.36","Samsung","Chrome","102.0.5005.125","AndroidOS","12","4940","<p><strong>请判断下列陈述在多大程度上可以形容你？</p><p> (1 = ""和我一点都不像"" to 5 = ""非常像我"".)</strong></p>","0",""
"","","","","","survey-likert","139","397797","0.0-12.0","61","1","2022-11-13 08:36:01","a60ee176136a54a92dc2853177adfa2c","124.160.213.244","Mozilla/5.0 (Linux; Android 12; SAMSUNG SM-G973U1) AppleWebKit/537.36 (KHTML, like Gecko) SamsungBrowser/19.0 Chrome/102.0.5005.125 Mobile Safari/537.36","Samsung","Chrome","102.0.5005.125","AndroidOS","12","26586","","{""Aggression1"":0,""Aggression2"":1,""Aggression3"":1,""Aggression4"":0,""Aggression5"":2,""Aggression6"":1,""Aggression7"":2,""Aggression8"":0,""Aggression9"":0}","[0,1,2,3,4,5,6,7,8]"
"","","","","","html-button-response","140","399374","0.0-13.0","61","1","2022-11-13 08:36:01","a60ee176136a54a92dc2853177adfa2c","124.160.213.244","Mozilla/5.0 (Linux; Android 12; SAMSUNG SM-G973U1) AppleWebKit/537.36 (KHTML, like Gecko) SamsungBrowser/19.0 Chrome/102.0.5005.125 Mobile Safari/537.36","Samsung","Chrome","102.0.5005.125","AndroidOS","12","1566","<p><strong>请判断你在多大程度上同意下列陈述。</strong></p>","0",""
"","","","","","survey-likert","141","492601","0.0-14.0","61","1","2022-11-13 08:36:01","a60ee176136a54a92dc2853177adfa2c","124.160.213.244","Mozilla/5.0 (Linux; Android 12; SAMSUNG SM-G973U1) AppleWebKit/537.36 (KHTML, like Gecko) SamsungBrowser/19.0 Chrome/102.0.5005.125 Mobile Safari/537.36","Samsung","Chrome","102.0.5005.125","AndroidOS","12","93208","","{""scale10"":2,""scale27"":1,""scale14"":3,""scale28"":2,""scale13"":3,""scale2"":2,""scale4"":1,""scale7"":3,""scale12"":3,""scale22"":2,""scale8"":3,""scale11"":3,""scale9"":3,""scale6"":3,""scale5"":2,""scale26"":2,""scale25"":2,""scale23"":1,""scale24"":2,""scale3"":2,""scale16"":1,""scale17"":2,""scale20"":2,""scale21"":2,""scale19"":2,""scale15"":1,""scale18"":1,""scale1"":2}","[9,26,13,27,12,1,3,6,11,21,7,10,8,5,4,25,24,22,23,2,15,16,19,20,18,14,17,0]"
"","","","","","html-button-response","142","494182","0.0-15.0","61","1","2022-11-13 08:36:01","a60ee176136a54a92dc2853177adfa2c","124.160.213.244","Mozilla/5.0 (Linux; Android 12; SAMSUNG SM-G973U1) AppleWebKit/537.36 (KHTML, like Gecko) SamsungBrowser/19.0 Chrome/102.0.5005.125 Mobile Safari/537.36","Samsung","Chrome","102.0.5005.125","AndroidOS","12","1569","<p><strong>请判断你在多大程度上同意下列陈述。</strong></p>","0",""
"","","","","","survey-likert","143","549496","0.0-16.0","61","1","2022-11-13 08:36:01","a60ee176136a54a92dc2853177adfa2c","124.160.213.244","Mozilla/5.0 (Linux; Android 12; SAMSUNG SM-G973U1) AppleWebKit/537.36 (KHTML, like Gecko) SamsungBrowser/19.0 Chrome/102.0.5005.125 Mobile Safari/537.36","Samsung","Chrome","102.0.5005.125","AndroidOS","12","55295","","{""sdo10"":6,""sdo11"":6,""sdo9"":6,""sdo16"":6,""sdo12"":6,""sdo6"":1,""sdo2"":2,""sdo7"":0,""sdo5"":0,""sdo8"":1,""sdo15"":6,""sdo1"":0,""sdo13"":6,""sdo14"":6,""sdo4"":1,""sdo3"":0}","[9,10,8,15,11,5,1,6,4,7,14,0,12,13,3,2]"
"","","","","","html-button-response","144","550698","0.0-17.0","61","1","2022-11-13 08:36:01","a60ee176136a54a92dc2853177adfa2c","124.160.213.244","Mozilla/5.0 (Linux; Android 12; SAMSUNG SM-G973U1) AppleWebKit/537.36 (KHTML, like Gecko) SamsungBrowser/19.0 Chrome/102.0.5005.125 Mobile Safari/537.36","Samsung","Chrome","102.0.5005.125","AndroidOS","12","1191","<p><strong>请判断你在多大程度上同意下列陈述。</strong></p>","0",""
"","","","","","survey-likert","145","595387","0.0-18.0","61","1","2022-11-13 08:36:01","a60ee176136a54a92dc2853177adfa2c","124.160.213.244","Mozilla/5.0 (Linux; Android 12; SAMSUNG SM-G973U1) AppleWebKit/537.36 (KHTML, like Gecko) SamsungBrowser/19.0 Chrome/102.0.5005.125 Mobile Safari/537.36","Samsung","Chrome","102.0.5005.125","AndroidOS","12","44673","","{""caring1"":3,""liking1"":2,""caring2"":3,""protection1"":3,""liking2"":1,""caring3"":3,""protection2"":2,""liking3"":2,""protection3"":3,""caring4"":3,""liking4"":1,""protection4"":2,""caring5"":3,""liking5"":2,""protection5"":2}","[0,1,2,3,4,5,6,7,8,9,10,11,12,13,14]"
"","","","","","html-button-response","146","596479","0.0-19.0","61","1","2022-11-13 08:36:01","a60ee176136a54a92dc2853177adfa2c","124.160.213.244","Mozilla/5.0 (Linux; Android 12; SAMSUNG SM-G973U1) AppleWebKit/537.36 (KHTML, like Gecko) SamsungBrowser/19.0 Chrome/102.0.5005.125 Mobile Safari/537.36","Samsung","Chrome","102.0.5005.125","AndroidOS","12","1080","<p><strong>请判断下列场景中你的内心感受有多柔软。</strong></p>","0",""
"","","","","","survey-likert","147","622037","0.0-20.0","61","1","2022-11-13 08:36:01","a60ee176136a54a92dc2853177adfa2c","124.160.213.244","Mozilla/5.0 (Linux; Android 12; SAMSUNG SM-G973U1) AppleWebKit/537.36 (KHTML, like Gecko) SamsungBrowser/19.0 Chrome/102.0.5005.125 Mobile Safari/537.36","Samsung","Chrome","102.0.5005.125","AndroidOS","12","25543","","{""tenderness-positive1"":3,""tenderness-negative1"":3,""tenderness-negative2"":1,""tenderness-positive2"":3,""tenderness-positive3"":3,""tenderness-negative3"":1,""tenderness-positive4"":3,""tenderness-negative4"":3,""tenderness-negative5"":3,""tenderness-positive5"":4}","[0,1,2,3,4,5,6,7,8,9]"
"","","","","","survey-multi-choice","148","634530","0.0-21.0","61","1","2022-11-13 08:36:01","a60ee176136a54a92dc2853177adfa2c","124.160.213.244","Mozilla/5.0 (Linux; Android 12; SAMSUNG SM-G973U1) AppleWebKit/537.36 (KHTML, like Gecko) SamsungBrowser/19.0 Chrome/102.0.5005.125 Mobile Safari/537.36","Samsung","Chrome","102.0.5005.125","AndroidOS","12","12480","","{""Attention2"":""其他""}","[0]"
"","","","","","html-button-response","149","635950","0.0-22.0","61","1","2022-11-13 08:36:01","a60ee176136a54a92dc2853177adfa2c","124.160.213.244","Mozilla/5.0 (Linux; Android 12; SAMSUNG SM-G973U1) AppleWebKit/537.36 (KHTML, like Gecko) SamsungBrowser/19.0 Chrome/102.0.5005.125 Mobile Safari/537.36","Samsung","Chrome","102.0.5005.125","AndroidOS","12","1406","<p><strong>请判断你在多大程度上同意下列陈述。</strong></p>","0",""
"","","","","","survey-likert","150","716313","0.0-23.0","61","1","2022-11-13 08:36:01","a60ee176136a54a92dc2853177adfa2c","124.160.213.244","Mozilla/5.0 (Linux; Android 12; SAMSUNG SM-G973U1) AppleWebKit/537.36 (KHTML, like Gecko) SamsungBrowser/19.0 Chrome/102.0.5005.125 Mobile Safari/537.36","Samsung","Chrome","102.0.5005.125","AndroidOS","12","80346","","{""Nation7"":3,""Nation5"":2,""Patri10"":0,""Patri12"":2,""Patri11"":3,""Patri9"":3,""Nation3"":3,""Nation2"":2,""Patri3"":3,""Patri7"":3,""Patri8"":4,""Patri6"":1,""Patri4"":4,""Patri1"":4,""Patri2"":4,""Nation4"":1,""Patri5"":3,""Nation8"":3,""Nation1"":1,""Nation6"":1}","[18,16,9,11,10,8,14,13,2,6,7,5,3,0,1,15,4,19,12,17]"
"","","","","","html-button-response","151","717382","0.0-24.0","61","1","2022-11-13 08:36:01","a60ee176136a54a92dc2853177adfa2c","124.160.213.244","Mozilla/5.0 (Linux; Android 12; SAMSUNG SM-G973U1) AppleWebKit/537.36 (KHTML, like Gecko) SamsungBrowser/19.0 Chrome/102.0.5005.125 Mobile Safari/537.36","Samsung","Chrome","102.0.5005.125","AndroidOS","12","1056","<p><strong>请判断你在多大程度上同意下列陈述。</strong></p>","0",""
"","","","","","survey-likert","152","777147","0.0-25.0","61","1","2022-11-13 08:36:01","a60ee176136a54a92dc2853177adfa2c","124.160.213.244","Mozilla/5.0 (Linux; Android 12; SAMSUNG SM-G973U1) AppleWebKit/537.36 (KHTML, like Gecko) SamsungBrowser/19.0 Chrome/102.0.5005.125 Mobile Safari/537.36","Samsung","Chrome","102.0.5005.125","AndroidOS","12","59743","","{""vc3"":6,""vc4"":6,""vi3"":8,""vi4"":7,""hi2"":8,""hc1"":4,""vc2"":6,""vi2"":2,""vi1"":7,""vc1"":8,""hi1"":8,""hc4"":4,""hi4"":8,""hc2"":5,""Robot"":6,""hi3"":5,""hc3"":3}","[15,16,6,8,1,9,14,5,4,13,0,12,3,10,7,2,11]"
"","","","","","survey-text","153","822828","0.0-26.0","61","1","2022-11-13 08:36:01","a60ee176136a54a92dc2853177adfa2c","124.160.213.244","Mozilla/5.0 (Linux; Android 12; SAMSUNG SM-G973U1) AppleWebKit/537.36 (KHTML, like Gecko) SamsungBrowser/19.0 Chrome/102.0.5005.125 Mobile Safari/537.36","Samsung","Chrome","102.0.5005.125","AndroidOS","12","45664","","{""Comments"":""建议增加更多反应中国当下社会现状的场景和问题。""}",""
"","","","","","html-button-response","154","823877","0.0-27.0","61","1","2022-11-13 08:36:01","a60ee176136a54a92dc2853177adfa2c","124.160.213.244","Mozilla/5.0 (Linux; Android 12; SAMSUNG SM-G973U1) AppleWebKit/537.36 (KHTML, like Gecko) SamsungBrowser/19.0 Chrome/102.0.5005.125 Mobile Safari/537.36","Samsung","Chrome","102.0.5005.125","AndroidOS","12","1040","<strong><p>恭喜你完成了实验！</p><p>感谢您的参与。</p></strong>","0",""
