"success","timeout","failed_images","failed_audio","failed_video","trial_type","trial_index","time_elapsed","internal_node_id","run_id","condition","recorded_at","source_code_version","ip","user_agent","device","browser","browser_version","platform","platform_version","rt","stimulus","response","question_order"
"true","false","[]","[]","[]","preload","0","1195","0.0-0.0","63","1","2022-11-13 08:44:54","a60ee176136a54a92dc2853177adfa2c","202.119.46.129","Mozilla/5.0 (Macintosh; Intel Mac OS X 10_15_7) AppleWebKit/537.36 (KHTML, like Gecko) Chrome/107.0.0.0 Safari/537.36","Macintosh","Chrome","107.0.0.0","OS X","10_15_7","","","",""
"true","","","","","fullscreen","1","6952","0.0-1.0","63","1","2022-11-13 08:44:54","a60ee176136a54a92dc2853177adfa2c","202.119.46.129","Mozilla/5.0 (Macintosh; Intel Mac OS X 10_15_7) AppleWebKit/537.36 (KHTML, like Gecko) Chrome/107.0.0.0 Safari/537.36","Macintosh","Chrome","107.0.0.0","OS X","10_15_7","","","",""
"","","","","","html-button-response","2","24613","0.0-2.0","63","1","2022-11-13 08:44:54","a60ee176136a54a92dc2853177adfa2c","202.119.46.129","Mozilla/5.0 (Macintosh; Intel Mac OS X 10_15_7) AppleWebKit/537.36 (KHTML, like Gecko) Chrome/107.0.0.0 Safari/537.36","Macintosh","Chrome","107.0.0.0","OS X","10_15_7","17658","<p style=""font-size:20px;font-weight:bold;"">实验知情同意书</p><p style=""text-align:left;""><strong>实验名称：</strong>社会冲突研究</p><p style=""text-align:left;""><strong>主要研究者：</strong>韩晓春副教授（北京师范大学心理学部）</p><p style=""text-align:left;""><strong>联系方式：</strong>发送邮件至xiaochun.han@bnu.edu.cn</p><p style=""text-align:left;""><strong>研究目的：</strong>研究旨在了解人类面对群体冲突时的决策方式，以及相关的心理学特质。实验调查大约需要20分钟。</p><p style=""text-align:left;""><strong>实验流程：</strong>实验包含两部分。第一部分呈现一系列群体冲突场景，请你决定如何对这些冲突进行反应，大约需要10分钟完成。第二部分包含一系列人口统计学信息收集和心理学问卷，大约需要10分钟完成。</p><p style=""text-align:left;""><strong>参加及退出规则：</strong>参加本实验完全取决于您的个人意愿。在参与过程中，您可以随时退出，并且不用承担任何后果。</p><p style=""text-align:left;""><strong>隐私：</strong>本实验完全匿名进行，不会收集您的姓名或其他能够识别您身份的信息。实验中收集的作答仅用作科学研究使用，可能会在学术期刊/书籍上发表，或者用于教学，您的数据未来可能会和其他研究者或实验室分享，但您的个人身份不会被识别。</p><p style=""text-align:left;""><strong>实验报酬：</strong>实验完成后，您将获得15元人民币报酬，以感谢您的时间和努力。调查问卷中包含几道题目用以测验您作答时的认真度。只有完成全部实验，并且正确回答认真度测验的被试才能获得实验报酬。实验报酬将通过支付宝转账发放。</p><p style=""text-align:left;font-size:20px;""><strong>如果您同意以上实验知情同意书的内容，请点击'同意并且开始实验'按钮；否则请关闭浏览器界面，退出实验。</strong></p>","0",""
"","","","","","html-button-response","3","41646","0.0-3.0","63","1","2022-11-13 08:44:54","a60ee176136a54a92dc2853177adfa2c","202.119.46.129","Mozilla/5.0 (Macintosh; Intel Mac OS X 10_15_7) AppleWebKit/537.36 (KHTML, like Gecko) Chrome/107.0.0.0 Safari/537.36","Macintosh","Chrome","107.0.0.0","OS X","10_15_7","17029","<p ><strong>实验任务一：</strong></p><p>请想象你的国家与另一个国家发生了军事冲突。</p><p>你是国家军队的指挥官，你将如何在冲突中进行决策。</p><p>具体来说，作为军队指挥官，请你决定是否发射导弹进行打击。</p><p>接下来，你会面对一系列场景，请仔细阅读每个场景，然后进行决策。</p><p>这部分实验任务大约需要10分钟。</p><p><strong>实验过程中，请集中注意力。</strong></p>","0",""
"","","","","","html-keyboard-response","4","42651","0.0-4.0-0.0","63","1","2022-11-13 08:44:54","a60ee176136a54a92dc2853177adfa2c","202.119.46.129","Mozilla/5.0 (Macintosh; Intel Mac OS X 10_15_7) AppleWebKit/537.36 (KHTML, like Gecko) Chrome/107.0.0.0 Safari/537.36","Macintosh","Chrome","107.0.0.0","OS X","10_15_7","null","<div style=""font-size:60px;"">+</div>","null",""
"","","","","","html-button-response","5","48532","0.0-4.0-1.0","63","1","2022-11-13 08:44:54","a60ee176136a54a92dc2853177adfa2c","202.119.46.129","Mozilla/5.0 (Macintosh; Intel Mac OS X 10_15_7) AppleWebKit/537.36 (KHTML, like Gecko) Chrome/107.0.0.0 Safari/537.36","Macintosh","Chrome","107.0.0.0","OS X","10_15_7","5874","<p>作为军队的指挥官，你可以选择发射导弹杀死 <strong>2名</strong> 敌国士兵，但会炸毁附近的 <strong>1棵</strong> 敌国树木。</p> <p>树木的照片如下图所示。</p> <p></p> <img src='stimuli/trees/14.png', style='max-width: 30%;'> </img> <p><strong>你是否选择发射武器？</strong></p>","1",""
"","","","","","html-keyboard-response","6","49541","0.0-4.0-0.1","63","1","2022-11-13 08:44:54","a60ee176136a54a92dc2853177adfa2c","202.119.46.129","Mozilla/5.0 (Macintosh; Intel Mac OS X 10_15_7) AppleWebKit/537.36 (KHTML, like Gecko) Chrome/107.0.0.0 Safari/537.36","Macintosh","Chrome","107.0.0.0","OS X","10_15_7","null","<div style=""font-size:60px;"">+</div>","null",""
"","","","","","html-button-response","7","52832","0.0-4.0-1.1","63","1","2022-11-13 08:44:54","a60ee176136a54a92dc2853177adfa2c","202.119.46.129","Mozilla/5.0 (Macintosh; Intel Mac OS X 10_15_7) AppleWebKit/537.36 (KHTML, like Gecko) Chrome/107.0.0.0 Safari/537.36","Macintosh","Chrome","107.0.0.0","OS X","10_15_7","3287","<p>作为军队的指挥官，你可以选择发射导弹杀死 <strong>1名</strong> 敌国士兵，但会炸毁附近的 <strong>1棵</strong> 敌国树木。</p> <p>树木的照片如下图所示。</p> <p></p> <img src='stimuli/trees/6.png', style='max-width: 30%;'> </img> <p><strong>你是否选择发射武器？</strong></p>","1",""
"","","","","","html-keyboard-response","8","53843","0.0-4.0-0.2","63","1","2022-11-13 08:44:54","a60ee176136a54a92dc2853177adfa2c","202.119.46.129","Mozilla/5.0 (Macintosh; Intel Mac OS X 10_15_7) AppleWebKit/537.36 (KHTML, like Gecko) Chrome/107.0.0.0 Safari/537.36","Macintosh","Chrome","107.0.0.0","OS X","10_15_7","null","<div style=""font-size:60px;"">+</div>","null",""
"","","","","","html-button-response","9","60476","0.0-4.0-1.2","63","1","2022-11-13 08:44:54","a60ee176136a54a92dc2853177adfa2c","202.119.46.129","Mozilla/5.0 (Macintosh; Intel Mac OS X 10_15_7) AppleWebKit/537.36 (KHTML, like Gecko) Chrome/107.0.0.0 Safari/537.36","Macintosh","Chrome","107.0.0.0","OS X","10_15_7","6631","<p>作为军队的指挥官，你可以选择发射导弹杀死 <strong>6名</strong> 敌国士兵，但会炸毁附近的 <strong>1棵</strong> 敌国树木。</p> <p>树木的照片如下图所示。</p> <p></p> <img src='stimuli/trees/12.png', style='max-width: 30%;'> </img> <p><strong>你是否选择发射武器？</strong></p>","0",""
"","","","","","html-keyboard-response","10","61485","0.0-4.0-0.3","63","1","2022-11-13 08:44:54","a60ee176136a54a92dc2853177adfa2c","202.119.46.129","Mozilla/5.0 (Macintosh; Intel Mac OS X 10_15_7) AppleWebKit/537.36 (KHTML, like Gecko) Chrome/107.0.0.0 Safari/537.36","Macintosh","Chrome","107.0.0.0","OS X","10_15_7","null","<div style=""font-size:60px;"">+</div>","null",""
"","","","","","html-button-response","11","64255","0.0-4.0-1.3","63","1","2022-11-13 08:44:54","a60ee176136a54a92dc2853177adfa2c","202.119.46.129","Mozilla/5.0 (Macintosh; Intel Mac OS X 10_15_7) AppleWebKit/537.36 (KHTML, like Gecko) Chrome/107.0.0.0 Safari/537.36","Macintosh","Chrome","107.0.0.0","OS X","10_15_7","2768","<p>作为军队的指挥官，你可以选择发射导弹杀死 <strong>6名</strong> 敌国士兵，但会炸毁附近的 <strong>1棵</strong> 敌国树木。</p> <p>树木的照片如下图所示。</p> <p></p> <img src='stimuli/trees/14.png', style='max-width: 30%;'> </img> <p><strong>你是否选择发射武器？</strong></p>","0",""
"","","","","","html-keyboard-response","12","65260","0.0-4.0-0.4","63","1","2022-11-13 08:44:54","a60ee176136a54a92dc2853177adfa2c","202.119.46.129","Mozilla/5.0 (Macintosh; Intel Mac OS X 10_15_7) AppleWebKit/537.36 (KHTML, like Gecko) Chrome/107.0.0.0 Safari/537.36","Macintosh","Chrome","107.0.0.0","OS X","10_15_7","null","<div style=""font-size:60px;"">+</div>","null",""
"","","","","","html-button-response","13","68188","0.0-4.0-1.4","63","1","2022-11-13 08:44:54","a60ee176136a54a92dc2853177adfa2c","202.119.46.129","Mozilla/5.0 (Macintosh; Intel Mac OS X 10_15_7) AppleWebKit/537.36 (KHTML, like Gecko) Chrome/107.0.0.0 Safari/537.36","Macintosh","Chrome","107.0.0.0","OS X","10_15_7","2926","<p>作为军队的指挥官，你可以选择发射导弹杀死 <strong>9名</strong> 敌国士兵，但会炸毁附近的 <strong>1棵</strong> 敌国树木。</p> <p>树木的照片如下图所示。</p> <p></p> <img src='stimuli/trees/5.png', style='max-width: 30%;'> </img> <p><strong>你是否选择发射武器？</strong></p>","0",""
"","","","","","html-keyboard-response","14","69195","0.0-4.0-0.5","63","1","2022-11-13 08:44:54","a60ee176136a54a92dc2853177adfa2c","202.119.46.129","Mozilla/5.0 (Macintosh; Intel Mac OS X 10_15_7) AppleWebKit/537.36 (KHTML, like Gecko) Chrome/107.0.0.0 Safari/537.36","Macintosh","Chrome","107.0.0.0","OS X","10_15_7","null","<div style=""font-size:60px;"">+</div>","null",""
"","","","","","html-button-response","15","73612","0.0-4.0-1.5","63","1","2022-11-13 08:44:54","a60ee176136a54a92dc2853177adfa2c","202.119.46.129","Mozilla/5.0 (Macintosh; Intel Mac OS X 10_15_7) AppleWebKit/537.36 (KHTML, like Gecko) Chrome/107.0.0.0 Safari/537.36","Macintosh","Chrome","107.0.0.0","OS X","10_15_7","4414","<p>作为军队的指挥官，你可以选择发射导弹杀死 <strong>3名</strong> 敌国士兵，但会误杀附近的 <strong>1名</strong> 敌国平民。</p> <p>平民照片如下图所示。</p> <p></p> <img src='stimuli/faces/PCM4.jpg', style='max-width: 30%;'> </img> <p><strong>你是否选择发射武器？</strong></p>","1",""
"","","","","","html-keyboard-response","16","74622","0.0-4.0-0.6","63","1","2022-11-13 08:44:54","a60ee176136a54a92dc2853177adfa2c","202.119.46.129","Mozilla/5.0 (Macintosh; Intel Mac OS X 10_15_7) AppleWebKit/537.36 (KHTML, like Gecko) Chrome/107.0.0.0 Safari/537.36","Macintosh","Chrome","107.0.0.0","OS X","10_15_7","null","<div style=""font-size:60px;"">+</div>","null",""
"","","","","","html-button-response","17","78086","0.0-4.0-1.6","63","1","2022-11-13 08:44:54","a60ee176136a54a92dc2853177adfa2c","202.119.46.129","Mozilla/5.0 (Macintosh; Intel Mac OS X 10_15_7) AppleWebKit/537.36 (KHTML, like Gecko) Chrome/107.0.0.0 Safari/537.36","Macintosh","Chrome","107.0.0.0","OS X","10_15_7","3460","<p>作为军队的指挥官，你可以选择发射导弹杀死 <strong>10名</strong> 敌国士兵，但会误杀附近的 <strong>1名</strong> 敌国平民。</p> <p>平民照片如下图所示。</p> <p></p> <img src='stimuli/faces/PCM4.jpg', style='max-width: 30%;'> </img> <p><strong>你是否选择发射武器？</strong></p>","0",""
"","","","","","html-keyboard-response","18","79091","0.0-4.0-0.7","63","1","2022-11-13 08:44:54","a60ee176136a54a92dc2853177adfa2c","202.119.46.129","Mozilla/5.0 (Macintosh; Intel Mac OS X 10_15_7) AppleWebKit/537.36 (KHTML, like Gecko) Chrome/107.0.0.0 Safari/537.36","Macintosh","Chrome","107.0.0.0","OS X","10_15_7","null","<div style=""font-size:60px;"">+</div>","null",""
"","","","","","html-button-response","19","83515","0.0-4.0-1.7","63","1","2022-11-13 08:44:54","a60ee176136a54a92dc2853177adfa2c","202.119.46.129","Mozilla/5.0 (Macintosh; Intel Mac OS X 10_15_7) AppleWebKit/537.36 (KHTML, like Gecko) Chrome/107.0.0.0 Safari/537.36","Macintosh","Chrome","107.0.0.0","OS X","10_15_7","4420","<p>作为军队的指挥官，你可以选择发射导弹杀死 <strong>10名</strong> 敌国士兵，但会炸毁附近的 <strong>1棵</strong> 敌国树木。</p> <p>树木的照片如下图所示。</p> <p></p> <img src='stimuli/trees/7.png', style='max-width: 30%;'> </img> <p><strong>你是否选择发射武器？</strong></p>","0",""
"","","","","","html-keyboard-response","20","84522","0.0-4.0-0.8","63","1","2022-11-13 08:44:54","a60ee176136a54a92dc2853177adfa2c","202.119.46.129","Mozilla/5.0 (Macintosh; Intel Mac OS X 10_15_7) AppleWebKit/537.36 (KHTML, like Gecko) Chrome/107.0.0.0 Safari/537.36","Macintosh","Chrome","107.0.0.0","OS X","10_15_7","null","<div style=""font-size:60px;"">+</div>","null",""
"","","","","","html-button-response","21","86949","0.0-4.0-1.8","63","1","2022-11-13 08:44:54","a60ee176136a54a92dc2853177adfa2c","202.119.46.129","Mozilla/5.0 (Macintosh; Intel Mac OS X 10_15_7) AppleWebKit/537.36 (KHTML, like Gecko) Chrome/107.0.0.0 Safari/537.36","Macintosh","Chrome","107.0.0.0","OS X","10_15_7","2423","<p>作为军队的指挥官，你可以选择发射导弹杀死 <strong>9名</strong> 敌国士兵，但会误杀附近的 <strong>1名</strong> 敌国平民。</p> <p>平民照片如下图所示。</p> <p></p> <img src='stimuli/faces/PCM5.jpg', style='max-width: 30%;'> </img> <p><strong>你是否选择发射武器？</strong></p>","0",""
"","","","","","html-keyboard-response","22","87958","0.0-4.0-0.9","63","1","2022-11-13 08:44:54","a60ee176136a54a92dc2853177adfa2c","202.119.46.129","Mozilla/5.0 (Macintosh; Intel Mac OS X 10_15_7) AppleWebKit/537.36 (KHTML, like Gecko) Chrome/107.0.0.0 Safari/537.36","Macintosh","Chrome","107.0.0.0","OS X","10_15_7","null","<div style=""font-size:60px;"">+</div>","null",""
"","","","","","html-button-response","23","93546","0.0-4.0-1.9","63","1","2022-11-13 08:44:54","a60ee176136a54a92dc2853177adfa2c","202.119.46.129","Mozilla/5.0 (Macintosh; Intel Mac OS X 10_15_7) AppleWebKit/537.36 (KHTML, like Gecko) Chrome/107.0.0.0 Safari/537.36","Macintosh","Chrome","107.0.0.0","OS X","10_15_7","5583","<p>作为军队的指挥官，你可以选择发射导弹杀死 <strong>4名</strong> 敌国士兵，但会误杀附近的 <strong>1名</strong> 敌国平民。</p> <p>平民照片如下图所示。</p> <p></p> <img src='stimuli/faces/PCM2.jpg', style='max-width: 30%;'> </img> <p><strong>你是否选择发射武器？</strong></p>","1",""
"","","","","","html-keyboard-response","24","94556","0.0-4.0-0.10","63","1","2022-11-13 08:44:54","a60ee176136a54a92dc2853177adfa2c","202.119.46.129","Mozilla/5.0 (Macintosh; Intel Mac OS X 10_15_7) AppleWebKit/537.36 (KHTML, like Gecko) Chrome/107.0.0.0 Safari/537.36","Macintosh","Chrome","107.0.0.0","OS X","10_15_7","null","<div style=""font-size:60px;"">+</div>","null",""
"","","","","","html-button-response","25","96437","0.0-4.0-1.10","63","1","2022-11-13 08:44:54","a60ee176136a54a92dc2853177adfa2c","202.119.46.129","Mozilla/5.0 (Macintosh; Intel Mac OS X 10_15_7) AppleWebKit/537.36 (KHTML, like Gecko) Chrome/107.0.0.0 Safari/537.36","Macintosh","Chrome","107.0.0.0","OS X","10_15_7","1877","<p>作为军队的指挥官，你可以选择发射导弹杀死 <strong>4名</strong> 敌国士兵，但会误杀附近的 <strong>1名</strong> 敌国平民。</p> <p>平民照片如下图所示。</p> <p></p> <img src='stimuli/faces/PCF8.jpg', style='max-width: 30%;'> </img> <p><strong>你是否选择发射武器？</strong></p>","1",""
"","","","","","html-keyboard-response","26","97442","0.0-4.0-0.11","63","1","2022-11-13 08:44:54","a60ee176136a54a92dc2853177adfa2c","202.119.46.129","Mozilla/5.0 (Macintosh; Intel Mac OS X 10_15_7) AppleWebKit/537.36 (KHTML, like Gecko) Chrome/107.0.0.0 Safari/537.36","Macintosh","Chrome","107.0.0.0","OS X","10_15_7","null","<div style=""font-size:60px;"">+</div>","null",""
"","","","","","html-button-response","27","99364","0.0-4.0-1.11","63","1","2022-11-13 08:44:54","a60ee176136a54a92dc2853177adfa2c","202.119.46.129","Mozilla/5.0 (Macintosh; Intel Mac OS X 10_15_7) AppleWebKit/537.36 (KHTML, like Gecko) Chrome/107.0.0.0 Safari/537.36","Macintosh","Chrome","107.0.0.0","OS X","10_15_7","1917","<p>作为军队的指挥官，你可以选择发射导弹杀死 <strong>4名</strong> 敌国士兵，但会误杀附近的 <strong>1名</strong> 敌国平民。</p> <p>平民照片如下图所示。</p> <p></p> <img src='stimuli/faces/PCM1.jpg', style='max-width: 30%;'> </img> <p><strong>你是否选择发射武器？</strong></p>","1",""
"","","","","","html-keyboard-response","28","100372","0.0-4.0-0.12","63","1","2022-11-13 08:44:54","a60ee176136a54a92dc2853177adfa2c","202.119.46.129","Mozilla/5.0 (Macintosh; Intel Mac OS X 10_15_7) AppleWebKit/537.36 (KHTML, like Gecko) Chrome/107.0.0.0 Safari/537.36","Macintosh","Chrome","107.0.0.0","OS X","10_15_7","null","<div style=""font-size:60px;"">+</div>","null",""
"","","","","","html-button-response","29","103758","0.0-4.0-1.12","63","1","2022-11-13 08:44:54","a60ee176136a54a92dc2853177adfa2c","202.119.46.129","Mozilla/5.0 (Macintosh; Intel Mac OS X 10_15_7) AppleWebKit/537.36 (KHTML, like Gecko) Chrome/107.0.0.0 Safari/537.36","Macintosh","Chrome","107.0.0.0","OS X","10_15_7","3381","<p>作为军队的指挥官，你可以选择发射导弹杀死 <strong>9名</strong> 敌国士兵，但会误杀附近的 <strong>1名</strong> 敌国平民。</p> <p>平民照片如下图所示。</p> <p></p> <img src='stimuli/faces/PCF3.jpg', style='max-width: 30%;'> </img> <p><strong>你是否选择发射武器？</strong></p>","0",""
"","","","","","html-keyboard-response","30","104772","0.0-4.0-0.13","63","1","2022-11-13 08:44:54","a60ee176136a54a92dc2853177adfa2c","202.119.46.129","Mozilla/5.0 (Macintosh; Intel Mac OS X 10_15_7) AppleWebKit/537.36 (KHTML, like Gecko) Chrome/107.0.0.0 Safari/537.36","Macintosh","Chrome","107.0.0.0","OS X","10_15_7","null","<div style=""font-size:60px;"">+</div>","null",""
"","","","","","html-button-response","31","110202","0.0-4.0-1.13","63","1","2022-11-13 08:44:54","a60ee176136a54a92dc2853177adfa2c","202.119.46.129","Mozilla/5.0 (Macintosh; Intel Mac OS X 10_15_7) AppleWebKit/537.36 (KHTML, like Gecko) Chrome/107.0.0.0 Safari/537.36","Macintosh","Chrome","107.0.0.0","OS X","10_15_7","5425","<p>作为军队的指挥官，你可以选择发射导弹杀死 <strong>1名</strong> 敌国士兵，但会炸毁附近的 <strong>1棵</strong> 敌国树木。</p> <p>树木的照片如下图所示。</p> <p></p> <img src='stimuli/trees/1.png', style='max-width: 30%;'> </img> <p><strong>你是否选择发射武器？</strong></p>","1",""
"","","","","","html-keyboard-response","32","111211","0.0-4.0-0.14","63","1","2022-11-13 08:44:54","a60ee176136a54a92dc2853177adfa2c","202.119.46.129","Mozilla/5.0 (Macintosh; Intel Mac OS X 10_15_7) AppleWebKit/537.36 (KHTML, like Gecko) Chrome/107.0.0.0 Safari/537.36","Macintosh","Chrome","107.0.0.0","OS X","10_15_7","null","<div style=""font-size:60px;"">+</div>","null",""
"","","","","","html-button-response","33","113047","0.0-4.0-1.14","63","1","2022-11-13 08:44:54","a60ee176136a54a92dc2853177adfa2c","202.119.46.129","Mozilla/5.0 (Macintosh; Intel Mac OS X 10_15_7) AppleWebKit/537.36 (KHTML, like Gecko) Chrome/107.0.0.0 Safari/537.36","Macintosh","Chrome","107.0.0.0","OS X","10_15_7","1831","<p>作为军队的指挥官，你可以选择发射导弹杀死 <strong>9名</strong> 敌国士兵，但会误杀附近的 <strong>1名</strong> 敌国平民。</p> <p>平民照片如下图所示。</p> <p></p> <img src='stimuli/faces/PCM2.jpg', style='max-width: 30%;'> </img> <p><strong>你是否选择发射武器？</strong></p>","0",""
"","","","","","html-keyboard-response","34","114060","0.0-4.0-0.15","63","1","2022-11-13 08:44:54","a60ee176136a54a92dc2853177adfa2c","202.119.46.129","Mozilla/5.0 (Macintosh; Intel Mac OS X 10_15_7) AppleWebKit/537.36 (KHTML, like Gecko) Chrome/107.0.0.0 Safari/537.36","Macintosh","Chrome","107.0.0.0","OS X","10_15_7","null","<div style=""font-size:60px;"">+</div>","null",""
"","","","","","html-button-response","35","117453","0.0-4.0-1.15","63","1","2022-11-13 08:44:54","a60ee176136a54a92dc2853177adfa2c","202.119.46.129","Mozilla/5.0 (Macintosh; Intel Mac OS X 10_15_7) AppleWebKit/537.36 (KHTML, like Gecko) Chrome/107.0.0.0 Safari/537.36","Macintosh","Chrome","107.0.0.0","OS X","10_15_7","3389","<p>作为军队的指挥官，你可以选择发射导弹杀死 <strong>1名</strong> 敌国士兵，但会误杀附近的 <strong>1名</strong> 敌国平民。</p> <p>平民照片如下图所示。</p> <p></p> <img src='stimuli/faces/PCF1.jpg', style='max-width: 30%;'> </img> <p><strong>你是否选择发射武器？</strong></p>","1",""
"","","","","","html-keyboard-response","36","118459","0.0-4.0-0.16","63","1","2022-11-13 08:44:54","a60ee176136a54a92dc2853177adfa2c","202.119.46.129","Mozilla/5.0 (Macintosh; Intel Mac OS X 10_15_7) AppleWebKit/537.36 (KHTML, like Gecko) Chrome/107.0.0.0 Safari/537.36","Macintosh","Chrome","107.0.0.0","OS X","10_15_7","null","<div style=""font-size:60px;"">+</div>","null",""
"","","","","","html-button-response","37","119710","0.0-4.0-1.16","63","1","2022-11-13 08:44:54","a60ee176136a54a92dc2853177adfa2c","202.119.46.129","Mozilla/5.0 (Macintosh; Intel Mac OS X 10_15_7) AppleWebKit/537.36 (KHTML, like Gecko) Chrome/107.0.0.0 Safari/537.36","Macintosh","Chrome","107.0.0.0","OS X","10_15_7","1246","<p>作为军队的指挥官，你可以选择发射导弹杀死 <strong>8名</strong> 敌国士兵，但会炸毁附近的 <strong>1棵</strong> 敌国树木。</p> <p>树木的照片如下图所示。</p> <p></p> <img src='stimuli/trees/1.png', style='max-width: 30%;'> </img> <p><strong>你是否选择发射武器？</strong></p>","0",""
"","","","","","html-keyboard-response","38","120720","0.0-4.0-0.17","63","1","2022-11-13 08:44:54","a60ee176136a54a92dc2853177adfa2c","202.119.46.129","Mozilla/5.0 (Macintosh; Intel Mac OS X 10_15_7) AppleWebKit/537.36 (KHTML, like Gecko) Chrome/107.0.0.0 Safari/537.36","Macintosh","Chrome","107.0.0.0","OS X","10_15_7","null","<div style=""font-size:60px;"">+</div>","null",""
"","","","","","html-button-response","39","122204","0.0-4.0-1.17","63","1","2022-11-13 08:44:54","a60ee176136a54a92dc2853177adfa2c","202.119.46.129","Mozilla/5.0 (Macintosh; Intel Mac OS X 10_15_7) AppleWebKit/537.36 (KHTML, like Gecko) Chrome/107.0.0.0 Safari/537.36","Macintosh","Chrome","107.0.0.0","OS X","10_15_7","1477","<p>作为军队的指挥官，你可以选择发射导弹杀死 <strong>9名</strong> 敌国士兵，但会误杀附近的 <strong>1名</strong> 敌国平民。</p> <p>平民照片如下图所示。</p> <p></p> <img src='stimuli/faces/PCF8.jpg', style='max-width: 30%;'> </img> <p><strong>你是否选择发射武器？</strong></p>","0",""
"","","","","","html-keyboard-response","40","123208","0.0-4.0-0.18","63","1","2022-11-13 08:44:54","a60ee176136a54a92dc2853177adfa2c","202.119.46.129","Mozilla/5.0 (Macintosh; Intel Mac OS X 10_15_7) AppleWebKit/537.36 (KHTML, like Gecko) Chrome/107.0.0.0 Safari/537.36","Macintosh","Chrome","107.0.0.0","OS X","10_15_7","null","<div style=""font-size:60px;"">+</div>","null",""
"","","","","","html-button-response","41","127374","0.0-4.0-1.18","63","1","2022-11-13 08:44:54","a60ee176136a54a92dc2853177adfa2c","202.119.46.129","Mozilla/5.0 (Macintosh; Intel Mac OS X 10_15_7) AppleWebKit/537.36 (KHTML, like Gecko) Chrome/107.0.0.0 Safari/537.36","Macintosh","Chrome","107.0.0.0","OS X","10_15_7","4161","<p>作为军队的指挥官，你可以选择发射导弹杀死 <strong>6名</strong> 敌国士兵，但会误杀附近的 <strong>1名</strong> 敌国平民。</p> <p>平民照片如下图所示。</p> <p></p> <img src='stimuli/faces/PCM6.jpg', style='max-width: 30%;'> </img> <p><strong>你是否选择发射武器？</strong></p>","0",""
"","","","","","html-keyboard-response","42","128387","0.0-4.0-0.19","63","1","2022-11-13 08:44:54","a60ee176136a54a92dc2853177adfa2c","202.119.46.129","Mozilla/5.0 (Macintosh; Intel Mac OS X 10_15_7) AppleWebKit/537.36 (KHTML, like Gecko) Chrome/107.0.0.0 Safari/537.36","Macintosh","Chrome","107.0.0.0","OS X","10_15_7","null","<div style=""font-size:60px;"">+</div>","null",""
"","","","","","html-button-response","43","130272","0.0-4.0-1.19","63","1","2022-11-13 08:44:54","a60ee176136a54a92dc2853177adfa2c","202.119.46.129","Mozilla/5.0 (Macintosh; Intel Mac OS X 10_15_7) AppleWebKit/537.36 (KHTML, like Gecko) Chrome/107.0.0.0 Safari/537.36","Macintosh","Chrome","107.0.0.0","OS X","10_15_7","1880","<p>作为军队的指挥官，你可以选择发射导弹杀死 <strong>10名</strong> 敌国士兵，但会炸毁附近的 <strong>1棵</strong> 敌国树木。</p> <p>树木的照片如下图所示。</p> <p></p> <img src='stimuli/trees/16.png', style='max-width: 30%;'> </img> <p><strong>你是否选择发射武器？</strong></p>","0",""
"","","","","","html-keyboard-response","44","131282","0.0-4.0-0.20","63","1","2022-11-13 08:44:54","a60ee176136a54a92dc2853177adfa2c","202.119.46.129","Mozilla/5.0 (Macintosh; Intel Mac OS X 10_15_7) AppleWebKit/537.36 (KHTML, like Gecko) Chrome/107.0.0.0 Safari/537.36","Macintosh","Chrome","107.0.0.0","OS X","10_15_7","null","<div style=""font-size:60px;"">+</div>","null",""
"","","","","","html-button-response","45","133331","0.0-4.0-1.20","63","1","2022-11-13 08:44:54","a60ee176136a54a92dc2853177adfa2c","202.119.46.129","Mozilla/5.0 (Macintosh; Intel Mac OS X 10_15_7) AppleWebKit/537.36 (KHTML, like Gecko) Chrome/107.0.0.0 Safari/537.36","Macintosh","Chrome","107.0.0.0","OS X","10_15_7","2043","<p>作为军队的指挥官，你可以选择发射导弹杀死 <strong>7名</strong> 敌国士兵，但会炸毁附近的 <strong>1棵</strong> 敌国树木。</p> <p>树木的照片如下图所示。</p> <p></p> <img src='stimuli/trees/8.png', style='max-width: 30%;'> </img> <p><strong>你是否选择发射武器？</strong></p>","0",""
"","","","","","html-keyboard-response","46","134337","0.0-4.0-0.21","63","1","2022-11-13 08:44:54","a60ee176136a54a92dc2853177adfa2c","202.119.46.129","Mozilla/5.0 (Macintosh; Intel Mac OS X 10_15_7) AppleWebKit/537.36 (KHTML, like Gecko) Chrome/107.0.0.0 Safari/537.36","Macintosh","Chrome","107.0.0.0","OS X","10_15_7","null","<div style=""font-size:60px;"">+</div>","null",""
"","","","","","html-button-response","47","135663","0.0-4.0-1.21","63","1","2022-11-13 08:44:54","a60ee176136a54a92dc2853177adfa2c","202.119.46.129","Mozilla/5.0 (Macintosh; Intel Mac OS X 10_15_7) AppleWebKit/537.36 (KHTML, like Gecko) Chrome/107.0.0.0 Safari/537.36","Macintosh","Chrome","107.0.0.0","OS X","10_15_7","1321","<p>作为军队的指挥官，你可以选择发射导弹杀死 <strong>7名</strong> 敌国士兵，但会炸毁附近的 <strong>1棵</strong> 敌国树木。</p> <p>树木的照片如下图所示。</p> <p></p> <img src='stimuli/trees/11.png', style='max-width: 30%;'> </img> <p><strong>你是否选择发射武器？</strong></p>","0",""
"","","","","","html-keyboard-response","48","136672","0.0-4.0-0.22","63","1","2022-11-13 08:44:54","a60ee176136a54a92dc2853177adfa2c","202.119.46.129","Mozilla/5.0 (Macintosh; Intel Mac OS X 10_15_7) AppleWebKit/537.36 (KHTML, like Gecko) Chrome/107.0.0.0 Safari/537.36","Macintosh","Chrome","107.0.0.0","OS X","10_15_7","null","<div style=""font-size:60px;"">+</div>","null",""
"","","","","","html-button-response","49","139365","0.0-4.0-1.22","63","1","2022-11-13 08:44:54","a60ee176136a54a92dc2853177adfa2c","202.119.46.129","Mozilla/5.0 (Macintosh; Intel Mac OS X 10_15_7) AppleWebKit/537.36 (KHTML, like Gecko) Chrome/107.0.0.0 Safari/537.36","Macintosh","Chrome","107.0.0.0","OS X","10_15_7","2687","<p>作为军队的指挥官，你可以选择发射导弹杀死 <strong>3名</strong> 敌国士兵，但会炸毁附近的 <strong>1棵</strong> 敌国树木。</p> <p>树木的照片如下图所示。</p> <p></p> <img src='stimuli/trees/5.png', style='max-width: 30%;'> </img> <p><strong>你是否选择发射武器？</strong></p>","1",""
"","","","","","html-keyboard-response","50","140376","0.0-4.0-0.23","63","1","2022-11-13 08:44:54","a60ee176136a54a92dc2853177adfa2c","202.119.46.129","Mozilla/5.0 (Macintosh; Intel Mac OS X 10_15_7) AppleWebKit/537.36 (KHTML, like Gecko) Chrome/107.0.0.0 Safari/537.36","Macintosh","Chrome","107.0.0.0","OS X","10_15_7","null","<div style=""font-size:60px;"">+</div>","null",""
"","","","","","html-button-response","51","141578","0.0-4.0-1.23","63","1","2022-11-13 08:44:54","a60ee176136a54a92dc2853177adfa2c","202.119.46.129","Mozilla/5.0 (Macintosh; Intel Mac OS X 10_15_7) AppleWebKit/537.36 (KHTML, like Gecko) Chrome/107.0.0.0 Safari/537.36","Macintosh","Chrome","107.0.0.0","OS X","10_15_7","1197","<p>作为军队的指挥官，你可以选择发射导弹杀死 <strong>6名</strong> 敌国士兵，但会炸毁附近的 <strong>1棵</strong> 敌国树木。</p> <p>树木的照片如下图所示。</p> <p></p> <img src='stimuli/trees/2.png', style='max-width: 30%;'> </img> <p><strong>你是否选择发射武器？</strong></p>","0",""
"","","","","","html-keyboard-response","52","142584","0.0-4.0-0.24","63","1","2022-11-13 08:44:54","a60ee176136a54a92dc2853177adfa2c","202.119.46.129","Mozilla/5.0 (Macintosh; Intel Mac OS X 10_15_7) AppleWebKit/537.36 (KHTML, like Gecko) Chrome/107.0.0.0 Safari/537.36","Macintosh","Chrome","107.0.0.0","OS X","10_15_7","null","<div style=""font-size:60px;"">+</div>","null",""
"","","","","","html-button-response","53","145144","0.0-4.0-1.24","63","1","2022-11-13 08:44:54","a60ee176136a54a92dc2853177adfa2c","202.119.46.129","Mozilla/5.0 (Macintosh; Intel Mac OS X 10_15_7) AppleWebKit/537.36 (KHTML, like Gecko) Chrome/107.0.0.0 Safari/537.36","Macintosh","Chrome","107.0.0.0","OS X","10_15_7","2555","<p>作为军队的指挥官，你可以选择发射导弹杀死 <strong>7名</strong> 敌国士兵，但会误杀附近的 <strong>1名</strong> 敌国平民。</p> <p>平民照片如下图所示。</p> <p></p> <img src='stimuli/faces/PCF5.jpg', style='max-width: 30%;'> </img> <p><strong>你是否选择发射武器？</strong></p>","0",""
"","","","","","html-keyboard-response","54","146154","0.0-4.0-0.25","63","1","2022-11-13 08:44:54","a60ee176136a54a92dc2853177adfa2c","202.119.46.129","Mozilla/5.0 (Macintosh; Intel Mac OS X 10_15_7) AppleWebKit/537.36 (KHTML, like Gecko) Chrome/107.0.0.0 Safari/537.36","Macintosh","Chrome","107.0.0.0","OS X","10_15_7","null","<div style=""font-size:60px;"">+</div>","null",""
"","","","","","html-button-response","55","148320","0.0-4.0-1.25","63","1","2022-11-13 08:44:54","a60ee176136a54a92dc2853177adfa2c","202.119.46.129","Mozilla/5.0 (Macintosh; Intel Mac OS X 10_15_7) AppleWebKit/537.36 (KHTML, like Gecko) Chrome/107.0.0.0 Safari/537.36","Macintosh","Chrome","107.0.0.0","OS X","10_15_7","2159","<p>作为军队的指挥官，你可以选择发射导弹杀死 <strong>2名</strong> 敌国士兵，但会炸毁附近的 <strong>1棵</strong> 敌国树木。</p> <p>树木的照片如下图所示。</p> <p></p> <img src='stimuli/trees/4.png', style='max-width: 30%;'> </img> <p><strong>你是否选择发射武器？</strong></p>","1",""
"","","","","","html-keyboard-response","56","149329","0.0-4.0-0.26","63","1","2022-11-13 08:44:54","a60ee176136a54a92dc2853177adfa2c","202.119.46.129","Mozilla/5.0 (Macintosh; Intel Mac OS X 10_15_7) AppleWebKit/537.36 (KHTML, like Gecko) Chrome/107.0.0.0 Safari/537.36","Macintosh","Chrome","107.0.0.0","OS X","10_15_7","null","<div style=""font-size:60px;"">+</div>","null",""
"","","","","","html-button-response","57","151233","0.0-4.0-1.26","63","1","2022-11-13 08:44:54","a60ee176136a54a92dc2853177adfa2c","202.119.46.129","Mozilla/5.0 (Macintosh; Intel Mac OS X 10_15_7) AppleWebKit/537.36 (KHTML, like Gecko) Chrome/107.0.0.0 Safari/537.36","Macintosh","Chrome","107.0.0.0","OS X","10_15_7","1899","<p>作为军队的指挥官，你可以选择发射导弹杀死 <strong>1名</strong> 敌国士兵，但会炸毁附近的 <strong>1棵</strong> 敌国树木。</p> <p>树木的照片如下图所示。</p> <p></p> <img src='stimuli/trees/7.png', style='max-width: 30%;'> </img> <p><strong>你是否选择发射武器？</strong></p>","1",""
"","","","","","html-keyboard-response","58","152244","0.0-4.0-0.27","63","1","2022-11-13 08:44:54","a60ee176136a54a92dc2853177adfa2c","202.119.46.129","Mozilla/5.0 (Macintosh; Intel Mac OS X 10_15_7) AppleWebKit/537.36 (KHTML, like Gecko) Chrome/107.0.0.0 Safari/537.36","Macintosh","Chrome","107.0.0.0","OS X","10_15_7","null","<div style=""font-size:60px;"">+</div>","null",""
"","","","","","html-button-response","59","154132","0.0-4.0-1.27","63","1","2022-11-13 08:44:54","a60ee176136a54a92dc2853177adfa2c","202.119.46.129","Mozilla/5.0 (Macintosh; Intel Mac OS X 10_15_7) AppleWebKit/537.36 (KHTML, like Gecko) Chrome/107.0.0.0 Safari/537.36","Macintosh","Chrome","107.0.0.0","OS X","10_15_7","1883","<p>作为军队的指挥官，你可以选择发射导弹杀死 <strong>2名</strong> 敌国士兵，但会误杀附近的 <strong>1名</strong> 敌国平民。</p> <p>平民照片如下图所示。</p> <p></p> <img src='stimuli/faces/PCM3.jpg', style='max-width: 30%;'> </img> <p><strong>你是否选择发射武器？</strong></p>","1",""
"","","","","","html-keyboard-response","60","155143","0.0-4.0-0.28","63","1","2022-11-13 08:44:54","a60ee176136a54a92dc2853177adfa2c","202.119.46.129","Mozilla/5.0 (Macintosh; Intel Mac OS X 10_15_7) AppleWebKit/537.36 (KHTML, like Gecko) Chrome/107.0.0.0 Safari/537.36","Macintosh","Chrome","107.0.0.0","OS X","10_15_7","null","<div style=""font-size:60px;"">+</div>","null",""
"","","","","","html-button-response","61","157420","0.0-4.0-1.28","63","1","2022-11-13 08:44:54","a60ee176136a54a92dc2853177adfa2c","202.119.46.129","Mozilla/5.0 (Macintosh; Intel Mac OS X 10_15_7) AppleWebKit/537.36 (KHTML, like Gecko) Chrome/107.0.0.0 Safari/537.36","Macintosh","Chrome","107.0.0.0","OS X","10_15_7","2272","<p>作为军队的指挥官，你可以选择发射导弹杀死 <strong>4名</strong> 敌国士兵，但会炸毁附近的 <strong>1棵</strong> 敌国树木。</p> <p>树木的照片如下图所示。</p> <p></p> <img src='stimuli/trees/2.png', style='max-width: 30%;'> </img> <p><strong>你是否选择发射武器？</strong></p>","1",""
"","","","","","html-keyboard-response","62","158435","0.0-4.0-0.29","63","1","2022-11-13 08:44:54","a60ee176136a54a92dc2853177adfa2c","202.119.46.129","Mozilla/5.0 (Macintosh; Intel Mac OS X 10_15_7) AppleWebKit/537.36 (KHTML, like Gecko) Chrome/107.0.0.0 Safari/537.36","Macintosh","Chrome","107.0.0.0","OS X","10_15_7","null","<div style=""font-size:60px;"">+</div>","null",""
"","","","","","html-button-response","63","160208","0.0-4.0-1.29","63","1","2022-11-13 08:44:54","a60ee176136a54a92dc2853177adfa2c","202.119.46.129","Mozilla/5.0 (Macintosh; Intel Mac OS X 10_15_7) AppleWebKit/537.36 (KHTML, like Gecko) Chrome/107.0.0.0 Safari/537.36","Macintosh","Chrome","107.0.0.0","OS X","10_15_7","1770","<p>作为军队的指挥官，你可以选择发射导弹杀死 <strong>4名</strong> 敌国士兵，但会误杀附近的 <strong>1名</strong> 敌国平民。</p> <p>平民照片如下图所示。</p> <p></p> <img src='stimuli/faces/PCM8.jpg', style='max-width: 30%;'> </img> <p><strong>你是否选择发射武器？</strong></p>","1",""
"","","","","","html-keyboard-response","64","161218","0.0-4.0-0.30","63","1","2022-11-13 08:44:54","a60ee176136a54a92dc2853177adfa2c","202.119.46.129","Mozilla/5.0 (Macintosh; Intel Mac OS X 10_15_7) AppleWebKit/537.36 (KHTML, like Gecko) Chrome/107.0.0.0 Safari/537.36","Macintosh","Chrome","107.0.0.0","OS X","10_15_7","null","<div style=""font-size:60px;"">+</div>","null",""
"","","","","","html-button-response","65","162541","0.0-4.0-1.30","63","1","2022-11-13 08:44:54","a60ee176136a54a92dc2853177adfa2c","202.119.46.129","Mozilla/5.0 (Macintosh; Intel Mac OS X 10_15_7) AppleWebKit/537.36 (KHTML, like Gecko) Chrome/107.0.0.0 Safari/537.36","Macintosh","Chrome","107.0.0.0","OS X","10_15_7","1318","<p>作为军队的指挥官，你可以选择发射导弹杀死 <strong>4名</strong> 敌国士兵，但会误杀附近的 <strong>1名</strong> 敌国平民。</p> <p>平民照片如下图所示。</p> <p></p> <img src='stimuli/faces/PCM7.jpg', style='max-width: 30%;'> </img> <p><strong>你是否选择发射武器？</strong></p>","1",""
"","","","","","html-keyboard-response","66","163554","0.0-4.0-0.31","63","1","2022-11-13 08:44:54","a60ee176136a54a92dc2853177adfa2c","202.119.46.129","Mozilla/5.0 (Macintosh; Intel Mac OS X 10_15_7) AppleWebKit/537.36 (KHTML, like Gecko) Chrome/107.0.0.0 Safari/537.36","Macintosh","Chrome","107.0.0.0","OS X","10_15_7","null","<div style=""font-size:60px;"">+</div>","null",""
"","","","","","html-button-response","67","165420","0.0-4.0-1.31","63","1","2022-11-13 08:44:54","a60ee176136a54a92dc2853177adfa2c","202.119.46.129","Mozilla/5.0 (Macintosh; Intel Mac OS X 10_15_7) AppleWebKit/537.36 (KHTML, like Gecko) Chrome/107.0.0.0 Safari/537.36","Macintosh","Chrome","107.0.0.0","OS X","10_15_7","1861","<p>作为军队的指挥官，你可以选择发射导弹杀死 <strong>4名</strong> 敌国士兵，但会炸毁附近的 <strong>1棵</strong> 敌国树木。</p> <p>树木的照片如下图所示。</p> <p></p> <img src='stimuli/trees/10.png', style='max-width: 30%;'> </img> <p><strong>你是否选择发射武器？</strong></p>","1",""
"","","","","","html-keyboard-response","68","166433","0.0-4.0-0.32","63","1","2022-11-13 08:44:54","a60ee176136a54a92dc2853177adfa2c","202.119.46.129","Mozilla/5.0 (Macintosh; Intel Mac OS X 10_15_7) AppleWebKit/537.36 (KHTML, like Gecko) Chrome/107.0.0.0 Safari/537.36","Macintosh","Chrome","107.0.0.0","OS X","10_15_7","null","<div style=""font-size:60px;"">+</div>","null",""
"","","","","","html-button-response","69","167852","0.0-4.0-1.32","63","1","2022-11-13 08:44:54","a60ee176136a54a92dc2853177adfa2c","202.119.46.129","Mozilla/5.0 (Macintosh; Intel Mac OS X 10_15_7) AppleWebKit/537.36 (KHTML, like Gecko) Chrome/107.0.0.0 Safari/537.36","Macintosh","Chrome","107.0.0.0","OS X","10_15_7","1413","<p>作为军队的指挥官，你可以选择发射导弹杀死 <strong>6名</strong> 敌国士兵，但会误杀附近的 <strong>1名</strong> 敌国平民。</p> <p>平民照片如下图所示。</p> <p></p> <img src='stimuli/faces/PCM1.jpg', style='max-width: 30%;'> </img> <p><strong>你是否选择发射武器？</strong></p>","0",""
"","","","","","html-keyboard-response","70","168865","0.0-4.0-0.33","63","1","2022-11-13 08:44:54","a60ee176136a54a92dc2853177adfa2c","202.119.46.129","Mozilla/5.0 (Macintosh; Intel Mac OS X 10_15_7) AppleWebKit/537.36 (KHTML, like Gecko) Chrome/107.0.0.0 Safari/537.36","Macintosh","Chrome","107.0.0.0","OS X","10_15_7","null","<div style=""font-size:60px;"">+</div>","null",""
"","","","","","html-button-response","71","169998","0.0-4.0-1.33","63","1","2022-11-13 08:44:54","a60ee176136a54a92dc2853177adfa2c","202.119.46.129","Mozilla/5.0 (Macintosh; Intel Mac OS X 10_15_7) AppleWebKit/537.36 (KHTML, like Gecko) Chrome/107.0.0.0 Safari/537.36","Macintosh","Chrome","107.0.0.0","OS X","10_15_7","1128","<p>作为军队的指挥官，你可以选择发射导弹杀死 <strong>7名</strong> 敌国士兵，但会误杀附近的 <strong>1名</strong> 敌国平民。</p> <p>平民照片如下图所示。</p> <p></p> <img src='stimuli/faces/PCM8.jpg', style='max-width: 30%;'> </img> <p><strong>你是否选择发射武器？</strong></p>","0",""
"","","","","","html-keyboard-response","72","171007","0.0-4.0-0.34","63","1","2022-11-13 08:44:54","a60ee176136a54a92dc2853177adfa2c","202.119.46.129","Mozilla/5.0 (Macintosh; Intel Mac OS X 10_15_7) AppleWebKit/537.36 (KHTML, like Gecko) Chrome/107.0.0.0 Safari/537.36","Macintosh","Chrome","107.0.0.0","OS X","10_15_7","null","<div style=""font-size:60px;"">+</div>","null",""
"","","","","","html-button-response","73","172022","0.0-4.0-1.34","63","1","2022-11-13 08:44:54","a60ee176136a54a92dc2853177adfa2c","202.119.46.129","Mozilla/5.0 (Macintosh; Intel Mac OS X 10_15_7) AppleWebKit/537.36 (KHTML, like Gecko) Chrome/107.0.0.0 Safari/537.36","Macintosh","Chrome","107.0.0.0","OS X","10_15_7","1009","<p>作为军队的指挥官，你可以选择发射导弹杀死 <strong>8名</strong> 敌国士兵，但会误杀附近的 <strong>1名</strong> 敌国平民。</p> <p>平民照片如下图所示。</p> <p></p> <img src='stimuli/faces/PCF7.jpg', style='max-width: 30%;'> </img> <p><strong>你是否选择发射武器？</strong></p>","0",""
"","","","","","html-keyboard-response","74","173036","0.0-4.0-0.35","63","1","2022-11-13 08:44:54","a60ee176136a54a92dc2853177adfa2c","202.119.46.129","Mozilla/5.0 (Macintosh; Intel Mac OS X 10_15_7) AppleWebKit/537.36 (KHTML, like Gecko) Chrome/107.0.0.0 Safari/537.36","Macintosh","Chrome","107.0.0.0","OS X","10_15_7","null","<div style=""font-size:60px;"">+</div>","null",""
"","","","","","html-button-response","75","174468","0.0-4.0-1.35","63","1","2022-11-13 08:44:54","a60ee176136a54a92dc2853177adfa2c","202.119.46.129","Mozilla/5.0 (Macintosh; Intel Mac OS X 10_15_7) AppleWebKit/537.36 (KHTML, like Gecko) Chrome/107.0.0.0 Safari/537.36","Macintosh","Chrome","107.0.0.0","OS X","10_15_7","1426","<p>作为军队的指挥官，你可以选择发射导弹杀死 <strong>10名</strong> 敌国士兵，但会炸毁附近的 <strong>1棵</strong> 敌国树木。</p> <p>树木的照片如下图所示。</p> <p></p> <img src='stimuli/trees/15.png', style='max-width: 30%;'> </img> <p><strong>你是否选择发射武器？</strong></p>","0",""
"","","","","","html-keyboard-response","76","175479","0.0-4.0-0.36","63","1","2022-11-13 08:44:54","a60ee176136a54a92dc2853177adfa2c","202.119.46.129","Mozilla/5.0 (Macintosh; Intel Mac OS X 10_15_7) AppleWebKit/537.36 (KHTML, like Gecko) Chrome/107.0.0.0 Safari/537.36","Macintosh","Chrome","107.0.0.0","OS X","10_15_7","null","<div style=""font-size:60px;"">+</div>","null",""
"","","","","","html-button-response","77","184421","0.0-4.0-1.36","63","1","2022-11-13 08:44:54","a60ee176136a54a92dc2853177adfa2c","202.119.46.129","Mozilla/5.0 (Macintosh; Intel Mac OS X 10_15_7) AppleWebKit/537.36 (KHTML, like Gecko) Chrome/107.0.0.0 Safari/537.36","Macintosh","Chrome","107.0.0.0","OS X","10_15_7","8938","<p>作为军队的指挥官，你可以选择发射导弹杀死 <strong>3名</strong> 敌国士兵，但会炸毁附近的 <strong>1棵</strong> 敌国树木。</p> <p>树木的照片如下图所示。</p> <p></p> <img src='stimuli/trees/16.png', style='max-width: 30%;'> </img> <p><strong>你是否选择发射武器？</strong></p>","1",""
"","","","","","html-keyboard-response","78","185432","0.0-4.0-0.37","63","1","2022-11-13 08:44:54","a60ee176136a54a92dc2853177adfa2c","202.119.46.129","Mozilla/5.0 (Macintosh; Intel Mac OS X 10_15_7) AppleWebKit/537.36 (KHTML, like Gecko) Chrome/107.0.0.0 Safari/537.36","Macintosh","Chrome","107.0.0.0","OS X","10_15_7","null","<div style=""font-size:60px;"">+</div>","null",""
"","","","","","html-button-response","79","190554","0.0-4.0-1.37","63","1","2022-11-13 08:44:54","a60ee176136a54a92dc2853177adfa2c","202.119.46.129","Mozilla/5.0 (Macintosh; Intel Mac OS X 10_15_7) AppleWebKit/537.36 (KHTML, like Gecko) Chrome/107.0.0.0 Safari/537.36","Macintosh","Chrome","107.0.0.0","OS X","10_15_7","5116","<p>作为军队的指挥官，你可以选择发射导弹杀死 <strong>5名</strong> 敌国士兵，但会误杀附近的 <strong>1名</strong> 敌国平民。</p> <p>平民照片如下图所示。</p> <p></p> <img src='stimuli/faces/PCF4.jpg', style='max-width: 30%;'> </img> <p><strong>你是否选择发射武器？</strong></p>","1",""
"","","","","","html-keyboard-response","80","191567","0.0-4.0-0.38","63","1","2022-11-13 08:44:54","a60ee176136a54a92dc2853177adfa2c","202.119.46.129","Mozilla/5.0 (Macintosh; Intel Mac OS X 10_15_7) AppleWebKit/537.36 (KHTML, like Gecko) Chrome/107.0.0.0 Safari/537.36","Macintosh","Chrome","107.0.0.0","OS X","10_15_7","null","<div style=""font-size:60px;"">+</div>","null",""
"","","","","","html-button-response","81","193911","0.0-4.0-1.38","63","1","2022-11-13 08:44:54","a60ee176136a54a92dc2853177adfa2c","202.119.46.129","Mozilla/5.0 (Macintosh; Intel Mac OS X 10_15_7) AppleWebKit/537.36 (KHTML, like Gecko) Chrome/107.0.0.0 Safari/537.36","Macintosh","Chrome","107.0.0.0","OS X","10_15_7","2338","<p>作为军队的指挥官，你可以选择发射导弹杀死 <strong>5名</strong> 敌国士兵，但会炸毁附近的 <strong>1棵</strong> 敌国树木。</p> <p>树木的照片如下图所示。</p> <p></p> <img src='stimuli/trees/12.png', style='max-width: 30%;'> </img> <p><strong>你是否选择发射武器？</strong></p>","0",""
"","","","","","html-keyboard-response","82","194922","0.0-4.0-0.39","63","1","2022-11-13 08:44:54","a60ee176136a54a92dc2853177adfa2c","202.119.46.129","Mozilla/5.0 (Macintosh; Intel Mac OS X 10_15_7) AppleWebKit/537.36 (KHTML, like Gecko) Chrome/107.0.0.0 Safari/537.36","Macintosh","Chrome","107.0.0.0","OS X","10_15_7","null","<div style=""font-size:60px;"">+</div>","null",""
"","","","","","html-button-response","83","196207","0.0-4.0-1.39","63","1","2022-11-13 08:44:54","a60ee176136a54a92dc2853177adfa2c","202.119.46.129","Mozilla/5.0 (Macintosh; Intel Mac OS X 10_15_7) AppleWebKit/537.36 (KHTML, like Gecko) Chrome/107.0.0.0 Safari/537.36","Macintosh","Chrome","107.0.0.0","OS X","10_15_7","1278","<p>作为军队的指挥官，你可以选择发射导弹杀死 <strong>10名</strong> 敌国士兵，但会炸毁附近的 <strong>1棵</strong> 敌国树木。</p> <p>树木的照片如下图所示。</p> <p></p> <img src='stimuli/trees/13.png', style='max-width: 30%;'> </img> <p><strong>你是否选择发射武器？</strong></p>","0",""
"","","","","","html-keyboard-response","84","197217","0.0-4.0-0.40","63","1","2022-11-13 08:44:54","a60ee176136a54a92dc2853177adfa2c","202.119.46.129","Mozilla/5.0 (Macintosh; Intel Mac OS X 10_15_7) AppleWebKit/537.36 (KHTML, like Gecko) Chrome/107.0.0.0 Safari/537.36","Macintosh","Chrome","107.0.0.0","OS X","10_15_7","null","<div style=""font-size:60px;"">+</div>","null",""
"","","","","","html-button-response","85","198678","0.0-4.0-1.40","63","1","2022-11-13 08:44:54","a60ee176136a54a92dc2853177adfa2c","202.119.46.129","Mozilla/5.0 (Macintosh; Intel Mac OS X 10_15_7) AppleWebKit/537.36 (KHTML, like Gecko) Chrome/107.0.0.0 Safari/537.36","Macintosh","Chrome","107.0.0.0","OS X","10_15_7","1454","<p>作为军队的指挥官，你可以选择发射导弹杀死 <strong>4名</strong> 敌国士兵，但会误杀附近的 <strong>1名</strong> 敌国平民。</p> <p>平民照片如下图所示。</p> <p></p> <img src='stimuli/faces/PCM6.jpg', style='max-width: 30%;'> </img> <p><strong>你是否选择发射武器？</strong></p>","1",""
"","","","","","html-keyboard-response","86","199691","0.0-4.0-0.41","63","1","2022-11-13 08:44:54","a60ee176136a54a92dc2853177adfa2c","202.119.46.129","Mozilla/5.0 (Macintosh; Intel Mac OS X 10_15_7) AppleWebKit/537.36 (KHTML, like Gecko) Chrome/107.0.0.0 Safari/537.36","Macintosh","Chrome","107.0.0.0","OS X","10_15_7","null","<div style=""font-size:60px;"">+</div>","null",""
"","","","","","html-button-response","87","200665","0.0-4.0-1.41","63","1","2022-11-13 08:44:54","a60ee176136a54a92dc2853177adfa2c","202.119.46.129","Mozilla/5.0 (Macintosh; Intel Mac OS X 10_15_7) AppleWebKit/537.36 (KHTML, like Gecko) Chrome/107.0.0.0 Safari/537.36","Macintosh","Chrome","107.0.0.0","OS X","10_15_7","967","<p>作为军队的指挥官，你可以选择发射导弹杀死 <strong>10名</strong> 敌国士兵，但会炸毁附近的 <strong>1棵</strong> 敌国树木。</p> <p>树木的照片如下图所示。</p> <p></p> <img src='stimuli/trees/6.png', style='max-width: 30%;'> </img> <p><strong>你是否选择发射武器？</strong></p>","0",""
"","","","","","html-keyboard-response","88","201682","0.0-4.0-0.42","63","1","2022-11-13 08:44:54","a60ee176136a54a92dc2853177adfa2c","202.119.46.129","Mozilla/5.0 (Macintosh; Intel Mac OS X 10_15_7) AppleWebKit/537.36 (KHTML, like Gecko) Chrome/107.0.0.0 Safari/537.36","Macintosh","Chrome","107.0.0.0","OS X","10_15_7","null","<div style=""font-size:60px;"">+</div>","null",""
"","","","","","html-button-response","89","202997","0.0-4.0-1.42","63","1","2022-11-13 08:44:54","a60ee176136a54a92dc2853177adfa2c","202.119.46.129","Mozilla/5.0 (Macintosh; Intel Mac OS X 10_15_7) AppleWebKit/537.36 (KHTML, like Gecko) Chrome/107.0.0.0 Safari/537.36","Macintosh","Chrome","107.0.0.0","OS X","10_15_7","1307","<p>作为军队的指挥官，你可以选择发射导弹杀死 <strong>2名</strong> 敌国士兵，但会误杀附近的 <strong>1名</strong> 敌国平民。</p> <p>平民照片如下图所示。</p> <p></p> <img src='stimuli/faces/PCF6.jpg', style='max-width: 30%;'> </img> <p><strong>你是否选择发射武器？</strong></p>","1",""
"","","","","","html-keyboard-response","90","204011","0.0-4.0-0.43","63","1","2022-11-13 08:44:54","a60ee176136a54a92dc2853177adfa2c","202.119.46.129","Mozilla/5.0 (Macintosh; Intel Mac OS X 10_15_7) AppleWebKit/537.36 (KHTML, like Gecko) Chrome/107.0.0.0 Safari/537.36","Macintosh","Chrome","107.0.0.0","OS X","10_15_7","null","<div style=""font-size:60px;"">+</div>","null",""
"","","","","","html-button-response","91","206642","0.0-4.0-1.43","63","1","2022-11-13 08:44:54","a60ee176136a54a92dc2853177adfa2c","202.119.46.129","Mozilla/5.0 (Macintosh; Intel Mac OS X 10_15_7) AppleWebKit/537.36 (KHTML, like Gecko) Chrome/107.0.0.0 Safari/537.36","Macintosh","Chrome","107.0.0.0","OS X","10_15_7","2626","<p>作为军队的指挥官，你可以选择发射导弹杀死 <strong>9名</strong> 敌国士兵，但会误杀附近的 <strong>1名</strong> 敌国平民。</p> <p>平民照片如下图所示。</p> <p></p> <img src='stimuli/faces/PCM7.jpg', style='max-width: 30%;'> </img> <p><strong>你是否选择发射武器？</strong></p>","0",""
"","","","","","html-keyboard-response","92","207658","0.0-4.0-0.44","63","1","2022-11-13 08:44:54","a60ee176136a54a92dc2853177adfa2c","202.119.46.129","Mozilla/5.0 (Macintosh; Intel Mac OS X 10_15_7) AppleWebKit/537.36 (KHTML, like Gecko) Chrome/107.0.0.0 Safari/537.36","Macintosh","Chrome","107.0.0.0","OS X","10_15_7","null","<div style=""font-size:60px;"">+</div>","null",""
"","","","","","html-button-response","93","209032","0.0-4.0-1.44","63","1","2022-11-13 08:44:54","a60ee176136a54a92dc2853177adfa2c","202.119.46.129","Mozilla/5.0 (Macintosh; Intel Mac OS X 10_15_7) AppleWebKit/537.36 (KHTML, like Gecko) Chrome/107.0.0.0 Safari/537.36","Macintosh","Chrome","107.0.0.0","OS X","10_15_7","1366","<p>作为军队的指挥官，你可以选择发射导弹杀死 <strong>7名</strong> 敌国士兵，但会误杀附近的 <strong>1名</strong> 敌国平民。</p> <p>平民照片如下图所示。</p> <p></p> <img src='stimuli/faces/PCF2.jpg', style='max-width: 30%;'> </img> <p><strong>你是否选择发射武器？</strong></p>","0",""
"","","","","","html-keyboard-response","94","210048","0.0-4.0-0.45","63","1","2022-11-13 08:44:54","a60ee176136a54a92dc2853177adfa2c","202.119.46.129","Mozilla/5.0 (Macintosh; Intel Mac OS X 10_15_7) AppleWebKit/537.36 (KHTML, like Gecko) Chrome/107.0.0.0 Safari/537.36","Macintosh","Chrome","107.0.0.0","OS X","10_15_7","null","<div style=""font-size:60px;"">+</div>","null",""
"","","","","","html-button-response","95","211471","0.0-4.0-1.45","63","1","2022-11-13 08:44:54","a60ee176136a54a92dc2853177adfa2c","202.119.46.129","Mozilla/5.0 (Macintosh; Intel Mac OS X 10_15_7) AppleWebKit/537.36 (KHTML, like Gecko) Chrome/107.0.0.0 Safari/537.36","Macintosh","Chrome","107.0.0.0","OS X","10_15_7","1413","<p>作为军队的指挥官，你可以选择发射导弹杀死 <strong>6名</strong> 敌国士兵，但会炸毁附近的 <strong>1棵</strong> 敌国树木。</p> <p>树木的照片如下图所示。</p> <p></p> <img src='stimuli/trees/10.png', style='max-width: 30%;'> </img> <p><strong>你是否选择发射武器？</strong></p>","0",""
"","","","","","html-keyboard-response","96","212481","0.0-4.0-0.46","63","1","2022-11-13 08:44:54","a60ee176136a54a92dc2853177adfa2c","202.119.46.129","Mozilla/5.0 (Macintosh; Intel Mac OS X 10_15_7) AppleWebKit/537.36 (KHTML, like Gecko) Chrome/107.0.0.0 Safari/537.36","Macintosh","Chrome","107.0.0.0","OS X","10_15_7","null","<div style=""font-size:60px;"">+</div>","null",""
"","","","","","html-button-response","97","213573","0.0-4.0-1.46","63","1","2022-11-13 08:44:54","a60ee176136a54a92dc2853177adfa2c","202.119.46.129","Mozilla/5.0 (Macintosh; Intel Mac OS X 10_15_7) AppleWebKit/537.36 (KHTML, like Gecko) Chrome/107.0.0.0 Safari/537.36","Macintosh","Chrome","107.0.0.0","OS X","10_15_7","1086","<p>作为军队的指挥官，你可以选择发射导弹杀死 <strong>8名</strong> 敌国士兵，但会误杀附近的 <strong>1名</strong> 敌国平民。</p> <p>平民照片如下图所示。</p> <p></p> <img src='stimuli/faces/PCF1.jpg', style='max-width: 30%;'> </img> <p><strong>你是否选择发射武器？</strong></p>","0",""
"","","","","","html-keyboard-response","98","214584","0.0-4.0-0.47","63","1","2022-11-13 08:44:54","a60ee176136a54a92dc2853177adfa2c","202.119.46.129","Mozilla/5.0 (Macintosh; Intel Mac OS X 10_15_7) AppleWebKit/537.36 (KHTML, like Gecko) Chrome/107.0.0.0 Safari/537.36","Macintosh","Chrome","107.0.0.0","OS X","10_15_7","null","<div style=""font-size:60px;"">+</div>","null",""
"","","","","","html-button-response","99","216136","0.0-4.0-1.47","63","1","2022-11-13 08:44:54","a60ee176136a54a92dc2853177adfa2c","202.119.46.129","Mozilla/5.0 (Macintosh; Intel Mac OS X 10_15_7) AppleWebKit/537.36 (KHTML, like Gecko) Chrome/107.0.0.0 Safari/537.36","Macintosh","Chrome","107.0.0.0","OS X","10_15_7","1546","<p>作为军队的指挥官，你可以选择发射导弹杀死 <strong>8名</strong> 敌国士兵，但会误杀附近的 <strong>1名</strong> 敌国平民。</p> <p>平民照片如下图所示。</p> <p></p> <img src='stimuli/faces/PCF4.jpg', style='max-width: 30%;'> </img> <p><strong>你是否选择发射武器？</strong></p>","0",""
"","","","","","html-keyboard-response","100","217146","0.0-4.0-0.48","63","1","2022-11-13 08:44:54","a60ee176136a54a92dc2853177adfa2c","202.119.46.129","Mozilla/5.0 (Macintosh; Intel Mac OS X 10_15_7) AppleWebKit/537.36 (KHTML, like Gecko) Chrome/107.0.0.0 Safari/537.36","Macintosh","Chrome","107.0.0.0","OS X","10_15_7","null","<div style=""font-size:60px;"">+</div>","null",""
"","","","","","html-button-response","101","218403","0.0-4.0-1.48","63","1","2022-11-13 08:44:54","a60ee176136a54a92dc2853177adfa2c","202.119.46.129","Mozilla/5.0 (Macintosh; Intel Mac OS X 10_15_7) AppleWebKit/537.36 (KHTML, like Gecko) Chrome/107.0.0.0 Safari/537.36","Macintosh","Chrome","107.0.0.0","OS X","10_15_7","1250","<p>作为军队的指挥官，你可以选择发射导弹杀死 <strong>3名</strong> 敌国士兵，但会误杀附近的 <strong>1名</strong> 敌国平民。</p> <p>平民照片如下图所示。</p> <p></p> <img src='stimuli/faces/PCF3.jpg', style='max-width: 30%;'> </img> <p><strong>你是否选择发射武器？</strong></p>","1",""
"","","","","","html-keyboard-response","102","219416","0.0-4.0-0.49","63","1","2022-11-13 08:44:54","a60ee176136a54a92dc2853177adfa2c","202.119.46.129","Mozilla/5.0 (Macintosh; Intel Mac OS X 10_15_7) AppleWebKit/537.36 (KHTML, like Gecko) Chrome/107.0.0.0 Safari/537.36","Macintosh","Chrome","107.0.0.0","OS X","10_15_7","null","<div style=""font-size:60px;"">+</div>","null",""
"","","","","","html-button-response","103","227871","0.0-4.0-1.49","63","1","2022-11-13 08:44:54","a60ee176136a54a92dc2853177adfa2c","202.119.46.129","Mozilla/5.0 (Macintosh; Intel Mac OS X 10_15_7) AppleWebKit/537.36 (KHTML, like Gecko) Chrome/107.0.0.0 Safari/537.36","Macintosh","Chrome","107.0.0.0","OS X","10_15_7","8447","<p>作为军队的指挥官，你可以选择发射导弹杀死 <strong>2名</strong> 敌国士兵，但会炸毁附近的 <strong>1棵</strong> 敌国树木。</p> <p>树木的照片如下图所示。</p> <p></p> <img src='stimuli/trees/11.png', style='max-width: 30%;'> </img> <p><strong>你是否选择发射武器？</strong></p>","1",""
"","","","","","html-keyboard-response","104","228882","0.0-4.0-0.50","63","1","2022-11-13 08:44:54","a60ee176136a54a92dc2853177adfa2c","202.119.46.129","Mozilla/5.0 (Macintosh; Intel Mac OS X 10_15_7) AppleWebKit/537.36 (KHTML, like Gecko) Chrome/107.0.0.0 Safari/537.36","Macintosh","Chrome","107.0.0.0","OS X","10_15_7","null","<div style=""font-size:60px;"">+</div>","null",""
"","","","","","html-button-response","105","229912","0.0-4.0-1.50","63","1","2022-11-13 08:44:54","a60ee176136a54a92dc2853177adfa2c","202.119.46.129","Mozilla/5.0 (Macintosh; Intel Mac OS X 10_15_7) AppleWebKit/537.36 (KHTML, like Gecko) Chrome/107.0.0.0 Safari/537.36","Macintosh","Chrome","107.0.0.0","OS X","10_15_7","1022","<p>作为军队的指挥官，你可以选择发射导弹杀死 <strong>3名</strong> 敌国士兵，但会炸毁附近的 <strong>1棵</strong> 敌国树木。</p> <p>树木的照片如下图所示。</p> <p></p> <img src='stimuli/trees/8.png', style='max-width: 30%;'> </img> <p><strong>你是否选择发射武器？</strong></p>","1",""
"","","","","","html-keyboard-response","106","230927","0.0-4.0-0.51","63","1","2022-11-13 08:44:54","a60ee176136a54a92dc2853177adfa2c","202.119.46.129","Mozilla/5.0 (Macintosh; Intel Mac OS X 10_15_7) AppleWebKit/537.36 (KHTML, like Gecko) Chrome/107.0.0.0 Safari/537.36","Macintosh","Chrome","107.0.0.0","OS X","10_15_7","null","<div style=""font-size:60px;"">+</div>","null",""
"","","","","","html-button-response","107","232078","0.0-4.0-1.51","63","1","2022-11-13 08:44:54","a60ee176136a54a92dc2853177adfa2c","202.119.46.129","Mozilla/5.0 (Macintosh; Intel Mac OS X 10_15_7) AppleWebKit/537.36 (KHTML, like Gecko) Chrome/107.0.0.0 Safari/537.36","Macintosh","Chrome","107.0.0.0","OS X","10_15_7","1148","<p>作为军队的指挥官，你可以选择发射导弹杀死 <strong>10名</strong> 敌国士兵，但会炸毁附近的 <strong>1棵</strong> 敌国树木。</p> <p>树木的照片如下图所示。</p> <p></p> <img src='stimuli/trees/4.png', style='max-width: 30%;'> </img> <p><strong>你是否选择发射武器？</strong></p>","0",""
"","","","","","html-keyboard-response","108","233089","0.0-4.0-0.52","63","1","2022-11-13 08:44:54","a60ee176136a54a92dc2853177adfa2c","202.119.46.129","Mozilla/5.0 (Macintosh; Intel Mac OS X 10_15_7) AppleWebKit/537.36 (KHTML, like Gecko) Chrome/107.0.0.0 Safari/537.36","Macintosh","Chrome","107.0.0.0","OS X","10_15_7","null","<div style=""font-size:60px;"">+</div>","null",""
"","","","","","html-button-response","109","235767","0.0-4.0-1.52","63","1","2022-11-13 08:44:54","a60ee176136a54a92dc2853177adfa2c","202.119.46.129","Mozilla/5.0 (Macintosh; Intel Mac OS X 10_15_7) AppleWebKit/537.36 (KHTML, like Gecko) Chrome/107.0.0.0 Safari/537.36","Macintosh","Chrome","107.0.0.0","OS X","10_15_7","2670","<p>作为军队的指挥官，你可以选择发射导弹杀死 <strong>4名</strong> 敌国士兵，但会误杀附近的 <strong>1名</strong> 敌国平民。</p> <p>平民照片如下图所示。</p> <p></p> <img src='stimuli/faces/PCF7.jpg', style='max-width: 30%;'> </img> <p><strong>你是否选择发射武器？</strong></p>","1",""
"","","","","","html-keyboard-response","110","236781","0.0-4.0-0.53","63","1","2022-11-13 08:44:54","a60ee176136a54a92dc2853177adfa2c","202.119.46.129","Mozilla/5.0 (Macintosh; Intel Mac OS X 10_15_7) AppleWebKit/537.36 (KHTML, like Gecko) Chrome/107.0.0.0 Safari/537.36","Macintosh","Chrome","107.0.0.0","OS X","10_15_7","null","<div style=""font-size:60px;"">+</div>","null",""
"","","","","","html-button-response","111","237847","0.0-4.0-1.53","63","1","2022-11-13 08:44:54","a60ee176136a54a92dc2853177adfa2c","202.119.46.129","Mozilla/5.0 (Macintosh; Intel Mac OS X 10_15_7) AppleWebKit/537.36 (KHTML, like Gecko) Chrome/107.0.0.0 Safari/537.36","Macintosh","Chrome","107.0.0.0","OS X","10_15_7","1059","<p>作为军队的指挥官，你可以选择发射导弹杀死 <strong>3名</strong> 敌国士兵，但会误杀附近的 <strong>1名</strong> 敌国平民。</p> <p>平民照片如下图所示。</p> <p></p> <img src='stimuli/faces/PCF5.jpg', style='max-width: 30%;'> </img> <p><strong>你是否选择发射武器？</strong></p>","1",""
"","","","","","html-keyboard-response","112","238866","0.0-4.0-0.54","63","1","2022-11-13 08:44:54","a60ee176136a54a92dc2853177adfa2c","202.119.46.129","Mozilla/5.0 (Macintosh; Intel Mac OS X 10_15_7) AppleWebKit/537.36 (KHTML, like Gecko) Chrome/107.0.0.0 Safari/537.36","Macintosh","Chrome","107.0.0.0","OS X","10_15_7","null","<div style=""font-size:60px;"">+</div>","null",""
"","","","","","html-button-response","113","242454","0.0-4.0-1.54","63","1","2022-11-13 08:44:54","a60ee176136a54a92dc2853177adfa2c","202.119.46.129","Mozilla/5.0 (Macintosh; Intel Mac OS X 10_15_7) AppleWebKit/537.36 (KHTML, like Gecko) Chrome/107.0.0.0 Safari/537.36","Macintosh","Chrome","107.0.0.0","OS X","10_15_7","3580","<p>作为军队的指挥官，你可以选择发射导弹杀死 <strong>3名</strong> 敌国士兵，但会炸毁附近的 <strong>1棵</strong> 敌国树木。</p> <p>树木的照片如下图所示。</p> <p></p> <img src='stimuli/trees/13.png', style='max-width: 30%;'> </img> <p><strong>你是否选择发射武器？</strong></p>","1",""
"","","","","","html-keyboard-response","114","243465","0.0-4.0-0.55","63","1","2022-11-13 08:44:54","a60ee176136a54a92dc2853177adfa2c","202.119.46.129","Mozilla/5.0 (Macintosh; Intel Mac OS X 10_15_7) AppleWebKit/537.36 (KHTML, like Gecko) Chrome/107.0.0.0 Safari/537.36","Macintosh","Chrome","107.0.0.0","OS X","10_15_7","null","<div style=""font-size:60px;"">+</div>","null",""
"","","","","","html-button-response","115","251882","0.0-4.0-1.55","63","1","2022-11-13 08:44:54","a60ee176136a54a92dc2853177adfa2c","202.119.46.129","Mozilla/5.0 (Macintosh; Intel Mac OS X 10_15_7) AppleWebKit/537.36 (KHTML, like Gecko) Chrome/107.0.0.0 Safari/537.36","Macintosh","Chrome","107.0.0.0","OS X","10_15_7","8408","<p>作为军队的指挥官，你可以选择发射导弹杀死 <strong>5名</strong> 敌国士兵，但会误杀附近的 <strong>1名</strong> 敌国平民。</p> <p>平民照片如下图所示。</p> <p></p> <img src='stimuli/faces/PCM5.jpg', style='max-width: 30%;'> </img> <p><strong>你是否选择发射武器？</strong></p>","1",""
"","","","","","html-keyboard-response","116","252905","0.0-4.0-0.56","63","1","2022-11-13 08:44:54","a60ee176136a54a92dc2853177adfa2c","202.119.46.129","Mozilla/5.0 (Macintosh; Intel Mac OS X 10_15_7) AppleWebKit/537.36 (KHTML, like Gecko) Chrome/107.0.0.0 Safari/537.36","Macintosh","Chrome","107.0.0.0","OS X","10_15_7","null","<div style=""font-size:60px;"">+</div>","null",""
"","","","","","html-button-response","117","254623","0.0-4.0-1.56","63","1","2022-11-13 08:44:54","a60ee176136a54a92dc2853177adfa2c","202.119.46.129","Mozilla/5.0 (Macintosh; Intel Mac OS X 10_15_7) AppleWebKit/537.36 (KHTML, like Gecko) Chrome/107.0.0.0 Safari/537.36","Macintosh","Chrome","107.0.0.0","OS X","10_15_7","1712","<p>作为军队的指挥官，你可以选择发射导弹杀死 <strong>1名</strong> 敌国士兵，但会炸毁附近的 <strong>1棵</strong> 敌国树木。</p> <p>树木的照片如下图所示。</p> <p></p> <img src='stimuli/trees/15.png', style='max-width: 30%;'> </img> <p><strong>你是否选择发射武器？</strong></p>","1",""
"","","","","","html-keyboard-response","118","255637","0.0-4.0-0.57","63","1","2022-11-13 08:44:54","a60ee176136a54a92dc2853177adfa2c","202.119.46.129","Mozilla/5.0 (Macintosh; Intel Mac OS X 10_15_7) AppleWebKit/537.36 (KHTML, like Gecko) Chrome/107.0.0.0 Safari/537.36","Macintosh","Chrome","107.0.0.0","OS X","10_15_7","null","<div style=""font-size:60px;"">+</div>","null",""
"","","","","","html-button-response","119","256877","0.0-4.0-1.57","63","1","2022-11-13 08:44:54","a60ee176136a54a92dc2853177adfa2c","202.119.46.129","Mozilla/5.0 (Macintosh; Intel Mac OS X 10_15_7) AppleWebKit/537.36 (KHTML, like Gecko) Chrome/107.0.0.0 Safari/537.36","Macintosh","Chrome","107.0.0.0","OS X","10_15_7","1234","<p>作为军队的指挥官，你可以选择发射导弹杀死 <strong>7名</strong> 敌国士兵，但会误杀附近的 <strong>1名</strong> 敌国平民。</p> <p>平民照片如下图所示。</p> <p></p> <img src='stimuli/faces/PCF6.jpg', style='max-width: 30%;'> </img> <p><strong>你是否选择发射武器？</strong></p>","0",""
"","","","","","html-keyboard-response","120","257888","0.0-4.0-0.58","63","1","2022-11-13 08:44:54","a60ee176136a54a92dc2853177adfa2c","202.119.46.129","Mozilla/5.0 (Macintosh; Intel Mac OS X 10_15_7) AppleWebKit/537.36 (KHTML, like Gecko) Chrome/107.0.0.0 Safari/537.36","Macintosh","Chrome","107.0.0.0","OS X","10_15_7","null","<div style=""font-size:60px;"">+</div>","null",""
"","","","","","html-button-response","121","259167","0.0-4.0-1.58","63","1","2022-11-13 08:44:54","a60ee176136a54a92dc2853177adfa2c","202.119.46.129","Mozilla/5.0 (Macintosh; Intel Mac OS X 10_15_7) AppleWebKit/537.36 (KHTML, like Gecko) Chrome/107.0.0.0 Safari/537.36","Macintosh","Chrome","107.0.0.0","OS X","10_15_7","1271","<p>作为军队的指挥官，你可以选择发射导弹杀死 <strong>8名</strong> 敌国士兵，但会炸毁附近的 <strong>1棵</strong> 敌国树木。</p> <p>树木的照片如下图所示。</p> <p></p> <img src='stimuli/trees/3.png', style='max-width: 30%;'> </img> <p><strong>你是否选择发射武器？</strong></p>","0",""
"","","","","","html-keyboard-response","122","260183","0.0-4.0-0.59","63","1","2022-11-13 08:44:54","a60ee176136a54a92dc2853177adfa2c","202.119.46.129","Mozilla/5.0 (Macintosh; Intel Mac OS X 10_15_7) AppleWebKit/537.36 (KHTML, like Gecko) Chrome/107.0.0.0 Safari/537.36","Macintosh","Chrome","107.0.0.0","OS X","10_15_7","null","<div style=""font-size:60px;"">+</div>","null",""
"","","","","","html-button-response","123","261193","0.0-4.0-1.59","63","1","2022-11-13 08:44:54","a60ee176136a54a92dc2853177adfa2c","202.119.46.129","Mozilla/5.0 (Macintosh; Intel Mac OS X 10_15_7) AppleWebKit/537.36 (KHTML, like Gecko) Chrome/107.0.0.0 Safari/537.36","Macintosh","Chrome","107.0.0.0","OS X","10_15_7","1002","<p>作为军队的指挥官，你可以选择发射导弹杀死 <strong>8名</strong> 敌国士兵，但会误杀附近的 <strong>1名</strong> 敌国平民。</p> <p>平民照片如下图所示。</p> <p></p> <img src='stimuli/faces/PCM3.jpg', style='max-width: 30%;'> </img> <p><strong>你是否选择发射武器？</strong></p>","0",""
"","","","","","html-keyboard-response","124","262205","0.0-4.0-0.60","63","1","2022-11-13 08:44:54","a60ee176136a54a92dc2853177adfa2c","202.119.46.129","Mozilla/5.0 (Macintosh; Intel Mac OS X 10_15_7) AppleWebKit/537.36 (KHTML, like Gecko) Chrome/107.0.0.0 Safari/537.36","Macintosh","Chrome","107.0.0.0","OS X","10_15_7","null","<div style=""font-size:60px;"">+</div>","null",""
"","","","","","html-button-response","125","263151","0.0-4.0-1.60","63","1","2022-11-13 08:44:54","a60ee176136a54a92dc2853177adfa2c","202.119.46.129","Mozilla/5.0 (Macintosh; Intel Mac OS X 10_15_7) AppleWebKit/537.36 (KHTML, like Gecko) Chrome/107.0.0.0 Safari/537.36","Macintosh","Chrome","107.0.0.0","OS X","10_15_7","940","<p>作为军队的指挥官，你可以选择发射导弹杀死 <strong>1名</strong> 敌国士兵，但会误杀附近的 <strong>1名</strong> 敌国平民。</p> <p>平民照片如下图所示。</p> <p></p> <img src='stimuli/faces/PCF2.jpg', style='max-width: 30%;'> </img> <p><strong>你是否选择发射武器？</strong></p>","1",""
"","","","","","html-keyboard-response","126","264168","0.0-4.0-0.61","63","1","2022-11-13 08:44:54","a60ee176136a54a92dc2853177adfa2c","202.119.46.129","Mozilla/5.0 (Macintosh; Intel Mac OS X 10_15_7) AppleWebKit/537.36 (KHTML, like Gecko) Chrome/107.0.0.0 Safari/537.36","Macintosh","Chrome","107.0.0.0","OS X","10_15_7","null","<div style=""font-size:60px;"">+</div>","null",""
"","","","","","html-button-response","127","265176","0.0-4.0-1.61","63","1","2022-11-13 08:44:54","a60ee176136a54a92dc2853177adfa2c","202.119.46.129","Mozilla/5.0 (Macintosh; Intel Mac OS X 10_15_7) AppleWebKit/537.36 (KHTML, like Gecko) Chrome/107.0.0.0 Safari/537.36","Macintosh","Chrome","107.0.0.0","OS X","10_15_7","1001","<p>作为军队的指挥官，你可以选择发射导弹杀死 <strong>9名</strong> 敌国士兵，但会炸毁附近的 <strong>1棵</strong> 敌国树木。</p> <p>树木的照片如下图所示。</p> <p></p> <img src='stimuli/trees/9.png', style='max-width: 30%;'> </img> <p><strong>你是否选择发射武器？</strong></p>","0",""
"","","","","","html-keyboard-response","128","266189","0.0-4.0-0.62","63","1","2022-11-13 08:44:54","a60ee176136a54a92dc2853177adfa2c","202.119.46.129","Mozilla/5.0 (Macintosh; Intel Mac OS X 10_15_7) AppleWebKit/537.36 (KHTML, like Gecko) Chrome/107.0.0.0 Safari/537.36","Macintosh","Chrome","107.0.0.0","OS X","10_15_7","null","<div style=""font-size:60px;"">+</div>","null",""
"","","","","","html-button-response","129","267318","0.0-4.0-1.62","63","1","2022-11-13 08:44:54","a60ee176136a54a92dc2853177adfa2c","202.119.46.129","Mozilla/5.0 (Macintosh; Intel Mac OS X 10_15_7) AppleWebKit/537.36 (KHTML, like Gecko) Chrome/107.0.0.0 Safari/537.36","Macintosh","Chrome","107.0.0.0","OS X","10_15_7","1121","<p>作为军队的指挥官，你可以选择发射导弹杀死 <strong>2名</strong> 敌国士兵，但会炸毁附近的 <strong>1棵</strong> 敌国树木。</p> <p>树木的照片如下图所示。</p> <p></p> <img src='stimuli/trees/9.png', style='max-width: 30%;'> </img> <p><strong>你是否选择发射武器？</strong></p>","1",""
"","","","","","html-keyboard-response","130","268331","0.0-4.0-0.63","63","1","2022-11-13 08:44:54","a60ee176136a54a92dc2853177adfa2c","202.119.46.129","Mozilla/5.0 (Macintosh; Intel Mac OS X 10_15_7) AppleWebKit/537.36 (KHTML, like Gecko) Chrome/107.0.0.0 Safari/537.36","Macintosh","Chrome","107.0.0.0","OS X","10_15_7","null","<div style=""font-size:60px;"">+</div>","null",""
"","","","","","html-button-response","131","270463","0.0-4.0-1.63","63","1","2022-11-13 08:44:54","a60ee176136a54a92dc2853177adfa2c","202.119.46.129","Mozilla/5.0 (Macintosh; Intel Mac OS X 10_15_7) AppleWebKit/537.36 (KHTML, like Gecko) Chrome/107.0.0.0 Safari/537.36","Macintosh","Chrome","107.0.0.0","OS X","10_15_7","2125","<p>作为军队的指挥官，你可以选择发射导弹杀死 <strong>4名</strong> 敌国士兵，但会炸毁附近的 <strong>1棵</strong> 敌国树木。</p> <p>树木的照片如下图所示。</p> <p></p> <img src='stimuli/trees/3.png', style='max-width: 30%;'> </img> <p><strong>你是否选择发射武器？</strong></p>","1",""
"","","","","","survey-multi-choice","132","288123","0.0-5.0","63","1","2022-11-13 08:44:54","a60ee176136a54a92dc2853177adfa2c","202.119.46.129","Mozilla/5.0 (Macintosh; Intel Mac OS X 10_15_7) AppleWebKit/537.36 (KHTML, like Gecko) Chrome/107.0.0.0 Safari/537.36","Macintosh","Chrome","107.0.0.0","OS X","10_15_7","17645","","{""Attention1"":""""}","[0]"
"","","","","","html-button-response","133","293465","0.0-6.0","63","1","2022-11-13 08:44:54","a60ee176136a54a92dc2853177adfa2c","202.119.46.129","Mozilla/5.0 (Macintosh; Intel Mac OS X 10_15_7) AppleWebKit/537.36 (KHTML, like Gecko) Chrome/107.0.0.0 Safari/537.36","Macintosh","Chrome","107.0.0.0","OS X","10_15_7","5331","<p style=""font-size:20px;font-weight:bold;"">恭喜！</p><p>你已经完成了实验的第一部分。</p><p>请休息放松一下，然后进入第二部分。</p><p>这部分大约需要10分钟。</p>","0",""
"","","","","","survey-text","134","325613","0.0-7.0","63","1","2022-11-13 08:44:54","a60ee176136a54a92dc2853177adfa2c","202.119.46.129","Mozilla/5.0 (Macintosh; Intel Mac OS X 10_15_7) AppleWebKit/537.36 (KHTML, like Gecko) Chrome/107.0.0.0 Safari/537.36","Macintosh","Chrome","107.0.0.0","OS X","10_15_7","31127","","{""Age"":""25"",""Nation"":""中华人民共和国"",""Born"":""安徽省淮北市"",""Live"":""江苏省南京市"",""Ethnic"":""汉族"",""Alipay"":""15950560976""}",""
"","","","","","survey-multi-choice","135","344841","0.0-8.0","63","1","2022-11-13 08:44:54","a60ee176136a54a92dc2853177adfa2c","202.119.46.129","Mozilla/5.0 (Macintosh; Intel Mac OS X 10_15_7) AppleWebKit/537.36 (KHTML, like Gecko) Chrome/107.0.0.0 Safari/537.36","Macintosh","Chrome","107.0.0.0","OS X","10_15_7","19219","","{""Gender"":""女"",""Education"":""硕士研究生毕业"",""Income"":""￥140,000-￥269,999"",""Children"":""0"",""Race"":""亚洲人""}","[0,1,2,3,4]"
"","","","","","survey-multi-select","136","349774","0.0-9.0","63","1","2022-11-13 08:44:54","a60ee176136a54a92dc2853177adfa2c","202.119.46.129","Mozilla/5.0 (Macintosh; Intel Mac OS X 10_15_7) AppleWebKit/537.36 (KHTML, like Gecko) Chrome/107.0.0.0 Safari/537.36","Macintosh","Chrome","107.0.0.0","OS X","10_15_7","4914","","{""Marriage"":[""未婚""],""Religion"":[""无宗教信仰""]}","[0,1]"
"","","","","","survey-multi-choice","137","355246","0.0-10.0","63","1","2022-11-13 08:44:54","a60ee176136a54a92dc2853177adfa2c","202.119.46.129","Mozilla/5.0 (Macintosh; Intel Mac OS X 10_15_7) AppleWebKit/537.36 (KHTML, like Gecko) Chrome/107.0.0.0 Safari/537.36","Macintosh","Chrome","107.0.0.0","OS X","10_15_7","5460","","{""SES"":""6""}","[0]"
"","","","","","html-button-response","138","358414","0.0-11.0","63","1","2022-11-13 08:44:54","a60ee176136a54a92dc2853177adfa2c","202.119.46.129","Mozilla/5.0 (Macintosh; Intel Mac OS X 10_15_7) AppleWebKit/537.36 (KHTML, like Gecko) Chrome/107.0.0.0 Safari/537.36","Macintosh","Chrome","107.0.0.0","OS X","10_15_7","3157","<p><strong>请判断下列陈述在多大程度上可以形容你？</p><p> (1 = ""和我一点都不像"" to 5 = ""非常像我"".)</strong></p>","0",""
"","","","","","survey-likert","139","381327","0.0-12.0","63","1","2022-11-13 08:44:54","a60ee176136a54a92dc2853177adfa2c","202.119.46.129","Mozilla/5.0 (Macintosh; Intel Mac OS X 10_15_7) AppleWebKit/537.36 (KHTML, like Gecko) Chrome/107.0.0.0 Safari/537.36","Macintosh","Chrome","107.0.0.0","OS X","10_15_7","22903","","{""Aggression1"":3,""Aggression2"":1,""Aggression3"":4,""Aggression4"":1,""Aggression5"":3,""Aggression6"":1,""Aggression7"":1,""Aggression8"":3,""Aggression9"":4}","[0,1,2,3,4,5,6,7,8]"
"","","","","","html-button-response","140","382745","0.0-13.0","63","1","2022-11-13 08:44:54","a60ee176136a54a92dc2853177adfa2c","202.119.46.129","Mozilla/5.0 (Macintosh; Intel Mac OS X 10_15_7) AppleWebKit/537.36 (KHTML, like Gecko) Chrome/107.0.0.0 Safari/537.36","Macintosh","Chrome","107.0.0.0","OS X","10_15_7","1408","<p><strong>请判断你在多大程度上同意下列陈述。</strong></p>","0",""
"","","","","","survey-likert","141","441159","0.0-14.0","63","1","2022-11-13 08:44:54","a60ee176136a54a92dc2853177adfa2c","202.119.46.129","Mozilla/5.0 (Macintosh; Intel Mac OS X 10_15_7) AppleWebKit/537.36 (KHTML, like Gecko) Chrome/107.0.0.0 Safari/537.36","Macintosh","Chrome","107.0.0.0","OS X","10_15_7","58402","","{""scale6"":4,""scale21"":4,""scale9"":3,""scale16"":3,""scale25"":4,""scale13"":1,""scale26"":4,""scale7"":1,""scale14"":1,""scale17"":4,""scale20"":2,""scale12"":0,""scale2"":3,""scale10"":3,""scale22"":3,""scale24"":2,""scale8"":4,""scale15"":1,""scale19"":2,""scale27"":2,""scale1"":4,""scale18"":1,""scale23"":4,""scale3"":0,""scale28"":4,""scale4"":1,""scale11"":4,""scale5"":4}","[5,20,8,15,24,12,25,6,13,16,19,11,1,9,21,23,7,14,18,26,0,17,22,2,27,3,10,4]"
"","","","","","html-button-response","142","442330","0.0-15.0","63","1","2022-11-13 08:44:54","a60ee176136a54a92dc2853177adfa2c","202.119.46.129","Mozilla/5.0 (Macintosh; Intel Mac OS X 10_15_7) AppleWebKit/537.36 (KHTML, like Gecko) Chrome/107.0.0.0 Safari/537.36","Macintosh","Chrome","107.0.0.0","OS X","10_15_7","1158","<p><strong>请判断你在多大程度上同意下列陈述。</strong></p>","0",""
"","","","","","survey-likert","143","494104","0.0-16.0","63","1","2022-11-13 08:44:54","a60ee176136a54a92dc2853177adfa2c","202.119.46.129","Mozilla/5.0 (Macintosh; Intel Mac OS X 10_15_7) AppleWebKit/537.36 (KHTML, like Gecko) Chrome/107.0.0.0 Safari/537.36","Macintosh","Chrome","107.0.0.0","OS X","10_15_7","51767","","{""sdo1"":4,""sdo9"":3,""sdo16"":3,""sdo12"":5,""sdo15"":6,""sdo7"":1,""sdo4"":3,""sdo13"":6,""sdo8"":1,""sdo6"":3,""sdo3"":4,""sdo2"":1,""sdo10"":6,""sdo5"":0,""sdo11"":5,""sdo14"":5}","[0,8,15,11,14,6,3,12,7,5,2,1,9,4,10,13]"
"","","","","","html-button-response","144","495920","0.0-17.0","63","1","2022-11-13 08:44:54","a60ee176136a54a92dc2853177adfa2c","202.119.46.129","Mozilla/5.0 (Macintosh; Intel Mac OS X 10_15_7) AppleWebKit/537.36 (KHTML, like Gecko) Chrome/107.0.0.0 Safari/537.36","Macintosh","Chrome","107.0.0.0","OS X","10_15_7","1805","<p><strong>请判断你在多大程度上同意下列陈述。</strong></p>","0",""
"","","","","","survey-likert","145","535025","0.0-18.0","63","1","2022-11-13 08:44:54","a60ee176136a54a92dc2853177adfa2c","202.119.46.129","Mozilla/5.0 (Macintosh; Intel Mac OS X 10_15_7) AppleWebKit/537.36 (KHTML, like Gecko) Chrome/107.0.0.0 Safari/537.36","Macintosh","Chrome","107.0.0.0","OS X","10_15_7","39098","","{""caring1"":1,""liking1"":3,""caring2"":3,""protection1"":4,""liking2"":4,""caring3"":2,""protection2"":3,""liking3"":2,""protection3"":3,""caring4"":3,""liking4"":4,""protection4"":3,""caring5"":1,""liking5"":4,""protection5"":4}","[0,1,2,3,4,5,6,7,8,9,10,11,12,13,14]"
"","","","","","html-button-response","146","536235","0.0-19.0","63","1","2022-11-13 08:44:54","a60ee176136a54a92dc2853177adfa2c","202.119.46.129","Mozilla/5.0 (Macintosh; Intel Mac OS X 10_15_7) AppleWebKit/537.36 (KHTML, like Gecko) Chrome/107.0.0.0 Safari/537.36","Macintosh","Chrome","107.0.0.0","OS X","10_15_7","1200","<p><strong>请判断下列场景中你的内心感受有多柔软。</strong></p>","0",""
"","","","","","survey-likert","147","561412","0.0-20.0","63","1","2022-11-13 08:44:54","a60ee176136a54a92dc2853177adfa2c","202.119.46.129","Mozilla/5.0 (Macintosh; Intel Mac OS X 10_15_7) AppleWebKit/537.36 (KHTML, like Gecko) Chrome/107.0.0.0 Safari/537.36","Macintosh","Chrome","107.0.0.0","OS X","10_15_7","25166","","{""tenderness-positive1"":4,""tenderness-negative1"":2,""tenderness-negative2"":0,""tenderness-positive2"":4,""tenderness-positive3"":3,""tenderness-negative3"":1,""tenderness-positive4"":3,""tenderness-negative4"":3,""tenderness-negative5"":3,""tenderness-positive5"":4}","[0,1,2,3,4,5,6,7,8,9]"
"","","","","","survey-multi-choice","148","575769","0.0-21.0","63","1","2022-11-13 08:44:54","a60ee176136a54a92dc2853177adfa2c","202.119.46.129","Mozilla/5.0 (Macintosh; Intel Mac OS X 10_15_7) AppleWebKit/537.36 (KHTML, like Gecko) Chrome/107.0.0.0 Safari/537.36","Macintosh","Chrome","107.0.0.0","OS X","10_15_7","14347","","{""Attention2"":""其他""}","[0]"
"","","","","","html-button-response","149","577084","0.0-22.0","63","1","2022-11-13 08:44:54","a60ee176136a54a92dc2853177adfa2c","202.119.46.129","Mozilla/5.0 (Macintosh; Intel Mac OS X 10_15_7) AppleWebKit/537.36 (KHTML, like Gecko) Chrome/107.0.0.0 Safari/537.36","Macintosh","Chrome","107.0.0.0","OS X","10_15_7","1304","<p><strong>请判断你在多大程度上同意下列陈述。</strong></p>","0",""
"","","","","","survey-likert","150","630939","0.0-23.0","63","1","2022-11-13 08:44:54","a60ee176136a54a92dc2853177adfa2c","202.119.46.129","Mozilla/5.0 (Macintosh; Intel Mac OS X 10_15_7) AppleWebKit/537.36 (KHTML, like Gecko) Chrome/107.0.0.0 Safari/537.36","Macintosh","Chrome","107.0.0.0","OS X","10_15_7","53847","","{""Patri1"":4,""Patri3"":3,""Patri9"":1,""Patri12"":0,""Nation3"":1,""Patri5"":4,""Patri6"":3,""Nation4"":1,""Nation8"":1,""Nation7"":3,""Patri2"":4,""Patri11"":1,""Patri4"":4,""Nation1"":0,""Patri8"":3,""Nation6"":4,""Nation2"":3,""Patri10"":0,""Nation5"":0,""Patri7"":3}","[0,2,8,11,14,4,5,15,19,18,1,10,3,12,7,17,13,9,16,6]"
"","","","","","html-button-response","151","632250","0.0-24.0","63","1","2022-11-13 08:44:54","a60ee176136a54a92dc2853177adfa2c","202.119.46.129","Mozilla/5.0 (Macintosh; Intel Mac OS X 10_15_7) AppleWebKit/537.36 (KHTML, like Gecko) Chrome/107.0.0.0 Safari/537.36","Macintosh","Chrome","107.0.0.0","OS X","10_15_7","1302","<p><strong>请判断你在多大程度上同意下列陈述。</strong></p>","0",""
"","","","","","survey-likert","152","669539","0.0-25.0","63","1","2022-11-13 08:44:54","a60ee176136a54a92dc2853177adfa2c","202.119.46.129","Mozilla/5.0 (Macintosh; Intel Mac OS X 10_15_7) AppleWebKit/537.36 (KHTML, like Gecko) Chrome/107.0.0.0 Safari/537.36","Macintosh","Chrome","107.0.0.0","OS X","10_15_7","37278","","{""hi1"":7,""hc2"":7,""vi1"":7,""hi3"":1,""vc4"":6,""hc1"":8,""hi4"":7,""hc4"":7,""vi3"":7,""vc3"":2,""hi2"":6,""vc1"":7,""vc2"":6,""hc3"":1,""Robot"":6,""vi4"":7,""vi2"":5}","[0,10,4,2,16,9,3,12,6,15,1,13,14,11,7,8,5]"
"","","","","","survey-text","153","681828","0.0-26.0","63","1","2022-11-13 08:44:54","a60ee176136a54a92dc2853177adfa2c","202.119.46.129","Mozilla/5.0 (Macintosh; Intel Mac OS X 10_15_7) AppleWebKit/537.36 (KHTML, like Gecko) Chrome/107.0.0.0 Safari/537.36","Macintosh","Chrome","107.0.0.0","OS X","10_15_7","12260","","{""Comments"":""暂无""}",""
"","","","","","html-button-response","154","683087","0.0-27.0","63","1","2022-11-13 08:44:54","a60ee176136a54a92dc2853177adfa2c","202.119.46.129","Mozilla/5.0 (Macintosh; Intel Mac OS X 10_15_7) AppleWebKit/537.36 (KHTML, like Gecko) Chrome/107.0.0.0 Safari/537.36","Macintosh","Chrome","107.0.0.0","OS X","10_15_7","1252","<strong><p>恭喜你完成了实验！</p><p>感谢您的参与。</p></strong>","0",""
