"success","timeout","failed_images","failed_audio","failed_video","trial_type","trial_index","time_elapsed","internal_node_id","run_id","condition","recorded_at","source_code_version","ip","user_agent","device","browser","browser_version","platform","platform_version","rt","stimulus","response","question_order"
"true","false","[]","[]","[]","preload","0","616","0.0-0.0","74","1","2022-11-13 09:17:41","a60ee176136a54a92dc2853177adfa2c","117.154.17.128","Mozilla/5.0 (Windows NT 10.0; Win64; x64) AppleWebKit/537.36 (KHTML, like Gecko) Chrome/107.0.0.0 Safari/537.36 Edg/107.0.1418.42","WebKit","Edge","107.0.1418.42","Windows","10.0","","","",""
"true","","","","","fullscreen","1","4438","0.0-1.0","74","1","2022-11-13 09:17:41","a60ee176136a54a92dc2853177adfa2c","117.154.17.128","Mozilla/5.0 (Windows NT 10.0; Win64; x64) AppleWebKit/537.36 (KHTML, like Gecko) Chrome/107.0.0.0 Safari/537.36 Edg/107.0.1418.42","WebKit","Edge","107.0.1418.42","Windows","10.0","","","",""
"","","","","","html-button-response","2","89548","0.0-2.0","74","1","2022-11-13 09:17:41","a60ee176136a54a92dc2853177adfa2c","117.154.17.128","Mozilla/5.0 (Windows NT 10.0; Win64; x64) AppleWebKit/537.36 (KHTML, like Gecko) Chrome/107.0.0.0 Safari/537.36 Edg/107.0.1418.42","WebKit","Edge","107.0.1418.42","Windows","10.0","85109","<p style=""font-size:20px;font-weight:bold;"">实验知情同意书</p><p style=""text-align:left;""><strong>实验名称：</strong>社会冲突研究</p><p style=""text-align:left;""><strong>主要研究者：</strong>韩晓春副教授（北京师范大学心理学部）</p><p style=""text-align:left;""><strong>联系方式：</strong>发送邮件至xiaochun.han@bnu.edu.cn</p><p style=""text-align:left;""><strong>研究目的：</strong>研究旨在了解人类面对群体冲突时的决策方式，以及相关的心理学特质。实验调查大约需要20分钟。</p><p style=""text-align:left;""><strong>实验流程：</strong>实验包含两部分。第一部分呈现一系列群体冲突场景，请你决定如何对这些冲突进行反应，大约需要10分钟完成。第二部分包含一系列人口统计学信息收集和心理学问卷，大约需要10分钟完成。</p><p style=""text-align:left;""><strong>参加及退出规则：</strong>参加本实验完全取决于您的个人意愿。在参与过程中，您可以随时退出，并且不用承担任何后果。</p><p style=""text-align:left;""><strong>隐私：</strong>本实验完全匿名进行，不会收集您的姓名或其他能够识别您身份的信息。实验中收集的作答仅用作科学研究使用，可能会在学术期刊/书籍上发表，或者用于教学，您的数据未来可能会和其他研究者或实验室分享，但您的个人身份不会被识别。</p><p style=""text-align:left;""><strong>实验报酬：</strong>实验完成后，您将获得15元人民币报酬，以感谢您的时间和努力。调查问卷中包含几道题目用以测验您作答时的认真度。只有完成全部实验，并且正确回答认真度测验的被试才能获得实验报酬。实验报酬将通过支付宝转账发放。</p><p style=""text-align:left;font-size:20px;""><strong>如果您同意以上实验知情同意书的内容，请点击'同意并且开始实验'按钮；否则请关闭浏览器界面，退出实验。</strong></p>","0",""
"","","","","","html-button-response","3","104436","0.0-3.0","74","1","2022-11-13 09:17:41","a60ee176136a54a92dc2853177adfa2c","117.154.17.128","Mozilla/5.0 (Windows NT 10.0; Win64; x64) AppleWebKit/537.36 (KHTML, like Gecko) Chrome/107.0.0.0 Safari/537.36 Edg/107.0.1418.42","WebKit","Edge","107.0.1418.42","Windows","10.0","14884","<p ><strong>实验任务一：</strong></p><p>请想象你的国家与另一个国家发生了军事冲突。</p><p>你是国家军队的指挥官，你将如何在冲突中进行决策。</p><p>具体来说，作为军队指挥官，请你决定是否发射导弹进行打击。</p><p>接下来，你会面对一系列场景，请仔细阅读每个场景，然后进行决策。</p><p>这部分实验任务大约需要10分钟。</p><p><strong>实验过程中，请集中注意力。</strong></p>","0",""
"","","","","","html-keyboard-response","4","105445","0.0-4.0-0.0","74","1","2022-11-13 09:17:41","a60ee176136a54a92dc2853177adfa2c","117.154.17.128","Mozilla/5.0 (Windows NT 10.0; Win64; x64) AppleWebKit/537.36 (KHTML, like Gecko) Chrome/107.0.0.0 Safari/537.36 Edg/107.0.1418.42","WebKit","Edge","107.0.1418.42","Windows","10.0","null","<div style=""font-size:60px;"">+</div>","null",""
"","","","","","html-button-response","5","113668","0.0-4.0-1.0","74","1","2022-11-13 09:17:41","a60ee176136a54a92dc2853177adfa2c","117.154.17.128","Mozilla/5.0 (Windows NT 10.0; Win64; x64) AppleWebKit/537.36 (KHTML, like Gecko) Chrome/107.0.0.0 Safari/537.36 Edg/107.0.1418.42","WebKit","Edge","107.0.1418.42","Windows","10.0","8218","<p>作为军队的指挥官，你可以选择发射导弹杀死 <strong>6名</strong> 敌国士兵，但会炸毁附近的 <strong>1棵</strong> 敌国树木。</p> <p>树木的照片如下图所示。</p> <p></p> <img src='stimuli/trees/1.png', style='max-width: 30%;'> </img> <p><strong>你是否选择发射武器？</strong></p>","0",""
"","","","","","html-keyboard-response","6","114680","0.0-4.0-0.1","74","1","2022-11-13 09:17:41","a60ee176136a54a92dc2853177adfa2c","117.154.17.128","Mozilla/5.0 (Windows NT 10.0; Win64; x64) AppleWebKit/537.36 (KHTML, like Gecko) Chrome/107.0.0.0 Safari/537.36 Edg/107.0.1418.42","WebKit","Edge","107.0.1418.42","Windows","10.0","null","<div style=""font-size:60px;"">+</div>","null",""
"","","","","","html-button-response","7","118452","0.0-4.0-1.1","74","1","2022-11-13 09:17:41","a60ee176136a54a92dc2853177adfa2c","117.154.17.128","Mozilla/5.0 (Windows NT 10.0; Win64; x64) AppleWebKit/537.36 (KHTML, like Gecko) Chrome/107.0.0.0 Safari/537.36 Edg/107.0.1418.42","WebKit","Edge","107.0.1418.42","Windows","10.0","3769","<p>作为军队的指挥官，你可以选择发射导弹杀死 <strong>1名</strong> 敌国士兵，但会炸毁附近的 <strong>1棵</strong> 敌国树木。</p> <p>树木的照片如下图所示。</p> <p></p> <img src='stimuli/trees/2.png', style='max-width: 30%;'> </img> <p><strong>你是否选择发射武器？</strong></p>","0",""
"","","","","","html-keyboard-response","8","119463","0.0-4.0-0.2","74","1","2022-11-13 09:17:41","a60ee176136a54a92dc2853177adfa2c","117.154.17.128","Mozilla/5.0 (Windows NT 10.0; Win64; x64) AppleWebKit/537.36 (KHTML, like Gecko) Chrome/107.0.0.0 Safari/537.36 Edg/107.0.1418.42","WebKit","Edge","107.0.1418.42","Windows","10.0","null","<div style=""font-size:60px;"">+</div>","null",""
"","","","","","html-button-response","9","122259","0.0-4.0-1.2","74","1","2022-11-13 09:17:41","a60ee176136a54a92dc2853177adfa2c","117.154.17.128","Mozilla/5.0 (Windows NT 10.0; Win64; x64) AppleWebKit/537.36 (KHTML, like Gecko) Chrome/107.0.0.0 Safari/537.36 Edg/107.0.1418.42","WebKit","Edge","107.0.1418.42","Windows","10.0","2793","<p>作为军队的指挥官，你可以选择发射导弹杀死 <strong>4名</strong> 敌国士兵，但会炸毁附近的 <strong>1棵</strong> 敌国树木。</p> <p>树木的照片如下图所示。</p> <p></p> <img src='stimuli/trees/11.png', style='max-width: 30%;'> </img> <p><strong>你是否选择发射武器？</strong></p>","0",""
"","","","","","html-keyboard-response","10","123271","0.0-4.0-0.3","74","1","2022-11-13 09:17:41","a60ee176136a54a92dc2853177adfa2c","117.154.17.128","Mozilla/5.0 (Windows NT 10.0; Win64; x64) AppleWebKit/537.36 (KHTML, like Gecko) Chrome/107.0.0.0 Safari/537.36 Edg/107.0.1418.42","WebKit","Edge","107.0.1418.42","Windows","10.0","null","<div style=""font-size:60px;"">+</div>","null",""
"","","","","","html-button-response","11","128095","0.0-4.0-1.3","74","1","2022-11-13 09:17:41","a60ee176136a54a92dc2853177adfa2c","117.154.17.128","Mozilla/5.0 (Windows NT 10.0; Win64; x64) AppleWebKit/537.36 (KHTML, like Gecko) Chrome/107.0.0.0 Safari/537.36 Edg/107.0.1418.42","WebKit","Edge","107.0.1418.42","Windows","10.0","4822","<p>作为军队的指挥官，你可以选择发射导弹杀死 <strong>5名</strong> 敌国士兵，但会炸毁附近的 <strong>1棵</strong> 敌国树木。</p> <p>树木的照片如下图所示。</p> <p></p> <img src='stimuli/trees/9.png', style='max-width: 30%;'> </img> <p><strong>你是否选择发射武器？</strong></p>","0",""
"","","","","","html-keyboard-response","12","129105","0.0-4.0-0.4","74","1","2022-11-13 09:17:41","a60ee176136a54a92dc2853177adfa2c","117.154.17.128","Mozilla/5.0 (Windows NT 10.0; Win64; x64) AppleWebKit/537.36 (KHTML, like Gecko) Chrome/107.0.0.0 Safari/537.36 Edg/107.0.1418.42","WebKit","Edge","107.0.1418.42","Windows","10.0","null","<div style=""font-size:60px;"">+</div>","null",""
"","","","","","html-button-response","13","138095","0.0-4.0-1.4","74","1","2022-11-13 09:17:41","a60ee176136a54a92dc2853177adfa2c","117.154.17.128","Mozilla/5.0 (Windows NT 10.0; Win64; x64) AppleWebKit/537.36 (KHTML, like Gecko) Chrome/107.0.0.0 Safari/537.36 Edg/107.0.1418.42","WebKit","Edge","107.0.1418.42","Windows","10.0","8988","<p>作为军队的指挥官，你可以选择发射导弹杀死 <strong>1名</strong> 敌国士兵，但会误杀附近的 <strong>1名</strong> 敌国平民。</p> <p>平民照片如下图所示。</p> <p></p> <img src='stimuli/faces/PCF2.jpg', style='max-width: 30%;'> </img> <p><strong>你是否选择发射武器？</strong></p>","0",""
"","","","","","html-keyboard-response","14","139102","0.0-4.0-0.5","74","1","2022-11-13 09:17:41","a60ee176136a54a92dc2853177adfa2c","117.154.17.128","Mozilla/5.0 (Windows NT 10.0; Win64; x64) AppleWebKit/537.36 (KHTML, like Gecko) Chrome/107.0.0.0 Safari/537.36 Edg/107.0.1418.42","WebKit","Edge","107.0.1418.42","Windows","10.0","null","<div style=""font-size:60px;"">+</div>","null",""
"","","","","","html-button-response","15","141615","0.0-4.0-1.5","74","1","2022-11-13 09:17:41","a60ee176136a54a92dc2853177adfa2c","117.154.17.128","Mozilla/5.0 (Windows NT 10.0; Win64; x64) AppleWebKit/537.36 (KHTML, like Gecko) Chrome/107.0.0.0 Safari/537.36 Edg/107.0.1418.42","WebKit","Edge","107.0.1418.42","Windows","10.0","2510","<p>作为军队的指挥官，你可以选择发射导弹杀死 <strong>1名</strong> 敌国士兵，但会误杀附近的 <strong>1名</strong> 敌国平民。</p> <p>平民照片如下图所示。</p> <p></p> <img src='stimuli/faces/PCM4.jpg', style='max-width: 30%;'> </img> <p><strong>你是否选择发射武器？</strong></p>","0",""
"","","","","","html-keyboard-response","16","142633","0.0-4.0-0.6","74","1","2022-11-13 09:17:41","a60ee176136a54a92dc2853177adfa2c","117.154.17.128","Mozilla/5.0 (Windows NT 10.0; Win64; x64) AppleWebKit/537.36 (KHTML, like Gecko) Chrome/107.0.0.0 Safari/537.36 Edg/107.0.1418.42","WebKit","Edge","107.0.1418.42","Windows","10.0","null","<div style=""font-size:60px;"">+</div>","null",""
"","","","","","html-button-response","17","145020","0.0-4.0-1.6","74","1","2022-11-13 09:17:41","a60ee176136a54a92dc2853177adfa2c","117.154.17.128","Mozilla/5.0 (Windows NT 10.0; Win64; x64) AppleWebKit/537.36 (KHTML, like Gecko) Chrome/107.0.0.0 Safari/537.36 Edg/107.0.1418.42","WebKit","Edge","107.0.1418.42","Windows","10.0","2384","<p>作为军队的指挥官，你可以选择发射导弹杀死 <strong>10名</strong> 敌国士兵，但会误杀附近的 <strong>1名</strong> 敌国平民。</p> <p>平民照片如下图所示。</p> <p></p> <img src='stimuli/faces/PCM8.jpg', style='max-width: 30%;'> </img> <p><strong>你是否选择发射武器？</strong></p>","0",""
"","","","","","html-keyboard-response","18","146042","0.0-4.0-0.7","74","1","2022-11-13 09:17:41","a60ee176136a54a92dc2853177adfa2c","117.154.17.128","Mozilla/5.0 (Windows NT 10.0; Win64; x64) AppleWebKit/537.36 (KHTML, like Gecko) Chrome/107.0.0.0 Safari/537.36 Edg/107.0.1418.42","WebKit","Edge","107.0.1418.42","Windows","10.0","null","<div style=""font-size:60px;"">+</div>","null",""
"","","","","","html-button-response","19","149079","0.0-4.0-1.7","74","1","2022-11-13 09:17:41","a60ee176136a54a92dc2853177adfa2c","117.154.17.128","Mozilla/5.0 (Windows NT 10.0; Win64; x64) AppleWebKit/537.36 (KHTML, like Gecko) Chrome/107.0.0.0 Safari/537.36 Edg/107.0.1418.42","WebKit","Edge","107.0.1418.42","Windows","10.0","3034","<p>作为军队的指挥官，你可以选择发射导弹杀死 <strong>5名</strong> 敌国士兵，但会误杀附近的 <strong>1名</strong> 敌国平民。</p> <p>平民照片如下图所示。</p> <p></p> <img src='stimuli/faces/PCM1.jpg', style='max-width: 30%;'> </img> <p><strong>你是否选择发射武器？</strong></p>","0",""
"","","","","","html-keyboard-response","20","150100","0.0-4.0-0.8","74","1","2022-11-13 09:17:41","a60ee176136a54a92dc2853177adfa2c","117.154.17.128","Mozilla/5.0 (Windows NT 10.0; Win64; x64) AppleWebKit/537.36 (KHTML, like Gecko) Chrome/107.0.0.0 Safari/537.36 Edg/107.0.1418.42","WebKit","Edge","107.0.1418.42","Windows","10.0","null","<div style=""font-size:60px;"">+</div>","null",""
"","","","","","html-button-response","21","152014","0.0-4.0-1.8","74","1","2022-11-13 09:17:41","a60ee176136a54a92dc2853177adfa2c","117.154.17.128","Mozilla/5.0 (Windows NT 10.0; Win64; x64) AppleWebKit/537.36 (KHTML, like Gecko) Chrome/107.0.0.0 Safari/537.36 Edg/107.0.1418.42","WebKit","Edge","107.0.1418.42","Windows","10.0","1912","<p>作为军队的指挥官，你可以选择发射导弹杀死 <strong>7名</strong> 敌国士兵，但会误杀附近的 <strong>1名</strong> 敌国平民。</p> <p>平民照片如下图所示。</p> <p></p> <img src='stimuli/faces/PCM4.jpg', style='max-width: 30%;'> </img> <p><strong>你是否选择发射武器？</strong></p>","0",""
"","","","","","html-keyboard-response","22","153019","0.0-4.0-0.9","74","1","2022-11-13 09:17:41","a60ee176136a54a92dc2853177adfa2c","117.154.17.128","Mozilla/5.0 (Windows NT 10.0; Win64; x64) AppleWebKit/537.36 (KHTML, like Gecko) Chrome/107.0.0.0 Safari/537.36 Edg/107.0.1418.42","WebKit","Edge","107.0.1418.42","Windows","10.0","null","<div style=""font-size:60px;"">+</div>","null",""
"","","","","","html-button-response","23","154998","0.0-4.0-1.9","74","1","2022-11-13 09:17:41","a60ee176136a54a92dc2853177adfa2c","117.154.17.128","Mozilla/5.0 (Windows NT 10.0; Win64; x64) AppleWebKit/537.36 (KHTML, like Gecko) Chrome/107.0.0.0 Safari/537.36 Edg/107.0.1418.42","WebKit","Edge","107.0.1418.42","Windows","10.0","1977","<p>作为军队的指挥官，你可以选择发射导弹杀死 <strong>1名</strong> 敌国士兵，但会炸毁附近的 <strong>1棵</strong> 敌国树木。</p> <p>树木的照片如下图所示。</p> <p></p> <img src='stimuli/trees/13.png', style='max-width: 30%;'> </img> <p><strong>你是否选择发射武器？</strong></p>","0",""
"","","","","","html-keyboard-response","24","156010","0.0-4.0-0.10","74","1","2022-11-13 09:17:41","a60ee176136a54a92dc2853177adfa2c","117.154.17.128","Mozilla/5.0 (Windows NT 10.0; Win64; x64) AppleWebKit/537.36 (KHTML, like Gecko) Chrome/107.0.0.0 Safari/537.36 Edg/107.0.1418.42","WebKit","Edge","107.0.1418.42","Windows","10.0","null","<div style=""font-size:60px;"">+</div>","null",""
"","","","","","html-button-response","25","157786","0.0-4.0-1.10","74","1","2022-11-13 09:17:41","a60ee176136a54a92dc2853177adfa2c","117.154.17.128","Mozilla/5.0 (Windows NT 10.0; Win64; x64) AppleWebKit/537.36 (KHTML, like Gecko) Chrome/107.0.0.0 Safari/537.36 Edg/107.0.1418.42","WebKit","Edge","107.0.1418.42","Windows","10.0","1773","<p>作为军队的指挥官，你可以选择发射导弹杀死 <strong>10名</strong> 敌国士兵，但会误杀附近的 <strong>1名</strong> 敌国平民。</p> <p>平民照片如下图所示。</p> <p></p> <img src='stimuli/faces/PCF4.jpg', style='max-width: 30%;'> </img> <p><strong>你是否选择发射武器？</strong></p>","0",""
"","","","","","html-keyboard-response","26","158805","0.0-4.0-0.11","74","1","2022-11-13 09:17:41","a60ee176136a54a92dc2853177adfa2c","117.154.17.128","Mozilla/5.0 (Windows NT 10.0; Win64; x64) AppleWebKit/537.36 (KHTML, like Gecko) Chrome/107.0.0.0 Safari/537.36 Edg/107.0.1418.42","WebKit","Edge","107.0.1418.42","Windows","10.0","null","<div style=""font-size:60px;"">+</div>","null",""
"","","","","","html-button-response","27","159761","0.0-4.0-1.11","74","1","2022-11-13 09:17:41","a60ee176136a54a92dc2853177adfa2c","117.154.17.128","Mozilla/5.0 (Windows NT 10.0; Win64; x64) AppleWebKit/537.36 (KHTML, like Gecko) Chrome/107.0.0.0 Safari/537.36 Edg/107.0.1418.42","WebKit","Edge","107.0.1418.42","Windows","10.0","953","<p>作为军队的指挥官，你可以选择发射导弹杀死 <strong>4名</strong> 敌国士兵，但会误杀附近的 <strong>1名</strong> 敌国平民。</p> <p>平民照片如下图所示。</p> <p></p> <img src='stimuli/faces/PCM5.jpg', style='max-width: 30%;'> </img> <p><strong>你是否选择发射武器？</strong></p>","0",""
"","","","","","html-keyboard-response","28","160777","0.0-4.0-0.12","74","1","2022-11-13 09:17:41","a60ee176136a54a92dc2853177adfa2c","117.154.17.128","Mozilla/5.0 (Windows NT 10.0; Win64; x64) AppleWebKit/537.36 (KHTML, like Gecko) Chrome/107.0.0.0 Safari/537.36 Edg/107.0.1418.42","WebKit","Edge","107.0.1418.42","Windows","10.0","null","<div style=""font-size:60px;"">+</div>","null",""
"","","","","","html-button-response","29","171550","0.0-4.0-1.12","74","1","2022-11-13 09:17:41","a60ee176136a54a92dc2853177adfa2c","117.154.17.128","Mozilla/5.0 (Windows NT 10.0; Win64; x64) AppleWebKit/537.36 (KHTML, like Gecko) Chrome/107.0.0.0 Safari/537.36 Edg/107.0.1418.42","WebKit","Edge","107.0.1418.42","Windows","10.0","10771","<p>作为军队的指挥官，你可以选择发射导弹杀死 <strong>6名</strong> 敌国士兵，但会误杀附近的 <strong>1名</strong> 敌国平民。</p> <p>平民照片如下图所示。</p> <p></p> <img src='stimuli/faces/PCM5.jpg', style='max-width: 30%;'> </img> <p><strong>你是否选择发射武器？</strong></p>","0",""
"","","","","","html-keyboard-response","30","172572","0.0-4.0-0.13","74","1","2022-11-13 09:17:41","a60ee176136a54a92dc2853177adfa2c","117.154.17.128","Mozilla/5.0 (Windows NT 10.0; Win64; x64) AppleWebKit/537.36 (KHTML, like Gecko) Chrome/107.0.0.0 Safari/537.36 Edg/107.0.1418.42","WebKit","Edge","107.0.1418.42","Windows","10.0","null","<div style=""font-size:60px;"">+</div>","null",""
"","","","","","html-button-response","31","175187","0.0-4.0-1.13","74","1","2022-11-13 09:17:41","a60ee176136a54a92dc2853177adfa2c","117.154.17.128","Mozilla/5.0 (Windows NT 10.0; Win64; x64) AppleWebKit/537.36 (KHTML, like Gecko) Chrome/107.0.0.0 Safari/537.36 Edg/107.0.1418.42","WebKit","Edge","107.0.1418.42","Windows","10.0","2613","<p>作为军队的指挥官，你可以选择发射导弹杀死 <strong>3名</strong> 敌国士兵，但会误杀附近的 <strong>1名</strong> 敌国平民。</p> <p>平民照片如下图所示。</p> <p></p> <img src='stimuli/faces/PCF3.jpg', style='max-width: 30%;'> </img> <p><strong>你是否选择发射武器？</strong></p>","0",""
"","","","","","html-keyboard-response","32","176202","0.0-4.0-0.14","74","1","2022-11-13 09:17:41","a60ee176136a54a92dc2853177adfa2c","117.154.17.128","Mozilla/5.0 (Windows NT 10.0; Win64; x64) AppleWebKit/537.36 (KHTML, like Gecko) Chrome/107.0.0.0 Safari/537.36 Edg/107.0.1418.42","WebKit","Edge","107.0.1418.42","Windows","10.0","null","<div style=""font-size:60px;"">+</div>","null",""
"","","","","","html-button-response","33","177714","0.0-4.0-1.14","74","1","2022-11-13 09:17:41","a60ee176136a54a92dc2853177adfa2c","117.154.17.128","Mozilla/5.0 (Windows NT 10.0; Win64; x64) AppleWebKit/537.36 (KHTML, like Gecko) Chrome/107.0.0.0 Safari/537.36 Edg/107.0.1418.42","WebKit","Edge","107.0.1418.42","Windows","10.0","1510","<p>作为军队的指挥官，你可以选择发射导弹杀死 <strong>6名</strong> 敌国士兵，但会误杀附近的 <strong>1名</strong> 敌国平民。</p> <p>平民照片如下图所示。</p> <p></p> <img src='stimuli/faces/PCF5.jpg', style='max-width: 30%;'> </img> <p><strong>你是否选择发射武器？</strong></p>","0",""
"","","","","","html-keyboard-response","34","178727","0.0-4.0-0.15","74","1","2022-11-13 09:17:41","a60ee176136a54a92dc2853177adfa2c","117.154.17.128","Mozilla/5.0 (Windows NT 10.0; Win64; x64) AppleWebKit/537.36 (KHTML, like Gecko) Chrome/107.0.0.0 Safari/537.36 Edg/107.0.1418.42","WebKit","Edge","107.0.1418.42","Windows","10.0","null","<div style=""font-size:60px;"">+</div>","null",""
"","","","","","html-button-response","35","179631","0.0-4.0-1.15","74","1","2022-11-13 09:17:41","a60ee176136a54a92dc2853177adfa2c","117.154.17.128","Mozilla/5.0 (Windows NT 10.0; Win64; x64) AppleWebKit/537.36 (KHTML, like Gecko) Chrome/107.0.0.0 Safari/537.36 Edg/107.0.1418.42","WebKit","Edge","107.0.1418.42","Windows","10.0","900","<p>作为军队的指挥官，你可以选择发射导弹杀死 <strong>8名</strong> 敌国士兵，但会误杀附近的 <strong>1名</strong> 敌国平民。</p> <p>平民照片如下图所示。</p> <p></p> <img src='stimuli/faces/PCM6.jpg', style='max-width: 30%;'> </img> <p><strong>你是否选择发射武器？</strong></p>","0",""
"","","","","","html-keyboard-response","36","180652","0.0-4.0-0.16","74","1","2022-11-13 09:17:41","a60ee176136a54a92dc2853177adfa2c","117.154.17.128","Mozilla/5.0 (Windows NT 10.0; Win64; x64) AppleWebKit/537.36 (KHTML, like Gecko) Chrome/107.0.0.0 Safari/537.36 Edg/107.0.1418.42","WebKit","Edge","107.0.1418.42","Windows","10.0","null","<div style=""font-size:60px;"">+</div>","null",""
"","","","","","html-button-response","37","181418","0.0-4.0-1.16","74","1","2022-11-13 09:17:41","a60ee176136a54a92dc2853177adfa2c","117.154.17.128","Mozilla/5.0 (Windows NT 10.0; Win64; x64) AppleWebKit/537.36 (KHTML, like Gecko) Chrome/107.0.0.0 Safari/537.36 Edg/107.0.1418.42","WebKit","Edge","107.0.1418.42","Windows","10.0","764","<p>作为军队的指挥官，你可以选择发射导弹杀死 <strong>3名</strong> 敌国士兵，但会误杀附近的 <strong>1名</strong> 敌国平民。</p> <p>平民照片如下图所示。</p> <p></p> <img src='stimuli/faces/PCM2.jpg', style='max-width: 30%;'> </img> <p><strong>你是否选择发射武器？</strong></p>","0",""
"","","","","","html-keyboard-response","38","182429","0.0-4.0-0.17","74","1","2022-11-13 09:17:41","a60ee176136a54a92dc2853177adfa2c","117.154.17.128","Mozilla/5.0 (Windows NT 10.0; Win64; x64) AppleWebKit/537.36 (KHTML, like Gecko) Chrome/107.0.0.0 Safari/537.36 Edg/107.0.1418.42","WebKit","Edge","107.0.1418.42","Windows","10.0","null","<div style=""font-size:60px;"">+</div>","null",""
"","","","","","html-button-response","39","183887","0.0-4.0-1.17","74","1","2022-11-13 09:17:41","a60ee176136a54a92dc2853177adfa2c","117.154.17.128","Mozilla/5.0 (Windows NT 10.0; Win64; x64) AppleWebKit/537.36 (KHTML, like Gecko) Chrome/107.0.0.0 Safari/537.36 Edg/107.0.1418.42","WebKit","Edge","107.0.1418.42","Windows","10.0","1456","<p>作为军队的指挥官，你可以选择发射导弹杀死 <strong>7名</strong> 敌国士兵，但会炸毁附近的 <strong>1棵</strong> 敌国树木。</p> <p>树木的照片如下图所示。</p> <p></p> <img src='stimuli/trees/2.png', style='max-width: 30%;'> </img> <p><strong>你是否选择发射武器？</strong></p>","0",""
"","","","","","html-keyboard-response","40","184903","0.0-4.0-0.18","74","1","2022-11-13 09:17:41","a60ee176136a54a92dc2853177adfa2c","117.154.17.128","Mozilla/5.0 (Windows NT 10.0; Win64; x64) AppleWebKit/537.36 (KHTML, like Gecko) Chrome/107.0.0.0 Safari/537.36 Edg/107.0.1418.42","WebKit","Edge","107.0.1418.42","Windows","10.0","null","<div style=""font-size:60px;"">+</div>","null",""
"","","","","","html-button-response","41","185907","0.0-4.0-1.18","74","1","2022-11-13 09:17:41","a60ee176136a54a92dc2853177adfa2c","117.154.17.128","Mozilla/5.0 (Windows NT 10.0; Win64; x64) AppleWebKit/537.36 (KHTML, like Gecko) Chrome/107.0.0.0 Safari/537.36 Edg/107.0.1418.42","WebKit","Edge","107.0.1418.42","Windows","10.0","1001","<p>作为军队的指挥官，你可以选择发射导弹杀死 <strong>5名</strong> 敌国士兵，但会误杀附近的 <strong>1名</strong> 敌国平民。</p> <p>平民照片如下图所示。</p> <p></p> <img src='stimuli/faces/PCF7.jpg', style='max-width: 30%;'> </img> <p><strong>你是否选择发射武器？</strong></p>","0",""
"","","","","","html-keyboard-response","42","186931","0.0-4.0-0.19","74","1","2022-11-13 09:17:41","a60ee176136a54a92dc2853177adfa2c","117.154.17.128","Mozilla/5.0 (Windows NT 10.0; Win64; x64) AppleWebKit/537.36 (KHTML, like Gecko) Chrome/107.0.0.0 Safari/537.36 Edg/107.0.1418.42","WebKit","Edge","107.0.1418.42","Windows","10.0","null","<div style=""font-size:60px;"">+</div>","null",""
"","","","","","html-button-response","43","189108","0.0-4.0-1.19","74","1","2022-11-13 09:17:41","a60ee176136a54a92dc2853177adfa2c","117.154.17.128","Mozilla/5.0 (Windows NT 10.0; Win64; x64) AppleWebKit/537.36 (KHTML, like Gecko) Chrome/107.0.0.0 Safari/537.36 Edg/107.0.1418.42","WebKit","Edge","107.0.1418.42","Windows","10.0","2181","<p>作为军队的指挥官，你可以选择发射导弹杀死 <strong>2名</strong> 敌国士兵，但会误杀附近的 <strong>1名</strong> 敌国平民。</p> <p>平民照片如下图所示。</p> <p></p> <img src='stimuli/faces/PCM3.jpg', style='max-width: 30%;'> </img> <p><strong>你是否选择发射武器？</strong></p>","0",""
"","","","","","html-keyboard-response","44","190134","0.0-4.0-0.20","74","1","2022-11-13 09:17:41","a60ee176136a54a92dc2853177adfa2c","117.154.17.128","Mozilla/5.0 (Windows NT 10.0; Win64; x64) AppleWebKit/537.36 (KHTML, like Gecko) Chrome/107.0.0.0 Safari/537.36 Edg/107.0.1418.42","WebKit","Edge","107.0.1418.42","Windows","10.0","null","<div style=""font-size:60px;"">+</div>","null",""
"","","","","","html-button-response","45","193212","0.0-4.0-1.20","74","1","2022-11-13 09:17:41","a60ee176136a54a92dc2853177adfa2c","117.154.17.128","Mozilla/5.0 (Windows NT 10.0; Win64; x64) AppleWebKit/537.36 (KHTML, like Gecko) Chrome/107.0.0.0 Safari/537.36 Edg/107.0.1418.42","WebKit","Edge","107.0.1418.42","Windows","10.0","3075","<p>作为军队的指挥官，你可以选择发射导弹杀死 <strong>6名</strong> 敌国士兵，但会误杀附近的 <strong>1名</strong> 敌国平民。</p> <p>平民照片如下图所示。</p> <p></p> <img src='stimuli/faces/PCM7.jpg', style='max-width: 30%;'> </img> <p><strong>你是否选择发射武器？</strong></p>","0",""
"","","","","","html-keyboard-response","46","194236","0.0-4.0-0.21","74","1","2022-11-13 09:17:41","a60ee176136a54a92dc2853177adfa2c","117.154.17.128","Mozilla/5.0 (Windows NT 10.0; Win64; x64) AppleWebKit/537.36 (KHTML, like Gecko) Chrome/107.0.0.0 Safari/537.36 Edg/107.0.1418.42","WebKit","Edge","107.0.1418.42","Windows","10.0","null","<div style=""font-size:60px;"">+</div>","null",""
"","","","","","html-button-response","47","195232","0.0-4.0-1.21","74","1","2022-11-13 09:17:41","a60ee176136a54a92dc2853177adfa2c","117.154.17.128","Mozilla/5.0 (Windows NT 10.0; Win64; x64) AppleWebKit/537.36 (KHTML, like Gecko) Chrome/107.0.0.0 Safari/537.36 Edg/107.0.1418.42","WebKit","Edge","107.0.1418.42","Windows","10.0","994","<p>作为军队的指挥官，你可以选择发射导弹杀死 <strong>1名</strong> 敌国士兵，但会误杀附近的 <strong>1名</strong> 敌国平民。</p> <p>平民照片如下图所示。</p> <p></p> <img src='stimuli/faces/PCF4.jpg', style='max-width: 30%;'> </img> <p><strong>你是否选择发射武器？</strong></p>","0",""
"","","","","","html-keyboard-response","48","196249","0.0-4.0-0.22","74","1","2022-11-13 09:17:41","a60ee176136a54a92dc2853177adfa2c","117.154.17.128","Mozilla/5.0 (Windows NT 10.0; Win64; x64) AppleWebKit/537.36 (KHTML, like Gecko) Chrome/107.0.0.0 Safari/537.36 Edg/107.0.1418.42","WebKit","Edge","107.0.1418.42","Windows","10.0","null","<div style=""font-size:60px;"">+</div>","null",""
"","","","","","html-button-response","49","199692","0.0-4.0-1.22","74","1","2022-11-13 09:17:41","a60ee176136a54a92dc2853177adfa2c","117.154.17.128","Mozilla/5.0 (Windows NT 10.0; Win64; x64) AppleWebKit/537.36 (KHTML, like Gecko) Chrome/107.0.0.0 Safari/537.36 Edg/107.0.1418.42","WebKit","Edge","107.0.1418.42","Windows","10.0","3439","<p>作为军队的指挥官，你可以选择发射导弹杀死 <strong>3名</strong> 敌国士兵，但会炸毁附近的 <strong>1棵</strong> 敌国树木。</p> <p>树木的照片如下图所示。</p> <p></p> <img src='stimuli/trees/10.png', style='max-width: 30%;'> </img> <p><strong>你是否选择发射武器？</strong></p>","0",""
"","","","","","html-keyboard-response","50","200696","0.0-4.0-0.23","74","1","2022-11-13 09:17:41","a60ee176136a54a92dc2853177adfa2c","117.154.17.128","Mozilla/5.0 (Windows NT 10.0; Win64; x64) AppleWebKit/537.36 (KHTML, like Gecko) Chrome/107.0.0.0 Safari/537.36 Edg/107.0.1418.42","WebKit","Edge","107.0.1418.42","Windows","10.0","null","<div style=""font-size:60px;"">+</div>","null",""
"","","","","","html-button-response","51","202944","0.0-4.0-1.23","74","1","2022-11-13 09:17:41","a60ee176136a54a92dc2853177adfa2c","117.154.17.128","Mozilla/5.0 (Windows NT 10.0; Win64; x64) AppleWebKit/537.36 (KHTML, like Gecko) Chrome/107.0.0.0 Safari/537.36 Edg/107.0.1418.42","WebKit","Edge","107.0.1418.42","Windows","10.0","2245","<p>作为军队的指挥官，你可以选择发射导弹杀死 <strong>9名</strong> 敌国士兵，但会炸毁附近的 <strong>1棵</strong> 敌国树木。</p> <p>树木的照片如下图所示。</p> <p></p> <img src='stimuli/trees/4.png', style='max-width: 30%;'> </img> <p><strong>你是否选择发射武器？</strong></p>","0",""
"","","","","","html-keyboard-response","52","203954","0.0-4.0-0.24","74","1","2022-11-13 09:17:41","a60ee176136a54a92dc2853177adfa2c","117.154.17.128","Mozilla/5.0 (Windows NT 10.0; Win64; x64) AppleWebKit/537.36 (KHTML, like Gecko) Chrome/107.0.0.0 Safari/537.36 Edg/107.0.1418.42","WebKit","Edge","107.0.1418.42","Windows","10.0","null","<div style=""font-size:60px;"">+</div>","null",""
"","","","","","html-button-response","53","207174","0.0-4.0-1.24","74","1","2022-11-13 09:17:41","a60ee176136a54a92dc2853177adfa2c","117.154.17.128","Mozilla/5.0 (Windows NT 10.0; Win64; x64) AppleWebKit/537.36 (KHTML, like Gecko) Chrome/107.0.0.0 Safari/537.36 Edg/107.0.1418.42","WebKit","Edge","107.0.1418.42","Windows","10.0","3217","<p>作为军队的指挥官，你可以选择发射导弹杀死 <strong>3名</strong> 敌国士兵，但会误杀附近的 <strong>1名</strong> 敌国平民。</p> <p>平民照片如下图所示。</p> <p></p> <img src='stimuli/faces/PCF5.jpg', style='max-width: 30%;'> </img> <p><strong>你是否选择发射武器？</strong></p>","0",""
"","","","","","html-keyboard-response","54","208198","0.0-4.0-0.25","74","1","2022-11-13 09:17:41","a60ee176136a54a92dc2853177adfa2c","117.154.17.128","Mozilla/5.0 (Windows NT 10.0; Win64; x64) AppleWebKit/537.36 (KHTML, like Gecko) Chrome/107.0.0.0 Safari/537.36 Edg/107.0.1418.42","WebKit","Edge","107.0.1418.42","Windows","10.0","null","<div style=""font-size:60px;"">+</div>","null",""
"","","","","","html-button-response","55","209568","0.0-4.0-1.25","74","1","2022-11-13 09:17:41","a60ee176136a54a92dc2853177adfa2c","117.154.17.128","Mozilla/5.0 (Windows NT 10.0; Win64; x64) AppleWebKit/537.36 (KHTML, like Gecko) Chrome/107.0.0.0 Safari/537.36 Edg/107.0.1418.42","WebKit","Edge","107.0.1418.42","Windows","10.0","1366","<p>作为军队的指挥官，你可以选择发射导弹杀死 <strong>7名</strong> 敌国士兵，但会误杀附近的 <strong>1名</strong> 敌国平民。</p> <p>平民照片如下图所示。</p> <p></p> <img src='stimuli/faces/PCM3.jpg', style='max-width: 30%;'> </img> <p><strong>你是否选择发射武器？</strong></p>","0",""
"","","","","","html-keyboard-response","56","210581","0.0-4.0-0.26","74","1","2022-11-13 09:17:41","a60ee176136a54a92dc2853177adfa2c","117.154.17.128","Mozilla/5.0 (Windows NT 10.0; Win64; x64) AppleWebKit/537.36 (KHTML, like Gecko) Chrome/107.0.0.0 Safari/537.36 Edg/107.0.1418.42","WebKit","Edge","107.0.1418.42","Windows","10.0","null","<div style=""font-size:60px;"">+</div>","null",""
"","","","","","html-button-response","57","213320","0.0-4.0-1.26","74","1","2022-11-13 09:17:41","a60ee176136a54a92dc2853177adfa2c","117.154.17.128","Mozilla/5.0 (Windows NT 10.0; Win64; x64) AppleWebKit/537.36 (KHTML, like Gecko) Chrome/107.0.0.0 Safari/537.36 Edg/107.0.1418.42","WebKit","Edge","107.0.1418.42","Windows","10.0","2737","<p>作为军队的指挥官，你可以选择发射导弹杀死 <strong>4名</strong> 敌国士兵，但会误杀附近的 <strong>1名</strong> 敌国平民。</p> <p>平民照片如下图所示。</p> <p></p> <img src='stimuli/faces/PCM7.jpg', style='max-width: 30%;'> </img> <p><strong>你是否选择发射武器？</strong></p>","0",""
"","","","","","html-keyboard-response","58","214331","0.0-4.0-0.27","74","1","2022-11-13 09:17:41","a60ee176136a54a92dc2853177adfa2c","117.154.17.128","Mozilla/5.0 (Windows NT 10.0; Win64; x64) AppleWebKit/537.36 (KHTML, like Gecko) Chrome/107.0.0.0 Safari/537.36 Edg/107.0.1418.42","WebKit","Edge","107.0.1418.42","Windows","10.0","null","<div style=""font-size:60px;"">+</div>","null",""
"","","","","","html-button-response","59","240580","0.0-4.0-1.27","74","1","2022-11-13 09:17:41","a60ee176136a54a92dc2853177adfa2c","117.154.17.128","Mozilla/5.0 (Windows NT 10.0; Win64; x64) AppleWebKit/537.36 (KHTML, like Gecko) Chrome/107.0.0.0 Safari/537.36 Edg/107.0.1418.42","WebKit","Edge","107.0.1418.42","Windows","10.0","26247","<p>作为军队的指挥官，你可以选择发射导弹杀死 <strong>3名</strong> 敌国士兵，但会炸毁附近的 <strong>1棵</strong> 敌国树木。</p> <p>树木的照片如下图所示。</p> <p></p> <img src='stimuli/trees/4.png', style='max-width: 30%;'> </img> <p><strong>你是否选择发射武器？</strong></p>","0",""
"","","","","","html-keyboard-response","60","241599","0.0-4.0-0.28","74","1","2022-11-13 09:17:41","a60ee176136a54a92dc2853177adfa2c","117.154.17.128","Mozilla/5.0 (Windows NT 10.0; Win64; x64) AppleWebKit/537.36 (KHTML, like Gecko) Chrome/107.0.0.0 Safari/537.36 Edg/107.0.1418.42","WebKit","Edge","107.0.1418.42","Windows","10.0","null","<div style=""font-size:60px;"">+</div>","null",""
"","","","","","html-button-response","61","253736","0.0-4.0-1.28","74","1","2022-11-13 09:17:41","a60ee176136a54a92dc2853177adfa2c","117.154.17.128","Mozilla/5.0 (Windows NT 10.0; Win64; x64) AppleWebKit/537.36 (KHTML, like Gecko) Chrome/107.0.0.0 Safari/537.36 Edg/107.0.1418.42","WebKit","Edge","107.0.1418.42","Windows","10.0","12127","<p>作为军队的指挥官，你可以选择发射导弹杀死 <strong>1名</strong> 敌国士兵，但会炸毁附近的 <strong>1棵</strong> 敌国树木。</p> <p>树木的照片如下图所示。</p> <p></p> <img src='stimuli/trees/8.png', style='max-width: 30%;'> </img> <p><strong>你是否选择发射武器？</strong></p>","0",""
"","","","","","html-keyboard-response","62","254745","0.0-4.0-0.29","74","1","2022-11-13 09:17:41","a60ee176136a54a92dc2853177adfa2c","117.154.17.128","Mozilla/5.0 (Windows NT 10.0; Win64; x64) AppleWebKit/537.36 (KHTML, like Gecko) Chrome/107.0.0.0 Safari/537.36 Edg/107.0.1418.42","WebKit","Edge","107.0.1418.42","Windows","10.0","null","<div style=""font-size:60px;"">+</div>","null",""
"","","","","","html-button-response","63","272591","0.0-4.0-1.29","74","1","2022-11-13 09:17:41","a60ee176136a54a92dc2853177adfa2c","117.154.17.128","Mozilla/5.0 (Windows NT 10.0; Win64; x64) AppleWebKit/537.36 (KHTML, like Gecko) Chrome/107.0.0.0 Safari/537.36 Edg/107.0.1418.42","WebKit","Edge","107.0.1418.42","Windows","10.0","17841","<p>作为军队的指挥官，你可以选择发射导弹杀死 <strong>4名</strong> 敌国士兵，但会炸毁附近的 <strong>1棵</strong> 敌国树木。</p> <p>树木的照片如下图所示。</p> <p></p> <img src='stimuli/trees/14.png', style='max-width: 30%;'> </img> <p><strong>你是否选择发射武器？</strong></p>","0",""
"","","","","","html-keyboard-response","64","273601","0.0-4.0-0.30","74","1","2022-11-13 09:17:41","a60ee176136a54a92dc2853177adfa2c","117.154.17.128","Mozilla/5.0 (Windows NT 10.0; Win64; x64) AppleWebKit/537.36 (KHTML, like Gecko) Chrome/107.0.0.0 Safari/537.36 Edg/107.0.1418.42","WebKit","Edge","107.0.1418.42","Windows","10.0","null","<div style=""font-size:60px;"">+</div>","null",""
"","","","","","html-button-response","65","276455","0.0-4.0-1.30","74","1","2022-11-13 09:17:41","a60ee176136a54a92dc2853177adfa2c","117.154.17.128","Mozilla/5.0 (Windows NT 10.0; Win64; x64) AppleWebKit/537.36 (KHTML, like Gecko) Chrome/107.0.0.0 Safari/537.36 Edg/107.0.1418.42","WebKit","Edge","107.0.1418.42","Windows","10.0","2849","<p>作为军队的指挥官，你可以选择发射导弹杀死 <strong>10名</strong> 敌国士兵，但会误杀附近的 <strong>1名</strong> 敌国平民。</p> <p>平民照片如下图所示。</p> <p></p> <img src='stimuli/faces/PCF1.jpg', style='max-width: 30%;'> </img> <p><strong>你是否选择发射武器？</strong></p>","0",""
"","","","","","html-keyboard-response","66","277471","0.0-4.0-0.31","74","1","2022-11-13 09:17:41","a60ee176136a54a92dc2853177adfa2c","117.154.17.128","Mozilla/5.0 (Windows NT 10.0; Win64; x64) AppleWebKit/537.36 (KHTML, like Gecko) Chrome/107.0.0.0 Safari/537.36 Edg/107.0.1418.42","WebKit","Edge","107.0.1418.42","Windows","10.0","null","<div style=""font-size:60px;"">+</div>","null",""
"","","","","","html-button-response","67","278891","0.0-4.0-1.31","74","1","2022-11-13 09:17:41","a60ee176136a54a92dc2853177adfa2c","117.154.17.128","Mozilla/5.0 (Windows NT 10.0; Win64; x64) AppleWebKit/537.36 (KHTML, like Gecko) Chrome/107.0.0.0 Safari/537.36 Edg/107.0.1418.42","WebKit","Edge","107.0.1418.42","Windows","10.0","1416","<p>作为军队的指挥官，你可以选择发射导弹杀死 <strong>7名</strong> 敌国士兵，但会误杀附近的 <strong>1名</strong> 敌国平民。</p> <p>平民照片如下图所示。</p> <p></p> <img src='stimuli/faces/PCF7.jpg', style='max-width: 30%;'> </img> <p><strong>你是否选择发射武器？</strong></p>","0",""
"","","","","","html-keyboard-response","68","279907","0.0-4.0-0.32","74","1","2022-11-13 09:17:41","a60ee176136a54a92dc2853177adfa2c","117.154.17.128","Mozilla/5.0 (Windows NT 10.0; Win64; x64) AppleWebKit/537.36 (KHTML, like Gecko) Chrome/107.0.0.0 Safari/537.36 Edg/107.0.1418.42","WebKit","Edge","107.0.1418.42","Windows","10.0","null","<div style=""font-size:60px;"">+</div>","null",""
"","","","","","html-button-response","69","305183","0.0-4.0-1.32","74","1","2022-11-13 09:17:41","a60ee176136a54a92dc2853177adfa2c","117.154.17.128","Mozilla/5.0 (Windows NT 10.0; Win64; x64) AppleWebKit/537.36 (KHTML, like Gecko) Chrome/107.0.0.0 Safari/537.36 Edg/107.0.1418.42","WebKit","Edge","107.0.1418.42","Windows","10.0","25272","<p>作为军队的指挥官，你可以选择发射导弹杀死 <strong>6名</strong> 敌国士兵，但会炸毁附近的 <strong>1棵</strong> 敌国树木。</p> <p>树木的照片如下图所示。</p> <p></p> <img src='stimuli/trees/16.png', style='max-width: 30%;'> </img> <p><strong>你是否选择发射武器？</strong></p>","0",""
"","","","","","html-keyboard-response","70","306202","0.0-4.0-0.33","74","1","2022-11-13 09:17:41","a60ee176136a54a92dc2853177adfa2c","117.154.17.128","Mozilla/5.0 (Windows NT 10.0; Win64; x64) AppleWebKit/537.36 (KHTML, like Gecko) Chrome/107.0.0.0 Safari/537.36 Edg/107.0.1418.42","WebKit","Edge","107.0.1418.42","Windows","10.0","null","<div style=""font-size:60px;"">+</div>","null",""
"","","","","","html-button-response","71","313642","0.0-4.0-1.33","74","1","2022-11-13 09:17:41","a60ee176136a54a92dc2853177adfa2c","117.154.17.128","Mozilla/5.0 (Windows NT 10.0; Win64; x64) AppleWebKit/537.36 (KHTML, like Gecko) Chrome/107.0.0.0 Safari/537.36 Edg/107.0.1418.42","WebKit","Edge","107.0.1418.42","Windows","10.0","7435","<p>作为军队的指挥官，你可以选择发射导弹杀死 <strong>6名</strong> 敌国士兵，但会炸毁附近的 <strong>1棵</strong> 敌国树木。</p> <p>树木的照片如下图所示。</p> <p></p> <img src='stimuli/trees/7.png', style='max-width: 30%;'> </img> <p><strong>你是否选择发射武器？</strong></p>","0",""
"","","","","","html-keyboard-response","72","314651","0.0-4.0-0.34","74","1","2022-11-13 09:17:41","a60ee176136a54a92dc2853177adfa2c","117.154.17.128","Mozilla/5.0 (Windows NT 10.0; Win64; x64) AppleWebKit/537.36 (KHTML, like Gecko) Chrome/107.0.0.0 Safari/537.36 Edg/107.0.1418.42","WebKit","Edge","107.0.1418.42","Windows","10.0","null","<div style=""font-size:60px;"">+</div>","null",""
"","","","","","html-button-response","73","316782","0.0-4.0-1.34","74","1","2022-11-13 09:17:41","a60ee176136a54a92dc2853177adfa2c","117.154.17.128","Mozilla/5.0 (Windows NT 10.0; Win64; x64) AppleWebKit/537.36 (KHTML, like Gecko) Chrome/107.0.0.0 Safari/537.36 Edg/107.0.1418.42","WebKit","Edge","107.0.1418.42","Windows","10.0","2129","<p>作为军队的指挥官，你可以选择发射导弹杀死 <strong>9名</strong> 敌国士兵，但会误杀附近的 <strong>1名</strong> 敌国平民。</p> <p>平民照片如下图所示。</p> <p></p> <img src='stimuli/faces/PCF6.jpg', style='max-width: 30%;'> </img> <p><strong>你是否选择发射武器？</strong></p>","0",""
"","","","","","html-keyboard-response","74","317805","0.0-4.0-0.35","74","1","2022-11-13 09:17:41","a60ee176136a54a92dc2853177adfa2c","117.154.17.128","Mozilla/5.0 (Windows NT 10.0; Win64; x64) AppleWebKit/537.36 (KHTML, like Gecko) Chrome/107.0.0.0 Safari/537.36 Edg/107.0.1418.42","WebKit","Edge","107.0.1418.42","Windows","10.0","null","<div style=""font-size:60px;"">+</div>","null",""
"","","","","","html-button-response","75","325595","0.0-4.0-1.35","74","1","2022-11-13 09:17:41","a60ee176136a54a92dc2853177adfa2c","117.154.17.128","Mozilla/5.0 (Windows NT 10.0; Win64; x64) AppleWebKit/537.36 (KHTML, like Gecko) Chrome/107.0.0.0 Safari/537.36 Edg/107.0.1418.42","WebKit","Edge","107.0.1418.42","Windows","10.0","7787","<p>作为军队的指挥官，你可以选择发射导弹杀死 <strong>6名</strong> 敌国士兵，但会炸毁附近的 <strong>1棵</strong> 敌国树木。</p> <p>树木的照片如下图所示。</p> <p></p> <img src='stimuli/trees/8.png', style='max-width: 30%;'> </img> <p><strong>你是否选择发射武器？</strong></p>","0",""
"","","","","","html-keyboard-response","76","326617","0.0-4.0-0.36","74","1","2022-11-13 09:17:41","a60ee176136a54a92dc2853177adfa2c","117.154.17.128","Mozilla/5.0 (Windows NT 10.0; Win64; x64) AppleWebKit/537.36 (KHTML, like Gecko) Chrome/107.0.0.0 Safari/537.36 Edg/107.0.1418.42","WebKit","Edge","107.0.1418.42","Windows","10.0","null","<div style=""font-size:60px;"">+</div>","null",""
"","","","","","html-button-response","77","329387","0.0-4.0-1.36","74","1","2022-11-13 09:17:41","a60ee176136a54a92dc2853177adfa2c","117.154.17.128","Mozilla/5.0 (Windows NT 10.0; Win64; x64) AppleWebKit/537.36 (KHTML, like Gecko) Chrome/107.0.0.0 Safari/537.36 Edg/107.0.1418.42","WebKit","Edge","107.0.1418.42","Windows","10.0","2766","<p>作为军队的指挥官，你可以选择发射导弹杀死 <strong>1名</strong> 敌国士兵，但会炸毁附近的 <strong>1棵</strong> 敌国树木。</p> <p>树木的照片如下图所示。</p> <p></p> <img src='stimuli/trees/12.png', style='max-width: 30%;'> </img> <p><strong>你是否选择发射武器？</strong></p>","0",""
"","","","","","html-keyboard-response","78","330414","0.0-4.0-0.37","74","1","2022-11-13 09:17:41","a60ee176136a54a92dc2853177adfa2c","117.154.17.128","Mozilla/5.0 (Windows NT 10.0; Win64; x64) AppleWebKit/537.36 (KHTML, like Gecko) Chrome/107.0.0.0 Safari/537.36 Edg/107.0.1418.42","WebKit","Edge","107.0.1418.42","Windows","10.0","null","<div style=""font-size:60px;"">+</div>","null",""
"","","","","","html-button-response","79","335735","0.0-4.0-1.37","74","1","2022-11-13 09:17:41","a60ee176136a54a92dc2853177adfa2c","117.154.17.128","Mozilla/5.0 (Windows NT 10.0; Win64; x64) AppleWebKit/537.36 (KHTML, like Gecko) Chrome/107.0.0.0 Safari/537.36 Edg/107.0.1418.42","WebKit","Edge","107.0.1418.42","Windows","10.0","5318","<p>作为军队的指挥官，你可以选择发射导弹杀死 <strong>9名</strong> 敌国士兵，但会误杀附近的 <strong>1名</strong> 敌国平民。</p> <p>平民照片如下图所示。</p> <p></p> <img src='stimuli/faces/PCF3.jpg', style='max-width: 30%;'> </img> <p><strong>你是否选择发射武器？</strong></p>","0",""
"","","","","","html-keyboard-response","80","336742","0.0-4.0-0.38","74","1","2022-11-13 09:17:41","a60ee176136a54a92dc2853177adfa2c","117.154.17.128","Mozilla/5.0 (Windows NT 10.0; Win64; x64) AppleWebKit/537.36 (KHTML, like Gecko) Chrome/107.0.0.0 Safari/537.36 Edg/107.0.1418.42","WebKit","Edge","107.0.1418.42","Windows","10.0","null","<div style=""font-size:60px;"">+</div>","null",""
"","","","","","html-button-response","81","340383","0.0-4.0-1.38","74","1","2022-11-13 09:17:41","a60ee176136a54a92dc2853177adfa2c","117.154.17.128","Mozilla/5.0 (Windows NT 10.0; Win64; x64) AppleWebKit/537.36 (KHTML, like Gecko) Chrome/107.0.0.0 Safari/537.36 Edg/107.0.1418.42","WebKit","Edge","107.0.1418.42","Windows","10.0","3636","<p>作为军队的指挥官，你可以选择发射导弹杀死 <strong>10名</strong> 敌国士兵，但会炸毁附近的 <strong>1棵</strong> 敌国树木。</p> <p>树木的照片如下图所示。</p> <p></p> <img src='stimuli/trees/9.png', style='max-width: 30%;'> </img> <p><strong>你是否选择发射武器？</strong></p>","0",""
"","","","","","html-keyboard-response","82","341393","0.0-4.0-0.39","74","1","2022-11-13 09:17:41","a60ee176136a54a92dc2853177adfa2c","117.154.17.128","Mozilla/5.0 (Windows NT 10.0; Win64; x64) AppleWebKit/537.36 (KHTML, like Gecko) Chrome/107.0.0.0 Safari/537.36 Edg/107.0.1418.42","WebKit","Edge","107.0.1418.42","Windows","10.0","null","<div style=""font-size:60px;"">+</div>","null",""
"","","","","","html-button-response","83","344478","0.0-4.0-1.39","74","1","2022-11-13 09:17:41","a60ee176136a54a92dc2853177adfa2c","117.154.17.128","Mozilla/5.0 (Windows NT 10.0; Win64; x64) AppleWebKit/537.36 (KHTML, like Gecko) Chrome/107.0.0.0 Safari/537.36 Edg/107.0.1418.42","WebKit","Edge","107.0.1418.42","Windows","10.0","3082","<p>作为军队的指挥官，你可以选择发射导弹杀死 <strong>1名</strong> 敌国士兵，但会炸毁附近的 <strong>1棵</strong> 敌国树木。</p> <p>树木的照片如下图所示。</p> <p></p> <img src='stimuli/trees/3.png', style='max-width: 30%;'> </img> <p><strong>你是否选择发射武器？</strong></p>","0",""
"","","","","","html-keyboard-response","84","345496","0.0-4.0-0.40","74","1","2022-11-13 09:17:41","a60ee176136a54a92dc2853177adfa2c","117.154.17.128","Mozilla/5.0 (Windows NT 10.0; Win64; x64) AppleWebKit/537.36 (KHTML, like Gecko) Chrome/107.0.0.0 Safari/537.36 Edg/107.0.1418.42","WebKit","Edge","107.0.1418.42","Windows","10.0","null","<div style=""font-size:60px;"">+</div>","null",""
"","","","","","html-button-response","85","349111","0.0-4.0-1.40","74","1","2022-11-13 09:17:41","a60ee176136a54a92dc2853177adfa2c","117.154.17.128","Mozilla/5.0 (Windows NT 10.0; Win64; x64) AppleWebKit/537.36 (KHTML, like Gecko) Chrome/107.0.0.0 Safari/537.36 Edg/107.0.1418.42","WebKit","Edge","107.0.1418.42","Windows","10.0","3613","<p>作为军队的指挥官，你可以选择发射导弹杀死 <strong>10名</strong> 敌国士兵，但会误杀附近的 <strong>1名</strong> 敌国平民。</p> <p>平民照片如下图所示。</p> <p></p> <img src='stimuli/faces/PCM2.jpg', style='max-width: 30%;'> </img> <p><strong>你是否选择发射武器？</strong></p>","0",""
"","","","","","html-keyboard-response","86","350120","0.0-4.0-0.41","74","1","2022-11-13 09:17:41","a60ee176136a54a92dc2853177adfa2c","117.154.17.128","Mozilla/5.0 (Windows NT 10.0; Win64; x64) AppleWebKit/537.36 (KHTML, like Gecko) Chrome/107.0.0.0 Safari/537.36 Edg/107.0.1418.42","WebKit","Edge","107.0.1418.42","Windows","10.0","null","<div style=""font-size:60px;"">+</div>","null",""
"","","","","","html-button-response","87","354202","0.0-4.0-1.41","74","1","2022-11-13 09:17:41","a60ee176136a54a92dc2853177adfa2c","117.154.17.128","Mozilla/5.0 (Windows NT 10.0; Win64; x64) AppleWebKit/537.36 (KHTML, like Gecko) Chrome/107.0.0.0 Safari/537.36 Edg/107.0.1418.42","WebKit","Edge","107.0.1418.42","Windows","10.0","4080","<p>作为军队的指挥官，你可以选择发射导弹杀死 <strong>4名</strong> 敌国士兵，但会误杀附近的 <strong>1名</strong> 敌国平民。</p> <p>平民照片如下图所示。</p> <p></p> <img src='stimuli/faces/PCF1.jpg', style='max-width: 30%;'> </img> <p><strong>你是否选择发射武器？</strong></p>","0",""
"","","","","","html-keyboard-response","88","355212","0.0-4.0-0.42","74","1","2022-11-13 09:17:41","a60ee176136a54a92dc2853177adfa2c","117.154.17.128","Mozilla/5.0 (Windows NT 10.0; Win64; x64) AppleWebKit/537.36 (KHTML, like Gecko) Chrome/107.0.0.0 Safari/537.36 Edg/107.0.1418.42","WebKit","Edge","107.0.1418.42","Windows","10.0","null","<div style=""font-size:60px;"">+</div>","null",""
"","","","","","html-button-response","89","356942","0.0-4.0-1.42","74","1","2022-11-13 09:17:41","a60ee176136a54a92dc2853177adfa2c","117.154.17.128","Mozilla/5.0 (Windows NT 10.0; Win64; x64) AppleWebKit/537.36 (KHTML, like Gecko) Chrome/107.0.0.0 Safari/537.36 Edg/107.0.1418.42","WebKit","Edge","107.0.1418.42","Windows","10.0","1728","<p>作为军队的指挥官，你可以选择发射导弹杀死 <strong>5名</strong> 敌国士兵，但会炸毁附近的 <strong>1棵</strong> 敌国树木。</p> <p>树木的照片如下图所示。</p> <p></p> <img src='stimuli/trees/1.png', style='max-width: 30%;'> </img> <p><strong>你是否选择发射武器？</strong></p>","0",""
"","","","","","html-keyboard-response","90","357954","0.0-4.0-0.43","74","1","2022-11-13 09:17:41","a60ee176136a54a92dc2853177adfa2c","117.154.17.128","Mozilla/5.0 (Windows NT 10.0; Win64; x64) AppleWebKit/537.36 (KHTML, like Gecko) Chrome/107.0.0.0 Safari/537.36 Edg/107.0.1418.42","WebKit","Edge","107.0.1418.42","Windows","10.0","null","<div style=""font-size:60px;"">+</div>","null",""
"","","","","","html-button-response","91","360102","0.0-4.0-1.43","74","1","2022-11-13 09:17:41","a60ee176136a54a92dc2853177adfa2c","117.154.17.128","Mozilla/5.0 (Windows NT 10.0; Win64; x64) AppleWebKit/537.36 (KHTML, like Gecko) Chrome/107.0.0.0 Safari/537.36 Edg/107.0.1418.42","WebKit","Edge","107.0.1418.42","Windows","10.0","2144","<p>作为军队的指挥官，你可以选择发射导弹杀死 <strong>5名</strong> 敌国士兵，但会炸毁附近的 <strong>1棵</strong> 敌国树木。</p> <p>树木的照片如下图所示。</p> <p></p> <img src='stimuli/trees/16.png', style='max-width: 30%;'> </img> <p><strong>你是否选择发射武器？</strong></p>","0",""
"","","","","","html-keyboard-response","92","361116","0.0-4.0-0.44","74","1","2022-11-13 09:17:41","a60ee176136a54a92dc2853177adfa2c","117.154.17.128","Mozilla/5.0 (Windows NT 10.0; Win64; x64) AppleWebKit/537.36 (KHTML, like Gecko) Chrome/107.0.0.0 Safari/537.36 Edg/107.0.1418.42","WebKit","Edge","107.0.1418.42","Windows","10.0","null","<div style=""font-size:60px;"">+</div>","null",""
"","","","","","html-button-response","93","364660","0.0-4.0-1.44","74","1","2022-11-13 09:17:41","a60ee176136a54a92dc2853177adfa2c","117.154.17.128","Mozilla/5.0 (Windows NT 10.0; Win64; x64) AppleWebKit/537.36 (KHTML, like Gecko) Chrome/107.0.0.0 Safari/537.36 Edg/107.0.1418.42","WebKit","Edge","107.0.1418.42","Windows","10.0","3541","<p>作为军队的指挥官，你可以选择发射导弹杀死 <strong>8名</strong> 敌国士兵，但会炸毁附近的 <strong>1棵</strong> 敌国树木。</p> <p>树木的照片如下图所示。</p> <p></p> <img src='stimuli/trees/10.png', style='max-width: 30%;'> </img> <p><strong>你是否选择发射武器？</strong></p>","0",""
"","","","","","html-keyboard-response","94","365683","0.0-4.0-0.45","74","1","2022-11-13 09:17:41","a60ee176136a54a92dc2853177adfa2c","117.154.17.128","Mozilla/5.0 (Windows NT 10.0; Win64; x64) AppleWebKit/537.36 (KHTML, like Gecko) Chrome/107.0.0.0 Safari/537.36 Edg/107.0.1418.42","WebKit","Edge","107.0.1418.42","Windows","10.0","null","<div style=""font-size:60px;"">+</div>","null",""
"","","","","","html-button-response","95","367614","0.0-4.0-1.45","74","1","2022-11-13 09:17:41","a60ee176136a54a92dc2853177adfa2c","117.154.17.128","Mozilla/5.0 (Windows NT 10.0; Win64; x64) AppleWebKit/537.36 (KHTML, like Gecko) Chrome/107.0.0.0 Safari/537.36 Edg/107.0.1418.42","WebKit","Edge","107.0.1418.42","Windows","10.0","1928","<p>作为军队的指挥官，你可以选择发射导弹杀死 <strong>7名</strong> 敌国士兵，但会误杀附近的 <strong>1名</strong> 敌国平民。</p> <p>平民照片如下图所示。</p> <p></p> <img src='stimuli/faces/PCF2.jpg', style='max-width: 30%;'> </img> <p><strong>你是否选择发射武器？</strong></p>","0",""
"","","","","","html-keyboard-response","96","368625","0.0-4.0-0.46","74","1","2022-11-13 09:17:41","a60ee176136a54a92dc2853177adfa2c","117.154.17.128","Mozilla/5.0 (Windows NT 10.0; Win64; x64) AppleWebKit/537.36 (KHTML, like Gecko) Chrome/107.0.0.0 Safari/537.36 Edg/107.0.1418.42","WebKit","Edge","107.0.1418.42","Windows","10.0","null","<div style=""font-size:60px;"">+</div>","null",""
"","","","","","html-button-response","97","369963","0.0-4.0-1.46","74","1","2022-11-13 09:17:41","a60ee176136a54a92dc2853177adfa2c","117.154.17.128","Mozilla/5.0 (Windows NT 10.0; Win64; x64) AppleWebKit/537.36 (KHTML, like Gecko) Chrome/107.0.0.0 Safari/537.36 Edg/107.0.1418.42","WebKit","Edge","107.0.1418.42","Windows","10.0","1333","<p>作为军队的指挥官，你可以选择发射导弹杀死 <strong>1名</strong> 敌国士兵，但会炸毁附近的 <strong>1棵</strong> 敌国树木。</p> <p>树木的照片如下图所示。</p> <p></p> <img src='stimuli/trees/5.png', style='max-width: 30%;'> </img> <p><strong>你是否选择发射武器？</strong></p>","0",""
"","","","","","html-keyboard-response","98","370978","0.0-4.0-0.47","74","1","2022-11-13 09:17:41","a60ee176136a54a92dc2853177adfa2c","117.154.17.128","Mozilla/5.0 (Windows NT 10.0; Win64; x64) AppleWebKit/537.36 (KHTML, like Gecko) Chrome/107.0.0.0 Safari/537.36 Edg/107.0.1418.42","WebKit","Edge","107.0.1418.42","Windows","10.0","null","<div style=""font-size:60px;"">+</div>","null",""
"","","","","","html-button-response","99","373799","0.0-4.0-1.47","74","1","2022-11-13 09:17:41","a60ee176136a54a92dc2853177adfa2c","117.154.17.128","Mozilla/5.0 (Windows NT 10.0; Win64; x64) AppleWebKit/537.36 (KHTML, like Gecko) Chrome/107.0.0.0 Safari/537.36 Edg/107.0.1418.42","WebKit","Edge","107.0.1418.42","Windows","10.0","2819","<p>作为军队的指挥官，你可以选择发射导弹杀死 <strong>2名</strong> 敌国士兵，但会炸毁附近的 <strong>1棵</strong> 敌国树木。</p> <p>树木的照片如下图所示。</p> <p></p> <img src='stimuli/trees/6.png', style='max-width: 30%;'> </img> <p><strong>你是否选择发射武器？</strong></p>","0",""
"","","","","","html-keyboard-response","100","374807","0.0-4.0-0.48","74","1","2022-11-13 09:17:41","a60ee176136a54a92dc2853177adfa2c","117.154.17.128","Mozilla/5.0 (Windows NT 10.0; Win64; x64) AppleWebKit/537.36 (KHTML, like Gecko) Chrome/107.0.0.0 Safari/537.36 Edg/107.0.1418.42","WebKit","Edge","107.0.1418.42","Windows","10.0","null","<div style=""font-size:60px;"">+</div>","null",""
"","","","","","html-button-response","101","377027","0.0-4.0-1.48","74","1","2022-11-13 09:17:41","a60ee176136a54a92dc2853177adfa2c","117.154.17.128","Mozilla/5.0 (Windows NT 10.0; Win64; x64) AppleWebKit/537.36 (KHTML, like Gecko) Chrome/107.0.0.0 Safari/537.36 Edg/107.0.1418.42","WebKit","Edge","107.0.1418.42","Windows","10.0","2216","<p>作为军队的指挥官，你可以选择发射导弹杀死 <strong>8名</strong> 敌国士兵，但会误杀附近的 <strong>1名</strong> 敌国平民。</p> <p>平民照片如下图所示。</p> <p></p> <img src='stimuli/faces/PCM1.jpg', style='max-width: 30%;'> </img> <p><strong>你是否选择发射武器？</strong></p>","0",""
"","","","","","html-keyboard-response","102","378042","0.0-4.0-0.49","74","1","2022-11-13 09:17:41","a60ee176136a54a92dc2853177adfa2c","117.154.17.128","Mozilla/5.0 (Windows NT 10.0; Win64; x64) AppleWebKit/537.36 (KHTML, like Gecko) Chrome/107.0.0.0 Safari/537.36 Edg/107.0.1418.42","WebKit","Edge","107.0.1418.42","Windows","10.0","null","<div style=""font-size:60px;"">+</div>","null",""
"","","","","","html-button-response","103","379227","0.0-4.0-1.49","74","1","2022-11-13 09:17:41","a60ee176136a54a92dc2853177adfa2c","117.154.17.128","Mozilla/5.0 (Windows NT 10.0; Win64; x64) AppleWebKit/537.36 (KHTML, like Gecko) Chrome/107.0.0.0 Safari/537.36 Edg/107.0.1418.42","WebKit","Edge","107.0.1418.42","Windows","10.0","1179","<p>作为军队的指挥官，你可以选择发射导弹杀死 <strong>10名</strong> 敌国士兵，但会炸毁附近的 <strong>1棵</strong> 敌国树木。</p> <p>树木的照片如下图所示。</p> <p></p> <img src='stimuli/trees/13.png', style='max-width: 30%;'> </img> <p><strong>你是否选择发射武器？</strong></p>","0",""
"","","","","","html-keyboard-response","104","380254","0.0-4.0-0.50","74","1","2022-11-13 09:17:41","a60ee176136a54a92dc2853177adfa2c","117.154.17.128","Mozilla/5.0 (Windows NT 10.0; Win64; x64) AppleWebKit/537.36 (KHTML, like Gecko) Chrome/107.0.0.0 Safari/537.36 Edg/107.0.1418.42","WebKit","Edge","107.0.1418.42","Windows","10.0","null","<div style=""font-size:60px;"">+</div>","null",""
"","","","","","html-button-response","105","381823","0.0-4.0-1.50","74","1","2022-11-13 09:17:41","a60ee176136a54a92dc2853177adfa2c","117.154.17.128","Mozilla/5.0 (Windows NT 10.0; Win64; x64) AppleWebKit/537.36 (KHTML, like Gecko) Chrome/107.0.0.0 Safari/537.36 Edg/107.0.1418.42","WebKit","Edge","107.0.1418.42","Windows","10.0","1566","<p>作为军队的指挥官，你可以选择发射导弹杀死 <strong>6名</strong> 敌国士兵，但会炸毁附近的 <strong>1棵</strong> 敌国树木。</p> <p>树木的照片如下图所示。</p> <p></p> <img src='stimuli/trees/12.png', style='max-width: 30%;'> </img> <p><strong>你是否选择发射武器？</strong></p>","0",""
"","","","","","html-keyboard-response","106","382838","0.0-4.0-0.51","74","1","2022-11-13 09:17:41","a60ee176136a54a92dc2853177adfa2c","117.154.17.128","Mozilla/5.0 (Windows NT 10.0; Win64; x64) AppleWebKit/537.36 (KHTML, like Gecko) Chrome/107.0.0.0 Safari/537.36 Edg/107.0.1418.42","WebKit","Edge","107.0.1418.42","Windows","10.0","null","<div style=""font-size:60px;"">+</div>","null",""
"","","","","","html-button-response","107","385327","0.0-4.0-1.51","74","1","2022-11-13 09:17:41","a60ee176136a54a92dc2853177adfa2c","117.154.17.128","Mozilla/5.0 (Windows NT 10.0; Win64; x64) AppleWebKit/537.36 (KHTML, like Gecko) Chrome/107.0.0.0 Safari/537.36 Edg/107.0.1418.42","WebKit","Edge","107.0.1418.42","Windows","10.0","2484","<p>作为军队的指挥官，你可以选择发射导弹杀死 <strong>2名</strong> 敌国士兵，但会炸毁附近的 <strong>1棵</strong> 敌国树木。</p> <p>树木的照片如下图所示。</p> <p></p> <img src='stimuli/trees/15.png', style='max-width: 30%;'> </img> <p><strong>你是否选择发射武器？</strong></p>","0",""
"","","","","","html-keyboard-response","108","386347","0.0-4.0-0.52","74","1","2022-11-13 09:17:41","a60ee176136a54a92dc2853177adfa2c","117.154.17.128","Mozilla/5.0 (Windows NT 10.0; Win64; x64) AppleWebKit/537.36 (KHTML, like Gecko) Chrome/107.0.0.0 Safari/537.36 Edg/107.0.1418.42","WebKit","Edge","107.0.1418.42","Windows","10.0","null","<div style=""font-size:60px;"">+</div>","null",""
"","","","","","html-button-response","109","388627","0.0-4.0-1.52","74","1","2022-11-13 09:17:41","a60ee176136a54a92dc2853177adfa2c","117.154.17.128","Mozilla/5.0 (Windows NT 10.0; Win64; x64) AppleWebKit/537.36 (KHTML, like Gecko) Chrome/107.0.0.0 Safari/537.36 Edg/107.0.1418.42","WebKit","Edge","107.0.1418.42","Windows","10.0","2277","<p>作为军队的指挥官，你可以选择发射导弹杀死 <strong>2名</strong> 敌国士兵，但会误杀附近的 <strong>1名</strong> 敌国平民。</p> <p>平民照片如下图所示。</p> <p></p> <img src='stimuli/faces/PCF8.jpg', style='max-width: 30%;'> </img> <p><strong>你是否选择发射武器？</strong></p>","1",""
"","","","","","html-keyboard-response","110","389654","0.0-4.0-0.53","74","1","2022-11-13 09:17:41","a60ee176136a54a92dc2853177adfa2c","117.154.17.128","Mozilla/5.0 (Windows NT 10.0; Win64; x64) AppleWebKit/537.36 (KHTML, like Gecko) Chrome/107.0.0.0 Safari/537.36 Edg/107.0.1418.42","WebKit","Edge","107.0.1418.42","Windows","10.0","null","<div style=""font-size:60px;"">+</div>","null",""
"","","","","","html-button-response","111","391610","0.0-4.0-1.53","74","1","2022-11-13 09:17:41","a60ee176136a54a92dc2853177adfa2c","117.154.17.128","Mozilla/5.0 (Windows NT 10.0; Win64; x64) AppleWebKit/537.36 (KHTML, like Gecko) Chrome/107.0.0.0 Safari/537.36 Edg/107.0.1418.42","WebKit","Edge","107.0.1418.42","Windows","10.0","1951","<p>作为军队的指挥官，你可以选择发射导弹杀死 <strong>3名</strong> 敌国士兵，但会误杀附近的 <strong>1名</strong> 敌国平民。</p> <p>平民照片如下图所示。</p> <p></p> <img src='stimuli/faces/PCM6.jpg', style='max-width: 30%;'> </img> <p><strong>你是否选择发射武器？</strong></p>","1",""
"","","","","","html-keyboard-response","112","392622","0.0-4.0-0.54","74","1","2022-11-13 09:17:41","a60ee176136a54a92dc2853177adfa2c","117.154.17.128","Mozilla/5.0 (Windows NT 10.0; Win64; x64) AppleWebKit/537.36 (KHTML, like Gecko) Chrome/107.0.0.0 Safari/537.36 Edg/107.0.1418.42","WebKit","Edge","107.0.1418.42","Windows","10.0","null","<div style=""font-size:60px;"">+</div>","null",""
"","","","","","html-button-response","113","394529","0.0-4.0-1.54","74","1","2022-11-13 09:17:41","a60ee176136a54a92dc2853177adfa2c","117.154.17.128","Mozilla/5.0 (Windows NT 10.0; Win64; x64) AppleWebKit/537.36 (KHTML, like Gecko) Chrome/107.0.0.0 Safari/537.36 Edg/107.0.1418.42","WebKit","Edge","107.0.1418.42","Windows","10.0","1901","<p>作为军队的指挥官，你可以选择发射导弹杀死 <strong>9名</strong> 敌国士兵，但会误杀附近的 <strong>1名</strong> 敌国平民。</p> <p>平民照片如下图所示。</p> <p></p> <img src='stimuli/faces/PCF8.jpg', style='max-width: 30%;'> </img> <p><strong>你是否选择发射武器？</strong></p>","0",""
"","","","","","html-keyboard-response","114","395543","0.0-4.0-0.55","74","1","2022-11-13 09:17:41","a60ee176136a54a92dc2853177adfa2c","117.154.17.128","Mozilla/5.0 (Windows NT 10.0; Win64; x64) AppleWebKit/537.36 (KHTML, like Gecko) Chrome/107.0.0.0 Safari/537.36 Edg/107.0.1418.42","WebKit","Edge","107.0.1418.42","Windows","10.0","null","<div style=""font-size:60px;"">+</div>","null",""
"","","","","","html-button-response","115","397363","0.0-4.0-1.55","74","1","2022-11-13 09:17:41","a60ee176136a54a92dc2853177adfa2c","117.154.17.128","Mozilla/5.0 (Windows NT 10.0; Win64; x64) AppleWebKit/537.36 (KHTML, like Gecko) Chrome/107.0.0.0 Safari/537.36 Edg/107.0.1418.42","WebKit","Edge","107.0.1418.42","Windows","10.0","1814","<p>作为军队的指挥官，你可以选择发射导弹杀死 <strong>5名</strong> 敌国士兵，但会误杀附近的 <strong>1名</strong> 敌国平民。</p> <p>平民照片如下图所示。</p> <p></p> <img src='stimuli/faces/PCM8.jpg', style='max-width: 30%;'> </img> <p><strong>你是否选择发射武器？</strong></p>","0",""
"","","","","","html-keyboard-response","116","398382","0.0-4.0-0.56","74","1","2022-11-13 09:17:41","a60ee176136a54a92dc2853177adfa2c","117.154.17.128","Mozilla/5.0 (Windows NT 10.0; Win64; x64) AppleWebKit/537.36 (KHTML, like Gecko) Chrome/107.0.0.0 Safari/537.36 Edg/107.0.1418.42","WebKit","Edge","107.0.1418.42","Windows","10.0","null","<div style=""font-size:60px;"">+</div>","null",""
"","","","","","html-button-response","117","399987","0.0-4.0-1.56","74","1","2022-11-13 09:17:41","a60ee176136a54a92dc2853177adfa2c","117.154.17.128","Mozilla/5.0 (Windows NT 10.0; Win64; x64) AppleWebKit/537.36 (KHTML, like Gecko) Chrome/107.0.0.0 Safari/537.36 Edg/107.0.1418.42","WebKit","Edge","107.0.1418.42","Windows","10.0","1602","<p>作为军队的指挥官，你可以选择发射导弹杀死 <strong>7名</strong> 敌国士兵，但会炸毁附近的 <strong>1棵</strong> 敌国树木。</p> <p>树木的照片如下图所示。</p> <p></p> <img src='stimuli/trees/15.png', style='max-width: 30%;'> </img> <p><strong>你是否选择发射武器？</strong></p>","0",""
"","","","","","html-keyboard-response","118","400998","0.0-4.0-0.57","74","1","2022-11-13 09:17:41","a60ee176136a54a92dc2853177adfa2c","117.154.17.128","Mozilla/5.0 (Windows NT 10.0; Win64; x64) AppleWebKit/537.36 (KHTML, like Gecko) Chrome/107.0.0.0 Safari/537.36 Edg/107.0.1418.42","WebKit","Edge","107.0.1418.42","Windows","10.0","null","<div style=""font-size:60px;"">+</div>","null",""
"","","","","","html-button-response","119","405691","0.0-4.0-1.57","74","1","2022-11-13 09:17:41","a60ee176136a54a92dc2853177adfa2c","117.154.17.128","Mozilla/5.0 (Windows NT 10.0; Win64; x64) AppleWebKit/537.36 (KHTML, like Gecko) Chrome/107.0.0.0 Safari/537.36 Edg/107.0.1418.42","WebKit","Edge","107.0.1418.42","Windows","10.0","4688","<p>作为军队的指挥官，你可以选择发射导弹杀死 <strong>3名</strong> 敌国士兵，但会炸毁附近的 <strong>1棵</strong> 敌国树木。</p> <p>树木的照片如下图所示。</p> <p></p> <img src='stimuli/trees/7.png', style='max-width: 30%;'> </img> <p><strong>你是否选择发射武器？</strong></p>","0",""
"","","","","","html-keyboard-response","120","406707","0.0-4.0-0.58","74","1","2022-11-13 09:17:41","a60ee176136a54a92dc2853177adfa2c","117.154.17.128","Mozilla/5.0 (Windows NT 10.0; Win64; x64) AppleWebKit/537.36 (KHTML, like Gecko) Chrome/107.0.0.0 Safari/537.36 Edg/107.0.1418.42","WebKit","Edge","107.0.1418.42","Windows","10.0","null","<div style=""font-size:60px;"">+</div>","null",""
"","","","","","html-button-response","121","413363","0.0-4.0-1.58","74","1","2022-11-13 09:17:41","a60ee176136a54a92dc2853177adfa2c","117.154.17.128","Mozilla/5.0 (Windows NT 10.0; Win64; x64) AppleWebKit/537.36 (KHTML, like Gecko) Chrome/107.0.0.0 Safari/537.36 Edg/107.0.1418.42","WebKit","Edge","107.0.1418.42","Windows","10.0","6650","<p>作为军队的指挥官，你可以选择发射导弹杀死 <strong>7名</strong> 敌国士兵，但会炸毁附近的 <strong>1棵</strong> 敌国树木。</p> <p>树木的照片如下图所示。</p> <p></p> <img src='stimuli/trees/6.png', style='max-width: 30%;'> </img> <p><strong>你是否选择发射武器？</strong></p>","0",""
"","","","","","html-keyboard-response","122","414382","0.0-4.0-0.59","74","1","2022-11-13 09:17:41","a60ee176136a54a92dc2853177adfa2c","117.154.17.128","Mozilla/5.0 (Windows NT 10.0; Win64; x64) AppleWebKit/537.36 (KHTML, like Gecko) Chrome/107.0.0.0 Safari/537.36 Edg/107.0.1418.42","WebKit","Edge","107.0.1418.42","Windows","10.0","null","<div style=""font-size:60px;"">+</div>","null",""
"","","","","","html-button-response","123","416018","0.0-4.0-1.59","74","1","2022-11-13 09:17:41","a60ee176136a54a92dc2853177adfa2c","117.154.17.128","Mozilla/5.0 (Windows NT 10.0; Win64; x64) AppleWebKit/537.36 (KHTML, like Gecko) Chrome/107.0.0.0 Safari/537.36 Edg/107.0.1418.42","WebKit","Edge","107.0.1418.42","Windows","10.0","1631","<p>作为军队的指挥官，你可以选择发射导弹杀死 <strong>10名</strong> 敌国士兵，但会炸毁附近的 <strong>1棵</strong> 敌国树木。</p> <p>树木的照片如下图所示。</p> <p></p> <img src='stimuli/trees/14.png', style='max-width: 30%;'> </img> <p><strong>你是否选择发射武器？</strong></p>","0",""
"","","","","","html-keyboard-response","124","417028","0.0-4.0-0.60","74","1","2022-11-13 09:17:41","a60ee176136a54a92dc2853177adfa2c","117.154.17.128","Mozilla/5.0 (Windows NT 10.0; Win64; x64) AppleWebKit/537.36 (KHTML, like Gecko) Chrome/107.0.0.0 Safari/537.36 Edg/107.0.1418.42","WebKit","Edge","107.0.1418.42","Windows","10.0","null","<div style=""font-size:60px;"">+</div>","null",""
"","","","","","html-button-response","125","418055","0.0-4.0-1.60","74","1","2022-11-13 09:17:41","a60ee176136a54a92dc2853177adfa2c","117.154.17.128","Mozilla/5.0 (Windows NT 10.0; Win64; x64) AppleWebKit/537.36 (KHTML, like Gecko) Chrome/107.0.0.0 Safari/537.36 Edg/107.0.1418.42","WebKit","Edge","107.0.1418.42","Windows","10.0","1022","<p>作为军队的指挥官，你可以选择发射导弹杀死 <strong>7名</strong> 敌国士兵，但会炸毁附近的 <strong>1棵</strong> 敌国树木。</p> <p>树木的照片如下图所示。</p> <p></p> <img src='stimuli/trees/5.png', style='max-width: 30%;'> </img> <p><strong>你是否选择发射武器？</strong></p>","0",""
"","","","","","html-keyboard-response","126","419071","0.0-4.0-0.61","74","1","2022-11-13 09:17:41","a60ee176136a54a92dc2853177adfa2c","117.154.17.128","Mozilla/5.0 (Windows NT 10.0; Win64; x64) AppleWebKit/537.36 (KHTML, like Gecko) Chrome/107.0.0.0 Safari/537.36 Edg/107.0.1418.42","WebKit","Edge","107.0.1418.42","Windows","10.0","null","<div style=""font-size:60px;"">+</div>","null",""
"","","","","","html-button-response","127","420715","0.0-4.0-1.61","74","1","2022-11-13 09:17:41","a60ee176136a54a92dc2853177adfa2c","117.154.17.128","Mozilla/5.0 (Windows NT 10.0; Win64; x64) AppleWebKit/537.36 (KHTML, like Gecko) Chrome/107.0.0.0 Safari/537.36 Edg/107.0.1418.42","WebKit","Edge","107.0.1418.42","Windows","10.0","1642","<p>作为军队的指挥官，你可以选择发射导弹杀死 <strong>7名</strong> 敌国士兵，但会炸毁附近的 <strong>1棵</strong> 敌国树木。</p> <p>树木的照片如下图所示。</p> <p></p> <img src='stimuli/trees/11.png', style='max-width: 30%;'> </img> <p><strong>你是否选择发射武器？</strong></p>","0",""
"","","","","","html-keyboard-response","128","421727","0.0-4.0-0.62","74","1","2022-11-13 09:17:41","a60ee176136a54a92dc2853177adfa2c","117.154.17.128","Mozilla/5.0 (Windows NT 10.0; Win64; x64) AppleWebKit/537.36 (KHTML, like Gecko) Chrome/107.0.0.0 Safari/537.36 Edg/107.0.1418.42","WebKit","Edge","107.0.1418.42","Windows","10.0","null","<div style=""font-size:60px;"">+</div>","null",""
"","","","","","html-button-response","129","423715","0.0-4.0-1.62","74","1","2022-11-13 09:17:41","a60ee176136a54a92dc2853177adfa2c","117.154.17.128","Mozilla/5.0 (Windows NT 10.0; Win64; x64) AppleWebKit/537.36 (KHTML, like Gecko) Chrome/107.0.0.0 Safari/537.36 Edg/107.0.1418.42","WebKit","Edge","107.0.1418.42","Windows","10.0","1983","<p>作为军队的指挥官，你可以选择发射导弹杀死 <strong>5名</strong> 敌国士兵，但会误杀附近的 <strong>1名</strong> 敌国平民。</p> <p>平民照片如下图所示。</p> <p></p> <img src='stimuli/faces/PCF6.jpg', style='max-width: 30%;'> </img> <p><strong>你是否选择发射武器？</strong></p>","0",""
"","","","","","html-keyboard-response","130","424726","0.0-4.0-0.63","74","1","2022-11-13 09:17:41","a60ee176136a54a92dc2853177adfa2c","117.154.17.128","Mozilla/5.0 (Windows NT 10.0; Win64; x64) AppleWebKit/537.36 (KHTML, like Gecko) Chrome/107.0.0.0 Safari/537.36 Edg/107.0.1418.42","WebKit","Edge","107.0.1418.42","Windows","10.0","null","<div style=""font-size:60px;"">+</div>","null",""
"","","","","","html-button-response","131","425911","0.0-4.0-1.63","74","1","2022-11-13 09:17:41","a60ee176136a54a92dc2853177adfa2c","117.154.17.128","Mozilla/5.0 (Windows NT 10.0; Win64; x64) AppleWebKit/537.36 (KHTML, like Gecko) Chrome/107.0.0.0 Safari/537.36 Edg/107.0.1418.42","WebKit","Edge","107.0.1418.42","Windows","10.0","1178","<p>作为军队的指挥官，你可以选择发射导弹杀死 <strong>10名</strong> 敌国士兵，但会炸毁附近的 <strong>1棵</strong> 敌国树木。</p> <p>树木的照片如下图所示。</p> <p></p> <img src='stimuli/trees/3.png', style='max-width: 30%;'> </img> <p><strong>你是否选择发射武器？</strong></p>","0",""
"","","","","","survey-multi-choice","132","458712","0.0-5.0","74","1","2022-11-13 09:17:41","a60ee176136a54a92dc2853177adfa2c","117.154.17.128","Mozilla/5.0 (Windows NT 10.0; Win64; x64) AppleWebKit/537.36 (KHTML, like Gecko) Chrome/107.0.0.0 Safari/537.36 Edg/107.0.1418.42","WebKit","Edge","107.0.1418.42","Windows","10.0","32796","","{""Attention1"":""""}","[0]"
"","","","","","html-button-response","133","462659","0.0-6.0","74","1","2022-11-13 09:17:41","a60ee176136a54a92dc2853177adfa2c","117.154.17.128","Mozilla/5.0 (Windows NT 10.0; Win64; x64) AppleWebKit/537.36 (KHTML, like Gecko) Chrome/107.0.0.0 Safari/537.36 Edg/107.0.1418.42","WebKit","Edge","107.0.1418.42","Windows","10.0","3942","<p style=""font-size:20px;font-weight:bold;"">恭喜！</p><p>你已经完成了实验的第一部分。</p><p>请休息放松一下，然后进入第二部分。</p><p>这部分大约需要10分钟。</p>","0",""
"","","","","","survey-text","134","527567","0.0-7.0","74","1","2022-11-13 09:17:41","a60ee176136a54a92dc2853177adfa2c","117.154.17.128","Mozilla/5.0 (Windows NT 10.0; Win64; x64) AppleWebKit/537.36 (KHTML, like Gecko) Chrome/107.0.0.0 Safari/537.36 Edg/107.0.1418.42","WebKit","Edge","107.0.1418.42","Windows","10.0","63889","","{""Age"":""19"",""Nation"":""中国"",""Born"":""湖北省荆门市"",""Live"":""湖北省武汉市"",""Ethnic"":""汉"",""Alipay"":""15872921859""}",""
"","","","","","survey-multi-choice","135","566980","0.0-8.0","74","1","2022-11-13 09:17:41","a60ee176136a54a92dc2853177adfa2c","117.154.17.128","Mozilla/5.0 (Windows NT 10.0; Win64; x64) AppleWebKit/537.36 (KHTML, like Gecko) Chrome/107.0.0.0 Safari/537.36 Edg/107.0.1418.42","WebKit","Edge","107.0.1418.42","Windows","10.0","39408","","{""Gender"":""男"",""Education"":""高中毕业"",""Income"":""￥140,000-￥269,999"",""Children"":""0"",""Race"":""亚洲人""}","[0,1,2,3,4]"
"","","","","","survey-multi-select","136","582815","0.0-9.0","74","1","2022-11-13 09:17:41","a60ee176136a54a92dc2853177adfa2c","117.154.17.128","Mozilla/5.0 (Windows NT 10.0; Win64; x64) AppleWebKit/537.36 (KHTML, like Gecko) Chrome/107.0.0.0 Safari/537.36 Edg/107.0.1418.42","WebKit","Edge","107.0.1418.42","Windows","10.0","15827","","{""Marriage"":[""未婚""],""Religion"":[""佛教""]}","[0,1]"
"","","","","","survey-multi-choice","137","587751","0.0-10.0","74","1","2022-11-13 09:17:41","a60ee176136a54a92dc2853177adfa2c","117.154.17.128","Mozilla/5.0 (Windows NT 10.0; Win64; x64) AppleWebKit/537.36 (KHTML, like Gecko) Chrome/107.0.0.0 Safari/537.36 Edg/107.0.1418.42","WebKit","Edge","107.0.1418.42","Windows","10.0","4929","","{""SES"":""5""}","[0]"
"","","","","","html-button-response","138","590585","0.0-11.0","74","1","2022-11-13 09:17:41","a60ee176136a54a92dc2853177adfa2c","117.154.17.128","Mozilla/5.0 (Windows NT 10.0; Win64; x64) AppleWebKit/537.36 (KHTML, like Gecko) Chrome/107.0.0.0 Safari/537.36 Edg/107.0.1418.42","WebKit","Edge","107.0.1418.42","Windows","10.0","2829","<p><strong>请判断下列陈述在多大程度上可以形容你？</p><p> (1 = ""和我一点都不像"" to 5 = ""非常像我"".)</strong></p>","0",""
"","","","","","survey-likert","139","616576","0.0-12.0","74","1","2022-11-13 09:17:41","a60ee176136a54a92dc2853177adfa2c","117.154.17.128","Mozilla/5.0 (Windows NT 10.0; Win64; x64) AppleWebKit/537.36 (KHTML, like Gecko) Chrome/107.0.0.0 Safari/537.36 Edg/107.0.1418.42","WebKit","Edge","107.0.1418.42","Windows","10.0","25986","","{""Aggression1"":3,""Aggression2"":0,""Aggression3"":3,""Aggression4"":0,""Aggression5"":3,""Aggression6"":3,""Aggression7"":0,""Aggression8"":1,""Aggression9"":3}","[0,1,2,3,4,5,6,7,8]"
"","","","","","html-button-response","140","618038","0.0-13.0","74","1","2022-11-13 09:17:41","a60ee176136a54a92dc2853177adfa2c","117.154.17.128","Mozilla/5.0 (Windows NT 10.0; Win64; x64) AppleWebKit/537.36 (KHTML, like Gecko) Chrome/107.0.0.0 Safari/537.36 Edg/107.0.1418.42","WebKit","Edge","107.0.1418.42","Windows","10.0","1458","<p><strong>请判断你在多大程度上同意下列陈述。</strong></p>","0",""
"","","","","","survey-likert","141","753350","0.0-14.0","74","1","2022-11-13 09:17:41","a60ee176136a54a92dc2853177adfa2c","117.154.17.128","Mozilla/5.0 (Windows NT 10.0; Win64; x64) AppleWebKit/537.36 (KHTML, like Gecko) Chrome/107.0.0.0 Safari/537.36 Edg/107.0.1418.42","WebKit","Edge","107.0.1418.42","Windows","10.0","135305","","{""scale15"":1,""scale26"":3,""scale5"":3,""scale7"":1,""scale6"":3,""scale21"":3,""scale27"":1,""scale14"":3,""scale9"":3,""scale23"":3,""scale10"":3,""scale20"":3,""scale12"":2,""scale11"":2,""scale24"":2,""scale25"":1,""scale19"":1,""scale3"":3,""scale16"":1,""scale28"":2,""scale22"":3,""scale17"":3,""scale4"":1,""scale2"":3,""scale13"":3,""scale1"":3,""scale8"":1,""scale18"":1}","[14,25,4,6,5,20,26,13,8,22,9,19,11,10,23,24,18,2,15,27,21,16,3,1,12,0,7,17]"
"","","","","","html-button-response","142","754965","0.0-15.0","74","1","2022-11-13 09:17:41","a60ee176136a54a92dc2853177adfa2c","117.154.17.128","Mozilla/5.0 (Windows NT 10.0; Win64; x64) AppleWebKit/537.36 (KHTML, like Gecko) Chrome/107.0.0.0 Safari/537.36 Edg/107.0.1418.42","WebKit","Edge","107.0.1418.42","Windows","10.0","1611","<p><strong>请判断你在多大程度上同意下列陈述。</strong></p>","0",""
"","","","","","survey-likert","143","808912","0.0-16.0","74","1","2022-11-13 09:17:41","a60ee176136a54a92dc2853177adfa2c","117.154.17.128","Mozilla/5.0 (Windows NT 10.0; Win64; x64) AppleWebKit/537.36 (KHTML, like Gecko) Chrome/107.0.0.0 Safari/537.36 Edg/107.0.1418.42","WebKit","Edge","107.0.1418.42","Windows","10.0","53939","","{""sdo1"":1,""sdo14"":6,""sdo15"":6,""sdo13"":6,""sdo7"":0,""sdo9"":6,""sdo4"":0,""sdo12"":6,""sdo6"":0,""sdo16"":6,""sdo3"":1,""sdo8"":0,""sdo5"":0,""sdo11"":6,""sdo10"":6,""sdo2"":0}","[0,13,14,12,6,8,3,11,5,15,2,7,4,10,9,1]"
"","","","","","html-button-response","144","810085","0.0-17.0","74","1","2022-11-13 09:17:41","a60ee176136a54a92dc2853177adfa2c","117.154.17.128","Mozilla/5.0 (Windows NT 10.0; Win64; x64) AppleWebKit/537.36 (KHTML, like Gecko) Chrome/107.0.0.0 Safari/537.36 Edg/107.0.1418.42","WebKit","Edge","107.0.1418.42","Windows","10.0","1169","<p><strong>请判断你在多大程度上同意下列陈述。</strong></p>","0",""
"","","","","","survey-likert","145","868481","0.0-18.0","74","1","2022-11-13 09:17:41","a60ee176136a54a92dc2853177adfa2c","117.154.17.128","Mozilla/5.0 (Windows NT 10.0; Win64; x64) AppleWebKit/537.36 (KHTML, like Gecko) Chrome/107.0.0.0 Safari/537.36 Edg/107.0.1418.42","WebKit","Edge","107.0.1418.42","Windows","10.0","58391","","{""caring1"":0,""liking1"":4,""caring2"":1,""protection1"":4,""liking2"":2,""caring3"":1,""protection2"":3,""liking3"":1,""protection3"":3,""caring4"":1,""liking4"":1,""protection4"":3,""caring5"":3,""liking5"":3,""protection5"":4}","[0,1,2,3,4,5,6,7,8,9,10,11,12,13,14]"
"","","","","","html-button-response","146","870600","0.0-19.0","74","1","2022-11-13 09:17:41","a60ee176136a54a92dc2853177adfa2c","117.154.17.128","Mozilla/5.0 (Windows NT 10.0; Win64; x64) AppleWebKit/537.36 (KHTML, like Gecko) Chrome/107.0.0.0 Safari/537.36 Edg/107.0.1418.42","WebKit","Edge","107.0.1418.42","Windows","10.0","2114","<p><strong>请判断下列场景中你的内心感受有多柔软。</strong></p>","0",""
"","","","","","survey-likert","147","905422","0.0-20.0","74","1","2022-11-13 09:17:41","a60ee176136a54a92dc2853177adfa2c","117.154.17.128","Mozilla/5.0 (Windows NT 10.0; Win64; x64) AppleWebKit/537.36 (KHTML, like Gecko) Chrome/107.0.0.0 Safari/537.36 Edg/107.0.1418.42","WebKit","Edge","107.0.1418.42","Windows","10.0","34816","","{""tenderness-positive1"":1,""tenderness-negative1"":3,""tenderness-negative2"":0,""tenderness-positive2"":3,""tenderness-positive3"":3,""tenderness-negative3"":0,""tenderness-positive4"":3,""tenderness-negative4"":0,""tenderness-negative5"":0,""tenderness-positive5"":3}","[0,1,2,3,4,5,6,7,8,9]"
"","","","","","survey-multi-choice","148","927369","0.0-21.0","74","1","2022-11-13 09:17:41","a60ee176136a54a92dc2853177adfa2c","117.154.17.128","Mozilla/5.0 (Windows NT 10.0; Win64; x64) AppleWebKit/537.36 (KHTML, like Gecko) Chrome/107.0.0.0 Safari/537.36 Edg/107.0.1418.42","WebKit","Edge","107.0.1418.42","Windows","10.0","21941","","{""Attention2"":""其他""}","[0]"
"","","","","","html-button-response","149","929085","0.0-22.0","74","1","2022-11-13 09:17:41","a60ee176136a54a92dc2853177adfa2c","117.154.17.128","Mozilla/5.0 (Windows NT 10.0; Win64; x64) AppleWebKit/537.36 (KHTML, like Gecko) Chrome/107.0.0.0 Safari/537.36 Edg/107.0.1418.42","WebKit","Edge","107.0.1418.42","Windows","10.0","1710","<p><strong>请判断你在多大程度上同意下列陈述。</strong></p>","0",""
"","","","","","survey-likert","150","1059542","0.0-23.0","74","1","2022-11-13 09:17:41","a60ee176136a54a92dc2853177adfa2c","117.154.17.128","Mozilla/5.0 (Windows NT 10.0; Win64; x64) AppleWebKit/537.36 (KHTML, like Gecko) Chrome/107.0.0.0 Safari/537.36 Edg/107.0.1418.42","WebKit","Edge","107.0.1418.42","Windows","10.0","130450","","{""Nation7"":4,""Patri2"":3,""Patri6"":1,""Patri7"":3,""Patri10"":1,""Patri3"":3,""Nation3"":3,""Patri9"":1,""Nation2"":3,""Patri5"":3,""Nation1"":4,""Nation5"":4,""Patri12"":0,""Patri4"":3,""Nation6"":3,""Patri1"":4,""Patri8"":4,""Patri11"":1,""Nation4"":1,""Nation8"":0}","[18,1,5,6,9,2,14,8,13,4,12,16,11,3,17,0,7,10,15,19]"
"","","","","","html-button-response","151","1061316","0.0-24.0","74","1","2022-11-13 09:17:41","a60ee176136a54a92dc2853177adfa2c","117.154.17.128","Mozilla/5.0 (Windows NT 10.0; Win64; x64) AppleWebKit/537.36 (KHTML, like Gecko) Chrome/107.0.0.0 Safari/537.36 Edg/107.0.1418.42","WebKit","Edge","107.0.1418.42","Windows","10.0","1768","<p><strong>请判断你在多大程度上同意下列陈述。</strong></p>","0",""
"","","","","","survey-likert","152","1134716","0.0-25.0","74","1","2022-11-13 09:17:41","a60ee176136a54a92dc2853177adfa2c","117.154.17.128","Mozilla/5.0 (Windows NT 10.0; Win64; x64) AppleWebKit/537.36 (KHTML, like Gecko) Chrome/107.0.0.0 Safari/537.36 Edg/107.0.1418.42","WebKit","Edge","107.0.1418.42","Windows","10.0","73393","","{""hi3"":1,""hi1"":6,""hi2"":1,""Robot"":6,""vc1"":6,""hc2"":6,""vi2"":8,""vc4"":8,""hc4"":7,""hc3"":7,""hc1"":6,""vi1"":8,""hi4"":8,""vi4"":2,""vc2"":1,""vi3"":7,""vc3"":7}","[2,0,1,7,13,10,5,16,12,11,9,4,3,8,14,6,15]"
"","","","","","survey-text","153","1143314","0.0-26.0","74","1","2022-11-13 09:17:41","a60ee176136a54a92dc2853177adfa2c","117.154.17.128","Mozilla/5.0 (Windows NT 10.0; Win64; x64) AppleWebKit/537.36 (KHTML, like Gecko) Chrome/107.0.0.0 Safari/537.36 Edg/107.0.1418.42","WebKit","Edge","107.0.1418.42","Windows","10.0","8588","","{""Comments"":""无""}",""
"","","","","","html-button-response","154","1146004","0.0-27.0","74","1","2022-11-13 09:17:41","a60ee176136a54a92dc2853177adfa2c","117.154.17.128","Mozilla/5.0 (Windows NT 10.0; Win64; x64) AppleWebKit/537.36 (KHTML, like Gecko) Chrome/107.0.0.0 Safari/537.36 Edg/107.0.1418.42","WebKit","Edge","107.0.1418.42","Windows","10.0","2684","<strong><p>恭喜你完成了实验！</p><p>感谢您的参与。</p></strong>","0",""
