"success","timeout","failed_images","failed_audio","failed_video","trial_type","trial_index","time_elapsed","internal_node_id","run_id","condition","recorded_at","source_code_version","ip","user_agent","device","browser","browser_version","platform","platform_version","rt","stimulus","response","question_order"
"true","false","[]","[]","[]","preload","0","2265","0.0-0.0","78","1","2022-11-13 09:52:12","a60ee176136a54a92dc2853177adfa2c","219.142.99.7","Mozilla/5.0 (Windows NT 10.0; Win64; x64) AppleWebKit/537.36 (KHTML, like Gecko) Chrome/98.0.4758.102 Safari/537.36","WebKit","Chrome","98.0.4758.102","Windows","10.0","","","",""
"true","","","","","fullscreen","1","6092","0.0-1.0","78","1","2022-11-13 09:52:12","a60ee176136a54a92dc2853177adfa2c","219.142.99.7","Mozilla/5.0 (Windows NT 10.0; Win64; x64) AppleWebKit/537.36 (KHTML, like Gecko) Chrome/98.0.4758.102 Safari/537.36","WebKit","Chrome","98.0.4758.102","Windows","10.0","","","",""
"","","","","","html-button-response","2","23389","0.0-2.0","78","1","2022-11-13 09:52:12","a60ee176136a54a92dc2853177adfa2c","219.142.99.7","Mozilla/5.0 (Windows NT 10.0; Win64; x64) AppleWebKit/537.36 (KHTML, like Gecko) Chrome/98.0.4758.102 Safari/537.36","WebKit","Chrome","98.0.4758.102","Windows","10.0","17291","<p style=""font-size:20px;font-weight:bold;"">实验知情同意书</p><p style=""text-align:left;""><strong>实验名称：</strong>社会冲突研究</p><p style=""text-align:left;""><strong>主要研究者：</strong>韩晓春副教授（北京师范大学心理学部）</p><p style=""text-align:left;""><strong>联系方式：</strong>发送邮件至xiaochun.han@bnu.edu.cn</p><p style=""text-align:left;""><strong>研究目的：</strong>研究旨在了解人类面对群体冲突时的决策方式，以及相关的心理学特质。实验调查大约需要20分钟。</p><p style=""text-align:left;""><strong>实验流程：</strong>实验包含两部分。第一部分呈现一系列群体冲突场景，请你决定如何对这些冲突进行反应，大约需要10分钟完成。第二部分包含一系列人口统计学信息收集和心理学问卷，大约需要10分钟完成。</p><p style=""text-align:left;""><strong>参加及退出规则：</strong>参加本实验完全取决于您的个人意愿。在参与过程中，您可以随时退出，并且不用承担任何后果。</p><p style=""text-align:left;""><strong>隐私：</strong>本实验完全匿名进行，不会收集您的姓名或其他能够识别您身份的信息。实验中收集的作答仅用作科学研究使用，可能会在学术期刊/书籍上发表，或者用于教学，您的数据未来可能会和其他研究者或实验室分享，但您的个人身份不会被识别。</p><p style=""text-align:left;""><strong>实验报酬：</strong>实验完成后，您将获得15元人民币报酬，以感谢您的时间和努力。调查问卷中包含几道题目用以测验您作答时的认真度。只有完成全部实验，并且正确回答认真度测验的被试才能获得实验报酬。实验报酬将通过支付宝转账发放。</p><p style=""text-align:left;font-size:20px;""><strong>如果您同意以上实验知情同意书的内容，请点击'同意并且开始实验'按钮；否则请关闭浏览器界面，退出实验。</strong></p>","0",""
"","","","","","html-button-response","3","52037","0.0-3.0","78","1","2022-11-13 09:52:12","a60ee176136a54a92dc2853177adfa2c","219.142.99.7","Mozilla/5.0 (Windows NT 10.0; Win64; x64) AppleWebKit/537.36 (KHTML, like Gecko) Chrome/98.0.4758.102 Safari/537.36","WebKit","Chrome","98.0.4758.102","Windows","10.0","28639","<p ><strong>实验任务一：</strong></p><p>请想象你的国家与另一个国家发生了军事冲突。</p><p>你是国家军队的指挥官，你将如何在冲突中进行决策。</p><p>具体来说，作为军队指挥官，请你决定是否发射导弹进行打击。</p><p>接下来，你会面对一系列场景，请仔细阅读每个场景，然后进行决策。</p><p>这部分实验任务大约需要10分钟。</p><p><strong>实验过程中，请集中注意力。</strong></p>","0",""
"","","","","","html-keyboard-response","4","53042","0.0-4.0-0.0","78","1","2022-11-13 09:52:12","a60ee176136a54a92dc2853177adfa2c","219.142.99.7","Mozilla/5.0 (Windows NT 10.0; Win64; x64) AppleWebKit/537.36 (KHTML, like Gecko) Chrome/98.0.4758.102 Safari/537.36","WebKit","Chrome","98.0.4758.102","Windows","10.0","null","<div style=""font-size:60px;"">+</div>","null",""
"","","","","","html-button-response","5","66888","0.0-4.0-1.0","78","1","2022-11-13 09:52:12","a60ee176136a54a92dc2853177adfa2c","219.142.99.7","Mozilla/5.0 (Windows NT 10.0; Win64; x64) AppleWebKit/537.36 (KHTML, like Gecko) Chrome/98.0.4758.102 Safari/537.36","WebKit","Chrome","98.0.4758.102","Windows","10.0","13836","<p>作为军队的指挥官，你可以选择发射导弹杀死 <strong>9名</strong> 敌国士兵，但会炸毁附近的 <strong>1棵</strong> 敌国树木。</p> <p>树木的照片如下图所示。</p> <p></p> <img src='stimuli/trees/3.png', style='max-width: 30%;'> </img> <p><strong>你是否选择发射武器？</strong></p>","0",""
"","","","","","html-keyboard-response","6","67893","0.0-4.0-0.1","78","1","2022-11-13 09:52:12","a60ee176136a54a92dc2853177adfa2c","219.142.99.7","Mozilla/5.0 (Windows NT 10.0; Win64; x64) AppleWebKit/537.36 (KHTML, like Gecko) Chrome/98.0.4758.102 Safari/537.36","WebKit","Chrome","98.0.4758.102","Windows","10.0","null","<div style=""font-size:60px;"">+</div>","null",""
"","","","","","html-button-response","7","71971","0.0-4.0-1.1","78","1","2022-11-13 09:52:12","a60ee176136a54a92dc2853177adfa2c","219.142.99.7","Mozilla/5.0 (Windows NT 10.0; Win64; x64) AppleWebKit/537.36 (KHTML, like Gecko) Chrome/98.0.4758.102 Safari/537.36","WebKit","Chrome","98.0.4758.102","Windows","10.0","4075","<p>作为军队的指挥官，你可以选择发射导弹杀死 <strong>3名</strong> 敌国士兵，但会误杀附近的 <strong>1名</strong> 敌国平民。</p> <p>平民照片如下图所示。</p> <p></p> <img src='stimuli/faces/PCM6.jpg', style='max-width: 30%;'> </img> <p><strong>你是否选择发射武器？</strong></p>","0",""
"","","","","","html-keyboard-response","8","72974","0.0-4.0-0.2","78","1","2022-11-13 09:52:12","a60ee176136a54a92dc2853177adfa2c","219.142.99.7","Mozilla/5.0 (Windows NT 10.0; Win64; x64) AppleWebKit/537.36 (KHTML, like Gecko) Chrome/98.0.4758.102 Safari/537.36","WebKit","Chrome","98.0.4758.102","Windows","10.0","null","<div style=""font-size:60px;"">+</div>","null",""
"","","","","","html-button-response","9","76242","0.0-4.0-1.2","78","1","2022-11-13 09:52:12","a60ee176136a54a92dc2853177adfa2c","219.142.99.7","Mozilla/5.0 (Windows NT 10.0; Win64; x64) AppleWebKit/537.36 (KHTML, like Gecko) Chrome/98.0.4758.102 Safari/537.36","WebKit","Chrome","98.0.4758.102","Windows","10.0","3264","<p>作为军队的指挥官，你可以选择发射导弹杀死 <strong>9名</strong> 敌国士兵，但会炸毁附近的 <strong>1棵</strong> 敌国树木。</p> <p>树木的照片如下图所示。</p> <p></p> <img src='stimuli/trees/9.png', style='max-width: 30%;'> </img> <p><strong>你是否选择发射武器？</strong></p>","0",""
"","","","","","html-keyboard-response","10","77245","0.0-4.0-0.3","78","1","2022-11-13 09:52:12","a60ee176136a54a92dc2853177adfa2c","219.142.99.7","Mozilla/5.0 (Windows NT 10.0; Win64; x64) AppleWebKit/537.36 (KHTML, like Gecko) Chrome/98.0.4758.102 Safari/537.36","WebKit","Chrome","98.0.4758.102","Windows","10.0","null","<div style=""font-size:60px;"">+</div>","null",""
"","","","","","html-button-response","11","80313","0.0-4.0-1.3","78","1","2022-11-13 09:52:12","a60ee176136a54a92dc2853177adfa2c","219.142.99.7","Mozilla/5.0 (Windows NT 10.0; Win64; x64) AppleWebKit/537.36 (KHTML, like Gecko) Chrome/98.0.4758.102 Safari/537.36","WebKit","Chrome","98.0.4758.102","Windows","10.0","3061","<p>作为军队的指挥官，你可以选择发射导弹杀死 <strong>6名</strong> 敌国士兵，但会误杀附近的 <strong>1名</strong> 敌国平民。</p> <p>平民照片如下图所示。</p> <p></p> <img src='stimuli/faces/PCM1.jpg', style='max-width: 30%;'> </img> <p><strong>你是否选择发射武器？</strong></p>","0",""
"","","","","","html-keyboard-response","12","81316","0.0-4.0-0.4","78","1","2022-11-13 09:52:12","a60ee176136a54a92dc2853177adfa2c","219.142.99.7","Mozilla/5.0 (Windows NT 10.0; Win64; x64) AppleWebKit/537.36 (KHTML, like Gecko) Chrome/98.0.4758.102 Safari/537.36","WebKit","Chrome","98.0.4758.102","Windows","10.0","null","<div style=""font-size:60px;"">+</div>","null",""
"","","","","","html-button-response","13","83749","0.0-4.0-1.4","78","1","2022-11-13 09:52:12","a60ee176136a54a92dc2853177adfa2c","219.142.99.7","Mozilla/5.0 (Windows NT 10.0; Win64; x64) AppleWebKit/537.36 (KHTML, like Gecko) Chrome/98.0.4758.102 Safari/537.36","WebKit","Chrome","98.0.4758.102","Windows","10.0","2424","<p>作为军队的指挥官，你可以选择发射导弹杀死 <strong>7名</strong> 敌国士兵，但会误杀附近的 <strong>1名</strong> 敌国平民。</p> <p>平民照片如下图所示。</p> <p></p> <img src='stimuli/faces/PCF2.jpg', style='max-width: 30%;'> </img> <p><strong>你是否选择发射武器？</strong></p>","0",""
"","","","","","html-keyboard-response","14","84752","0.0-4.0-0.5","78","1","2022-11-13 09:52:12","a60ee176136a54a92dc2853177adfa2c","219.142.99.7","Mozilla/5.0 (Windows NT 10.0; Win64; x64) AppleWebKit/537.36 (KHTML, like Gecko) Chrome/98.0.4758.102 Safari/537.36","WebKit","Chrome","98.0.4758.102","Windows","10.0","null","<div style=""font-size:60px;"">+</div>","null",""
"","","","","","html-button-response","15","87819","0.0-4.0-1.5","78","1","2022-11-13 09:52:12","a60ee176136a54a92dc2853177adfa2c","219.142.99.7","Mozilla/5.0 (Windows NT 10.0; Win64; x64) AppleWebKit/537.36 (KHTML, like Gecko) Chrome/98.0.4758.102 Safari/537.36","WebKit","Chrome","98.0.4758.102","Windows","10.0","3061","<p>作为军队的指挥官，你可以选择发射导弹杀死 <strong>1名</strong> 敌国士兵，但会炸毁附近的 <strong>1棵</strong> 敌国树木。</p> <p>树木的照片如下图所示。</p> <p></p> <img src='stimuli/trees/11.png', style='max-width: 30%;'> </img> <p><strong>你是否选择发射武器？</strong></p>","1",""
"","","","","","html-keyboard-response","16","88824","0.0-4.0-0.6","78","1","2022-11-13 09:52:12","a60ee176136a54a92dc2853177adfa2c","219.142.99.7","Mozilla/5.0 (Windows NT 10.0; Win64; x64) AppleWebKit/537.36 (KHTML, like Gecko) Chrome/98.0.4758.102 Safari/537.36","WebKit","Chrome","98.0.4758.102","Windows","10.0","null","<div style=""font-size:60px;"">+</div>","null",""
"","","","","","html-button-response","17","91335","0.0-4.0-1.6","78","1","2022-11-13 09:52:12","a60ee176136a54a92dc2853177adfa2c","219.142.99.7","Mozilla/5.0 (Windows NT 10.0; Win64; x64) AppleWebKit/537.36 (KHTML, like Gecko) Chrome/98.0.4758.102 Safari/537.36","WebKit","Chrome","98.0.4758.102","Windows","10.0","2505","<p>作为军队的指挥官，你可以选择发射导弹杀死 <strong>6名</strong> 敌国士兵，但会误杀附近的 <strong>1名</strong> 敌国平民。</p> <p>平民照片如下图所示。</p> <p></p> <img src='stimuli/faces/PCF5.jpg', style='max-width: 30%;'> </img> <p><strong>你是否选择发射武器？</strong></p>","0",""
"","","","","","html-keyboard-response","18","92350","0.0-4.0-0.7","78","1","2022-11-13 09:52:12","a60ee176136a54a92dc2853177adfa2c","219.142.99.7","Mozilla/5.0 (Windows NT 10.0; Win64; x64) AppleWebKit/537.36 (KHTML, like Gecko) Chrome/98.0.4758.102 Safari/537.36","WebKit","Chrome","98.0.4758.102","Windows","10.0","null","<div style=""font-size:60px;"">+</div>","null",""
"","","","","","html-button-response","19","94682","0.0-4.0-1.7","78","1","2022-11-13 09:52:12","a60ee176136a54a92dc2853177adfa2c","219.142.99.7","Mozilla/5.0 (Windows NT 10.0; Win64; x64) AppleWebKit/537.36 (KHTML, like Gecko) Chrome/98.0.4758.102 Safari/537.36","WebKit","Chrome","98.0.4758.102","Windows","10.0","2328","<p>作为军队的指挥官，你可以选择发射导弹杀死 <strong>3名</strong> 敌国士兵，但会炸毁附近的 <strong>1棵</strong> 敌国树木。</p> <p>树木的照片如下图所示。</p> <p></p> <img src='stimuli/trees/3.png', style='max-width: 30%;'> </img> <p><strong>你是否选择发射武器？</strong></p>","0",""
"","","","","","html-keyboard-response","20","95686","0.0-4.0-0.8","78","1","2022-11-13 09:52:12","a60ee176136a54a92dc2853177adfa2c","219.142.99.7","Mozilla/5.0 (Windows NT 10.0; Win64; x64) AppleWebKit/537.36 (KHTML, like Gecko) Chrome/98.0.4758.102 Safari/537.36","WebKit","Chrome","98.0.4758.102","Windows","10.0","null","<div style=""font-size:60px;"">+</div>","null",""
"","","","","","html-button-response","21","98119","0.0-4.0-1.8","78","1","2022-11-13 09:52:12","a60ee176136a54a92dc2853177adfa2c","219.142.99.7","Mozilla/5.0 (Windows NT 10.0; Win64; x64) AppleWebKit/537.36 (KHTML, like Gecko) Chrome/98.0.4758.102 Safari/537.36","WebKit","Chrome","98.0.4758.102","Windows","10.0","2430","<p>作为军队的指挥官，你可以选择发射导弹杀死 <strong>1名</strong> 敌国士兵，但会炸毁附近的 <strong>1棵</strong> 敌国树木。</p> <p>树木的照片如下图所示。</p> <p></p> <img src='stimuli/trees/9.png', style='max-width: 30%;'> </img> <p><strong>你是否选择发射武器？</strong></p>","1",""
"","","","","","html-keyboard-response","22","99124","0.0-4.0-0.9","78","1","2022-11-13 09:52:12","a60ee176136a54a92dc2853177adfa2c","219.142.99.7","Mozilla/5.0 (Windows NT 10.0; Win64; x64) AppleWebKit/537.36 (KHTML, like Gecko) Chrome/98.0.4758.102 Safari/537.36","WebKit","Chrome","98.0.4758.102","Windows","10.0","null","<div style=""font-size:60px;"">+</div>","null",""
"","","","","","html-button-response","23","100989","0.0-4.0-1.9","78","1","2022-11-13 09:52:12","a60ee176136a54a92dc2853177adfa2c","219.142.99.7","Mozilla/5.0 (Windows NT 10.0; Win64; x64) AppleWebKit/537.36 (KHTML, like Gecko) Chrome/98.0.4758.102 Safari/537.36","WebKit","Chrome","98.0.4758.102","Windows","10.0","1858","<p>作为军队的指挥官，你可以选择发射导弹杀死 <strong>6名</strong> 敌国士兵，但会炸毁附近的 <strong>1棵</strong> 敌国树木。</p> <p>树木的照片如下图所示。</p> <p></p> <img src='stimuli/trees/7.png', style='max-width: 30%;'> </img> <p><strong>你是否选择发射武器？</strong></p>","0",""
"","","","","","html-keyboard-response","24","101996","0.0-4.0-0.10","78","1","2022-11-13 09:52:12","a60ee176136a54a92dc2853177adfa2c","219.142.99.7","Mozilla/5.0 (Windows NT 10.0; Win64; x64) AppleWebKit/537.36 (KHTML, like Gecko) Chrome/98.0.4758.102 Safari/537.36","WebKit","Chrome","98.0.4758.102","Windows","10.0","null","<div style=""font-size:60px;"">+</div>","null",""
"","","","","","html-button-response","25","104156","0.0-4.0-1.10","78","1","2022-11-13 09:52:12","a60ee176136a54a92dc2853177adfa2c","219.142.99.7","Mozilla/5.0 (Windows NT 10.0; Win64; x64) AppleWebKit/537.36 (KHTML, like Gecko) Chrome/98.0.4758.102 Safari/537.36","WebKit","Chrome","98.0.4758.102","Windows","10.0","2154","<p>作为军队的指挥官，你可以选择发射导弹杀死 <strong>5名</strong> 敌国士兵，但会误杀附近的 <strong>1名</strong> 敌国平民。</p> <p>平民照片如下图所示。</p> <p></p> <img src='stimuli/faces/PCM3.jpg', style='max-width: 30%;'> </img> <p><strong>你是否选择发射武器？</strong></p>","0",""
"","","","","","html-keyboard-response","26","105160","0.0-4.0-0.11","78","1","2022-11-13 09:52:12","a60ee176136a54a92dc2853177adfa2c","219.142.99.7","Mozilla/5.0 (Windows NT 10.0; Win64; x64) AppleWebKit/537.36 (KHTML, like Gecko) Chrome/98.0.4758.102 Safari/537.36","WebKit","Chrome","98.0.4758.102","Windows","10.0","null","<div style=""font-size:60px;"">+</div>","null",""
"","","","","","html-button-response","27","106752","0.0-4.0-1.11","78","1","2022-11-13 09:52:12","a60ee176136a54a92dc2853177adfa2c","219.142.99.7","Mozilla/5.0 (Windows NT 10.0; Win64; x64) AppleWebKit/537.36 (KHTML, like Gecko) Chrome/98.0.4758.102 Safari/537.36","WebKit","Chrome","98.0.4758.102","Windows","10.0","1585","<p>作为军队的指挥官，你可以选择发射导弹杀死 <strong>10名</strong> 敌国士兵，但会误杀附近的 <strong>1名</strong> 敌国平民。</p> <p>平民照片如下图所示。</p> <p></p> <img src='stimuli/faces/PCF1.jpg', style='max-width: 30%;'> </img> <p><strong>你是否选择发射武器？</strong></p>","0",""
"","","","","","html-keyboard-response","28","107758","0.0-4.0-0.12","78","1","2022-11-13 09:52:12","a60ee176136a54a92dc2853177adfa2c","219.142.99.7","Mozilla/5.0 (Windows NT 10.0; Win64; x64) AppleWebKit/537.36 (KHTML, like Gecko) Chrome/98.0.4758.102 Safari/537.36","WebKit","Chrome","98.0.4758.102","Windows","10.0","null","<div style=""font-size:60px;"">+</div>","null",""
"","","","","","html-button-response","29","110644","0.0-4.0-1.12","78","1","2022-11-13 09:52:12","a60ee176136a54a92dc2853177adfa2c","219.142.99.7","Mozilla/5.0 (Windows NT 10.0; Win64; x64) AppleWebKit/537.36 (KHTML, like Gecko) Chrome/98.0.4758.102 Safari/537.36","WebKit","Chrome","98.0.4758.102","Windows","10.0","2882","<p>作为军队的指挥官，你可以选择发射导弹杀死 <strong>2名</strong> 敌国士兵，但会误杀附近的 <strong>1名</strong> 敌国平民。</p> <p>平民照片如下图所示。</p> <p></p> <img src='stimuli/faces/PCF3.jpg', style='max-width: 30%;'> </img> <p><strong>你是否选择发射武器？</strong></p>","1",""
"","","","","","html-keyboard-response","30","111647","0.0-4.0-0.13","78","1","2022-11-13 09:52:12","a60ee176136a54a92dc2853177adfa2c","219.142.99.7","Mozilla/5.0 (Windows NT 10.0; Win64; x64) AppleWebKit/537.36 (KHTML, like Gecko) Chrome/98.0.4758.102 Safari/537.36","WebKit","Chrome","98.0.4758.102","Windows","10.0","null","<div style=""font-size:60px;"">+</div>","null",""
"","","","","","html-button-response","31","112885","0.0-4.0-1.13","78","1","2022-11-13 09:52:12","a60ee176136a54a92dc2853177adfa2c","219.142.99.7","Mozilla/5.0 (Windows NT 10.0; Win64; x64) AppleWebKit/537.36 (KHTML, like Gecko) Chrome/98.0.4758.102 Safari/537.36","WebKit","Chrome","98.0.4758.102","Windows","10.0","1237","<p>作为军队的指挥官，你可以选择发射导弹杀死 <strong>7名</strong> 敌国士兵，但会误杀附近的 <strong>1名</strong> 敌国平民。</p> <p>平民照片如下图所示。</p> <p></p> <img src='stimuli/faces/PCM3.jpg', style='max-width: 30%;'> </img> <p><strong>你是否选择发射武器？</strong></p>","0",""
"","","","","","html-keyboard-response","32","113889","0.0-4.0-0.14","78","1","2022-11-13 09:52:12","a60ee176136a54a92dc2853177adfa2c","219.142.99.7","Mozilla/5.0 (Windows NT 10.0; Win64; x64) AppleWebKit/537.36 (KHTML, like Gecko) Chrome/98.0.4758.102 Safari/537.36","WebKit","Chrome","98.0.4758.102","Windows","10.0","null","<div style=""font-size:60px;"">+</div>","null",""
"","","","","","html-button-response","33","115375","0.0-4.0-1.14","78","1","2022-11-13 09:52:12","a60ee176136a54a92dc2853177adfa2c","219.142.99.7","Mozilla/5.0 (Windows NT 10.0; Win64; x64) AppleWebKit/537.36 (KHTML, like Gecko) Chrome/98.0.4758.102 Safari/537.36","WebKit","Chrome","98.0.4758.102","Windows","10.0","1479","<p>作为军队的指挥官，你可以选择发射导弹杀死 <strong>4名</strong> 敌国士兵，但会炸毁附近的 <strong>1棵</strong> 敌国树木。</p> <p>树木的照片如下图所示。</p> <p></p> <img src='stimuli/trees/7.png', style='max-width: 30%;'> </img> <p><strong>你是否选择发射武器？</strong></p>","0",""
"","","","","","html-keyboard-response","34","116387","0.0-4.0-0.15","78","1","2022-11-13 09:52:12","a60ee176136a54a92dc2853177adfa2c","219.142.99.7","Mozilla/5.0 (Windows NT 10.0; Win64; x64) AppleWebKit/537.36 (KHTML, like Gecko) Chrome/98.0.4758.102 Safari/537.36","WebKit","Chrome","98.0.4758.102","Windows","10.0","null","<div style=""font-size:60px;"">+</div>","null",""
"","","","","","html-button-response","35","117954","0.0-4.0-1.15","78","1","2022-11-13 09:52:12","a60ee176136a54a92dc2853177adfa2c","219.142.99.7","Mozilla/5.0 (Windows NT 10.0; Win64; x64) AppleWebKit/537.36 (KHTML, like Gecko) Chrome/98.0.4758.102 Safari/537.36","WebKit","Chrome","98.0.4758.102","Windows","10.0","1555","<p>作为军队的指挥官，你可以选择发射导弹杀死 <strong>10名</strong> 敌国士兵，但会炸毁附近的 <strong>1棵</strong> 敌国树木。</p> <p>树木的照片如下图所示。</p> <p></p> <img src='stimuli/trees/16.png', style='max-width: 30%;'> </img> <p><strong>你是否选择发射武器？</strong></p>","0",""
"","","","","","html-keyboard-response","36","118956","0.0-4.0-0.16","78","1","2022-11-13 09:52:12","a60ee176136a54a92dc2853177adfa2c","219.142.99.7","Mozilla/5.0 (Windows NT 10.0; Win64; x64) AppleWebKit/537.36 (KHTML, like Gecko) Chrome/98.0.4758.102 Safari/537.36","WebKit","Chrome","98.0.4758.102","Windows","10.0","null","<div style=""font-size:60px;"">+</div>","null",""
"","","","","","html-button-response","37","121593","0.0-4.0-1.16","78","1","2022-11-13 09:52:12","a60ee176136a54a92dc2853177adfa2c","219.142.99.7","Mozilla/5.0 (Windows NT 10.0; Win64; x64) AppleWebKit/537.36 (KHTML, like Gecko) Chrome/98.0.4758.102 Safari/537.36","WebKit","Chrome","98.0.4758.102","Windows","10.0","2630","<p>作为军队的指挥官，你可以选择发射导弹杀死 <strong>2名</strong> 敌国士兵，但会误杀附近的 <strong>1名</strong> 敌国平民。</p> <p>平民照片如下图所示。</p> <p></p> <img src='stimuli/faces/PCF1.jpg', style='max-width: 30%;'> </img> <p><strong>你是否选择发射武器？</strong></p>","0",""
"","","","","","html-keyboard-response","38","122598","0.0-4.0-0.17","78","1","2022-11-13 09:52:12","a60ee176136a54a92dc2853177adfa2c","219.142.99.7","Mozilla/5.0 (Windows NT 10.0; Win64; x64) AppleWebKit/537.36 (KHTML, like Gecko) Chrome/98.0.4758.102 Safari/537.36","WebKit","Chrome","98.0.4758.102","Windows","10.0","null","<div style=""font-size:60px;"">+</div>","null",""
"","","","","","html-button-response","39","124239","0.0-4.0-1.17","78","1","2022-11-13 09:52:12","a60ee176136a54a92dc2853177adfa2c","219.142.99.7","Mozilla/5.0 (Windows NT 10.0; Win64; x64) AppleWebKit/537.36 (KHTML, like Gecko) Chrome/98.0.4758.102 Safari/537.36","WebKit","Chrome","98.0.4758.102","Windows","10.0","1637","<p>作为军队的指挥官，你可以选择发射导弹杀死 <strong>4名</strong> 敌国士兵，但会误杀附近的 <strong>1名</strong> 敌国平民。</p> <p>平民照片如下图所示。</p> <p></p> <img src='stimuli/faces/PCM7.jpg', style='max-width: 30%;'> </img> <p><strong>你是否选择发射武器？</strong></p>","0",""
"","","","","","html-keyboard-response","40","125244","0.0-4.0-0.18","78","1","2022-11-13 09:52:12","a60ee176136a54a92dc2853177adfa2c","219.142.99.7","Mozilla/5.0 (Windows NT 10.0; Win64; x64) AppleWebKit/537.36 (KHTML, like Gecko) Chrome/98.0.4758.102 Safari/537.36","WebKit","Chrome","98.0.4758.102","Windows","10.0","null","<div style=""font-size:60px;"">+</div>","null",""
"","","","","","html-button-response","41","126581","0.0-4.0-1.18","78","1","2022-11-13 09:52:12","a60ee176136a54a92dc2853177adfa2c","219.142.99.7","Mozilla/5.0 (Windows NT 10.0; Win64; x64) AppleWebKit/537.36 (KHTML, like Gecko) Chrome/98.0.4758.102 Safari/537.36","WebKit","Chrome","98.0.4758.102","Windows","10.0","1329","<p>作为军队的指挥官，你可以选择发射导弹杀死 <strong>10名</strong> 敌国士兵，但会误杀附近的 <strong>1名</strong> 敌国平民。</p> <p>平民照片如下图所示。</p> <p></p> <img src='stimuli/faces/PCM8.jpg', style='max-width: 30%;'> </img> <p><strong>你是否选择发射武器？</strong></p>","0",""
"","","","","","html-keyboard-response","42","127589","0.0-4.0-0.19","78","1","2022-11-13 09:52:12","a60ee176136a54a92dc2853177adfa2c","219.142.99.7","Mozilla/5.0 (Windows NT 10.0; Win64; x64) AppleWebKit/537.36 (KHTML, like Gecko) Chrome/98.0.4758.102 Safari/537.36","WebKit","Chrome","98.0.4758.102","Windows","10.0","null","<div style=""font-size:60px;"">+</div>","null",""
"","","","","","html-button-response","43","129507","0.0-4.0-1.19","78","1","2022-11-13 09:52:12","a60ee176136a54a92dc2853177adfa2c","219.142.99.7","Mozilla/5.0 (Windows NT 10.0; Win64; x64) AppleWebKit/537.36 (KHTML, like Gecko) Chrome/98.0.4758.102 Safari/537.36","WebKit","Chrome","98.0.4758.102","Windows","10.0","1910","<p>作为军队的指挥官，你可以选择发射导弹杀死 <strong>3名</strong> 敌国士兵，但会炸毁附近的 <strong>1棵</strong> 敌国树木。</p> <p>树木的照片如下图所示。</p> <p></p> <img src='stimuli/trees/2.png', style='max-width: 30%;'> </img> <p><strong>你是否选择发射武器？</strong></p>","0",""
"","","","","","html-keyboard-response","44","130513","0.0-4.0-0.20","78","1","2022-11-13 09:52:12","a60ee176136a54a92dc2853177adfa2c","219.142.99.7","Mozilla/5.0 (Windows NT 10.0; Win64; x64) AppleWebKit/537.36 (KHTML, like Gecko) Chrome/98.0.4758.102 Safari/537.36","WebKit","Chrome","98.0.4758.102","Windows","10.0","null","<div style=""font-size:60px;"">+</div>","null",""
"","","","","","html-button-response","45","131628","0.0-4.0-1.20","78","1","2022-11-13 09:52:12","a60ee176136a54a92dc2853177adfa2c","219.142.99.7","Mozilla/5.0 (Windows NT 10.0; Win64; x64) AppleWebKit/537.36 (KHTML, like Gecko) Chrome/98.0.4758.102 Safari/537.36","WebKit","Chrome","98.0.4758.102","Windows","10.0","1111","<p>作为军队的指挥官，你可以选择发射导弹杀死 <strong>5名</strong> 敌国士兵，但会炸毁附近的 <strong>1棵</strong> 敌国树木。</p> <p>树木的照片如下图所示。</p> <p></p> <img src='stimuli/trees/1.png', style='max-width: 30%;'> </img> <p><strong>你是否选择发射武器？</strong></p>","0",""
"","","","","","html-keyboard-response","46","132633","0.0-4.0-0.21","78","1","2022-11-13 09:52:12","a60ee176136a54a92dc2853177adfa2c","219.142.99.7","Mozilla/5.0 (Windows NT 10.0; Win64; x64) AppleWebKit/537.36 (KHTML, like Gecko) Chrome/98.0.4758.102 Safari/537.36","WebKit","Chrome","98.0.4758.102","Windows","10.0","null","<div style=""font-size:60px;"">+</div>","null",""
"","","","","","html-button-response","47","134572","0.0-4.0-1.21","78","1","2022-11-13 09:52:12","a60ee176136a54a92dc2853177adfa2c","219.142.99.7","Mozilla/5.0 (Windows NT 10.0; Win64; x64) AppleWebKit/537.36 (KHTML, like Gecko) Chrome/98.0.4758.102 Safari/537.36","WebKit","Chrome","98.0.4758.102","Windows","10.0","1936","<p>作为军队的指挥官，你可以选择发射导弹杀死 <strong>2名</strong> 敌国士兵，但会误杀附近的 <strong>1名</strong> 敌国平民。</p> <p>平民照片如下图所示。</p> <p></p> <img src='stimuli/faces/PCF5.jpg', style='max-width: 30%;'> </img> <p><strong>你是否选择发射武器？</strong></p>","0",""
"","","","","","html-keyboard-response","48","135578","0.0-4.0-0.22","78","1","2022-11-13 09:52:12","a60ee176136a54a92dc2853177adfa2c","219.142.99.7","Mozilla/5.0 (Windows NT 10.0; Win64; x64) AppleWebKit/537.36 (KHTML, like Gecko) Chrome/98.0.4758.102 Safari/537.36","WebKit","Chrome","98.0.4758.102","Windows","10.0","null","<div style=""font-size:60px;"">+</div>","null",""
"","","","","","html-button-response","49","137679","0.0-4.0-1.22","78","1","2022-11-13 09:52:12","a60ee176136a54a92dc2853177adfa2c","219.142.99.7","Mozilla/5.0 (Windows NT 10.0; Win64; x64) AppleWebKit/537.36 (KHTML, like Gecko) Chrome/98.0.4758.102 Safari/537.36","WebKit","Chrome","98.0.4758.102","Windows","10.0","2094","<p>作为军队的指挥官，你可以选择发射导弹杀死 <strong>4名</strong> 敌国士兵，但会炸毁附近的 <strong>1棵</strong> 敌国树木。</p> <p>树木的照片如下图所示。</p> <p></p> <img src='stimuli/trees/8.png', style='max-width: 30%;'> </img> <p><strong>你是否选择发射武器？</strong></p>","0",""
"","","","","","html-keyboard-response","50","138697","0.0-4.0-0.23","78","1","2022-11-13 09:52:12","a60ee176136a54a92dc2853177adfa2c","219.142.99.7","Mozilla/5.0 (Windows NT 10.0; Win64; x64) AppleWebKit/537.36 (KHTML, like Gecko) Chrome/98.0.4758.102 Safari/537.36","WebKit","Chrome","98.0.4758.102","Windows","10.0","null","<div style=""font-size:60px;"">+</div>","null",""
"","","","","","html-button-response","51","139795","0.0-4.0-1.23","78","1","2022-11-13 09:52:12","a60ee176136a54a92dc2853177adfa2c","219.142.99.7","Mozilla/5.0 (Windows NT 10.0; Win64; x64) AppleWebKit/537.36 (KHTML, like Gecko) Chrome/98.0.4758.102 Safari/537.36","WebKit","Chrome","98.0.4758.102","Windows","10.0","1090","<p>作为军队的指挥官，你可以选择发射导弹杀死 <strong>9名</strong> 敌国士兵，但会炸毁附近的 <strong>1棵</strong> 敌国树木。</p> <p>树木的照片如下图所示。</p> <p></p> <img src='stimuli/trees/6.png', style='max-width: 30%;'> </img> <p><strong>你是否选择发射武器？</strong></p>","0",""
"","","","","","html-keyboard-response","52","140804","0.0-4.0-0.24","78","1","2022-11-13 09:52:12","a60ee176136a54a92dc2853177adfa2c","219.142.99.7","Mozilla/5.0 (Windows NT 10.0; Win64; x64) AppleWebKit/537.36 (KHTML, like Gecko) Chrome/98.0.4758.102 Safari/537.36","WebKit","Chrome","98.0.4758.102","Windows","10.0","null","<div style=""font-size:60px;"">+</div>","null",""
"","","","","","html-button-response","53","142333","0.0-4.0-1.24","78","1","2022-11-13 09:52:12","a60ee176136a54a92dc2853177adfa2c","219.142.99.7","Mozilla/5.0 (Windows NT 10.0; Win64; x64) AppleWebKit/537.36 (KHTML, like Gecko) Chrome/98.0.4758.102 Safari/537.36","WebKit","Chrome","98.0.4758.102","Windows","10.0","1521","<p>作为军队的指挥官，你可以选择发射导弹杀死 <strong>4名</strong> 敌国士兵，但会炸毁附近的 <strong>1棵</strong> 敌国树木。</p> <p>树木的照片如下图所示。</p> <p></p> <img src='stimuli/trees/12.png', style='max-width: 30%;'> </img> <p><strong>你是否选择发射武器？</strong></p>","0",""
"","","","","","html-keyboard-response","54","143344","0.0-4.0-0.25","78","1","2022-11-13 09:52:12","a60ee176136a54a92dc2853177adfa2c","219.142.99.7","Mozilla/5.0 (Windows NT 10.0; Win64; x64) AppleWebKit/537.36 (KHTML, like Gecko) Chrome/98.0.4758.102 Safari/537.36","WebKit","Chrome","98.0.4758.102","Windows","10.0","null","<div style=""font-size:60px;"">+</div>","null",""
"","","","","","html-button-response","55","145007","0.0-4.0-1.25","78","1","2022-11-13 09:52:12","a60ee176136a54a92dc2853177adfa2c","219.142.99.7","Mozilla/5.0 (Windows NT 10.0; Win64; x64) AppleWebKit/537.36 (KHTML, like Gecko) Chrome/98.0.4758.102 Safari/537.36","WebKit","Chrome","98.0.4758.102","Windows","10.0","1656","<p>作为军队的指挥官，你可以选择发射导弹杀死 <strong>1名</strong> 敌国士兵，但会误杀附近的 <strong>1名</strong> 敌国平民。</p> <p>平民照片如下图所示。</p> <p></p> <img src='stimuli/faces/PCM4.jpg', style='max-width: 30%;'> </img> <p><strong>你是否选择发射武器？</strong></p>","1",""
"","","","","","html-keyboard-response","56","146012","0.0-4.0-0.26","78","1","2022-11-13 09:52:12","a60ee176136a54a92dc2853177adfa2c","219.142.99.7","Mozilla/5.0 (Windows NT 10.0; Win64; x64) AppleWebKit/537.36 (KHTML, like Gecko) Chrome/98.0.4758.102 Safari/537.36","WebKit","Chrome","98.0.4758.102","Windows","10.0","null","<div style=""font-size:60px;"">+</div>","null",""
"","","","","","html-button-response","57","147156","0.0-4.0-1.26","78","1","2022-11-13 09:52:12","a60ee176136a54a92dc2853177adfa2c","219.142.99.7","Mozilla/5.0 (Windows NT 10.0; Win64; x64) AppleWebKit/537.36 (KHTML, like Gecko) Chrome/98.0.4758.102 Safari/537.36","WebKit","Chrome","98.0.4758.102","Windows","10.0","1139","<p>作为军队的指挥官，你可以选择发射导弹杀死 <strong>3名</strong> 敌国士兵，但会炸毁附近的 <strong>1棵</strong> 敌国树木。</p> <p>树木的照片如下图所示。</p> <p></p> <img src='stimuli/trees/14.png', style='max-width: 30%;'> </img> <p><strong>你是否选择发射武器？</strong></p>","0",""
"","","","","","html-keyboard-response","58","148162","0.0-4.0-0.27","78","1","2022-11-13 09:52:12","a60ee176136a54a92dc2853177adfa2c","219.142.99.7","Mozilla/5.0 (Windows NT 10.0; Win64; x64) AppleWebKit/537.36 (KHTML, like Gecko) Chrome/98.0.4758.102 Safari/537.36","WebKit","Chrome","98.0.4758.102","Windows","10.0","null","<div style=""font-size:60px;"">+</div>","null",""
"","","","","","html-button-response","59","150369","0.0-4.0-1.27","78","1","2022-11-13 09:52:12","a60ee176136a54a92dc2853177adfa2c","219.142.99.7","Mozilla/5.0 (Windows NT 10.0; Win64; x64) AppleWebKit/537.36 (KHTML, like Gecko) Chrome/98.0.4758.102 Safari/537.36","WebKit","Chrome","98.0.4758.102","Windows","10.0","2193","<p>作为军队的指挥官，你可以选择发射导弹杀死 <strong>1名</strong> 敌国士兵，但会误杀附近的 <strong>1名</strong> 敌国平民。</p> <p>平民照片如下图所示。</p> <p></p> <img src='stimuli/faces/PCF2.jpg', style='max-width: 30%;'> </img> <p><strong>你是否选择发射武器？</strong></p>","1",""
"","","","","","html-keyboard-response","60","151378","0.0-4.0-0.28","78","1","2022-11-13 09:52:12","a60ee176136a54a92dc2853177adfa2c","219.142.99.7","Mozilla/5.0 (Windows NT 10.0; Win64; x64) AppleWebKit/537.36 (KHTML, like Gecko) Chrome/98.0.4758.102 Safari/537.36","WebKit","Chrome","98.0.4758.102","Windows","10.0","null","<div style=""font-size:60px;"">+</div>","null",""
"","","","","","html-button-response","61","152967","0.0-4.0-1.28","78","1","2022-11-13 09:52:12","a60ee176136a54a92dc2853177adfa2c","219.142.99.7","Mozilla/5.0 (Windows NT 10.0; Win64; x64) AppleWebKit/537.36 (KHTML, like Gecko) Chrome/98.0.4758.102 Safari/537.36","WebKit","Chrome","98.0.4758.102","Windows","10.0","1579","<p>作为军队的指挥官，你可以选择发射导弹杀死 <strong>2名</strong> 敌国士兵，但会误杀附近的 <strong>1名</strong> 敌国平民。</p> <p>平民照片如下图所示。</p> <p></p> <img src='stimuli/faces/PCF6.jpg', style='max-width: 30%;'> </img> <p><strong>你是否选择发射武器？</strong></p>","1",""
"","","","","","html-keyboard-response","62","153974","0.0-4.0-0.29","78","1","2022-11-13 09:52:12","a60ee176136a54a92dc2853177adfa2c","219.142.99.7","Mozilla/5.0 (Windows NT 10.0; Win64; x64) AppleWebKit/537.36 (KHTML, like Gecko) Chrome/98.0.4758.102 Safari/537.36","WebKit","Chrome","98.0.4758.102","Windows","10.0","null","<div style=""font-size:60px;"">+</div>","null",""
"","","","","","html-button-response","63","155063","0.0-4.0-1.29","78","1","2022-11-13 09:52:12","a60ee176136a54a92dc2853177adfa2c","219.142.99.7","Mozilla/5.0 (Windows NT 10.0; Win64; x64) AppleWebKit/537.36 (KHTML, like Gecko) Chrome/98.0.4758.102 Safari/537.36","WebKit","Chrome","98.0.4758.102","Windows","10.0","1084","<p>作为军队的指挥官，你可以选择发射导弹杀死 <strong>7名</strong> 敌国士兵，但会炸毁附近的 <strong>1棵</strong> 敌国树木。</p> <p>树木的照片如下图所示。</p> <p></p> <img src='stimuli/trees/8.png', style='max-width: 30%;'> </img> <p><strong>你是否选择发射武器？</strong></p>","0",""
"","","","","","html-keyboard-response","64","156068","0.0-4.0-0.30","78","1","2022-11-13 09:52:12","a60ee176136a54a92dc2853177adfa2c","219.142.99.7","Mozilla/5.0 (Windows NT 10.0; Win64; x64) AppleWebKit/537.36 (KHTML, like Gecko) Chrome/98.0.4758.102 Safari/537.36","WebKit","Chrome","98.0.4758.102","Windows","10.0","null","<div style=""font-size:60px;"">+</div>","null",""
"","","","","","html-button-response","65","157349","0.0-4.0-1.30","78","1","2022-11-13 09:52:12","a60ee176136a54a92dc2853177adfa2c","219.142.99.7","Mozilla/5.0 (Windows NT 10.0; Win64; x64) AppleWebKit/537.36 (KHTML, like Gecko) Chrome/98.0.4758.102 Safari/537.36","WebKit","Chrome","98.0.4758.102","Windows","10.0","1277","<p>作为军队的指挥官，你可以选择发射导弹杀死 <strong>10名</strong> 敌国士兵，但会误杀附近的 <strong>1名</strong> 敌国平民。</p> <p>平民照片如下图所示。</p> <p></p> <img src='stimuli/faces/PCM6.jpg', style='max-width: 30%;'> </img> <p><strong>你是否选择发射武器？</strong></p>","0",""
"","","","","","html-keyboard-response","66","158356","0.0-4.0-0.31","78","1","2022-11-13 09:52:12","a60ee176136a54a92dc2853177adfa2c","219.142.99.7","Mozilla/5.0 (Windows NT 10.0; Win64; x64) AppleWebKit/537.36 (KHTML, like Gecko) Chrome/98.0.4758.102 Safari/537.36","WebKit","Chrome","98.0.4758.102","Windows","10.0","null","<div style=""font-size:60px;"">+</div>","null",""
"","","","","","html-button-response","67","160365","0.0-4.0-1.31","78","1","2022-11-13 09:52:12","a60ee176136a54a92dc2853177adfa2c","219.142.99.7","Mozilla/5.0 (Windows NT 10.0; Win64; x64) AppleWebKit/537.36 (KHTML, like Gecko) Chrome/98.0.4758.102 Safari/537.36","WebKit","Chrome","98.0.4758.102","Windows","10.0","2002","<p>作为军队的指挥官，你可以选择发射导弹杀死 <strong>2名</strong> 敌国士兵，但会炸毁附近的 <strong>1棵</strong> 敌国树木。</p> <p>树木的照片如下图所示。</p> <p></p> <img src='stimuli/trees/10.png', style='max-width: 30%;'> </img> <p><strong>你是否选择发射武器？</strong></p>","1",""
"","","","","","html-keyboard-response","68","161372","0.0-4.0-0.32","78","1","2022-11-13 09:52:12","a60ee176136a54a92dc2853177adfa2c","219.142.99.7","Mozilla/5.0 (Windows NT 10.0; Win64; x64) AppleWebKit/537.36 (KHTML, like Gecko) Chrome/98.0.4758.102 Safari/537.36","WebKit","Chrome","98.0.4758.102","Windows","10.0","null","<div style=""font-size:60px;"">+</div>","null",""
"","","","","","html-button-response","69","162620","0.0-4.0-1.32","78","1","2022-11-13 09:52:12","a60ee176136a54a92dc2853177adfa2c","219.142.99.7","Mozilla/5.0 (Windows NT 10.0; Win64; x64) AppleWebKit/537.36 (KHTML, like Gecko) Chrome/98.0.4758.102 Safari/537.36","WebKit","Chrome","98.0.4758.102","Windows","10.0","1243","<p>作为军队的指挥官，你可以选择发射导弹杀死 <strong>10名</strong> 敌国士兵，但会炸毁附近的 <strong>1棵</strong> 敌国树木。</p> <p>树木的照片如下图所示。</p> <p></p> <img src='stimuli/trees/4.png', style='max-width: 30%;'> </img> <p><strong>你是否选择发射武器？</strong></p>","0",""
"","","","","","html-keyboard-response","70","163635","0.0-4.0-0.33","78","1","2022-11-13 09:52:12","a60ee176136a54a92dc2853177adfa2c","219.142.99.7","Mozilla/5.0 (Windows NT 10.0; Win64; x64) AppleWebKit/537.36 (KHTML, like Gecko) Chrome/98.0.4758.102 Safari/537.36","WebKit","Chrome","98.0.4758.102","Windows","10.0","null","<div style=""font-size:60px;"">+</div>","null",""
"","","","","","html-button-response","71","164785","0.0-4.0-1.33","78","1","2022-11-13 09:52:12","a60ee176136a54a92dc2853177adfa2c","219.142.99.7","Mozilla/5.0 (Windows NT 10.0; Win64; x64) AppleWebKit/537.36 (KHTML, like Gecko) Chrome/98.0.4758.102 Safari/537.36","WebKit","Chrome","98.0.4758.102","Windows","10.0","1140","<p>作为军队的指挥官，你可以选择发射导弹杀死 <strong>10名</strong> 敌国士兵，但会误杀附近的 <strong>1名</strong> 敌国平民。</p> <p>平民照片如下图所示。</p> <p></p> <img src='stimuli/faces/PCM5.jpg', style='max-width: 30%;'> </img> <p><strong>你是否选择发射武器？</strong></p>","0",""
"","","","","","html-keyboard-response","72","165791","0.0-4.0-0.34","78","1","2022-11-13 09:52:12","a60ee176136a54a92dc2853177adfa2c","219.142.99.7","Mozilla/5.0 (Windows NT 10.0; Win64; x64) AppleWebKit/537.36 (KHTML, like Gecko) Chrome/98.0.4758.102 Safari/537.36","WebKit","Chrome","98.0.4758.102","Windows","10.0","null","<div style=""font-size:60px;"">+</div>","null",""
"","","","","","html-button-response","73","168309","0.0-4.0-1.34","78","1","2022-11-13 09:52:12","a60ee176136a54a92dc2853177adfa2c","219.142.99.7","Mozilla/5.0 (Windows NT 10.0; Win64; x64) AppleWebKit/537.36 (KHTML, like Gecko) Chrome/98.0.4758.102 Safari/537.36","WebKit","Chrome","98.0.4758.102","Windows","10.0","2509","<p>作为军队的指挥官，你可以选择发射导弹杀死 <strong>3名</strong> 敌国士兵，但会炸毁附近的 <strong>1棵</strong> 敌国树木。</p> <p>树木的照片如下图所示。</p> <p></p> <img src='stimuli/trees/5.png', style='max-width: 30%;'> </img> <p><strong>你是否选择发射武器？</strong></p>","0",""
"","","","","","html-keyboard-response","74","169318","0.0-4.0-0.35","78","1","2022-11-13 09:52:12","a60ee176136a54a92dc2853177adfa2c","219.142.99.7","Mozilla/5.0 (Windows NT 10.0; Win64; x64) AppleWebKit/537.36 (KHTML, like Gecko) Chrome/98.0.4758.102 Safari/537.36","WebKit","Chrome","98.0.4758.102","Windows","10.0","null","<div style=""font-size:60px;"">+</div>","null",""
"","","","","","html-button-response","75","171209","0.0-4.0-1.35","78","1","2022-11-13 09:52:12","a60ee176136a54a92dc2853177adfa2c","219.142.99.7","Mozilla/5.0 (Windows NT 10.0; Win64; x64) AppleWebKit/537.36 (KHTML, like Gecko) Chrome/98.0.4758.102 Safari/537.36","WebKit","Chrome","98.0.4758.102","Windows","10.0","1882","<p>作为军队的指挥官，你可以选择发射导弹杀死 <strong>6名</strong> 敌国士兵，但会炸毁附近的 <strong>1棵</strong> 敌国树木。</p> <p>树木的照片如下图所示。</p> <p></p> <img src='stimuli/trees/12.png', style='max-width: 30%;'> </img> <p><strong>你是否选择发射武器？</strong></p>","0",""
"","","","","","html-keyboard-response","76","172218","0.0-4.0-0.36","78","1","2022-11-13 09:52:12","a60ee176136a54a92dc2853177adfa2c","219.142.99.7","Mozilla/5.0 (Windows NT 10.0; Win64; x64) AppleWebKit/537.36 (KHTML, like Gecko) Chrome/98.0.4758.102 Safari/537.36","WebKit","Chrome","98.0.4758.102","Windows","10.0","null","<div style=""font-size:60px;"">+</div>","null",""
"","","","","","html-button-response","77","173853","0.0-4.0-1.36","78","1","2022-11-13 09:52:12","a60ee176136a54a92dc2853177adfa2c","219.142.99.7","Mozilla/5.0 (Windows NT 10.0; Win64; x64) AppleWebKit/537.36 (KHTML, like Gecko) Chrome/98.0.4758.102 Safari/537.36","WebKit","Chrome","98.0.4758.102","Windows","10.0","1629","<p>作为军队的指挥官，你可以选择发射导弹杀死 <strong>4名</strong> 敌国士兵，但会误杀附近的 <strong>1名</strong> 敌国平民。</p> <p>平民照片如下图所示。</p> <p></p> <img src='stimuli/faces/PCM1.jpg', style='max-width: 30%;'> </img> <p><strong>你是否选择发射武器？</strong></p>","0",""
"","","","","","html-keyboard-response","78","174865","0.0-4.0-0.37","78","1","2022-11-13 09:52:12","a60ee176136a54a92dc2853177adfa2c","219.142.99.7","Mozilla/5.0 (Windows NT 10.0; Win64; x64) AppleWebKit/537.36 (KHTML, like Gecko) Chrome/98.0.4758.102 Safari/537.36","WebKit","Chrome","98.0.4758.102","Windows","10.0","null","<div style=""font-size:60px;"">+</div>","null",""
"","","","","","html-button-response","79","177454","0.0-4.0-1.37","78","1","2022-11-13 09:52:12","a60ee176136a54a92dc2853177adfa2c","219.142.99.7","Mozilla/5.0 (Windows NT 10.0; Win64; x64) AppleWebKit/537.36 (KHTML, like Gecko) Chrome/98.0.4758.102 Safari/537.36","WebKit","Chrome","98.0.4758.102","Windows","10.0","2584","<p>作为军队的指挥官，你可以选择发射导弹杀死 <strong>6名</strong> 敌国士兵，但会炸毁附近的 <strong>1棵</strong> 敌国树木。</p> <p>树木的照片如下图所示。</p> <p></p> <img src='stimuli/trees/13.png', style='max-width: 30%;'> </img> <p><strong>你是否选择发射武器？</strong></p>","0",""
"","","","","","html-keyboard-response","80","178465","0.0-4.0-0.38","78","1","2022-11-13 09:52:12","a60ee176136a54a92dc2853177adfa2c","219.142.99.7","Mozilla/5.0 (Windows NT 10.0; Win64; x64) AppleWebKit/537.36 (KHTML, like Gecko) Chrome/98.0.4758.102 Safari/537.36","WebKit","Chrome","98.0.4758.102","Windows","10.0","null","<div style=""font-size:60px;"">+</div>","null",""
"","","","","","html-button-response","81","179349","0.0-4.0-1.38","78","1","2022-11-13 09:52:12","a60ee176136a54a92dc2853177adfa2c","219.142.99.7","Mozilla/5.0 (Windows NT 10.0; Win64; x64) AppleWebKit/537.36 (KHTML, like Gecko) Chrome/98.0.4758.102 Safari/537.36","WebKit","Chrome","98.0.4758.102","Windows","10.0","879","<p>作为军队的指挥官，你可以选择发射导弹杀死 <strong>5名</strong> 敌国士兵，但会误杀附近的 <strong>1名</strong> 敌国平民。</p> <p>平民照片如下图所示。</p> <p></p> <img src='stimuli/faces/PCM5.jpg', style='max-width: 30%;'> </img> <p><strong>你是否选择发射武器？</strong></p>","0",""
"","","","","","html-keyboard-response","82","180369","0.0-4.0-0.39","78","1","2022-11-13 09:52:12","a60ee176136a54a92dc2853177adfa2c","219.142.99.7","Mozilla/5.0 (Windows NT 10.0; Win64; x64) AppleWebKit/537.36 (KHTML, like Gecko) Chrome/98.0.4758.102 Safari/537.36","WebKit","Chrome","98.0.4758.102","Windows","10.0","null","<div style=""font-size:60px;"">+</div>","null",""
"","","","","","html-button-response","83","181078","0.0-4.0-1.39","78","1","2022-11-13 09:52:12","a60ee176136a54a92dc2853177adfa2c","219.142.99.7","Mozilla/5.0 (Windows NT 10.0; Win64; x64) AppleWebKit/537.36 (KHTML, like Gecko) Chrome/98.0.4758.102 Safari/537.36","WebKit","Chrome","98.0.4758.102","Windows","10.0","703","<p>作为军队的指挥官，你可以选择发射导弹杀死 <strong>8名</strong> 敌国士兵，但会炸毁附近的 <strong>1棵</strong> 敌国树木。</p> <p>树木的照片如下图所示。</p> <p></p> <img src='stimuli/trees/10.png', style='max-width: 30%;'> </img> <p><strong>你是否选择发射武器？</strong></p>","0",""
"","","","","","html-keyboard-response","84","182087","0.0-4.0-0.40","78","1","2022-11-13 09:52:12","a60ee176136a54a92dc2853177adfa2c","219.142.99.7","Mozilla/5.0 (Windows NT 10.0; Win64; x64) AppleWebKit/537.36 (KHTML, like Gecko) Chrome/98.0.4758.102 Safari/537.36","WebKit","Chrome","98.0.4758.102","Windows","10.0","null","<div style=""font-size:60px;"">+</div>","null",""
"","","","","","html-button-response","85","183475","0.0-4.0-1.40","78","1","2022-11-13 09:52:12","a60ee176136a54a92dc2853177adfa2c","219.142.99.7","Mozilla/5.0 (Windows NT 10.0; Win64; x64) AppleWebKit/537.36 (KHTML, like Gecko) Chrome/98.0.4758.102 Safari/537.36","WebKit","Chrome","98.0.4758.102","Windows","10.0","1378","<p>作为军队的指挥官，你可以选择发射导弹杀死 <strong>2名</strong> 敌国士兵，但会误杀附近的 <strong>1名</strong> 敌国平民。</p> <p>平民照片如下图所示。</p> <p></p> <img src='stimuli/faces/PCF4.jpg', style='max-width: 30%;'> </img> <p><strong>你是否选择发射武器？</strong></p>","0",""
"","","","","","html-keyboard-response","86","184486","0.0-4.0-0.41","78","1","2022-11-13 09:52:12","a60ee176136a54a92dc2853177adfa2c","219.142.99.7","Mozilla/5.0 (Windows NT 10.0; Win64; x64) AppleWebKit/537.36 (KHTML, like Gecko) Chrome/98.0.4758.102 Safari/537.36","WebKit","Chrome","98.0.4758.102","Windows","10.0","null","<div style=""font-size:60px;"">+</div>","null",""
"","","","","","html-button-response","87","185837","0.0-4.0-1.41","78","1","2022-11-13 09:52:12","a60ee176136a54a92dc2853177adfa2c","219.142.99.7","Mozilla/5.0 (Windows NT 10.0; Win64; x64) AppleWebKit/537.36 (KHTML, like Gecko) Chrome/98.0.4758.102 Safari/537.36","WebKit","Chrome","98.0.4758.102","Windows","10.0","1347","<p>作为军队的指挥官，你可以选择发射导弹杀死 <strong>1名</strong> 敌国士兵，但会炸毁附近的 <strong>1棵</strong> 敌国树木。</p> <p>树木的照片如下图所示。</p> <p></p> <img src='stimuli/trees/13.png', style='max-width: 30%;'> </img> <p><strong>你是否选择发射武器？</strong></p>","0",""
"","","","","","html-keyboard-response","88","186853","0.0-4.0-0.42","78","1","2022-11-13 09:52:12","a60ee176136a54a92dc2853177adfa2c","219.142.99.7","Mozilla/5.0 (Windows NT 10.0; Win64; x64) AppleWebKit/537.36 (KHTML, like Gecko) Chrome/98.0.4758.102 Safari/537.36","WebKit","Chrome","98.0.4758.102","Windows","10.0","null","<div style=""font-size:60px;"">+</div>","null",""
"","","","","","html-button-response","89","187820","0.0-4.0-1.42","78","1","2022-11-13 09:52:12","a60ee176136a54a92dc2853177adfa2c","219.142.99.7","Mozilla/5.0 (Windows NT 10.0; Win64; x64) AppleWebKit/537.36 (KHTML, like Gecko) Chrome/98.0.4758.102 Safari/537.36","WebKit","Chrome","98.0.4758.102","Windows","10.0","957","<p>作为军队的指挥官，你可以选择发射导弹杀死 <strong>7名</strong> 敌国士兵，但会误杀附近的 <strong>1名</strong> 敌国平民。</p> <p>平民照片如下图所示。</p> <p></p> <img src='stimuli/faces/PCF3.jpg', style='max-width: 30%;'> </img> <p><strong>你是否选择发射武器？</strong></p>","0",""
"","","","","","html-keyboard-response","90","188834","0.0-4.0-0.43","78","1","2022-11-13 09:52:12","a60ee176136a54a92dc2853177adfa2c","219.142.99.7","Mozilla/5.0 (Windows NT 10.0; Win64; x64) AppleWebKit/537.36 (KHTML, like Gecko) Chrome/98.0.4758.102 Safari/537.36","WebKit","Chrome","98.0.4758.102","Windows","10.0","null","<div style=""font-size:60px;"">+</div>","null",""
"","","","","","html-button-response","91","190279","0.0-4.0-1.43","78","1","2022-11-13 09:52:12","a60ee176136a54a92dc2853177adfa2c","219.142.99.7","Mozilla/5.0 (Windows NT 10.0; Win64; x64) AppleWebKit/537.36 (KHTML, like Gecko) Chrome/98.0.4758.102 Safari/537.36","WebKit","Chrome","98.0.4758.102","Windows","10.0","1439","<p>作为军队的指挥官，你可以选择发射导弹杀死 <strong>1名</strong> 敌国士兵，但会炸毁附近的 <strong>1棵</strong> 敌国树木。</p> <p>树木的照片如下图所示。</p> <p></p> <img src='stimuli/trees/4.png', style='max-width: 30%;'> </img> <p><strong>你是否选择发射武器？</strong></p>","1",""
"","","","","","html-keyboard-response","92","191297","0.0-4.0-0.44","78","1","2022-11-13 09:52:12","a60ee176136a54a92dc2853177adfa2c","219.142.99.7","Mozilla/5.0 (Windows NT 10.0; Win64; x64) AppleWebKit/537.36 (KHTML, like Gecko) Chrome/98.0.4758.102 Safari/537.36","WebKit","Chrome","98.0.4758.102","Windows","10.0","null","<div style=""font-size:60px;"">+</div>","null",""
"","","","","","html-button-response","93","192263","0.0-4.0-1.44","78","1","2022-11-13 09:52:12","a60ee176136a54a92dc2853177adfa2c","219.142.99.7","Mozilla/5.0 (Windows NT 10.0; Win64; x64) AppleWebKit/537.36 (KHTML, like Gecko) Chrome/98.0.4758.102 Safari/537.36","WebKit","Chrome","98.0.4758.102","Windows","10.0","954","<p>作为军队的指挥官，你可以选择发射导弹杀死 <strong>4名</strong> 敌国士兵，但会炸毁附近的 <strong>1棵</strong> 敌国树木。</p> <p>树木的照片如下图所示。</p> <p></p> <img src='stimuli/trees/6.png', style='max-width: 30%;'> </img> <p><strong>你是否选择发射武器？</strong></p>","0",""
"","","","","","html-keyboard-response","94","193277","0.0-4.0-0.45","78","1","2022-11-13 09:52:12","a60ee176136a54a92dc2853177adfa2c","219.142.99.7","Mozilla/5.0 (Windows NT 10.0; Win64; x64) AppleWebKit/537.36 (KHTML, like Gecko) Chrome/98.0.4758.102 Safari/537.36","WebKit","Chrome","98.0.4758.102","Windows","10.0","null","<div style=""font-size:60px;"">+</div>","null",""
"","","","","","html-button-response","95","194306","0.0-4.0-1.45","78","1","2022-11-13 09:52:12","a60ee176136a54a92dc2853177adfa2c","219.142.99.7","Mozilla/5.0 (Windows NT 10.0; Win64; x64) AppleWebKit/537.36 (KHTML, like Gecko) Chrome/98.0.4758.102 Safari/537.36","WebKit","Chrome","98.0.4758.102","Windows","10.0","1023","<p>作为军队的指挥官，你可以选择发射导弹杀死 <strong>10名</strong> 敌国士兵，但会误杀附近的 <strong>1名</strong> 敌国平民。</p> <p>平民照片如下图所示。</p> <p></p> <img src='stimuli/faces/PCF7.jpg', style='max-width: 30%;'> </img> <p><strong>你是否选择发射武器？</strong></p>","0",""
"","","","","","html-keyboard-response","96","195322","0.0-4.0-0.46","78","1","2022-11-13 09:52:12","a60ee176136a54a92dc2853177adfa2c","219.142.99.7","Mozilla/5.0 (Windows NT 10.0; Win64; x64) AppleWebKit/537.36 (KHTML, like Gecko) Chrome/98.0.4758.102 Safari/537.36","WebKit","Chrome","98.0.4758.102","Windows","10.0","null","<div style=""font-size:60px;"">+</div>","null",""
"","","","","","html-button-response","97","195985","0.0-4.0-1.46","78","1","2022-11-13 09:52:12","a60ee176136a54a92dc2853177adfa2c","219.142.99.7","Mozilla/5.0 (Windows NT 10.0; Win64; x64) AppleWebKit/537.36 (KHTML, like Gecko) Chrome/98.0.4758.102 Safari/537.36","WebKit","Chrome","98.0.4758.102","Windows","10.0","652","<p>作为军队的指挥官，你可以选择发射导弹杀死 <strong>7名</strong> 敌国士兵，但会误杀附近的 <strong>1名</strong> 敌国平民。</p> <p>平民照片如下图所示。</p> <p></p> <img src='stimuli/faces/PCM4.jpg', style='max-width: 30%;'> </img> <p><strong>你是否选择发射武器？</strong></p>","0",""
"","","","","","html-keyboard-response","98","197001","0.0-4.0-0.47","78","1","2022-11-13 09:52:12","a60ee176136a54a92dc2853177adfa2c","219.142.99.7","Mozilla/5.0 (Windows NT 10.0; Win64; x64) AppleWebKit/537.36 (KHTML, like Gecko) Chrome/98.0.4758.102 Safari/537.36","WebKit","Chrome","98.0.4758.102","Windows","10.0","null","<div style=""font-size:60px;"">+</div>","null",""
"","","","","","html-button-response","99","197835","0.0-4.0-1.47","78","1","2022-11-13 09:52:12","a60ee176136a54a92dc2853177adfa2c","219.142.99.7","Mozilla/5.0 (Windows NT 10.0; Win64; x64) AppleWebKit/537.36 (KHTML, like Gecko) Chrome/98.0.4758.102 Safari/537.36","WebKit","Chrome","98.0.4758.102","Windows","10.0","829","<p>作为军队的指挥官，你可以选择发射导弹杀死 <strong>9名</strong> 敌国士兵，但会炸毁附近的 <strong>1棵</strong> 敌国树木。</p> <p>树木的照片如下图所示。</p> <p></p> <img src='stimuli/trees/11.png', style='max-width: 30%;'> </img> <p><strong>你是否选择发射武器？</strong></p>","0",""
"","","","","","html-keyboard-response","100","198856","0.0-4.0-0.48","78","1","2022-11-13 09:52:12","a60ee176136a54a92dc2853177adfa2c","219.142.99.7","Mozilla/5.0 (Windows NT 10.0; Win64; x64) AppleWebKit/537.36 (KHTML, like Gecko) Chrome/98.0.4758.102 Safari/537.36","WebKit","Chrome","98.0.4758.102","Windows","10.0","null","<div style=""font-size:60px;"">+</div>","null",""
"","","","","","html-button-response","101","200266","0.0-4.0-1.48","78","1","2022-11-13 09:52:12","a60ee176136a54a92dc2853177adfa2c","219.142.99.7","Mozilla/5.0 (Windows NT 10.0; Win64; x64) AppleWebKit/537.36 (KHTML, like Gecko) Chrome/98.0.4758.102 Safari/537.36","WebKit","Chrome","98.0.4758.102","Windows","10.0","1398","<p>作为军队的指挥官，你可以选择发射导弹杀死 <strong>1名</strong> 敌国士兵，但会误杀附近的 <strong>1名</strong> 敌国平民。</p> <p>平民照片如下图所示。</p> <p></p> <img src='stimuli/faces/PCF7.jpg', style='max-width: 30%;'> </img> <p><strong>你是否选择发射武器？</strong></p>","1",""
"","","","","","html-keyboard-response","102","201286","0.0-4.0-0.49","78","1","2022-11-13 09:52:12","a60ee176136a54a92dc2853177adfa2c","219.142.99.7","Mozilla/5.0 (Windows NT 10.0; Win64; x64) AppleWebKit/537.36 (KHTML, like Gecko) Chrome/98.0.4758.102 Safari/537.36","WebKit","Chrome","98.0.4758.102","Windows","10.0","null","<div style=""font-size:60px;"">+</div>","null",""
"","","","","","html-button-response","103","201959","0.0-4.0-1.49","78","1","2022-11-13 09:52:12","a60ee176136a54a92dc2853177adfa2c","219.142.99.7","Mozilla/5.0 (Windows NT 10.0; Win64; x64) AppleWebKit/537.36 (KHTML, like Gecko) Chrome/98.0.4758.102 Safari/537.36","WebKit","Chrome","98.0.4758.102","Windows","10.0","662","<p>作为军队的指挥官，你可以选择发射导弹杀死 <strong>3名</strong> 敌国士兵，但会炸毁附近的 <strong>1棵</strong> 敌国树木。</p> <p>树木的照片如下图所示。</p> <p></p> <img src='stimuli/trees/16.png', style='max-width: 30%;'> </img> <p><strong>你是否选择发射武器？</strong></p>","0",""
"","","","","","html-keyboard-response","104","202972","0.0-4.0-0.50","78","1","2022-11-13 09:52:12","a60ee176136a54a92dc2853177adfa2c","219.142.99.7","Mozilla/5.0 (Windows NT 10.0; Win64; x64) AppleWebKit/537.36 (KHTML, like Gecko) Chrome/98.0.4758.102 Safari/537.36","WebKit","Chrome","98.0.4758.102","Windows","10.0","null","<div style=""font-size:60px;"">+</div>","null",""
"","","","","","html-button-response","105","203723","0.0-4.0-1.50","78","1","2022-11-13 09:52:12","a60ee176136a54a92dc2853177adfa2c","219.142.99.7","Mozilla/5.0 (Windows NT 10.0; Win64; x64) AppleWebKit/537.36 (KHTML, like Gecko) Chrome/98.0.4758.102 Safari/537.36","WebKit","Chrome","98.0.4758.102","Windows","10.0","737","<p>作为军队的指挥官，你可以选择发射导弹杀死 <strong>6名</strong> 敌国士兵，但会误杀附近的 <strong>1名</strong> 敌国平民。</p> <p>平民照片如下图所示。</p> <p></p> <img src='stimuli/faces/PCF8.jpg', style='max-width: 30%;'> </img> <p><strong>你是否选择发射武器？</strong></p>","0",""
"","","","","","html-keyboard-response","106","204734","0.0-4.0-0.51","78","1","2022-11-13 09:52:12","a60ee176136a54a92dc2853177adfa2c","219.142.99.7","Mozilla/5.0 (Windows NT 10.0; Win64; x64) AppleWebKit/537.36 (KHTML, like Gecko) Chrome/98.0.4758.102 Safari/537.36","WebKit","Chrome","98.0.4758.102","Windows","10.0","null","<div style=""font-size:60px;"">+</div>","null",""
"","","","","","html-button-response","107","205475","0.0-4.0-1.51","78","1","2022-11-13 09:52:12","a60ee176136a54a92dc2853177adfa2c","219.142.99.7","Mozilla/5.0 (Windows NT 10.0; Win64; x64) AppleWebKit/537.36 (KHTML, like Gecko) Chrome/98.0.4758.102 Safari/537.36","WebKit","Chrome","98.0.4758.102","Windows","10.0","727","<p>作为军队的指挥官，你可以选择发射导弹杀死 <strong>10名</strong> 敌国士兵，但会炸毁附近的 <strong>1棵</strong> 敌国树木。</p> <p>树木的照片如下图所示。</p> <p></p> <img src='stimuli/trees/14.png', style='max-width: 30%;'> </img> <p><strong>你是否选择发射武器？</strong></p>","0",""
"","","","","","html-keyboard-response","108","206494","0.0-4.0-0.52","78","1","2022-11-13 09:52:12","a60ee176136a54a92dc2853177adfa2c","219.142.99.7","Mozilla/5.0 (Windows NT 10.0; Win64; x64) AppleWebKit/537.36 (KHTML, like Gecko) Chrome/98.0.4758.102 Safari/537.36","WebKit","Chrome","98.0.4758.102","Windows","10.0","null","<div style=""font-size:60px;"">+</div>","null",""
"","","","","","html-button-response","109","207876","0.0-4.0-1.52","78","1","2022-11-13 09:52:12","a60ee176136a54a92dc2853177adfa2c","219.142.99.7","Mozilla/5.0 (Windows NT 10.0; Win64; x64) AppleWebKit/537.36 (KHTML, like Gecko) Chrome/98.0.4758.102 Safari/537.36","WebKit","Chrome","98.0.4758.102","Windows","10.0","1372","<p>作为军队的指挥官，你可以选择发射导弹杀死 <strong>1名</strong> 敌国士兵，但会误杀附近的 <strong>1名</strong> 敌国平民。</p> <p>平民照片如下图所示。</p> <p></p> <img src='stimuli/faces/PCF8.jpg', style='max-width: 30%;'> </img> <p><strong>你是否选择发射武器？</strong></p>","1",""
"","","","","","html-keyboard-response","110","208885","0.0-4.0-0.53","78","1","2022-11-13 09:52:12","a60ee176136a54a92dc2853177adfa2c","219.142.99.7","Mozilla/5.0 (Windows NT 10.0; Win64; x64) AppleWebKit/537.36 (KHTML, like Gecko) Chrome/98.0.4758.102 Safari/537.36","WebKit","Chrome","98.0.4758.102","Windows","10.0","null","<div style=""font-size:60px;"">+</div>","null",""
"","","","","","html-button-response","111","209579","0.0-4.0-1.53","78","1","2022-11-13 09:52:12","a60ee176136a54a92dc2853177adfa2c","219.142.99.7","Mozilla/5.0 (Windows NT 10.0; Win64; x64) AppleWebKit/537.36 (KHTML, like Gecko) Chrome/98.0.4758.102 Safari/537.36","WebKit","Chrome","98.0.4758.102","Windows","10.0","683","<p>作为军队的指挥官，你可以选择发射导弹杀死 <strong>6名</strong> 敌国士兵，但会炸毁附近的 <strong>1棵</strong> 敌国树木。</p> <p>树木的照片如下图所示。</p> <p></p> <img src='stimuli/trees/1.png', style='max-width: 30%;'> </img> <p><strong>你是否选择发射武器？</strong></p>","0",""
"","","","","","html-keyboard-response","112","210585","0.0-4.0-0.54","78","1","2022-11-13 09:52:12","a60ee176136a54a92dc2853177adfa2c","219.142.99.7","Mozilla/5.0 (Windows NT 10.0; Win64; x64) AppleWebKit/537.36 (KHTML, like Gecko) Chrome/98.0.4758.102 Safari/537.36","WebKit","Chrome","98.0.4758.102","Windows","10.0","null","<div style=""font-size:60px;"">+</div>","null",""
"","","","","","html-button-response","113","211301","0.0-4.0-1.54","78","1","2022-11-13 09:52:12","a60ee176136a54a92dc2853177adfa2c","219.142.99.7","Mozilla/5.0 (Windows NT 10.0; Win64; x64) AppleWebKit/537.36 (KHTML, like Gecko) Chrome/98.0.4758.102 Safari/537.36","WebKit","Chrome","98.0.4758.102","Windows","10.0","704","<p>作为军队的指挥官，你可以选择发射导弹杀死 <strong>7名</strong> 敌国士兵，但会误杀附近的 <strong>1名</strong> 敌国平民。</p> <p>平民照片如下图所示。</p> <p></p> <img src='stimuli/faces/PCF6.jpg', style='max-width: 30%;'> </img> <p><strong>你是否选择发射武器？</strong></p>","0",""
"","","","","","html-keyboard-response","114","212310","0.0-4.0-0.55","78","1","2022-11-13 09:52:12","a60ee176136a54a92dc2853177adfa2c","219.142.99.7","Mozilla/5.0 (Windows NT 10.0; Win64; x64) AppleWebKit/537.36 (KHTML, like Gecko) Chrome/98.0.4758.102 Safari/537.36","WebKit","Chrome","98.0.4758.102","Windows","10.0","null","<div style=""font-size:60px;"">+</div>","null",""
"","","","","","html-button-response","115","213389","0.0-4.0-1.55","78","1","2022-11-13 09:52:12","a60ee176136a54a92dc2853177adfa2c","219.142.99.7","Mozilla/5.0 (Windows NT 10.0; Win64; x64) AppleWebKit/537.36 (KHTML, like Gecko) Chrome/98.0.4758.102 Safari/537.36","WebKit","Chrome","98.0.4758.102","Windows","10.0","1064","<p>作为军队的指挥官，你可以选择发射导弹杀死 <strong>7名</strong> 敌国士兵，但会误杀附近的 <strong>1名</strong> 敌国平民。</p> <p>平民照片如下图所示。</p> <p></p> <img src='stimuli/faces/PCM2.jpg', style='max-width: 30%;'> </img> <p><strong>你是否选择发射武器？</strong></p>","0",""
"","","","","","html-keyboard-response","116","214401","0.0-4.0-0.56","78","1","2022-11-13 09:52:12","a60ee176136a54a92dc2853177adfa2c","219.142.99.7","Mozilla/5.0 (Windows NT 10.0; Win64; x64) AppleWebKit/537.36 (KHTML, like Gecko) Chrome/98.0.4758.102 Safari/537.36","WebKit","Chrome","98.0.4758.102","Windows","10.0","null","<div style=""font-size:60px;"">+</div>","null",""
"","","","","","html-button-response","117","215162","0.0-4.0-1.56","78","1","2022-11-13 09:52:12","a60ee176136a54a92dc2853177adfa2c","219.142.99.7","Mozilla/5.0 (Windows NT 10.0; Win64; x64) AppleWebKit/537.36 (KHTML, like Gecko) Chrome/98.0.4758.102 Safari/537.36","WebKit","Chrome","98.0.4758.102","Windows","10.0","748","<p>作为军队的指挥官，你可以选择发射导弹杀死 <strong>6名</strong> 敌国士兵，但会误杀附近的 <strong>1名</strong> 敌国平民。</p> <p>平民照片如下图所示。</p> <p></p> <img src='stimuli/faces/PCF4.jpg', style='max-width: 30%;'> </img> <p><strong>你是否选择发射武器？</strong></p>","0",""
"","","","","","html-keyboard-response","118","216185","0.0-4.0-0.57","78","1","2022-11-13 09:52:12","a60ee176136a54a92dc2853177adfa2c","219.142.99.7","Mozilla/5.0 (Windows NT 10.0; Win64; x64) AppleWebKit/537.36 (KHTML, like Gecko) Chrome/98.0.4758.102 Safari/537.36","WebKit","Chrome","98.0.4758.102","Windows","10.0","null","<div style=""font-size:60px;"">+</div>","null",""
"","","","","","html-button-response","119","217232","0.0-4.0-1.57","78","1","2022-11-13 09:52:12","a60ee176136a54a92dc2853177adfa2c","219.142.99.7","Mozilla/5.0 (Windows NT 10.0; Win64; x64) AppleWebKit/537.36 (KHTML, like Gecko) Chrome/98.0.4758.102 Safari/537.36","WebKit","Chrome","98.0.4758.102","Windows","10.0","1037","<p>作为军队的指挥官，你可以选择发射导弹杀死 <strong>5名</strong> 敌国士兵，但会误杀附近的 <strong>1名</strong> 敌国平民。</p> <p>平民照片如下图所示。</p> <p></p> <img src='stimuli/faces/PCM2.jpg', style='max-width: 30%;'> </img> <p><strong>你是否选择发射武器？</strong></p>","0",""
"","","","","","html-keyboard-response","120","218244","0.0-4.0-0.58","78","1","2022-11-13 09:52:12","a60ee176136a54a92dc2853177adfa2c","219.142.99.7","Mozilla/5.0 (Windows NT 10.0; Win64; x64) AppleWebKit/537.36 (KHTML, like Gecko) Chrome/98.0.4758.102 Safari/537.36","WebKit","Chrome","98.0.4758.102","Windows","10.0","null","<div style=""font-size:60px;"">+</div>","null",""
"","","","","","html-button-response","121","219078","0.0-4.0-1.58","78","1","2022-11-13 09:52:12","a60ee176136a54a92dc2853177adfa2c","219.142.99.7","Mozilla/5.0 (Windows NT 10.0; Win64; x64) AppleWebKit/537.36 (KHTML, like Gecko) Chrome/98.0.4758.102 Safari/537.36","WebKit","Chrome","98.0.4758.102","Windows","10.0","822","<p>作为军队的指挥官，你可以选择发射导弹杀死 <strong>4名</strong> 敌国士兵，但会误杀附近的 <strong>1名</strong> 敌国平民。</p> <p>平民照片如下图所示。</p> <p></p> <img src='stimuli/faces/PCM8.jpg', style='max-width: 30%;'> </img> <p><strong>你是否选择发射武器？</strong></p>","0",""
"","","","","","html-keyboard-response","122","220096","0.0-4.0-0.59","78","1","2022-11-13 09:52:12","a60ee176136a54a92dc2853177adfa2c","219.142.99.7","Mozilla/5.0 (Windows NT 10.0; Win64; x64) AppleWebKit/537.36 (KHTML, like Gecko) Chrome/98.0.4758.102 Safari/537.36","WebKit","Chrome","98.0.4758.102","Windows","10.0","null","<div style=""font-size:60px;"">+</div>","null",""
"","","","","","html-button-response","123","221107","0.0-4.0-1.59","78","1","2022-11-13 09:52:12","a60ee176136a54a92dc2853177adfa2c","219.142.99.7","Mozilla/5.0 (Windows NT 10.0; Win64; x64) AppleWebKit/537.36 (KHTML, like Gecko) Chrome/98.0.4758.102 Safari/537.36","WebKit","Chrome","98.0.4758.102","Windows","10.0","1003","<p>作为军队的指挥官，你可以选择发射导弹杀死 <strong>8名</strong> 敌国士兵，但会炸毁附近的 <strong>1棵</strong> 敌国树木。</p> <p>树木的照片如下图所示。</p> <p></p> <img src='stimuli/trees/2.png', style='max-width: 30%;'> </img> <p><strong>你是否选择发射武器？</strong></p>","0",""
"","","","","","html-keyboard-response","124","222126","0.0-4.0-0.60","78","1","2022-11-13 09:52:12","a60ee176136a54a92dc2853177adfa2c","219.142.99.7","Mozilla/5.0 (Windows NT 10.0; Win64; x64) AppleWebKit/537.36 (KHTML, like Gecko) Chrome/98.0.4758.102 Safari/537.36","WebKit","Chrome","98.0.4758.102","Windows","10.0","null","<div style=""font-size:60px;"">+</div>","null",""
"","","","","","html-button-response","125","223496","0.0-4.0-1.60","78","1","2022-11-13 09:52:12","a60ee176136a54a92dc2853177adfa2c","219.142.99.7","Mozilla/5.0 (Windows NT 10.0; Win64; x64) AppleWebKit/537.36 (KHTML, like Gecko) Chrome/98.0.4758.102 Safari/537.36","WebKit","Chrome","98.0.4758.102","Windows","10.0","1359","<p>作为军队的指挥官，你可以选择发射导弹杀死 <strong>8名</strong> 敌国士兵，但会炸毁附近的 <strong>1棵</strong> 敌国树木。</p> <p>树木的照片如下图所示。</p> <p></p> <img src='stimuli/trees/15.png', style='max-width: 30%;'> </img> <p><strong>你是否选择发射武器？</strong></p>","0",""
"","","","","","html-keyboard-response","126","224513","0.0-4.0-0.61","78","1","2022-11-13 09:52:12","a60ee176136a54a92dc2853177adfa2c","219.142.99.7","Mozilla/5.0 (Windows NT 10.0; Win64; x64) AppleWebKit/537.36 (KHTML, like Gecko) Chrome/98.0.4758.102 Safari/537.36","WebKit","Chrome","98.0.4758.102","Windows","10.0","null","<div style=""font-size:60px;"">+</div>","null",""
"","","","","","html-button-response","127","225900","0.0-4.0-1.61","78","1","2022-11-13 09:52:12","a60ee176136a54a92dc2853177adfa2c","219.142.99.7","Mozilla/5.0 (Windows NT 10.0; Win64; x64) AppleWebKit/537.36 (KHTML, like Gecko) Chrome/98.0.4758.102 Safari/537.36","WebKit","Chrome","98.0.4758.102","Windows","10.0","1376","<p>作为军队的指挥官，你可以选择发射导弹杀死 <strong>7名</strong> 敌国士兵，但会炸毁附近的 <strong>1棵</strong> 敌国树木。</p> <p>树木的照片如下图所示。</p> <p></p> <img src='stimuli/trees/5.png', style='max-width: 30%;'> </img> <p><strong>你是否选择发射武器？</strong></p>","0",""
"","","","","","html-keyboard-response","128","226921","0.0-4.0-0.62","78","1","2022-11-13 09:52:12","a60ee176136a54a92dc2853177adfa2c","219.142.99.7","Mozilla/5.0 (Windows NT 10.0; Win64; x64) AppleWebKit/537.36 (KHTML, like Gecko) Chrome/98.0.4758.102 Safari/537.36","WebKit","Chrome","98.0.4758.102","Windows","10.0","null","<div style=""font-size:60px;"">+</div>","null",""
"","","","","","html-button-response","129","227684","0.0-4.0-1.62","78","1","2022-11-13 09:52:12","a60ee176136a54a92dc2853177adfa2c","219.142.99.7","Mozilla/5.0 (Windows NT 10.0; Win64; x64) AppleWebKit/537.36 (KHTML, like Gecko) Chrome/98.0.4758.102 Safari/537.36","WebKit","Chrome","98.0.4758.102","Windows","10.0","757","<p>作为军队的指挥官，你可以选择发射导弹杀死 <strong>6名</strong> 敌国士兵，但会误杀附近的 <strong>1名</strong> 敌国平民。</p> <p>平民照片如下图所示。</p> <p></p> <img src='stimuli/faces/PCM7.jpg', style='max-width: 30%;'> </img> <p><strong>你是否选择发射武器？</strong></p>","0",""
"","","","","","html-keyboard-response","130","228711","0.0-4.0-0.63","78","1","2022-11-13 09:52:12","a60ee176136a54a92dc2853177adfa2c","219.142.99.7","Mozilla/5.0 (Windows NT 10.0; Win64; x64) AppleWebKit/537.36 (KHTML, like Gecko) Chrome/98.0.4758.102 Safari/537.36","WebKit","Chrome","98.0.4758.102","Windows","10.0","null","<div style=""font-size:60px;"">+</div>","null",""
"","","","","","html-button-response","131","230573","0.0-4.0-1.63","78","1","2022-11-13 09:52:12","a60ee176136a54a92dc2853177adfa2c","219.142.99.7","Mozilla/5.0 (Windows NT 10.0; Win64; x64) AppleWebKit/537.36 (KHTML, like Gecko) Chrome/98.0.4758.102 Safari/537.36","WebKit","Chrome","98.0.4758.102","Windows","10.0","1851","<p>作为军队的指挥官，你可以选择发射导弹杀死 <strong>2名</strong> 敌国士兵，但会炸毁附近的 <strong>1棵</strong> 敌国树木。</p> <p>树木的照片如下图所示。</p> <p></p> <img src='stimuli/trees/15.png', style='max-width: 30%;'> </img> <p><strong>你是否选择发射武器？</strong></p>","1",""
"","","","","","survey-multi-choice","132","283661","0.0-5.0","78","1","2022-11-13 09:52:12","a60ee176136a54a92dc2853177adfa2c","219.142.99.7","Mozilla/5.0 (Windows NT 10.0; Win64; x64) AppleWebKit/537.36 (KHTML, like Gecko) Chrome/98.0.4758.102 Safari/537.36","WebKit","Chrome","98.0.4758.102","Windows","10.0","53074","","{""Attention1"":""""}","[0]"
"","","","","","html-button-response","133","286672","0.0-6.0","78","1","2022-11-13 09:52:12","a60ee176136a54a92dc2853177adfa2c","219.142.99.7","Mozilla/5.0 (Windows NT 10.0; Win64; x64) AppleWebKit/537.36 (KHTML, like Gecko) Chrome/98.0.4758.102 Safari/537.36","WebKit","Chrome","98.0.4758.102","Windows","10.0","2992","<p style=""font-size:20px;font-weight:bold;"">恭喜！</p><p>你已经完成了实验的第一部分。</p><p>请休息放松一下，然后进入第二部分。</p><p>这部分大约需要10分钟。</p>","0",""
"","","","","","survey-text","134","318612","0.0-7.0","78","1","2022-11-13 09:52:12","a60ee176136a54a92dc2853177adfa2c","219.142.99.7","Mozilla/5.0 (Windows NT 10.0; Win64; x64) AppleWebKit/537.36 (KHTML, like Gecko) Chrome/98.0.4758.102 Safari/537.36","WebKit","Chrome","98.0.4758.102","Windows","10.0","30887","","{""Age"":""23"",""Nation"":""中国"",""Born"":""江西省抚州市"",""Live"":""江西省抚州市"",""Ethnic"":""汉族"",""Alipay"":""13979426026""}",""
"","","","","","survey-multi-choice","135","341961","0.0-8.0","78","1","2022-11-13 09:52:12","a60ee176136a54a92dc2853177adfa2c","219.142.99.7","Mozilla/5.0 (Windows NT 10.0; Win64; x64) AppleWebKit/537.36 (KHTML, like Gecko) Chrome/98.0.4758.102 Safari/537.36","WebKit","Chrome","98.0.4758.102","Windows","10.0","23343","","{""Gender"":""女"",""Education"":""本科毕业"",""Income"":""￥140,000-￥269,999"",""Children"":""0"",""Race"":""亚洲人""}","[0,1,2,3,4]"
"","","","","","survey-multi-select","136","348439","0.0-9.0","78","1","2022-11-13 09:52:12","a60ee176136a54a92dc2853177adfa2c","219.142.99.7","Mozilla/5.0 (Windows NT 10.0; Win64; x64) AppleWebKit/537.36 (KHTML, like Gecko) Chrome/98.0.4758.102 Safari/537.36","WebKit","Chrome","98.0.4758.102","Windows","10.0","6432","","{""Marriage"":[""未婚""],""Religion"":[""无宗教信仰""]}","[0,1]"
"","","","","","survey-multi-choice","137","367275","0.0-10.0","78","1","2022-11-13 09:52:12","a60ee176136a54a92dc2853177adfa2c","219.142.99.7","Mozilla/5.0 (Windows NT 10.0; Win64; x64) AppleWebKit/537.36 (KHTML, like Gecko) Chrome/98.0.4758.102 Safari/537.36","WebKit","Chrome","98.0.4758.102","Windows","10.0","18818","","{""SES"":""5""}","[0]"
"","","","","","html-button-response","138","370427","0.0-11.0","78","1","2022-11-13 09:52:12","a60ee176136a54a92dc2853177adfa2c","219.142.99.7","Mozilla/5.0 (Windows NT 10.0; Win64; x64) AppleWebKit/537.36 (KHTML, like Gecko) Chrome/98.0.4758.102 Safari/537.36","WebKit","Chrome","98.0.4758.102","Windows","10.0","3144","<p><strong>请判断下列陈述在多大程度上可以形容你？</p><p> (1 = ""和我一点都不像"" to 5 = ""非常像我"".)</strong></p>","0",""
"","","","","","survey-likert","139","399911","0.0-12.0","78","1","2022-11-13 09:52:12","a60ee176136a54a92dc2853177adfa2c","219.142.99.7","Mozilla/5.0 (Windows NT 10.0; Win64; x64) AppleWebKit/537.36 (KHTML, like Gecko) Chrome/98.0.4758.102 Safari/537.36","WebKit","Chrome","98.0.4758.102","Windows","10.0","29477","","{""Aggression1"":0,""Aggression2"":0,""Aggression3"":1,""Aggression4"":0,""Aggression5"":2,""Aggression6"":0,""Aggression7"":3,""Aggression8"":0,""Aggression9"":0}","[0,1,2,3,4,5,6,7,8]"
"","","","","","html-button-response","140","401034","0.0-13.0","78","1","2022-11-13 09:52:12","a60ee176136a54a92dc2853177adfa2c","219.142.99.7","Mozilla/5.0 (Windows NT 10.0; Win64; x64) AppleWebKit/537.36 (KHTML, like Gecko) Chrome/98.0.4758.102 Safari/537.36","WebKit","Chrome","98.0.4758.102","Windows","10.0","1115","<p><strong>请判断你在多大程度上同意下列陈述。</strong></p>","0",""
"","","","","","survey-likert","141","498016","0.0-14.0","78","1","2022-11-13 09:52:12","a60ee176136a54a92dc2853177adfa2c","219.142.99.7","Mozilla/5.0 (Windows NT 10.0; Win64; x64) AppleWebKit/537.36 (KHTML, like Gecko) Chrome/98.0.4758.102 Safari/537.36","WebKit","Chrome","98.0.4758.102","Windows","10.0","96959","","{""scale18"":2,""scale4"":2,""scale13"":1,""scale21"":3,""scale28"":3,""scale10"":1,""scale6"":2,""scale2"":2,""scale17"":1,""scale22"":3,""scale15"":2,""scale11"":4,""scale27"":1,""scale24"":1,""scale19"":2,""scale9"":2,""scale26"":4,""scale5"":4,""scale3"":2,""scale16"":2,""scale8"":2,""scale25"":1,""scale14"":2,""scale7"":1,""scale1"":3,""scale20"":3,""scale23"":3,""scale12"":1}","[17,3,12,20,27,9,5,1,16,21,14,10,26,23,18,8,25,4,2,15,7,24,13,6,0,19,22,11]"
"","","","","","html-button-response","142","499163","0.0-15.0","78","1","2022-11-13 09:52:12","a60ee176136a54a92dc2853177adfa2c","219.142.99.7","Mozilla/5.0 (Windows NT 10.0; Win64; x64) AppleWebKit/537.36 (KHTML, like Gecko) Chrome/98.0.4758.102 Safari/537.36","WebKit","Chrome","98.0.4758.102","Windows","10.0","1129","<p><strong>请判断你在多大程度上同意下列陈述。</strong></p>","0",""
"","","","","","survey-likert","143","556589","0.0-16.0","78","1","2022-11-13 09:52:12","a60ee176136a54a92dc2853177adfa2c","219.142.99.7","Mozilla/5.0 (Windows NT 10.0; Win64; x64) AppleWebKit/537.36 (KHTML, like Gecko) Chrome/98.0.4758.102 Safari/537.36","WebKit","Chrome","98.0.4758.102","Windows","10.0","57409","","{""sdo15"":4,""sdo6"":3,""sdo12"":6,""sdo14"":6,""sdo7"":3,""sdo16"":6,""sdo11"":6,""sdo9"":5,""sdo10"":5,""sdo5"":5,""sdo3"":3,""sdo13"":5,""sdo1"":4,""sdo4"":3,""sdo8"":3,""sdo2"":2}","[14,5,11,13,6,15,10,8,9,4,2,12,0,3,7,1]"
"","","","","","html-button-response","144","557649","0.0-17.0","78","1","2022-11-13 09:52:12","a60ee176136a54a92dc2853177adfa2c","219.142.99.7","Mozilla/5.0 (Windows NT 10.0; Win64; x64) AppleWebKit/537.36 (KHTML, like Gecko) Chrome/98.0.4758.102 Safari/537.36","WebKit","Chrome","98.0.4758.102","Windows","10.0","1054","<p><strong>请判断你在多大程度上同意下列陈述。</strong></p>","0",""
"","","","","","survey-likert","145","598875","0.0-18.0","78","1","2022-11-13 09:52:12","a60ee176136a54a92dc2853177adfa2c","219.142.99.7","Mozilla/5.0 (Windows NT 10.0; Win64; x64) AppleWebKit/537.36 (KHTML, like Gecko) Chrome/98.0.4758.102 Safari/537.36","WebKit","Chrome","98.0.4758.102","Windows","10.0","41216","","{""caring1"":1,""liking1"":4,""caring2"":2,""protection1"":4,""liking2"":3,""caring3"":2,""protection2"":1,""liking3"":3,""protection3"":1,""caring4"":2,""liking4"":3,""protection4"":4,""caring5"":1,""liking5"":4,""protection5"":2}","[0,1,2,3,4,5,6,7,8,9,10,11,12,13,14]"
"","","","","","html-button-response","146","600040","0.0-19.0","78","1","2022-11-13 09:52:12","a60ee176136a54a92dc2853177adfa2c","219.142.99.7","Mozilla/5.0 (Windows NT 10.0; Win64; x64) AppleWebKit/537.36 (KHTML, like Gecko) Chrome/98.0.4758.102 Safari/537.36","WebKit","Chrome","98.0.4758.102","Windows","10.0","1146","<p><strong>请判断下列场景中你的内心感受有多柔软。</strong></p>","0",""
"","","","","","survey-likert","147","629201","0.0-20.0","78","1","2022-11-13 09:52:12","a60ee176136a54a92dc2853177adfa2c","219.142.99.7","Mozilla/5.0 (Windows NT 10.0; Win64; x64) AppleWebKit/537.36 (KHTML, like Gecko) Chrome/98.0.4758.102 Safari/537.36","WebKit","Chrome","98.0.4758.102","Windows","10.0","29149","","{""tenderness-positive1"":3,""tenderness-negative1"":2,""tenderness-negative2"":0,""tenderness-positive2"":3,""tenderness-positive3"":3,""tenderness-negative3"":2,""tenderness-positive4"":3,""tenderness-negative4"":2,""tenderness-negative5"":1,""tenderness-positive5"":2}","[0,1,2,3,4,5,6,7,8,9]"
"","","","","","survey-multi-choice","148","647853","0.0-21.0","78","1","2022-11-13 09:52:12","a60ee176136a54a92dc2853177adfa2c","219.142.99.7","Mozilla/5.0 (Windows NT 10.0; Win64; x64) AppleWebKit/537.36 (KHTML, like Gecko) Chrome/98.0.4758.102 Safari/537.36","WebKit","Chrome","98.0.4758.102","Windows","10.0","18637","","{""Attention2"":""其他""}","[0]"
"","","","","","html-button-response","149","648886","0.0-22.0","78","1","2022-11-13 09:52:12","a60ee176136a54a92dc2853177adfa2c","219.142.99.7","Mozilla/5.0 (Windows NT 10.0; Win64; x64) AppleWebKit/537.36 (KHTML, like Gecko) Chrome/98.0.4758.102 Safari/537.36","WebKit","Chrome","98.0.4758.102","Windows","10.0","1023","<p><strong>请判断你在多大程度上同意下列陈述。</strong></p>","0",""
"","","","","","survey-likert","150","730474","0.0-23.0","78","1","2022-11-13 09:52:12","a60ee176136a54a92dc2853177adfa2c","219.142.99.7","Mozilla/5.0 (Windows NT 10.0; Win64; x64) AppleWebKit/537.36 (KHTML, like Gecko) Chrome/98.0.4758.102 Safari/537.36","WebKit","Chrome","98.0.4758.102","Windows","10.0","81575","","{""Patri12"":3,""Nation8"":2,""Patri6"":1,""Patri3"":3,""Patri5"":4,""Nation5"":2,""Patri10"":0,""Patri4"":3,""Nation7"":3,""Patri9"":1,""Patri2"":4,""Patri8"":4,""Patri7"":4,""Nation6"":3,""Nation4"":2,""Nation2"":3,""Patri1"":4,""Nation1"":2,""Nation3"":0,""Patri11"":0}","[11,19,5,2,4,16,9,3,18,8,1,7,6,17,15,13,0,12,14,10]"
"","","","","","html-button-response","151","731512","0.0-24.0","78","1","2022-11-13 09:52:12","a60ee176136a54a92dc2853177adfa2c","219.142.99.7","Mozilla/5.0 (Windows NT 10.0; Win64; x64) AppleWebKit/537.36 (KHTML, like Gecko) Chrome/98.0.4758.102 Safari/537.36","WebKit","Chrome","98.0.4758.102","Windows","10.0","1031","<p><strong>请判断你在多大程度上同意下列陈述。</strong></p>","0",""
"","","","","","survey-likert","152","788599","0.0-25.0","78","1","2022-11-13 09:52:12","a60ee176136a54a92dc2853177adfa2c","219.142.99.7","Mozilla/5.0 (Windows NT 10.0; Win64; x64) AppleWebKit/537.36 (KHTML, like Gecko) Chrome/98.0.4758.102 Safari/537.36","WebKit","Chrome","98.0.4758.102","Windows","10.0","57069","","{""hc1"":8,""hi3"":4,""vc3"":5,""vi1"":6,""hc4"":5,""vc2"":4,""hi1"":7,""vi2"":4,""hi2"":7,""vi3"":7,""Robot"":6,""vc4"":4,""vc1"":5,""vi4"":3,""hc3"":5,""hi4"":8,""hc2"":8}","[9,2,15,4,12,14,0,5,1,6,7,16,13,8,11,3,10]"
"","","","","","survey-text","153","798354","0.0-26.0","78","1","2022-11-13 09:52:12","a60ee176136a54a92dc2853177adfa2c","219.142.99.7","Mozilla/5.0 (Windows NT 10.0; Win64; x64) AppleWebKit/537.36 (KHTML, like Gecko) Chrome/98.0.4758.102 Safari/537.36","WebKit","Chrome","98.0.4758.102","Windows","10.0","9730","","{""Comments"":""无""}",""
"","","","","","html-button-response","154","799228","0.0-27.0","78","1","2022-11-13 09:52:12","a60ee176136a54a92dc2853177adfa2c","219.142.99.7","Mozilla/5.0 (Windows NT 10.0; Win64; x64) AppleWebKit/537.36 (KHTML, like Gecko) Chrome/98.0.4758.102 Safari/537.36","WebKit","Chrome","98.0.4758.102","Windows","10.0","866","<strong><p>恭喜你完成了实验！</p><p>感谢您的参与。</p></strong>","0",""
