"success","timeout","failed_images","failed_audio","failed_video","trial_type","trial_index","time_elapsed","internal_node_id","run_id","condition","recorded_at","source_code_version","ip","user_agent","device","browser","browser_version","platform","platform_version","rt","stimulus","response","question_order"
"true","false","[]","[]","[]","preload","0","2640","0.0-0.0","88","1","2022-11-13 11:44:42","a60ee176136a54a92dc2853177adfa2c","106.42.73.131","Mozilla/5.0 (Windows NT 10.0; Win64; x64) AppleWebKit/537.36 (KHTML, like Gecko) Chrome/103.0.5060.114 Safari/537.36 Edg/103.0.1264.62","WebKit","Edge","103.0.1264.62","Windows","10.0","","","",""
"true","","","","","fullscreen","1","7667","0.0-1.0","88","1","2022-11-13 11:44:42","a60ee176136a54a92dc2853177adfa2c","106.42.73.131","Mozilla/5.0 (Windows NT 10.0; Win64; x64) AppleWebKit/537.36 (KHTML, like Gecko) Chrome/103.0.5060.114 Safari/537.36 Edg/103.0.1264.62","WebKit","Edge","103.0.1264.62","Windows","10.0","","","",""
"","","","","","html-button-response","2","80220","0.0-2.0","88","1","2022-11-13 11:44:42","a60ee176136a54a92dc2853177adfa2c","106.42.73.131","Mozilla/5.0 (Windows NT 10.0; Win64; x64) AppleWebKit/537.36 (KHTML, like Gecko) Chrome/103.0.5060.114 Safari/537.36 Edg/103.0.1264.62","WebKit","Edge","103.0.1264.62","Windows","10.0","72551","<p style=""font-size:20px;font-weight:bold;"">实验知情同意书</p><p style=""text-align:left;""><strong>实验名称：</strong>社会冲突研究</p><p style=""text-align:left;""><strong>主要研究者：</strong>韩晓春副教授（北京师范大学心理学部）</p><p style=""text-align:left;""><strong>联系方式：</strong>发送邮件至xiaochun.han@bnu.edu.cn</p><p style=""text-align:left;""><strong>研究目的：</strong>研究旨在了解人类面对群体冲突时的决策方式，以及相关的心理学特质。实验调查大约需要20分钟。</p><p style=""text-align:left;""><strong>实验流程：</strong>实验包含两部分。第一部分呈现一系列群体冲突场景，请你决定如何对这些冲突进行反应，大约需要10分钟完成。第二部分包含一系列人口统计学信息收集和心理学问卷，大约需要10分钟完成。</p><p style=""text-align:left;""><strong>参加及退出规则：</strong>参加本实验完全取决于您的个人意愿。在参与过程中，您可以随时退出，并且不用承担任何后果。</p><p style=""text-align:left;""><strong>隐私：</strong>本实验完全匿名进行，不会收集您的姓名或其他能够识别您身份的信息。实验中收集的作答仅用作科学研究使用，可能会在学术期刊/书籍上发表，或者用于教学，您的数据未来可能会和其他研究者或实验室分享，但您的个人身份不会被识别。</p><p style=""text-align:left;""><strong>实验报酬：</strong>实验完成后，您将获得15元人民币报酬，以感谢您的时间和努力。调查问卷中包含几道题目用以测验您作答时的认真度。只有完成全部实验，并且正确回答认真度测验的被试才能获得实验报酬。实验报酬将通过支付宝转账发放。</p><p style=""text-align:left;font-size:20px;""><strong>如果您同意以上实验知情同意书的内容，请点击'同意并且开始实验'按钮；否则请关闭浏览器界面，退出实验。</strong></p>","0",""
"","","","","","html-button-response","3","96395","0.0-3.0","88","1","2022-11-13 11:44:42","a60ee176136a54a92dc2853177adfa2c","106.42.73.131","Mozilla/5.0 (Windows NT 10.0; Win64; x64) AppleWebKit/537.36 (KHTML, like Gecko) Chrome/103.0.5060.114 Safari/537.36 Edg/103.0.1264.62","WebKit","Edge","103.0.1264.62","Windows","10.0","16173","<p ><strong>实验任务一：</strong></p><p>请想象你的国家与另一个国家发生了军事冲突。</p><p>你是国家军队的指挥官，你将如何在冲突中进行决策。</p><p>具体来说，作为军队指挥官，请你决定是否发射导弹进行打击。</p><p>接下来，你会面对一系列场景，请仔细阅读每个场景，然后进行决策。</p><p>这部分实验任务大约需要10分钟。</p><p><strong>实验过程中，请集中注意力。</strong></p>","0",""
"","","","","","html-keyboard-response","4","97397","0.0-4.0-0.0","88","1","2022-11-13 11:44:42","a60ee176136a54a92dc2853177adfa2c","106.42.73.131","Mozilla/5.0 (Windows NT 10.0; Win64; x64) AppleWebKit/537.36 (KHTML, like Gecko) Chrome/103.0.5060.114 Safari/537.36 Edg/103.0.1264.62","WebKit","Edge","103.0.1264.62","Windows","10.0","null","<div style=""font-size:60px;"">+</div>","null",""
"","","","","","html-button-response","5","109587","0.0-4.0-1.0","88","1","2022-11-13 11:44:42","a60ee176136a54a92dc2853177adfa2c","106.42.73.131","Mozilla/5.0 (Windows NT 10.0; Win64; x64) AppleWebKit/537.36 (KHTML, like Gecko) Chrome/103.0.5060.114 Safari/537.36 Edg/103.0.1264.62","WebKit","Edge","103.0.1264.62","Windows","10.0","12188","<p>作为军队的指挥官，你可以选择发射导弹杀死 <strong>2名</strong> 敌国士兵，但会误杀附近的 <strong>1名</strong> 敌国平民。</p> <p>平民照片如下图所示。</p> <p></p> <img src='stimuli/faces/PCF7.jpg', style='max-width: 30%;'> </img> <p><strong>你是否选择发射武器？</strong></p>","1",""
"","","","","","html-keyboard-response","6","110589","0.0-4.0-0.1","88","1","2022-11-13 11:44:42","a60ee176136a54a92dc2853177adfa2c","106.42.73.131","Mozilla/5.0 (Windows NT 10.0; Win64; x64) AppleWebKit/537.36 (KHTML, like Gecko) Chrome/103.0.5060.114 Safari/537.36 Edg/103.0.1264.62","WebKit","Edge","103.0.1264.62","Windows","10.0","null","<div style=""font-size:60px;"">+</div>","null",""
"","","","","","html-button-response","7","124410","0.0-4.0-1.1","88","1","2022-11-13 11:44:42","a60ee176136a54a92dc2853177adfa2c","106.42.73.131","Mozilla/5.0 (Windows NT 10.0; Win64; x64) AppleWebKit/537.36 (KHTML, like Gecko) Chrome/103.0.5060.114 Safari/537.36 Edg/103.0.1264.62","WebKit","Edge","103.0.1264.62","Windows","10.0","13821","<p>作为军队的指挥官，你可以选择发射导弹杀死 <strong>8名</strong> 敌国士兵，但会误杀附近的 <strong>1名</strong> 敌国平民。</p> <p>平民照片如下图所示。</p> <p></p> <img src='stimuli/faces/PCF1.jpg', style='max-width: 30%;'> </img> <p><strong>你是否选择发射武器？</strong></p>","1",""
"","","","","","html-keyboard-response","8","125412","0.0-4.0-0.2","88","1","2022-11-13 11:44:42","a60ee176136a54a92dc2853177adfa2c","106.42.73.131","Mozilla/5.0 (Windows NT 10.0; Win64; x64) AppleWebKit/537.36 (KHTML, like Gecko) Chrome/103.0.5060.114 Safari/537.36 Edg/103.0.1264.62","WebKit","Edge","103.0.1264.62","Windows","10.0","null","<div style=""font-size:60px;"">+</div>","null",""
"","","","","","html-button-response","9","130978","0.0-4.0-1.2","88","1","2022-11-13 11:44:42","a60ee176136a54a92dc2853177adfa2c","106.42.73.131","Mozilla/5.0 (Windows NT 10.0; Win64; x64) AppleWebKit/537.36 (KHTML, like Gecko) Chrome/103.0.5060.114 Safari/537.36 Edg/103.0.1264.62","WebKit","Edge","103.0.1264.62","Windows","10.0","5564","<p>作为军队的指挥官，你可以选择发射导弹杀死 <strong>6名</strong> 敌国士兵，但会误杀附近的 <strong>1名</strong> 敌国平民。</p> <p>平民照片如下图所示。</p> <p></p> <img src='stimuli/faces/PCF7.jpg', style='max-width: 30%;'> </img> <p><strong>你是否选择发射武器？</strong></p>","1",""
"","","","","","html-keyboard-response","10","131988","0.0-4.0-0.3","88","1","2022-11-13 11:44:42","a60ee176136a54a92dc2853177adfa2c","106.42.73.131","Mozilla/5.0 (Windows NT 10.0; Win64; x64) AppleWebKit/537.36 (KHTML, like Gecko) Chrome/103.0.5060.114 Safari/537.36 Edg/103.0.1264.62","WebKit","Edge","103.0.1264.62","Windows","10.0","null","<div style=""font-size:60px;"">+</div>","null",""
"","","","","","html-button-response","11","145290","0.0-4.0-1.3","88","1","2022-11-13 11:44:42","a60ee176136a54a92dc2853177adfa2c","106.42.73.131","Mozilla/5.0 (Windows NT 10.0; Win64; x64) AppleWebKit/537.36 (KHTML, like Gecko) Chrome/103.0.5060.114 Safari/537.36 Edg/103.0.1264.62","WebKit","Edge","103.0.1264.62","Windows","10.0","13300","<p>作为军队的指挥官，你可以选择发射导弹杀死 <strong>7名</strong> 敌国士兵，但会误杀附近的 <strong>1名</strong> 敌国平民。</p> <p>平民照片如下图所示。</p> <p></p> <img src='stimuli/faces/PCM2.jpg', style='max-width: 30%;'> </img> <p><strong>你是否选择发射武器？</strong></p>","0",""
"","","","","","html-keyboard-response","12","146291","0.0-4.0-0.4","88","1","2022-11-13 11:44:42","a60ee176136a54a92dc2853177adfa2c","106.42.73.131","Mozilla/5.0 (Windows NT 10.0; Win64; x64) AppleWebKit/537.36 (KHTML, like Gecko) Chrome/103.0.5060.114 Safari/537.36 Edg/103.0.1264.62","WebKit","Edge","103.0.1264.62","Windows","10.0","null","<div style=""font-size:60px;"">+</div>","null",""
"","","","","","html-button-response","13","152498","0.0-4.0-1.4","88","1","2022-11-13 11:44:42","a60ee176136a54a92dc2853177adfa2c","106.42.73.131","Mozilla/5.0 (Windows NT 10.0; Win64; x64) AppleWebKit/537.36 (KHTML, like Gecko) Chrome/103.0.5060.114 Safari/537.36 Edg/103.0.1264.62","WebKit","Edge","103.0.1264.62","Windows","10.0","6206","<p>作为军队的指挥官，你可以选择发射导弹杀死 <strong>5名</strong> 敌国士兵，但会误杀附近的 <strong>1名</strong> 敌国平民。</p> <p>平民照片如下图所示。</p> <p></p> <img src='stimuli/faces/PCM8.jpg', style='max-width: 30%;'> </img> <p><strong>你是否选择发射武器？</strong></p>","0",""
"","","","","","html-keyboard-response","14","153510","0.0-4.0-0.5","88","1","2022-11-13 11:44:42","a60ee176136a54a92dc2853177adfa2c","106.42.73.131","Mozilla/5.0 (Windows NT 10.0; Win64; x64) AppleWebKit/537.36 (KHTML, like Gecko) Chrome/103.0.5060.114 Safari/537.36 Edg/103.0.1264.62","WebKit","Edge","103.0.1264.62","Windows","10.0","null","<div style=""font-size:60px;"">+</div>","null",""
"","","","","","html-button-response","15","155818","0.0-4.0-1.5","88","1","2022-11-13 11:44:42","a60ee176136a54a92dc2853177adfa2c","106.42.73.131","Mozilla/5.0 (Windows NT 10.0; Win64; x64) AppleWebKit/537.36 (KHTML, like Gecko) Chrome/103.0.5060.114 Safari/537.36 Edg/103.0.1264.62","WebKit","Edge","103.0.1264.62","Windows","10.0","2306","<p>作为军队的指挥官，你可以选择发射导弹杀死 <strong>7名</strong> 敌国士兵，但会误杀附近的 <strong>1名</strong> 敌国平民。</p> <p>平民照片如下图所示。</p> <p></p> <img src='stimuli/faces/PCM5.jpg', style='max-width: 30%;'> </img> <p><strong>你是否选择发射武器？</strong></p>","0",""
"","","","","","html-keyboard-response","16","156819","0.0-4.0-0.6","88","1","2022-11-13 11:44:42","a60ee176136a54a92dc2853177adfa2c","106.42.73.131","Mozilla/5.0 (Windows NT 10.0; Win64; x64) AppleWebKit/537.36 (KHTML, like Gecko) Chrome/103.0.5060.114 Safari/537.36 Edg/103.0.1264.62","WebKit","Edge","103.0.1264.62","Windows","10.0","null","<div style=""font-size:60px;"">+</div>","null",""
"","","","","","html-button-response","17","161954","0.0-4.0-1.6","88","1","2022-11-13 11:44:42","a60ee176136a54a92dc2853177adfa2c","106.42.73.131","Mozilla/5.0 (Windows NT 10.0; Win64; x64) AppleWebKit/537.36 (KHTML, like Gecko) Chrome/103.0.5060.114 Safari/537.36 Edg/103.0.1264.62","WebKit","Edge","103.0.1264.62","Windows","10.0","5134","<p>作为军队的指挥官，你可以选择发射导弹杀死 <strong>2名</strong> 敌国士兵，但会炸毁附近的 <strong>1棵</strong> 敌国树木。</p> <p>树木的照片如下图所示。</p> <p></p> <img src='stimuli/trees/1.png', style='max-width: 30%;'> </img> <p><strong>你是否选择发射武器？</strong></p>","0",""
"","","","","","html-keyboard-response","18","162956","0.0-4.0-0.7","88","1","2022-11-13 11:44:42","a60ee176136a54a92dc2853177adfa2c","106.42.73.131","Mozilla/5.0 (Windows NT 10.0; Win64; x64) AppleWebKit/537.36 (KHTML, like Gecko) Chrome/103.0.5060.114 Safari/537.36 Edg/103.0.1264.62","WebKit","Edge","103.0.1264.62","Windows","10.0","null","<div style=""font-size:60px;"">+</div>","null",""
"","","","","","html-button-response","19","167418","0.0-4.0-1.7","88","1","2022-11-13 11:44:42","a60ee176136a54a92dc2853177adfa2c","106.42.73.131","Mozilla/5.0 (Windows NT 10.0; Win64; x64) AppleWebKit/537.36 (KHTML, like Gecko) Chrome/103.0.5060.114 Safari/537.36 Edg/103.0.1264.62","WebKit","Edge","103.0.1264.62","Windows","10.0","4461","<p>作为军队的指挥官，你可以选择发射导弹杀死 <strong>4名</strong> 敌国士兵，但会炸毁附近的 <strong>1棵</strong> 敌国树木。</p> <p>树木的照片如下图所示。</p> <p></p> <img src='stimuli/trees/2.png', style='max-width: 30%;'> </img> <p><strong>你是否选择发射武器？</strong></p>","0",""
"","","","","","html-keyboard-response","20","168419","0.0-4.0-0.8","88","1","2022-11-13 11:44:42","a60ee176136a54a92dc2853177adfa2c","106.42.73.131","Mozilla/5.0 (Windows NT 10.0; Win64; x64) AppleWebKit/537.36 (KHTML, like Gecko) Chrome/103.0.5060.114 Safari/537.36 Edg/103.0.1264.62","WebKit","Edge","103.0.1264.62","Windows","10.0","null","<div style=""font-size:60px;"">+</div>","null",""
"","","","","","html-button-response","21","173098","0.0-4.0-1.8","88","1","2022-11-13 11:44:42","a60ee176136a54a92dc2853177adfa2c","106.42.73.131","Mozilla/5.0 (Windows NT 10.0; Win64; x64) AppleWebKit/537.36 (KHTML, like Gecko) Chrome/103.0.5060.114 Safari/537.36 Edg/103.0.1264.62","WebKit","Edge","103.0.1264.62","Windows","10.0","4678","<p>作为军队的指挥官，你可以选择发射导弹杀死 <strong>1名</strong> 敌国士兵，但会误杀附近的 <strong>1名</strong> 敌国平民。</p> <p>平民照片如下图所示。</p> <p></p> <img src='stimuli/faces/PCF2.jpg', style='max-width: 30%;'> </img> <p><strong>你是否选择发射武器？</strong></p>","0",""
"","","","","","html-keyboard-response","22","174100","0.0-4.0-0.9","88","1","2022-11-13 11:44:42","a60ee176136a54a92dc2853177adfa2c","106.42.73.131","Mozilla/5.0 (Windows NT 10.0; Win64; x64) AppleWebKit/537.36 (KHTML, like Gecko) Chrome/103.0.5060.114 Safari/537.36 Edg/103.0.1264.62","WebKit","Edge","103.0.1264.62","Windows","10.0","null","<div style=""font-size:60px;"">+</div>","null",""
"","","","","","html-button-response","23","176338","0.0-4.0-1.9","88","1","2022-11-13 11:44:42","a60ee176136a54a92dc2853177adfa2c","106.42.73.131","Mozilla/5.0 (Windows NT 10.0; Win64; x64) AppleWebKit/537.36 (KHTML, like Gecko) Chrome/103.0.5060.114 Safari/537.36 Edg/103.0.1264.62","WebKit","Edge","103.0.1264.62","Windows","10.0","2236","<p>作为军队的指挥官，你可以选择发射导弹杀死 <strong>4名</strong> 敌国士兵，但会误杀附近的 <strong>1名</strong> 敌国平民。</p> <p>平民照片如下图所示。</p> <p></p> <img src='stimuli/faces/PCM5.jpg', style='max-width: 30%;'> </img> <p><strong>你是否选择发射武器？</strong></p>","0",""
"","","","","","html-keyboard-response","24","177339","0.0-4.0-0.10","88","1","2022-11-13 11:44:42","a60ee176136a54a92dc2853177adfa2c","106.42.73.131","Mozilla/5.0 (Windows NT 10.0; Win64; x64) AppleWebKit/537.36 (KHTML, like Gecko) Chrome/103.0.5060.114 Safari/537.36 Edg/103.0.1264.62","WebKit","Edge","103.0.1264.62","Windows","10.0","null","<div style=""font-size:60px;"">+</div>","null",""
"","","","","","html-button-response","25","182322","0.0-4.0-1.10","88","1","2022-11-13 11:44:42","a60ee176136a54a92dc2853177adfa2c","106.42.73.131","Mozilla/5.0 (Windows NT 10.0; Win64; x64) AppleWebKit/537.36 (KHTML, like Gecko) Chrome/103.0.5060.114 Safari/537.36 Edg/103.0.1264.62","WebKit","Edge","103.0.1264.62","Windows","10.0","4981","<p>作为军队的指挥官，你可以选择发射导弹杀死 <strong>3名</strong> 敌国士兵，但会炸毁附近的 <strong>1棵</strong> 敌国树木。</p> <p>树木的照片如下图所示。</p> <p></p> <img src='stimuli/trees/9.png', style='max-width: 30%;'> </img> <p><strong>你是否选择发射武器？</strong></p>","1",""
"","","","","","html-keyboard-response","26","183338","0.0-4.0-0.11","88","1","2022-11-13 11:44:42","a60ee176136a54a92dc2853177adfa2c","106.42.73.131","Mozilla/5.0 (Windows NT 10.0; Win64; x64) AppleWebKit/537.36 (KHTML, like Gecko) Chrome/103.0.5060.114 Safari/537.36 Edg/103.0.1264.62","WebKit","Edge","103.0.1264.62","Windows","10.0","null","<div style=""font-size:60px;"">+</div>","null",""
"","","","","","html-button-response","27","187410","0.0-4.0-1.11","88","1","2022-11-13 11:44:42","a60ee176136a54a92dc2853177adfa2c","106.42.73.131","Mozilla/5.0 (Windows NT 10.0; Win64; x64) AppleWebKit/537.36 (KHTML, like Gecko) Chrome/103.0.5060.114 Safari/537.36 Edg/103.0.1264.62","WebKit","Edge","103.0.1264.62","Windows","10.0","4071","<p>作为军队的指挥官，你可以选择发射导弹杀死 <strong>1名</strong> 敌国士兵，但会炸毁附近的 <strong>1棵</strong> 敌国树木。</p> <p>树木的照片如下图所示。</p> <p></p> <img src='stimuli/trees/4.png', style='max-width: 30%;'> </img> <p><strong>你是否选择发射武器？</strong></p>","1",""
"","","","","","html-keyboard-response","28","188418","0.0-4.0-0.12","88","1","2022-11-13 11:44:42","a60ee176136a54a92dc2853177adfa2c","106.42.73.131","Mozilla/5.0 (Windows NT 10.0; Win64; x64) AppleWebKit/537.36 (KHTML, like Gecko) Chrome/103.0.5060.114 Safari/537.36 Edg/103.0.1264.62","WebKit","Edge","103.0.1264.62","Windows","10.0","null","<div style=""font-size:60px;"">+</div>","null",""
"","","","","","html-button-response","29","190378","0.0-4.0-1.12","88","1","2022-11-13 11:44:42","a60ee176136a54a92dc2853177adfa2c","106.42.73.131","Mozilla/5.0 (Windows NT 10.0; Win64; x64) AppleWebKit/537.36 (KHTML, like Gecko) Chrome/103.0.5060.114 Safari/537.36 Edg/103.0.1264.62","WebKit","Edge","103.0.1264.62","Windows","10.0","1958","<p>作为军队的指挥官，你可以选择发射导弹杀死 <strong>3名</strong> 敌国士兵，但会炸毁附近的 <strong>1棵</strong> 敌国树木。</p> <p>树木的照片如下图所示。</p> <p></p> <img src='stimuli/trees/15.png', style='max-width: 30%;'> </img> <p><strong>你是否选择发射武器？</strong></p>","0",""
"","","","","","html-keyboard-response","30","191380","0.0-4.0-0.13","88","1","2022-11-13 11:44:42","a60ee176136a54a92dc2853177adfa2c","106.42.73.131","Mozilla/5.0 (Windows NT 10.0; Win64; x64) AppleWebKit/537.36 (KHTML, like Gecko) Chrome/103.0.5060.114 Safari/537.36 Edg/103.0.1264.62","WebKit","Edge","103.0.1264.62","Windows","10.0","null","<div style=""font-size:60px;"">+</div>","null",""
"","","","","","html-button-response","31","194642","0.0-4.0-1.13","88","1","2022-11-13 11:44:42","a60ee176136a54a92dc2853177adfa2c","106.42.73.131","Mozilla/5.0 (Windows NT 10.0; Win64; x64) AppleWebKit/537.36 (KHTML, like Gecko) Chrome/103.0.5060.114 Safari/537.36 Edg/103.0.1264.62","WebKit","Edge","103.0.1264.62","Windows","10.0","3261","<p>作为军队的指挥官，你可以选择发射导弹杀死 <strong>9名</strong> 敌国士兵，但会炸毁附近的 <strong>1棵</strong> 敌国树木。</p> <p>树木的照片如下图所示。</p> <p></p> <img src='stimuli/trees/14.png', style='max-width: 30%;'> </img> <p><strong>你是否选择发射武器？</strong></p>","0",""
"","","","","","html-keyboard-response","32","195644","0.0-4.0-0.14","88","1","2022-11-13 11:44:42","a60ee176136a54a92dc2853177adfa2c","106.42.73.131","Mozilla/5.0 (Windows NT 10.0; Win64; x64) AppleWebKit/537.36 (KHTML, like Gecko) Chrome/103.0.5060.114 Safari/537.36 Edg/103.0.1264.62","WebKit","Edge","103.0.1264.62","Windows","10.0","null","<div style=""font-size:60px;"">+</div>","null",""
"","","","","","html-button-response","33","198802","0.0-4.0-1.14","88","1","2022-11-13 11:44:42","a60ee176136a54a92dc2853177adfa2c","106.42.73.131","Mozilla/5.0 (Windows NT 10.0; Win64; x64) AppleWebKit/537.36 (KHTML, like Gecko) Chrome/103.0.5060.114 Safari/537.36 Edg/103.0.1264.62","WebKit","Edge","103.0.1264.62","Windows","10.0","3156","<p>作为军队的指挥官，你可以选择发射导弹杀死 <strong>6名</strong> 敌国士兵，但会炸毁附近的 <strong>1棵</strong> 敌国树木。</p> <p>树木的照片如下图所示。</p> <p></p> <img src='stimuli/trees/7.png', style='max-width: 30%;'> </img> <p><strong>你是否选择发射武器？</strong></p>","0",""
"","","","","","html-keyboard-response","34","199810","0.0-4.0-0.15","88","1","2022-11-13 11:44:42","a60ee176136a54a92dc2853177adfa2c","106.42.73.131","Mozilla/5.0 (Windows NT 10.0; Win64; x64) AppleWebKit/537.36 (KHTML, like Gecko) Chrome/103.0.5060.114 Safari/537.36 Edg/103.0.1264.62","WebKit","Edge","103.0.1264.62","Windows","10.0","null","<div style=""font-size:60px;"">+</div>","null",""
"","","","","","html-button-response","35","202603","0.0-4.0-1.15","88","1","2022-11-13 11:44:42","a60ee176136a54a92dc2853177adfa2c","106.42.73.131","Mozilla/5.0 (Windows NT 10.0; Win64; x64) AppleWebKit/537.36 (KHTML, like Gecko) Chrome/103.0.5060.114 Safari/537.36 Edg/103.0.1264.62","WebKit","Edge","103.0.1264.62","Windows","10.0","2791","<p>作为军队的指挥官，你可以选择发射导弹杀死 <strong>1名</strong> 敌国士兵，但会炸毁附近的 <strong>1棵</strong> 敌国树木。</p> <p>树木的照片如下图所示。</p> <p></p> <img src='stimuli/trees/11.png', style='max-width: 30%;'> </img> <p><strong>你是否选择发射武器？</strong></p>","1",""
"","","","","","html-keyboard-response","36","203604","0.0-4.0-0.16","88","1","2022-11-13 11:44:42","a60ee176136a54a92dc2853177adfa2c","106.42.73.131","Mozilla/5.0 (Windows NT 10.0; Win64; x64) AppleWebKit/537.36 (KHTML, like Gecko) Chrome/103.0.5060.114 Safari/537.36 Edg/103.0.1264.62","WebKit","Edge","103.0.1264.62","Windows","10.0","null","<div style=""font-size:60px;"">+</div>","null",""
"","","","","","html-button-response","37","205385","0.0-4.0-1.16","88","1","2022-11-13 11:44:42","a60ee176136a54a92dc2853177adfa2c","106.42.73.131","Mozilla/5.0 (Windows NT 10.0; Win64; x64) AppleWebKit/537.36 (KHTML, like Gecko) Chrome/103.0.5060.114 Safari/537.36 Edg/103.0.1264.62","WebKit","Edge","103.0.1264.62","Windows","10.0","1780","<p>作为军队的指挥官，你可以选择发射导弹杀死 <strong>7名</strong> 敌国士兵，但会误杀附近的 <strong>1名</strong> 敌国平民。</p> <p>平民照片如下图所示。</p> <p></p> <img src='stimuli/faces/PCF2.jpg', style='max-width: 30%;'> </img> <p><strong>你是否选择发射武器？</strong></p>","0",""
"","","","","","html-keyboard-response","38","206387","0.0-4.0-0.17","88","1","2022-11-13 11:44:42","a60ee176136a54a92dc2853177adfa2c","106.42.73.131","Mozilla/5.0 (Windows NT 10.0; Win64; x64) AppleWebKit/537.36 (KHTML, like Gecko) Chrome/103.0.5060.114 Safari/537.36 Edg/103.0.1264.62","WebKit","Edge","103.0.1264.62","Windows","10.0","null","<div style=""font-size:60px;"">+</div>","null",""
"","","","","","html-button-response","39","209635","0.0-4.0-1.17","88","1","2022-11-13 11:44:42","a60ee176136a54a92dc2853177adfa2c","106.42.73.131","Mozilla/5.0 (Windows NT 10.0; Win64; x64) AppleWebKit/537.36 (KHTML, like Gecko) Chrome/103.0.5060.114 Safari/537.36 Edg/103.0.1264.62","WebKit","Edge","103.0.1264.62","Windows","10.0","3247","<p>作为军队的指挥官，你可以选择发射导弹杀死 <strong>4名</strong> 敌国士兵，但会炸毁附近的 <strong>1棵</strong> 敌国树木。</p> <p>树木的照片如下图所示。</p> <p></p> <img src='stimuli/trees/16.png', style='max-width: 30%;'> </img> <p><strong>你是否选择发射武器？</strong></p>","1",""
"","","","","","html-keyboard-response","40","210648","0.0-4.0-0.18","88","1","2022-11-13 11:44:42","a60ee176136a54a92dc2853177adfa2c","106.42.73.131","Mozilla/5.0 (Windows NT 10.0; Win64; x64) AppleWebKit/537.36 (KHTML, like Gecko) Chrome/103.0.5060.114 Safari/537.36 Edg/103.0.1264.62","WebKit","Edge","103.0.1264.62","Windows","10.0","null","<div style=""font-size:60px;"">+</div>","null",""
"","","","","","html-button-response","41","214121","0.0-4.0-1.18","88","1","2022-11-13 11:44:42","a60ee176136a54a92dc2853177adfa2c","106.42.73.131","Mozilla/5.0 (Windows NT 10.0; Win64; x64) AppleWebKit/537.36 (KHTML, like Gecko) Chrome/103.0.5060.114 Safari/537.36 Edg/103.0.1264.62","WebKit","Edge","103.0.1264.62","Windows","10.0","3471","<p>作为军队的指挥官，你可以选择发射导弹杀死 <strong>4名</strong> 敌国士兵，但会误杀附近的 <strong>1名</strong> 敌国平民。</p> <p>平民照片如下图所示。</p> <p></p> <img src='stimuli/faces/PCF3.jpg', style='max-width: 30%;'> </img> <p><strong>你是否选择发射武器？</strong></p>","0",""
"","","","","","html-keyboard-response","42","215122","0.0-4.0-0.19","88","1","2022-11-13 11:44:42","a60ee176136a54a92dc2853177adfa2c","106.42.73.131","Mozilla/5.0 (Windows NT 10.0; Win64; x64) AppleWebKit/537.36 (KHTML, like Gecko) Chrome/103.0.5060.114 Safari/537.36 Edg/103.0.1264.62","WebKit","Edge","103.0.1264.62","Windows","10.0","null","<div style=""font-size:60px;"">+</div>","null",""
"","","","","","html-button-response","43","217587","0.0-4.0-1.19","88","1","2022-11-13 11:44:42","a60ee176136a54a92dc2853177adfa2c","106.42.73.131","Mozilla/5.0 (Windows NT 10.0; Win64; x64) AppleWebKit/537.36 (KHTML, like Gecko) Chrome/103.0.5060.114 Safari/537.36 Edg/103.0.1264.62","WebKit","Edge","103.0.1264.62","Windows","10.0","2462","<p>作为军队的指挥官，你可以选择发射导弹杀死 <strong>7名</strong> 敌国士兵，但会炸毁附近的 <strong>1棵</strong> 敌国树木。</p> <p>树木的照片如下图所示。</p> <p></p> <img src='stimuli/trees/8.png', style='max-width: 30%;'> </img> <p><strong>你是否选择发射武器？</strong></p>","1",""
"","","","","","html-keyboard-response","44","218588","0.0-4.0-0.20","88","1","2022-11-13 11:44:42","a60ee176136a54a92dc2853177adfa2c","106.42.73.131","Mozilla/5.0 (Windows NT 10.0; Win64; x64) AppleWebKit/537.36 (KHTML, like Gecko) Chrome/103.0.5060.114 Safari/537.36 Edg/103.0.1264.62","WebKit","Edge","103.0.1264.62","Windows","10.0","null","<div style=""font-size:60px;"">+</div>","null",""
"","","","","","html-button-response","45","223186","0.0-4.0-1.20","88","1","2022-11-13 11:44:42","a60ee176136a54a92dc2853177adfa2c","106.42.73.131","Mozilla/5.0 (Windows NT 10.0; Win64; x64) AppleWebKit/537.36 (KHTML, like Gecko) Chrome/103.0.5060.114 Safari/537.36 Edg/103.0.1264.62","WebKit","Edge","103.0.1264.62","Windows","10.0","4596","<p>作为军队的指挥官，你可以选择发射导弹杀死 <strong>5名</strong> 敌国士兵，但会炸毁附近的 <strong>1棵</strong> 敌国树木。</p> <p>树木的照片如下图所示。</p> <p></p> <img src='stimuli/trees/8.png', style='max-width: 30%;'> </img> <p><strong>你是否选择发射武器？</strong></p>","1",""
"","","","","","html-keyboard-response","46","224188","0.0-4.0-0.21","88","1","2022-11-13 11:44:42","a60ee176136a54a92dc2853177adfa2c","106.42.73.131","Mozilla/5.0 (Windows NT 10.0; Win64; x64) AppleWebKit/537.36 (KHTML, like Gecko) Chrome/103.0.5060.114 Safari/537.36 Edg/103.0.1264.62","WebKit","Edge","103.0.1264.62","Windows","10.0","null","<div style=""font-size:60px;"">+</div>","null",""
"","","","","","html-button-response","47","225778","0.0-4.0-1.21","88","1","2022-11-13 11:44:42","a60ee176136a54a92dc2853177adfa2c","106.42.73.131","Mozilla/5.0 (Windows NT 10.0; Win64; x64) AppleWebKit/537.36 (KHTML, like Gecko) Chrome/103.0.5060.114 Safari/537.36 Edg/103.0.1264.62","WebKit","Edge","103.0.1264.62","Windows","10.0","1587","<p>作为军队的指挥官，你可以选择发射导弹杀死 <strong>5名</strong> 敌国士兵，但会炸毁附近的 <strong>1棵</strong> 敌国树木。</p> <p>树木的照片如下图所示。</p> <p></p> <img src='stimuli/trees/6.png', style='max-width: 30%;'> </img> <p><strong>你是否选择发射武器？</strong></p>","0",""
"","","","","","html-keyboard-response","48","226780","0.0-4.0-0.22","88","1","2022-11-13 11:44:42","a60ee176136a54a92dc2853177adfa2c","106.42.73.131","Mozilla/5.0 (Windows NT 10.0; Win64; x64) AppleWebKit/537.36 (KHTML, like Gecko) Chrome/103.0.5060.114 Safari/537.36 Edg/103.0.1264.62","WebKit","Edge","103.0.1264.62","Windows","10.0","null","<div style=""font-size:60px;"">+</div>","null",""
"","","","","","html-button-response","49","229410","0.0-4.0-1.22","88","1","2022-11-13 11:44:42","a60ee176136a54a92dc2853177adfa2c","106.42.73.131","Mozilla/5.0 (Windows NT 10.0; Win64; x64) AppleWebKit/537.36 (KHTML, like Gecko) Chrome/103.0.5060.114 Safari/537.36 Edg/103.0.1264.62","WebKit","Edge","103.0.1264.62","Windows","10.0","2628","<p>作为军队的指挥官，你可以选择发射导弹杀死 <strong>1名</strong> 敌国士兵，但会误杀附近的 <strong>1名</strong> 敌国平民。</p> <p>平民照片如下图所示。</p> <p></p> <img src='stimuli/faces/PCM3.jpg', style='max-width: 30%;'> </img> <p><strong>你是否选择发射武器？</strong></p>","0",""
"","","","","","html-keyboard-response","50","230416","0.0-4.0-0.23","88","1","2022-11-13 11:44:42","a60ee176136a54a92dc2853177adfa2c","106.42.73.131","Mozilla/5.0 (Windows NT 10.0; Win64; x64) AppleWebKit/537.36 (KHTML, like Gecko) Chrome/103.0.5060.114 Safari/537.36 Edg/103.0.1264.62","WebKit","Edge","103.0.1264.62","Windows","10.0","null","<div style=""font-size:60px;"">+</div>","null",""
"","","","","","html-button-response","51","232218","0.0-4.0-1.23","88","1","2022-11-13 11:44:42","a60ee176136a54a92dc2853177adfa2c","106.42.73.131","Mozilla/5.0 (Windows NT 10.0; Win64; x64) AppleWebKit/537.36 (KHTML, like Gecko) Chrome/103.0.5060.114 Safari/537.36 Edg/103.0.1264.62","WebKit","Edge","103.0.1264.62","Windows","10.0","1800","<p>作为军队的指挥官，你可以选择发射导弹杀死 <strong>9名</strong> 敌国士兵，但会误杀附近的 <strong>1名</strong> 敌国平民。</p> <p>平民照片如下图所示。</p> <p></p> <img src='stimuli/faces/PCM7.jpg', style='max-width: 30%;'> </img> <p><strong>你是否选择发射武器？</strong></p>","0",""
"","","","","","html-keyboard-response","52","233219","0.0-4.0-0.24","88","1","2022-11-13 11:44:42","a60ee176136a54a92dc2853177adfa2c","106.42.73.131","Mozilla/5.0 (Windows NT 10.0; Win64; x64) AppleWebKit/537.36 (KHTML, like Gecko) Chrome/103.0.5060.114 Safari/537.36 Edg/103.0.1264.62","WebKit","Edge","103.0.1264.62","Windows","10.0","null","<div style=""font-size:60px;"">+</div>","null",""
"","","","","","html-button-response","53","234722","0.0-4.0-1.24","88","1","2022-11-13 11:44:42","a60ee176136a54a92dc2853177adfa2c","106.42.73.131","Mozilla/5.0 (Windows NT 10.0; Win64; x64) AppleWebKit/537.36 (KHTML, like Gecko) Chrome/103.0.5060.114 Safari/537.36 Edg/103.0.1264.62","WebKit","Edge","103.0.1264.62","Windows","10.0","1501","<p>作为军队的指挥官，你可以选择发射导弹杀死 <strong>6名</strong> 敌国士兵，但会误杀附近的 <strong>1名</strong> 敌国平民。</p> <p>平民照片如下图所示。</p> <p></p> <img src='stimuli/faces/PCM3.jpg', style='max-width: 30%;'> </img> <p><strong>你是否选择发射武器？</strong></p>","0",""
"","","","","","html-keyboard-response","54","235737","0.0-4.0-0.25","88","1","2022-11-13 11:44:42","a60ee176136a54a92dc2853177adfa2c","106.42.73.131","Mozilla/5.0 (Windows NT 10.0; Win64; x64) AppleWebKit/537.36 (KHTML, like Gecko) Chrome/103.0.5060.114 Safari/537.36 Edg/103.0.1264.62","WebKit","Edge","103.0.1264.62","Windows","10.0","null","<div style=""font-size:60px;"">+</div>","null",""
"","","","","","html-button-response","55","236866","0.0-4.0-1.25","88","1","2022-11-13 11:44:42","a60ee176136a54a92dc2853177adfa2c","106.42.73.131","Mozilla/5.0 (Windows NT 10.0; Win64; x64) AppleWebKit/537.36 (KHTML, like Gecko) Chrome/103.0.5060.114 Safari/537.36 Edg/103.0.1264.62","WebKit","Edge","103.0.1264.62","Windows","10.0","1127","<p>作为军队的指挥官，你可以选择发射导弹杀死 <strong>3名</strong> 敌国士兵，但会误杀附近的 <strong>1名</strong> 敌国平民。</p> <p>平民照片如下图所示。</p> <p></p> <img src='stimuli/faces/PCM4.jpg', style='max-width: 30%;'> </img> <p><strong>你是否选择发射武器？</strong></p>","0",""
"","","","","","html-keyboard-response","56","237870","0.0-4.0-0.26","88","1","2022-11-13 11:44:42","a60ee176136a54a92dc2853177adfa2c","106.42.73.131","Mozilla/5.0 (Windows NT 10.0; Win64; x64) AppleWebKit/537.36 (KHTML, like Gecko) Chrome/103.0.5060.114 Safari/537.36 Edg/103.0.1264.62","WebKit","Edge","103.0.1264.62","Windows","10.0","null","<div style=""font-size:60px;"">+</div>","null",""
"","","","","","html-button-response","57","241898","0.0-4.0-1.26","88","1","2022-11-13 11:44:42","a60ee176136a54a92dc2853177adfa2c","106.42.73.131","Mozilla/5.0 (Windows NT 10.0; Win64; x64) AppleWebKit/537.36 (KHTML, like Gecko) Chrome/103.0.5060.114 Safari/537.36 Edg/103.0.1264.62","WebKit","Edge","103.0.1264.62","Windows","10.0","4026","<p>作为军队的指挥官，你可以选择发射导弹杀死 <strong>4名</strong> 敌国士兵，但会炸毁附近的 <strong>1棵</strong> 敌国树木。</p> <p>树木的照片如下图所示。</p> <p></p> <img src='stimuli/trees/14.png', style='max-width: 30%;'> </img> <p><strong>你是否选择发射武器？</strong></p>","0",""
"","","","","","html-keyboard-response","58","242902","0.0-4.0-0.27","88","1","2022-11-13 11:44:42","a60ee176136a54a92dc2853177adfa2c","106.42.73.131","Mozilla/5.0 (Windows NT 10.0; Win64; x64) AppleWebKit/537.36 (KHTML, like Gecko) Chrome/103.0.5060.114 Safari/537.36 Edg/103.0.1264.62","WebKit","Edge","103.0.1264.62","Windows","10.0","null","<div style=""font-size:60px;"">+</div>","null",""
"","","","","","html-button-response","59","245555","0.0-4.0-1.27","88","1","2022-11-13 11:44:42","a60ee176136a54a92dc2853177adfa2c","106.42.73.131","Mozilla/5.0 (Windows NT 10.0; Win64; x64) AppleWebKit/537.36 (KHTML, like Gecko) Chrome/103.0.5060.114 Safari/537.36 Edg/103.0.1264.62","WebKit","Edge","103.0.1264.62","Windows","10.0","2651","<p>作为军队的指挥官，你可以选择发射导弹杀死 <strong>10名</strong> 敌国士兵，但会误杀附近的 <strong>1名</strong> 敌国平民。</p> <p>平民照片如下图所示。</p> <p></p> <img src='stimuli/faces/PCM8.jpg', style='max-width: 30%;'> </img> <p><strong>你是否选择发射武器？</strong></p>","0",""
"","","","","","html-keyboard-response","60","246558","0.0-4.0-0.28","88","1","2022-11-13 11:44:42","a60ee176136a54a92dc2853177adfa2c","106.42.73.131","Mozilla/5.0 (Windows NT 10.0; Win64; x64) AppleWebKit/537.36 (KHTML, like Gecko) Chrome/103.0.5060.114 Safari/537.36 Edg/103.0.1264.62","WebKit","Edge","103.0.1264.62","Windows","10.0","null","<div style=""font-size:60px;"">+</div>","null",""
"","","","","","html-button-response","61","248570","0.0-4.0-1.28","88","1","2022-11-13 11:44:42","a60ee176136a54a92dc2853177adfa2c","106.42.73.131","Mozilla/5.0 (Windows NT 10.0; Win64; x64) AppleWebKit/537.36 (KHTML, like Gecko) Chrome/103.0.5060.114 Safari/537.36 Edg/103.0.1264.62","WebKit","Edge","103.0.1264.62","Windows","10.0","2010","<p>作为军队的指挥官，你可以选择发射导弹杀死 <strong>4名</strong> 敌国士兵，但会误杀附近的 <strong>1名</strong> 敌国平民。</p> <p>平民照片如下图所示。</p> <p></p> <img src='stimuli/faces/PCM1.jpg', style='max-width: 30%;'> </img> <p><strong>你是否选择发射武器？</strong></p>","0",""
"","","","","","html-keyboard-response","62","249572","0.0-4.0-0.29","88","1","2022-11-13 11:44:42","a60ee176136a54a92dc2853177adfa2c","106.42.73.131","Mozilla/5.0 (Windows NT 10.0; Win64; x64) AppleWebKit/537.36 (KHTML, like Gecko) Chrome/103.0.5060.114 Safari/537.36 Edg/103.0.1264.62","WebKit","Edge","103.0.1264.62","Windows","10.0","null","<div style=""font-size:60px;"">+</div>","null",""
"","","","","","html-button-response","63","252442","0.0-4.0-1.29","88","1","2022-11-13 11:44:42","a60ee176136a54a92dc2853177adfa2c","106.42.73.131","Mozilla/5.0 (Windows NT 10.0; Win64; x64) AppleWebKit/537.36 (KHTML, like Gecko) Chrome/103.0.5060.114 Safari/537.36 Edg/103.0.1264.62","WebKit","Edge","103.0.1264.62","Windows","10.0","2869","<p>作为军队的指挥官，你可以选择发射导弹杀死 <strong>7名</strong> 敌国士兵，但会炸毁附近的 <strong>1棵</strong> 敌国树木。</p> <p>树木的照片如下图所示。</p> <p></p> <img src='stimuli/trees/5.png', style='max-width: 30%;'> </img> <p><strong>你是否选择发射武器？</strong></p>","0",""
"","","","","","html-keyboard-response","64","253448","0.0-4.0-0.30","88","1","2022-11-13 11:44:42","a60ee176136a54a92dc2853177adfa2c","106.42.73.131","Mozilla/5.0 (Windows NT 10.0; Win64; x64) AppleWebKit/537.36 (KHTML, like Gecko) Chrome/103.0.5060.114 Safari/537.36 Edg/103.0.1264.62","WebKit","Edge","103.0.1264.62","Windows","10.0","null","<div style=""font-size:60px;"">+</div>","null",""
"","","","","","html-button-response","65","254603","0.0-4.0-1.30","88","1","2022-11-13 11:44:42","a60ee176136a54a92dc2853177adfa2c","106.42.73.131","Mozilla/5.0 (Windows NT 10.0; Win64; x64) AppleWebKit/537.36 (KHTML, like Gecko) Chrome/103.0.5060.114 Safari/537.36 Edg/103.0.1264.62","WebKit","Edge","103.0.1264.62","Windows","10.0","1153","<p>作为军队的指挥官，你可以选择发射导弹杀死 <strong>7名</strong> 敌国士兵，但会误杀附近的 <strong>1名</strong> 敌国平民。</p> <p>平民照片如下图所示。</p> <p></p> <img src='stimuli/faces/PCM1.jpg', style='max-width: 30%;'> </img> <p><strong>你是否选择发射武器？</strong></p>","0",""
"","","","","","html-keyboard-response","66","255617","0.0-4.0-0.31","88","1","2022-11-13 11:44:42","a60ee176136a54a92dc2853177adfa2c","106.42.73.131","Mozilla/5.0 (Windows NT 10.0; Win64; x64) AppleWebKit/537.36 (KHTML, like Gecko) Chrome/103.0.5060.114 Safari/537.36 Edg/103.0.1264.62","WebKit","Edge","103.0.1264.62","Windows","10.0","null","<div style=""font-size:60px;"">+</div>","null",""
"","","","","","html-button-response","67","258298","0.0-4.0-1.31","88","1","2022-11-13 11:44:42","a60ee176136a54a92dc2853177adfa2c","106.42.73.131","Mozilla/5.0 (Windows NT 10.0; Win64; x64) AppleWebKit/537.36 (KHTML, like Gecko) Chrome/103.0.5060.114 Safari/537.36 Edg/103.0.1264.62","WebKit","Edge","103.0.1264.62","Windows","10.0","2679","<p>作为军队的指挥官，你可以选择发射导弹杀死 <strong>1名</strong> 敌国士兵，但会误杀附近的 <strong>1名</strong> 敌国平民。</p> <p>平民照片如下图所示。</p> <p></p> <img src='stimuli/faces/PCF4.jpg', style='max-width: 30%;'> </img> <p><strong>你是否选择发射武器？</strong></p>","0",""
"","","","","","html-keyboard-response","68","259300","0.0-4.0-0.32","88","1","2022-11-13 11:44:42","a60ee176136a54a92dc2853177adfa2c","106.42.73.131","Mozilla/5.0 (Windows NT 10.0; Win64; x64) AppleWebKit/537.36 (KHTML, like Gecko) Chrome/103.0.5060.114 Safari/537.36 Edg/103.0.1264.62","WebKit","Edge","103.0.1264.62","Windows","10.0","null","<div style=""font-size:60px;"">+</div>","null",""
"","","","","","html-button-response","69","261291","0.0-4.0-1.32","88","1","2022-11-13 11:44:42","a60ee176136a54a92dc2853177adfa2c","106.42.73.131","Mozilla/5.0 (Windows NT 10.0; Win64; x64) AppleWebKit/537.36 (KHTML, like Gecko) Chrome/103.0.5060.114 Safari/537.36 Edg/103.0.1264.62","WebKit","Edge","103.0.1264.62","Windows","10.0","1990","<p>作为军队的指挥官，你可以选择发射导弹杀死 <strong>10名</strong> 敌国士兵，但会炸毁附近的 <strong>1棵</strong> 敌国树木。</p> <p>树木的照片如下图所示。</p> <p></p> <img src='stimuli/trees/4.png', style='max-width: 30%;'> </img> <p><strong>你是否选择发射武器？</strong></p>","0",""
"","","","","","html-keyboard-response","70","262293","0.0-4.0-0.33","88","1","2022-11-13 11:44:42","a60ee176136a54a92dc2853177adfa2c","106.42.73.131","Mozilla/5.0 (Windows NT 10.0; Win64; x64) AppleWebKit/537.36 (KHTML, like Gecko) Chrome/103.0.5060.114 Safari/537.36 Edg/103.0.1264.62","WebKit","Edge","103.0.1264.62","Windows","10.0","null","<div style=""font-size:60px;"">+</div>","null",""
"","","","","","html-button-response","71","263611","0.0-4.0-1.33","88","1","2022-11-13 11:44:42","a60ee176136a54a92dc2853177adfa2c","106.42.73.131","Mozilla/5.0 (Windows NT 10.0; Win64; x64) AppleWebKit/537.36 (KHTML, like Gecko) Chrome/103.0.5060.114 Safari/537.36 Edg/103.0.1264.62","WebKit","Edge","103.0.1264.62","Windows","10.0","1317","<p>作为军队的指挥官，你可以选择发射导弹杀死 <strong>2名</strong> 敌国士兵，但会误杀附近的 <strong>1名</strong> 敌国平民。</p> <p>平民照片如下图所示。</p> <p></p> <img src='stimuli/faces/PCF1.jpg', style='max-width: 30%;'> </img> <p><strong>你是否选择发射武器？</strong></p>","0",""
"","","","","","html-keyboard-response","72","264613","0.0-4.0-0.34","88","1","2022-11-13 11:44:42","a60ee176136a54a92dc2853177adfa2c","106.42.73.131","Mozilla/5.0 (Windows NT 10.0; Win64; x64) AppleWebKit/537.36 (KHTML, like Gecko) Chrome/103.0.5060.114 Safari/537.36 Edg/103.0.1264.62","WebKit","Edge","103.0.1264.62","Windows","10.0","null","<div style=""font-size:60px;"">+</div>","null",""
"","","","","","html-button-response","73","266154","0.0-4.0-1.34","88","1","2022-11-13 11:44:42","a60ee176136a54a92dc2853177adfa2c","106.42.73.131","Mozilla/5.0 (Windows NT 10.0; Win64; x64) AppleWebKit/537.36 (KHTML, like Gecko) Chrome/103.0.5060.114 Safari/537.36 Edg/103.0.1264.62","WebKit","Edge","103.0.1264.62","Windows","10.0","1540","<p>作为军队的指挥官，你可以选择发射导弹杀死 <strong>4名</strong> 敌国士兵，但会炸毁附近的 <strong>1棵</strong> 敌国树木。</p> <p>树木的照片如下图所示。</p> <p></p> <img src='stimuli/trees/3.png', style='max-width: 30%;'> </img> <p><strong>你是否选择发射武器？</strong></p>","1",""
"","","","","","html-keyboard-response","74","267157","0.0-4.0-0.35","88","1","2022-11-13 11:44:42","a60ee176136a54a92dc2853177adfa2c","106.42.73.131","Mozilla/5.0 (Windows NT 10.0; Win64; x64) AppleWebKit/537.36 (KHTML, like Gecko) Chrome/103.0.5060.114 Safari/537.36 Edg/103.0.1264.62","WebKit","Edge","103.0.1264.62","Windows","10.0","null","<div style=""font-size:60px;"">+</div>","null",""
"","","","","","html-button-response","75","269906","0.0-4.0-1.35","88","1","2022-11-13 11:44:42","a60ee176136a54a92dc2853177adfa2c","106.42.73.131","Mozilla/5.0 (Windows NT 10.0; Win64; x64) AppleWebKit/537.36 (KHTML, like Gecko) Chrome/103.0.5060.114 Safari/537.36 Edg/103.0.1264.62","WebKit","Edge","103.0.1264.62","Windows","10.0","2747","<p>作为军队的指挥官，你可以选择发射导弹杀死 <strong>9名</strong> 敌国士兵，但会炸毁附近的 <strong>1棵</strong> 敌国树木。</p> <p>树木的照片如下图所示。</p> <p></p> <img src='stimuli/trees/9.png', style='max-width: 30%;'> </img> <p><strong>你是否选择发射武器？</strong></p>","1",""
"","","","","","html-keyboard-response","76","270908","0.0-4.0-0.36","88","1","2022-11-13 11:44:42","a60ee176136a54a92dc2853177adfa2c","106.42.73.131","Mozilla/5.0 (Windows NT 10.0; Win64; x64) AppleWebKit/537.36 (KHTML, like Gecko) Chrome/103.0.5060.114 Safari/537.36 Edg/103.0.1264.62","WebKit","Edge","103.0.1264.62","Windows","10.0","null","<div style=""font-size:60px;"">+</div>","null",""
"","","","","","html-button-response","77","272666","0.0-4.0-1.36","88","1","2022-11-13 11:44:42","a60ee176136a54a92dc2853177adfa2c","106.42.73.131","Mozilla/5.0 (Windows NT 10.0; Win64; x64) AppleWebKit/537.36 (KHTML, like Gecko) Chrome/103.0.5060.114 Safari/537.36 Edg/103.0.1264.62","WebKit","Edge","103.0.1264.62","Windows","10.0","1756","<p>作为军队的指挥官，你可以选择发射导弹杀死 <strong>2名</strong> 敌国士兵，但会炸毁附近的 <strong>1棵</strong> 敌国树木。</p> <p>树木的照片如下图所示。</p> <p></p> <img src='stimuli/trees/7.png', style='max-width: 30%;'> </img> <p><strong>你是否选择发射武器？</strong></p>","0",""
"","","","","","html-keyboard-response","78","273668","0.0-4.0-0.37","88","1","2022-11-13 11:44:42","a60ee176136a54a92dc2853177adfa2c","106.42.73.131","Mozilla/5.0 (Windows NT 10.0; Win64; x64) AppleWebKit/537.36 (KHTML, like Gecko) Chrome/103.0.5060.114 Safari/537.36 Edg/103.0.1264.62","WebKit","Edge","103.0.1264.62","Windows","10.0","null","<div style=""font-size:60px;"">+</div>","null",""
"","","","","","html-button-response","79","275785","0.0-4.0-1.37","88","1","2022-11-13 11:44:42","a60ee176136a54a92dc2853177adfa2c","106.42.73.131","Mozilla/5.0 (Windows NT 10.0; Win64; x64) AppleWebKit/537.36 (KHTML, like Gecko) Chrome/103.0.5060.114 Safari/537.36 Edg/103.0.1264.62","WebKit","Edge","103.0.1264.62","Windows","10.0","2115","<p>作为军队的指挥官，你可以选择发射导弹杀死 <strong>6名</strong> 敌国士兵，但会炸毁附近的 <strong>1棵</strong> 敌国树木。</p> <p>树木的照片如下图所示。</p> <p></p> <img src='stimuli/trees/2.png', style='max-width: 30%;'> </img> <p><strong>你是否选择发射武器？</strong></p>","0",""
"","","","","","html-keyboard-response","80","276789","0.0-4.0-0.38","88","1","2022-11-13 11:44:42","a60ee176136a54a92dc2853177adfa2c","106.42.73.131","Mozilla/5.0 (Windows NT 10.0; Win64; x64) AppleWebKit/537.36 (KHTML, like Gecko) Chrome/103.0.5060.114 Safari/537.36 Edg/103.0.1264.62","WebKit","Edge","103.0.1264.62","Windows","10.0","null","<div style=""font-size:60px;"">+</div>","null",""
"","","","","","html-button-response","81","278746","0.0-4.0-1.38","88","1","2022-11-13 11:44:42","a60ee176136a54a92dc2853177adfa2c","106.42.73.131","Mozilla/5.0 (Windows NT 10.0; Win64; x64) AppleWebKit/537.36 (KHTML, like Gecko) Chrome/103.0.5060.114 Safari/537.36 Edg/103.0.1264.62","WebKit","Edge","103.0.1264.62","Windows","10.0","1955","<p>作为军队的指挥官，你可以选择发射导弹杀死 <strong>3名</strong> 敌国士兵，但会炸毁附近的 <strong>1棵</strong> 敌国树木。</p> <p>树木的照片如下图所示。</p> <p></p> <img src='stimuli/trees/12.png', style='max-width: 30%;'> </img> <p><strong>你是否选择发射武器？</strong></p>","0",""
"","","","","","html-keyboard-response","82","279748","0.0-4.0-0.39","88","1","2022-11-13 11:44:42","a60ee176136a54a92dc2853177adfa2c","106.42.73.131","Mozilla/5.0 (Windows NT 10.0; Win64; x64) AppleWebKit/537.36 (KHTML, like Gecko) Chrome/103.0.5060.114 Safari/537.36 Edg/103.0.1264.62","WebKit","Edge","103.0.1264.62","Windows","10.0","null","<div style=""font-size:60px;"">+</div>","null",""
"","","","","","html-button-response","83","281802","0.0-4.0-1.39","88","1","2022-11-13 11:44:42","a60ee176136a54a92dc2853177adfa2c","106.42.73.131","Mozilla/5.0 (Windows NT 10.0; Win64; x64) AppleWebKit/537.36 (KHTML, like Gecko) Chrome/103.0.5060.114 Safari/537.36 Edg/103.0.1264.62","WebKit","Edge","103.0.1264.62","Windows","10.0","2052","<p>作为军队的指挥官，你可以选择发射导弹杀死 <strong>2名</strong> 敌国士兵，但会炸毁附近的 <strong>1棵</strong> 敌国树木。</p> <p>树木的照片如下图所示。</p> <p></p> <img src='stimuli/trees/13.png', style='max-width: 30%;'> </img> <p><strong>你是否选择发射武器？</strong></p>","1",""
"","","","","","html-keyboard-response","84","282819","0.0-4.0-0.40","88","1","2022-11-13 11:44:42","a60ee176136a54a92dc2853177adfa2c","106.42.73.131","Mozilla/5.0 (Windows NT 10.0; Win64; x64) AppleWebKit/537.36 (KHTML, like Gecko) Chrome/103.0.5060.114 Safari/537.36 Edg/103.0.1264.62","WebKit","Edge","103.0.1264.62","Windows","10.0","null","<div style=""font-size:60px;"">+</div>","null",""
"","","","","","html-button-response","85","285146","0.0-4.0-1.40","88","1","2022-11-13 11:44:42","a60ee176136a54a92dc2853177adfa2c","106.42.73.131","Mozilla/5.0 (Windows NT 10.0; Win64; x64) AppleWebKit/537.36 (KHTML, like Gecko) Chrome/103.0.5060.114 Safari/537.36 Edg/103.0.1264.62","WebKit","Edge","103.0.1264.62","Windows","10.0","2325","<p>作为军队的指挥官，你可以选择发射导弹杀死 <strong>10名</strong> 敌国士兵，但会误杀附近的 <strong>1名</strong> 敌国平民。</p> <p>平民照片如下图所示。</p> <p></p> <img src='stimuli/faces/PCF5.jpg', style='max-width: 30%;'> </img> <p><strong>你是否选择发射武器？</strong></p>","0",""
"","","","","","html-keyboard-response","86","286149","0.0-4.0-0.41","88","1","2022-11-13 11:44:42","a60ee176136a54a92dc2853177adfa2c","106.42.73.131","Mozilla/5.0 (Windows NT 10.0; Win64; x64) AppleWebKit/537.36 (KHTML, like Gecko) Chrome/103.0.5060.114 Safari/537.36 Edg/103.0.1264.62","WebKit","Edge","103.0.1264.62","Windows","10.0","null","<div style=""font-size:60px;"">+</div>","null",""
"","","","","","html-button-response","87","290042","0.0-4.0-1.41","88","1","2022-11-13 11:44:42","a60ee176136a54a92dc2853177adfa2c","106.42.73.131","Mozilla/5.0 (Windows NT 10.0; Win64; x64) AppleWebKit/537.36 (KHTML, like Gecko) Chrome/103.0.5060.114 Safari/537.36 Edg/103.0.1264.62","WebKit","Edge","103.0.1264.62","Windows","10.0","3891","<p>作为军队的指挥官，你可以选择发射导弹杀死 <strong>6名</strong> 敌国士兵，但会误杀附近的 <strong>1名</strong> 敌国平民。</p> <p>平民照片如下图所示。</p> <p></p> <img src='stimuli/faces/PCF8.jpg', style='max-width: 30%;'> </img> <p><strong>你是否选择发射武器？</strong></p>","1",""
"","","","","","html-keyboard-response","88","291045","0.0-4.0-0.42","88","1","2022-11-13 11:44:42","a60ee176136a54a92dc2853177adfa2c","106.42.73.131","Mozilla/5.0 (Windows NT 10.0; Win64; x64) AppleWebKit/537.36 (KHTML, like Gecko) Chrome/103.0.5060.114 Safari/537.36 Edg/103.0.1264.62","WebKit","Edge","103.0.1264.62","Windows","10.0","null","<div style=""font-size:60px;"">+</div>","null",""
"","","","","","html-button-response","89","292794","0.0-4.0-1.42","88","1","2022-11-13 11:44:42","a60ee176136a54a92dc2853177adfa2c","106.42.73.131","Mozilla/5.0 (Windows NT 10.0; Win64; x64) AppleWebKit/537.36 (KHTML, like Gecko) Chrome/103.0.5060.114 Safari/537.36 Edg/103.0.1264.62","WebKit","Edge","103.0.1264.62","Windows","10.0","1746","<p>作为军队的指挥官，你可以选择发射导弹杀死 <strong>7名</strong> 敌国士兵，但会炸毁附近的 <strong>1棵</strong> 敌国树木。</p> <p>树木的照片如下图所示。</p> <p></p> <img src='stimuli/trees/15.png', style='max-width: 30%;'> </img> <p><strong>你是否选择发射武器？</strong></p>","0",""
"","","","","","html-keyboard-response","90","293807","0.0-4.0-0.43","88","1","2022-11-13 11:44:42","a60ee176136a54a92dc2853177adfa2c","106.42.73.131","Mozilla/5.0 (Windows NT 10.0; Win64; x64) AppleWebKit/537.36 (KHTML, like Gecko) Chrome/103.0.5060.114 Safari/537.36 Edg/103.0.1264.62","WebKit","Edge","103.0.1264.62","Windows","10.0","null","<div style=""font-size:60px;"">+</div>","null",""
"","","","","","html-button-response","91","295482","0.0-4.0-1.43","88","1","2022-11-13 11:44:42","a60ee176136a54a92dc2853177adfa2c","106.42.73.131","Mozilla/5.0 (Windows NT 10.0; Win64; x64) AppleWebKit/537.36 (KHTML, like Gecko) Chrome/103.0.5060.114 Safari/537.36 Edg/103.0.1264.62","WebKit","Edge","103.0.1264.62","Windows","10.0","1673","<p>作为军队的指挥官，你可以选择发射导弹杀死 <strong>10名</strong> 敌国士兵，但会炸毁附近的 <strong>1棵</strong> 敌国树木。</p> <p>树木的照片如下图所示。</p> <p></p> <img src='stimuli/trees/12.png', style='max-width: 30%;'> </img> <p><strong>你是否选择发射武器？</strong></p>","0",""
"","","","","","html-keyboard-response","92","296486","0.0-4.0-0.44","88","1","2022-11-13 11:44:42","a60ee176136a54a92dc2853177adfa2c","106.42.73.131","Mozilla/5.0 (Windows NT 10.0; Win64; x64) AppleWebKit/537.36 (KHTML, like Gecko) Chrome/103.0.5060.114 Safari/537.36 Edg/103.0.1264.62","WebKit","Edge","103.0.1264.62","Windows","10.0","null","<div style=""font-size:60px;"">+</div>","null",""
"","","","","","html-button-response","93","298162","0.0-4.0-1.44","88","1","2022-11-13 11:44:42","a60ee176136a54a92dc2853177adfa2c","106.42.73.131","Mozilla/5.0 (Windows NT 10.0; Win64; x64) AppleWebKit/537.36 (KHTML, like Gecko) Chrome/103.0.5060.114 Safari/537.36 Edg/103.0.1264.62","WebKit","Edge","103.0.1264.62","Windows","10.0","1674","<p>作为军队的指挥官，你可以选择发射导弹杀死 <strong>7名</strong> 敌国士兵，但会炸毁附近的 <strong>1棵</strong> 敌国树木。</p> <p>树木的照片如下图所示。</p> <p></p> <img src='stimuli/trees/11.png', style='max-width: 30%;'> </img> <p><strong>你是否选择发射武器？</strong></p>","1",""
"","","","","","html-keyboard-response","94","299165","0.0-4.0-0.45","88","1","2022-11-13 11:44:42","a60ee176136a54a92dc2853177adfa2c","106.42.73.131","Mozilla/5.0 (Windows NT 10.0; Win64; x64) AppleWebKit/537.36 (KHTML, like Gecko) Chrome/103.0.5060.114 Safari/537.36 Edg/103.0.1264.62","WebKit","Edge","103.0.1264.62","Windows","10.0","null","<div style=""font-size:60px;"">+</div>","null",""
"","","","","","html-button-response","95","300810","0.0-4.0-1.45","88","1","2022-11-13 11:44:42","a60ee176136a54a92dc2853177adfa2c","106.42.73.131","Mozilla/5.0 (Windows NT 10.0; Win64; x64) AppleWebKit/537.36 (KHTML, like Gecko) Chrome/103.0.5060.114 Safari/537.36 Edg/103.0.1264.62","WebKit","Edge","103.0.1264.62","Windows","10.0","1643","<p>作为军队的指挥官，你可以选择发射导弹杀死 <strong>10名</strong> 敌国士兵，但会炸毁附近的 <strong>1棵</strong> 敌国树木。</p> <p>树木的照片如下图所示。</p> <p></p> <img src='stimuli/trees/10.png', style='max-width: 30%;'> </img> <p><strong>你是否选择发射武器？</strong></p>","0",""
"","","","","","html-keyboard-response","96","301823","0.0-4.0-0.46","88","1","2022-11-13 11:44:42","a60ee176136a54a92dc2853177adfa2c","106.42.73.131","Mozilla/5.0 (Windows NT 10.0; Win64; x64) AppleWebKit/537.36 (KHTML, like Gecko) Chrome/103.0.5060.114 Safari/537.36 Edg/103.0.1264.62","WebKit","Edge","103.0.1264.62","Windows","10.0","null","<div style=""font-size:60px;"">+</div>","null",""
"","","","","","html-button-response","97","305066","0.0-4.0-1.46","88","1","2022-11-13 11:44:42","a60ee176136a54a92dc2853177adfa2c","106.42.73.131","Mozilla/5.0 (Windows NT 10.0; Win64; x64) AppleWebKit/537.36 (KHTML, like Gecko) Chrome/103.0.5060.114 Safari/537.36 Edg/103.0.1264.62","WebKit","Edge","103.0.1264.62","Windows","10.0","3241","<p>作为军队的指挥官，你可以选择发射导弹杀死 <strong>9名</strong> 敌国士兵，但会炸毁附近的 <strong>1棵</strong> 敌国树木。</p> <p>树木的照片如下图所示。</p> <p></p> <img src='stimuli/trees/13.png', style='max-width: 30%;'> </img> <p><strong>你是否选择发射武器？</strong></p>","1",""
"","","","","","html-keyboard-response","98","306069","0.0-4.0-0.47","88","1","2022-11-13 11:44:42","a60ee176136a54a92dc2853177adfa2c","106.42.73.131","Mozilla/5.0 (Windows NT 10.0; Win64; x64) AppleWebKit/537.36 (KHTML, like Gecko) Chrome/103.0.5060.114 Safari/537.36 Edg/103.0.1264.62","WebKit","Edge","103.0.1264.62","Windows","10.0","null","<div style=""font-size:60px;"">+</div>","null",""
"","","","","","html-button-response","99","307314","0.0-4.0-1.47","88","1","2022-11-13 11:44:42","a60ee176136a54a92dc2853177adfa2c","106.42.73.131","Mozilla/5.0 (Windows NT 10.0; Win64; x64) AppleWebKit/537.36 (KHTML, like Gecko) Chrome/103.0.5060.114 Safari/537.36 Edg/103.0.1264.62","WebKit","Edge","103.0.1264.62","Windows","10.0","1242","<p>作为军队的指挥官，你可以选择发射导弹杀死 <strong>8名</strong> 敌国士兵，但会误杀附近的 <strong>1名</strong> 敌国平民。</p> <p>平民照片如下图所示。</p> <p></p> <img src='stimuli/faces/PCM6.jpg', style='max-width: 30%;'> </img> <p><strong>你是否选择发射武器？</strong></p>","0",""
"","","","","","html-keyboard-response","100","308321","0.0-4.0-0.48","88","1","2022-11-13 11:44:42","a60ee176136a54a92dc2853177adfa2c","106.42.73.131","Mozilla/5.0 (Windows NT 10.0; Win64; x64) AppleWebKit/537.36 (KHTML, like Gecko) Chrome/103.0.5060.114 Safari/537.36 Edg/103.0.1264.62","WebKit","Edge","103.0.1264.62","Windows","10.0","null","<div style=""font-size:60px;"">+</div>","null",""
"","","","","","html-button-response","101","309986","0.0-4.0-1.48","88","1","2022-11-13 11:44:42","a60ee176136a54a92dc2853177adfa2c","106.42.73.131","Mozilla/5.0 (Windows NT 10.0; Win64; x64) AppleWebKit/537.36 (KHTML, like Gecko) Chrome/103.0.5060.114 Safari/537.36 Edg/103.0.1264.62","WebKit","Edge","103.0.1264.62","Windows","10.0","1662","<p>作为军队的指挥官，你可以选择发射导弹杀死 <strong>6名</strong> 敌国士兵，但会炸毁附近的 <strong>1棵</strong> 敌国树木。</p> <p>树木的照片如下图所示。</p> <p></p> <img src='stimuli/trees/3.png', style='max-width: 30%;'> </img> <p><strong>你是否选择发射武器？</strong></p>","1",""
"","","","","","html-keyboard-response","102","311000","0.0-4.0-0.49","88","1","2022-11-13 11:44:42","a60ee176136a54a92dc2853177adfa2c","106.42.73.131","Mozilla/5.0 (Windows NT 10.0; Win64; x64) AppleWebKit/537.36 (KHTML, like Gecko) Chrome/103.0.5060.114 Safari/537.36 Edg/103.0.1264.62","WebKit","Edge","103.0.1264.62","Windows","10.0","null","<div style=""font-size:60px;"">+</div>","null",""
"","","","","","html-button-response","103","313042","0.0-4.0-1.49","88","1","2022-11-13 11:44:42","a60ee176136a54a92dc2853177adfa2c","106.42.73.131","Mozilla/5.0 (Windows NT 10.0; Win64; x64) AppleWebKit/537.36 (KHTML, like Gecko) Chrome/103.0.5060.114 Safari/537.36 Edg/103.0.1264.62","WebKit","Edge","103.0.1264.62","Windows","10.0","2039","<p>作为军队的指挥官，你可以选择发射导弹杀死 <strong>4名</strong> 敌国士兵，但会误杀附近的 <strong>1名</strong> 敌国平民。</p> <p>平民照片如下图所示。</p> <p></p> <img src='stimuli/faces/PCF6.jpg', style='max-width: 30%;'> </img> <p><strong>你是否选择发射武器？</strong></p>","0",""
"","","","","","html-keyboard-response","104","314045","0.0-4.0-0.50","88","1","2022-11-13 11:44:42","a60ee176136a54a92dc2853177adfa2c","106.42.73.131","Mozilla/5.0 (Windows NT 10.0; Win64; x64) AppleWebKit/537.36 (KHTML, like Gecko) Chrome/103.0.5060.114 Safari/537.36 Edg/103.0.1264.62","WebKit","Edge","103.0.1264.62","Windows","10.0","null","<div style=""font-size:60px;"">+</div>","null",""
"","","","","","html-button-response","105","314626","0.0-4.0-1.50","88","1","2022-11-13 11:44:42","a60ee176136a54a92dc2853177adfa2c","106.42.73.131","Mozilla/5.0 (Windows NT 10.0; Win64; x64) AppleWebKit/537.36 (KHTML, like Gecko) Chrome/103.0.5060.114 Safari/537.36 Edg/103.0.1264.62","WebKit","Edge","103.0.1264.62","Windows","10.0","578","<p>作为军队的指挥官，你可以选择发射导弹杀死 <strong>7名</strong> 敌国士兵，但会误杀附近的 <strong>1名</strong> 敌国平民。</p> <p>平民照片如下图所示。</p> <p></p> <img src='stimuli/faces/PCF4.jpg', style='max-width: 30%;'> </img> <p><strong>你是否选择发射武器？</strong></p>","0",""
"","","","","","html-keyboard-response","106","315632","0.0-4.0-0.51","88","1","2022-11-13 11:44:42","a60ee176136a54a92dc2853177adfa2c","106.42.73.131","Mozilla/5.0 (Windows NT 10.0; Win64; x64) AppleWebKit/537.36 (KHTML, like Gecko) Chrome/103.0.5060.114 Safari/537.36 Edg/103.0.1264.62","WebKit","Edge","103.0.1264.62","Windows","10.0","null","<div style=""font-size:60px;"">+</div>","null",""
"","","","","","html-button-response","107","316618","0.0-4.0-1.51","88","1","2022-11-13 11:44:42","a60ee176136a54a92dc2853177adfa2c","106.42.73.131","Mozilla/5.0 (Windows NT 10.0; Win64; x64) AppleWebKit/537.36 (KHTML, like Gecko) Chrome/103.0.5060.114 Safari/537.36 Edg/103.0.1264.62","WebKit","Edge","103.0.1264.62","Windows","10.0","983","<p>作为军队的指挥官，你可以选择发射导弹杀死 <strong>4名</strong> 敌国士兵，但会误杀附近的 <strong>1名</strong> 敌国平民。</p> <p>平民照片如下图所示。</p> <p></p> <img src='stimuli/faces/PCM7.jpg', style='max-width: 30%;'> </img> <p><strong>你是否选择发射武器？</strong></p>","0",""
"","","","","","html-keyboard-response","108","317625","0.0-4.0-0.52","88","1","2022-11-13 11:44:42","a60ee176136a54a92dc2853177adfa2c","106.42.73.131","Mozilla/5.0 (Windows NT 10.0; Win64; x64) AppleWebKit/537.36 (KHTML, like Gecko) Chrome/103.0.5060.114 Safari/537.36 Edg/103.0.1264.62","WebKit","Edge","103.0.1264.62","Windows","10.0","null","<div style=""font-size:60px;"">+</div>","null",""
"","","","","","html-button-response","109","319698","0.0-4.0-1.52","88","1","2022-11-13 11:44:42","a60ee176136a54a92dc2853177adfa2c","106.42.73.131","Mozilla/5.0 (Windows NT 10.0; Win64; x64) AppleWebKit/537.36 (KHTML, like Gecko) Chrome/103.0.5060.114 Safari/537.36 Edg/103.0.1264.62","WebKit","Edge","103.0.1264.62","Windows","10.0","2071","<p>作为军队的指挥官，你可以选择发射导弹杀死 <strong>3名</strong> 敌国士兵，但会误杀附近的 <strong>1名</strong> 敌国平民。</p> <p>平民照片如下图所示。</p> <p></p> <img src='stimuli/faces/PCM6.jpg', style='max-width: 30%;'> </img> <p><strong>你是否选择发射武器？</strong></p>","0",""
"","","","","","html-keyboard-response","110","320711","0.0-4.0-0.53","88","1","2022-11-13 11:44:42","a60ee176136a54a92dc2853177adfa2c","106.42.73.131","Mozilla/5.0 (Windows NT 10.0; Win64; x64) AppleWebKit/537.36 (KHTML, like Gecko) Chrome/103.0.5060.114 Safari/537.36 Edg/103.0.1264.62","WebKit","Edge","103.0.1264.62","Windows","10.0","null","<div style=""font-size:60px;"">+</div>","null",""
"","","","","","html-button-response","111","321850","0.0-4.0-1.53","88","1","2022-11-13 11:44:42","a60ee176136a54a92dc2853177adfa2c","106.42.73.131","Mozilla/5.0 (Windows NT 10.0; Win64; x64) AppleWebKit/537.36 (KHTML, like Gecko) Chrome/103.0.5060.114 Safari/537.36 Edg/103.0.1264.62","WebKit","Edge","103.0.1264.62","Windows","10.0","1136","<p>作为军队的指挥官，你可以选择发射导弹杀死 <strong>9名</strong> 敌国士兵，但会误杀附近的 <strong>1名</strong> 敌国平民。</p> <p>平民照片如下图所示。</p> <p></p> <img src='stimuli/faces/PCM4.jpg', style='max-width: 30%;'> </img> <p><strong>你是否选择发射武器？</strong></p>","0",""
"","","","","","html-keyboard-response","112","322853","0.0-4.0-0.54","88","1","2022-11-13 11:44:42","a60ee176136a54a92dc2853177adfa2c","106.42.73.131","Mozilla/5.0 (Windows NT 10.0; Win64; x64) AppleWebKit/537.36 (KHTML, like Gecko) Chrome/103.0.5060.114 Safari/537.36 Edg/103.0.1264.62","WebKit","Edge","103.0.1264.62","Windows","10.0","null","<div style=""font-size:60px;"">+</div>","null",""
"","","","","","html-button-response","113","323523","0.0-4.0-1.54","88","1","2022-11-13 11:44:42","a60ee176136a54a92dc2853177adfa2c","106.42.73.131","Mozilla/5.0 (Windows NT 10.0; Win64; x64) AppleWebKit/537.36 (KHTML, like Gecko) Chrome/103.0.5060.114 Safari/537.36 Edg/103.0.1264.62","WebKit","Edge","103.0.1264.62","Windows","10.0","668","<p>作为军队的指挥官，你可以选择发射导弹杀死 <strong>1名</strong> 敌国士兵，但会误杀附近的 <strong>1名</strong> 敌国平民。</p> <p>平民照片如下图所示。</p> <p></p> <img src='stimuli/faces/PCM2.jpg', style='max-width: 30%;'> </img> <p><strong>你是否选择发射武器？</strong></p>","0",""
"","","","","","html-keyboard-response","114","324526","0.0-4.0-0.55","88","1","2022-11-13 11:44:42","a60ee176136a54a92dc2853177adfa2c","106.42.73.131","Mozilla/5.0 (Windows NT 10.0; Win64; x64) AppleWebKit/537.36 (KHTML, like Gecko) Chrome/103.0.5060.114 Safari/537.36 Edg/103.0.1264.62","WebKit","Edge","103.0.1264.62","Windows","10.0","null","<div style=""font-size:60px;"">+</div>","null",""
"","","","","","html-button-response","115","327057","0.0-4.0-1.55","88","1","2022-11-13 11:44:42","a60ee176136a54a92dc2853177adfa2c","106.42.73.131","Mozilla/5.0 (Windows NT 10.0; Win64; x64) AppleWebKit/537.36 (KHTML, like Gecko) Chrome/103.0.5060.114 Safari/537.36 Edg/103.0.1264.62","WebKit","Edge","103.0.1264.62","Windows","10.0","2530","<p>作为军队的指挥官，你可以选择发射导弹杀死 <strong>1名</strong> 敌国士兵，但会炸毁附近的 <strong>1棵</strong> 敌国树木。</p> <p>树木的照片如下图所示。</p> <p></p> <img src='stimuli/trees/10.png', style='max-width: 30%;'> </img> <p><strong>你是否选择发射武器？</strong></p>","0",""
"","","","","","html-keyboard-response","116","328071","0.0-4.0-0.56","88","1","2022-11-13 11:44:42","a60ee176136a54a92dc2853177adfa2c","106.42.73.131","Mozilla/5.0 (Windows NT 10.0; Win64; x64) AppleWebKit/537.36 (KHTML, like Gecko) Chrome/103.0.5060.114 Safari/537.36 Edg/103.0.1264.62","WebKit","Edge","103.0.1264.62","Windows","10.0","null","<div style=""font-size:60px;"">+</div>","null",""
"","","","","","html-button-response","117","329930","0.0-4.0-1.56","88","1","2022-11-13 11:44:42","a60ee176136a54a92dc2853177adfa2c","106.42.73.131","Mozilla/5.0 (Windows NT 10.0; Win64; x64) AppleWebKit/537.36 (KHTML, like Gecko) Chrome/103.0.5060.114 Safari/537.36 Edg/103.0.1264.62","WebKit","Edge","103.0.1264.62","Windows","10.0","1857","<p>作为军队的指挥官，你可以选择发射导弹杀死 <strong>7名</strong> 敌国士兵，但会炸毁附近的 <strong>1棵</strong> 敌国树木。</p> <p>树木的照片如下图所示。</p> <p></p> <img src='stimuli/trees/16.png', style='max-width: 30%;'> </img> <p><strong>你是否选择发射武器？</strong></p>","1",""
"","","","","","html-keyboard-response","118","330933","0.0-4.0-0.57","88","1","2022-11-13 11:44:42","a60ee176136a54a92dc2853177adfa2c","106.42.73.131","Mozilla/5.0 (Windows NT 10.0; Win64; x64) AppleWebKit/537.36 (KHTML, like Gecko) Chrome/103.0.5060.114 Safari/537.36 Edg/103.0.1264.62","WebKit","Edge","103.0.1264.62","Windows","10.0","null","<div style=""font-size:60px;"">+</div>","null",""
"","","","","","html-button-response","119","332962","0.0-4.0-1.57","88","1","2022-11-13 11:44:42","a60ee176136a54a92dc2853177adfa2c","106.42.73.131","Mozilla/5.0 (Windows NT 10.0; Win64; x64) AppleWebKit/537.36 (KHTML, like Gecko) Chrome/103.0.5060.114 Safari/537.36 Edg/103.0.1264.62","WebKit","Edge","103.0.1264.62","Windows","10.0","2026","<p>作为军队的指挥官，你可以选择发射导弹杀死 <strong>3名</strong> 敌国士兵，但会误杀附近的 <strong>1名</strong> 敌国平民。</p> <p>平民照片如下图所示。</p> <p></p> <img src='stimuli/faces/PCF5.jpg', style='max-width: 30%;'> </img> <p><strong>你是否选择发射武器？</strong></p>","0",""
"","","","","","html-keyboard-response","120","333977","0.0-4.0-0.58","88","1","2022-11-13 11:44:42","a60ee176136a54a92dc2853177adfa2c","106.42.73.131","Mozilla/5.0 (Windows NT 10.0; Win64; x64) AppleWebKit/537.36 (KHTML, like Gecko) Chrome/103.0.5060.114 Safari/537.36 Edg/103.0.1264.62","WebKit","Edge","103.0.1264.62","Windows","10.0","null","<div style=""font-size:60px;"">+</div>","null",""
"","","","","","html-button-response","121","335738","0.0-4.0-1.58","88","1","2022-11-13 11:44:42","a60ee176136a54a92dc2853177adfa2c","106.42.73.131","Mozilla/5.0 (Windows NT 10.0; Win64; x64) AppleWebKit/537.36 (KHTML, like Gecko) Chrome/103.0.5060.114 Safari/537.36 Edg/103.0.1264.62","WebKit","Edge","103.0.1264.62","Windows","10.0","1758","<p>作为军队的指挥官，你可以选择发射导弹杀死 <strong>8名</strong> 敌国士兵，但会误杀附近的 <strong>1名</strong> 敌国平民。</p> <p>平民照片如下图所示。</p> <p></p> <img src='stimuli/faces/PCF3.jpg', style='max-width: 30%;'> </img> <p><strong>你是否选择发射武器？</strong></p>","0",""
"","","","","","html-keyboard-response","122","336742","0.0-4.0-0.59","88","1","2022-11-13 11:44:42","a60ee176136a54a92dc2853177adfa2c","106.42.73.131","Mozilla/5.0 (Windows NT 10.0; Win64; x64) AppleWebKit/537.36 (KHTML, like Gecko) Chrome/103.0.5060.114 Safari/537.36 Edg/103.0.1264.62","WebKit","Edge","103.0.1264.62","Windows","10.0","null","<div style=""font-size:60px;"">+</div>","null",""
"","","","","","html-button-response","123","338282","0.0-4.0-1.59","88","1","2022-11-13 11:44:42","a60ee176136a54a92dc2853177adfa2c","106.42.73.131","Mozilla/5.0 (Windows NT 10.0; Win64; x64) AppleWebKit/537.36 (KHTML, like Gecko) Chrome/103.0.5060.114 Safari/537.36 Edg/103.0.1264.62","WebKit","Edge","103.0.1264.62","Windows","10.0","1538","<p>作为军队的指挥官，你可以选择发射导弹杀死 <strong>6名</strong> 敌国士兵，但会炸毁附近的 <strong>1棵</strong> 敌国树木。</p> <p>树木的照片如下图所示。</p> <p></p> <img src='stimuli/trees/1.png', style='max-width: 30%;'> </img> <p><strong>你是否选择发射武器？</strong></p>","1",""
"","","","","","html-keyboard-response","124","339284","0.0-4.0-0.60","88","1","2022-11-13 11:44:42","a60ee176136a54a92dc2853177adfa2c","106.42.73.131","Mozilla/5.0 (Windows NT 10.0; Win64; x64) AppleWebKit/537.36 (KHTML, like Gecko) Chrome/103.0.5060.114 Safari/537.36 Edg/103.0.1264.62","WebKit","Edge","103.0.1264.62","Windows","10.0","null","<div style=""font-size:60px;"">+</div>","null",""
"","","","","","html-button-response","125","341259","0.0-4.0-1.60","88","1","2022-11-13 11:44:42","a60ee176136a54a92dc2853177adfa2c","106.42.73.131","Mozilla/5.0 (Windows NT 10.0; Win64; x64) AppleWebKit/537.36 (KHTML, like Gecko) Chrome/103.0.5060.114 Safari/537.36 Edg/103.0.1264.62","WebKit","Edge","103.0.1264.62","Windows","10.0","1971","<p>作为军队的指挥官，你可以选择发射导弹杀死 <strong>6名</strong> 敌国士兵，但会炸毁附近的 <strong>1棵</strong> 敌国树木。</p> <p>树木的照片如下图所示。</p> <p></p> <img src='stimuli/trees/6.png', style='max-width: 30%;'> </img> <p><strong>你是否选择发射武器？</strong></p>","0",""
"","","","","","html-keyboard-response","126","342262","0.0-4.0-0.61","88","1","2022-11-13 11:44:42","a60ee176136a54a92dc2853177adfa2c","106.42.73.131","Mozilla/5.0 (Windows NT 10.0; Win64; x64) AppleWebKit/537.36 (KHTML, like Gecko) Chrome/103.0.5060.114 Safari/537.36 Edg/103.0.1264.62","WebKit","Edge","103.0.1264.62","Windows","10.0","null","<div style=""font-size:60px;"">+</div>","null",""
"","","","","","html-button-response","127","343074","0.0-4.0-1.61","88","1","2022-11-13 11:44:42","a60ee176136a54a92dc2853177adfa2c","106.42.73.131","Mozilla/5.0 (Windows NT 10.0; Win64; x64) AppleWebKit/537.36 (KHTML, like Gecko) Chrome/103.0.5060.114 Safari/537.36 Edg/103.0.1264.62","WebKit","Edge","103.0.1264.62","Windows","10.0","809","<p>作为军队的指挥官，你可以选择发射导弹杀死 <strong>4名</strong> 敌国士兵，但会误杀附近的 <strong>1名</strong> 敌国平民。</p> <p>平民照片如下图所示。</p> <p></p> <img src='stimuli/faces/PCF8.jpg', style='max-width: 30%;'> </img> <p><strong>你是否选择发射武器？</strong></p>","0",""
"","","","","","html-keyboard-response","128","344077","0.0-4.0-0.62","88","1","2022-11-13 11:44:42","a60ee176136a54a92dc2853177adfa2c","106.42.73.131","Mozilla/5.0 (Windows NT 10.0; Win64; x64) AppleWebKit/537.36 (KHTML, like Gecko) Chrome/103.0.5060.114 Safari/537.36 Edg/103.0.1264.62","WebKit","Edge","103.0.1264.62","Windows","10.0","null","<div style=""font-size:60px;"">+</div>","null",""
"","","","","","html-button-response","129","346546","0.0-4.0-1.62","88","1","2022-11-13 11:44:42","a60ee176136a54a92dc2853177adfa2c","106.42.73.131","Mozilla/5.0 (Windows NT 10.0; Win64; x64) AppleWebKit/537.36 (KHTML, like Gecko) Chrome/103.0.5060.114 Safari/537.36 Edg/103.0.1264.62","WebKit","Edge","103.0.1264.62","Windows","10.0","2467","<p>作为军队的指挥官，你可以选择发射导弹杀死 <strong>5名</strong> 敌国士兵，但会炸毁附近的 <strong>1棵</strong> 敌国树木。</p> <p>树木的照片如下图所示。</p> <p></p> <img src='stimuli/trees/5.png', style='max-width: 30%;'> </img> <p><strong>你是否选择发射武器？</strong></p>","0",""
"","","","","","html-keyboard-response","130","347549","0.0-4.0-0.63","88","1","2022-11-13 11:44:42","a60ee176136a54a92dc2853177adfa2c","106.42.73.131","Mozilla/5.0 (Windows NT 10.0; Win64; x64) AppleWebKit/537.36 (KHTML, like Gecko) Chrome/103.0.5060.114 Safari/537.36 Edg/103.0.1264.62","WebKit","Edge","103.0.1264.62","Windows","10.0","null","<div style=""font-size:60px;"">+</div>","null",""
"","","","","","html-button-response","131","349700","0.0-4.0-1.63","88","1","2022-11-13 11:44:42","a60ee176136a54a92dc2853177adfa2c","106.42.73.131","Mozilla/5.0 (Windows NT 10.0; Win64; x64) AppleWebKit/537.36 (KHTML, like Gecko) Chrome/103.0.5060.114 Safari/537.36 Edg/103.0.1264.62","WebKit","Edge","103.0.1264.62","Windows","10.0","2148","<p>作为军队的指挥官，你可以选择发射导弹杀死 <strong>6名</strong> 敌国士兵，但会误杀附近的 <strong>1名</strong> 敌国平民。</p> <p>平民照片如下图所示。</p> <p></p> <img src='stimuli/faces/PCF6.jpg', style='max-width: 30%;'> </img> <p><strong>你是否选择发射武器？</strong></p>","0",""
"","","","","","survey-multi-choice","132","372707","0.0-5.0","88","1","2022-11-13 11:44:42","a60ee176136a54a92dc2853177adfa2c","106.42.73.131","Mozilla/5.0 (Windows NT 10.0; Win64; x64) AppleWebKit/537.36 (KHTML, like Gecko) Chrome/103.0.5060.114 Safari/537.36 Edg/103.0.1264.62","WebKit","Edge","103.0.1264.62","Windows","10.0","23004","","{""Attention1"":""""}","[0]"
"","","","","","html-button-response","133","376802","0.0-6.0","88","1","2022-11-13 11:44:42","a60ee176136a54a92dc2853177adfa2c","106.42.73.131","Mozilla/5.0 (Windows NT 10.0; Win64; x64) AppleWebKit/537.36 (KHTML, like Gecko) Chrome/103.0.5060.114 Safari/537.36 Edg/103.0.1264.62","WebKit","Edge","103.0.1264.62","Windows","10.0","4092","<p style=""font-size:20px;font-weight:bold;"">恭喜！</p><p>你已经完成了实验的第一部分。</p><p>请休息放松一下，然后进入第二部分。</p><p>这部分大约需要10分钟。</p>","0",""
"","","","","","survey-text","134","409459","0.0-7.0","88","1","2022-11-13 11:44:42","a60ee176136a54a92dc2853177adfa2c","106.42.73.131","Mozilla/5.0 (Windows NT 10.0; Win64; x64) AppleWebKit/537.36 (KHTML, like Gecko) Chrome/103.0.5060.114 Safari/537.36 Edg/103.0.1264.62","WebKit","Edge","103.0.1264.62","Windows","10.0","31649","","{""Age"":""20"",""Nation"":""中国"",""Born"":""北京市"",""Live"":""河南省许昌市"",""Ethnic"":""汉族"",""Alipay"":""15993694870""}",""
"","","","","","survey-multi-choice","135","424651","0.0-8.0","88","1","2022-11-13 11:44:42","a60ee176136a54a92dc2853177adfa2c","106.42.73.131","Mozilla/5.0 (Windows NT 10.0; Win64; x64) AppleWebKit/537.36 (KHTML, like Gecko) Chrome/103.0.5060.114 Safari/537.36 Edg/103.0.1264.62","WebKit","Edge","103.0.1264.62","Windows","10.0","15188","","{""Gender"":""男"",""Education"":""本科毕业"",""Income"":""￥35,000-￥69,999"",""Children"":""0"",""Race"":""亚洲人""}","[0,1,2,3,4]"
"","","","","","survey-multi-select","136","433859","0.0-9.0","88","1","2022-11-13 11:44:42","a60ee176136a54a92dc2853177adfa2c","106.42.73.131","Mozilla/5.0 (Windows NT 10.0; Win64; x64) AppleWebKit/537.36 (KHTML, like Gecko) Chrome/103.0.5060.114 Safari/537.36 Edg/103.0.1264.62","WebKit","Edge","103.0.1264.62","Windows","10.0","9200","","{""Marriage"":[""未婚""],""Religion"":[""无宗教信仰""]}","[0,1]"
"","","","","","survey-multi-choice","137","452579","0.0-10.0","88","1","2022-11-13 11:44:42","a60ee176136a54a92dc2853177adfa2c","106.42.73.131","Mozilla/5.0 (Windows NT 10.0; Win64; x64) AppleWebKit/537.36 (KHTML, like Gecko) Chrome/103.0.5060.114 Safari/537.36 Edg/103.0.1264.62","WebKit","Edge","103.0.1264.62","Windows","10.0","18716","","{""SES"":""3""}","[0]"
"","","","","","html-button-response","138","457843","0.0-11.0","88","1","2022-11-13 11:44:42","a60ee176136a54a92dc2853177adfa2c","106.42.73.131","Mozilla/5.0 (Windows NT 10.0; Win64; x64) AppleWebKit/537.36 (KHTML, like Gecko) Chrome/103.0.5060.114 Safari/537.36 Edg/103.0.1264.62","WebKit","Edge","103.0.1264.62","Windows","10.0","5260","<p><strong>请判断下列陈述在多大程度上可以形容你？</p><p> (1 = ""和我一点都不像"" to 5 = ""非常像我"".)</strong></p>","0",""
"","","","","","survey-likert","139","494075","0.0-12.0","88","1","2022-11-13 11:44:42","a60ee176136a54a92dc2853177adfa2c","106.42.73.131","Mozilla/5.0 (Windows NT 10.0; Win64; x64) AppleWebKit/537.36 (KHTML, like Gecko) Chrome/103.0.5060.114 Safari/537.36 Edg/103.0.1264.62","WebKit","Edge","103.0.1264.62","Windows","10.0","36229","","{""Aggression1"":1,""Aggression2"":1,""Aggression3"":4,""Aggression4"":1,""Aggression5"":4,""Aggression6"":4,""Aggression7"":2,""Aggression8"":0,""Aggression9"":0}","[0,1,2,3,4,5,6,7,8]"
"","","","","","html-button-response","140","497138","0.0-13.0","88","1","2022-11-13 11:44:42","a60ee176136a54a92dc2853177adfa2c","106.42.73.131","Mozilla/5.0 (Windows NT 10.0; Win64; x64) AppleWebKit/537.36 (KHTML, like Gecko) Chrome/103.0.5060.114 Safari/537.36 Edg/103.0.1264.62","WebKit","Edge","103.0.1264.62","Windows","10.0","3060","<p><strong>请判断你在多大程度上同意下列陈述。</strong></p>","0",""
"","","","","","survey-likert","141","723805","0.0-14.0","88","1","2022-11-13 11:44:42","a60ee176136a54a92dc2853177adfa2c","106.42.73.131","Mozilla/5.0 (Windows NT 10.0; Win64; x64) AppleWebKit/537.36 (KHTML, like Gecko) Chrome/103.0.5060.114 Safari/537.36 Edg/103.0.1264.62","WebKit","Edge","103.0.1264.62","Windows","10.0","226662","","{""scale23"":2,""scale11"":3,""scale10"":3,""scale18"":0,""scale19"":2,""scale8"":1,""scale27"":2,""scale7"":2,""scale6"":2,""scale16"":3,""scale28"":2,""scale26"":3,""scale3"":3,""scale9"":4,""scale17"":3,""scale5"":3,""scale22"":4,""scale2"":4,""scale4"":0,""scale13"":1,""scale1"":2,""scale21"":2,""scale20"":4,""scale24"":1,""scale12"":0,""scale25"":0,""scale14"":0,""scale15"":4}","[22,10,9,17,18,7,26,6,5,15,27,25,2,8,16,4,21,1,3,12,0,20,19,23,11,24,13,14]"
"","","","","","html-button-response","142","725475","0.0-15.0","88","1","2022-11-13 11:44:42","a60ee176136a54a92dc2853177adfa2c","106.42.73.131","Mozilla/5.0 (Windows NT 10.0; Win64; x64) AppleWebKit/537.36 (KHTML, like Gecko) Chrome/103.0.5060.114 Safari/537.36 Edg/103.0.1264.62","WebKit","Edge","103.0.1264.62","Windows","10.0","1666","<p><strong>请判断你在多大程度上同意下列陈述。</strong></p>","0",""
"","","","","","survey-likert","143","816725","0.0-16.0","88","1","2022-11-13 11:44:42","a60ee176136a54a92dc2853177adfa2c","106.42.73.131","Mozilla/5.0 (Windows NT 10.0; Win64; x64) AppleWebKit/537.36 (KHTML, like Gecko) Chrome/103.0.5060.114 Safari/537.36 Edg/103.0.1264.62","WebKit","Edge","103.0.1264.62","Windows","10.0","91246","","{""sdo7"":0,""sdo11"":6,""sdo8"":6,""sdo2"":5,""sdo1"":4,""sdo6"":3,""sdo12"":5,""sdo10"":6,""sdo5"":6,""sdo9"":6,""sdo4"":2,""sdo3"":3,""sdo14"":3,""sdo15"":2,""sdo13"":6,""sdo16"":6}","[6,10,7,1,0,5,11,9,4,8,3,2,13,14,12,15]"
"","","","","","html-button-response","144","817867","0.0-17.0","88","1","2022-11-13 11:44:42","a60ee176136a54a92dc2853177adfa2c","106.42.73.131","Mozilla/5.0 (Windows NT 10.0; Win64; x64) AppleWebKit/537.36 (KHTML, like Gecko) Chrome/103.0.5060.114 Safari/537.36 Edg/103.0.1264.62","WebKit","Edge","103.0.1264.62","Windows","10.0","1138","<p><strong>请判断你在多大程度上同意下列陈述。</strong></p>","0",""
"","","","","","survey-likert","145","876507","0.0-18.0","88","1","2022-11-13 11:44:42","a60ee176136a54a92dc2853177adfa2c","106.42.73.131","Mozilla/5.0 (Windows NT 10.0; Win64; x64) AppleWebKit/537.36 (KHTML, like Gecko) Chrome/103.0.5060.114 Safari/537.36 Edg/103.0.1264.62","WebKit","Edge","103.0.1264.62","Windows","10.0","58638","","{""caring1"":4,""liking1"":1,""caring2"":4,""protection1"":4,""liking2"":1,""caring3"":4,""protection2"":3,""liking3"":2,""protection3"":4,""caring4"":4,""liking4"":1,""protection4"":4,""caring5"":4,""liking5"":4,""protection5"":4}","[0,1,2,3,4,5,6,7,8,9,10,11,12,13,14]"
"","","","","","html-button-response","146","877618","0.0-19.0","88","1","2022-11-13 11:44:42","a60ee176136a54a92dc2853177adfa2c","106.42.73.131","Mozilla/5.0 (Windows NT 10.0; Win64; x64) AppleWebKit/537.36 (KHTML, like Gecko) Chrome/103.0.5060.114 Safari/537.36 Edg/103.0.1264.62","WebKit","Edge","103.0.1264.62","Windows","10.0","1107","<p><strong>请判断下列场景中你的内心感受有多柔软。</strong></p>","0",""
"","","","","","survey-likert","147","913123","0.0-20.0","88","1","2022-11-13 11:44:42","a60ee176136a54a92dc2853177adfa2c","106.42.73.131","Mozilla/5.0 (Windows NT 10.0; Win64; x64) AppleWebKit/537.36 (KHTML, like Gecko) Chrome/103.0.5060.114 Safari/537.36 Edg/103.0.1264.62","WebKit","Edge","103.0.1264.62","Windows","10.0","35501","","{""tenderness-positive1"":4,""tenderness-negative1"":3,""tenderness-negative2"":2,""tenderness-positive2"":4,""tenderness-positive3"":4,""tenderness-negative3"":1,""tenderness-positive4"":4,""tenderness-negative4"":3,""tenderness-negative5"":4,""tenderness-positive5"":4}","[0,1,2,3,4,5,6,7,8,9]"
"","","","","","survey-multi-choice","148","933163","0.0-21.0","88","1","2022-11-13 11:44:42","a60ee176136a54a92dc2853177adfa2c","106.42.73.131","Mozilla/5.0 (Windows NT 10.0; Win64; x64) AppleWebKit/537.36 (KHTML, like Gecko) Chrome/103.0.5060.114 Safari/537.36 Edg/103.0.1264.62","WebKit","Edge","103.0.1264.62","Windows","10.0","20036","","{""Attention2"":""其他""}","[0]"
"","","","","","html-button-response","149","934163","0.0-22.0","88","1","2022-11-13 11:44:42","a60ee176136a54a92dc2853177adfa2c","106.42.73.131","Mozilla/5.0 (Windows NT 10.0; Win64; x64) AppleWebKit/537.36 (KHTML, like Gecko) Chrome/103.0.5060.114 Safari/537.36 Edg/103.0.1264.62","WebKit","Edge","103.0.1264.62","Windows","10.0","995","<p><strong>请判断你在多大程度上同意下列陈述。</strong></p>","0",""
"","","","","","survey-likert","150","1030907","0.0-23.0","88","1","2022-11-13 11:44:42","a60ee176136a54a92dc2853177adfa2c","106.42.73.131","Mozilla/5.0 (Windows NT 10.0; Win64; x64) AppleWebKit/537.36 (KHTML, like Gecko) Chrome/103.0.5060.114 Safari/537.36 Edg/103.0.1264.62","WebKit","Edge","103.0.1264.62","Windows","10.0","96742","","{""Patri4"":4,""Patri2"":4,""Nation7"":4,""Patri7"":4,""Nation1"":3,""Patri12"":0,""Patri3"":4,""Patri10"":0,""Patri6"":0,""Nation3"":0,""Nation5"":2,""Nation4"":3,""Nation2"":4,""Patri1"":4,""Patri11"":0,""Patri8"":4,""Nation8"":1,""Patri9"":0,""Nation6"":3,""Patri5"":4}","[3,1,18,6,12,11,2,9,5,14,16,15,13,0,10,7,19,8,17,4]"
"","","","","","html-button-response","151","1032482","0.0-24.0","88","1","2022-11-13 11:44:42","a60ee176136a54a92dc2853177adfa2c","106.42.73.131","Mozilla/5.0 (Windows NT 10.0; Win64; x64) AppleWebKit/537.36 (KHTML, like Gecko) Chrome/103.0.5060.114 Safari/537.36 Edg/103.0.1264.62","WebKit","Edge","103.0.1264.62","Windows","10.0","1571","<p><strong>请判断你在多大程度上同意下列陈述。</strong></p>","0",""
"","","","","","survey-likert","152","1109085","0.0-25.0","88","1","2022-11-13 11:44:42","a60ee176136a54a92dc2853177adfa2c","106.42.73.131","Mozilla/5.0 (Windows NT 10.0; Win64; x64) AppleWebKit/537.36 (KHTML, like Gecko) Chrome/103.0.5060.114 Safari/537.36 Edg/103.0.1264.62","WebKit","Edge","103.0.1264.62","Windows","10.0","76598","","{""hc3"":7,""hi2"":8,""vc4"":8,""vi2"":1,""vi3"":8,""vi4"":4,""hc2"":5,""vc1"":8,""hc4"":6,""hi4"":8,""vc3"":8,""hi1"":8,""hi3"":2,""Robot"":6,""hc1"":8,""vc2"":8,""vi1"":7}","[11,1,16,5,6,8,10,13,12,3,15,0,2,7,9,14,4]"
"","","","","","survey-text","153","1115610","0.0-26.0","88","1","2022-11-13 11:44:42","a60ee176136a54a92dc2853177adfa2c","106.42.73.131","Mozilla/5.0 (Windows NT 10.0; Win64; x64) AppleWebKit/537.36 (KHTML, like Gecko) Chrome/103.0.5060.114 Safari/537.36 Edg/103.0.1264.62","WebKit","Edge","103.0.1264.62","Windows","10.0","6510","","{""Comments"":""暂无""}",""
"","","","","","html-button-response","154","1116858","0.0-27.0","88","1","2022-11-13 11:44:42","a60ee176136a54a92dc2853177adfa2c","106.42.73.131","Mozilla/5.0 (Windows NT 10.0; Win64; x64) AppleWebKit/537.36 (KHTML, like Gecko) Chrome/103.0.5060.114 Safari/537.36 Edg/103.0.1264.62","WebKit","Edge","103.0.1264.62","Windows","10.0","1244","<strong><p>恭喜你完成了实验！</p><p>感谢您的参与。</p></strong>","0",""
