"success","timeout","failed_images","failed_audio","failed_video","trial_type","trial_index","time_elapsed","internal_node_id","run_id","condition","recorded_at","source_code_version","ip","user_agent","device","browser","browser_version","platform","platform_version","rt","stimulus","response","question_order"
"true","false","[]","[]","[]","preload","0","29186","0.0-0.0","98","1","2022-11-13 12:52:08","a60ee176136a54a92dc2853177adfa2c","112.43.97.93","Mozilla/5.0 (Windows NT 6.1; WOW64) AppleWebKit/537.36 (KHTML, like Gecko) Chrome/94.0.4606.71 Safari/537.36 Core/1.94.186.400 QQBrowser/11.3.5195.400","WebKit","Chrome","94.0.4606.71","Windows","6.1","","","",""
"true","","","","","fullscreen","1","34043","0.0-1.0","98","1","2022-11-13 12:52:08","a60ee176136a54a92dc2853177adfa2c","112.43.97.93","Mozilla/5.0 (Windows NT 6.1; WOW64) AppleWebKit/537.36 (KHTML, like Gecko) Chrome/94.0.4606.71 Safari/537.36 Core/1.94.186.400 QQBrowser/11.3.5195.400","WebKit","Chrome","94.0.4606.71","Windows","6.1","","","",""
"","","","","","html-button-response","2","60726","0.0-2.0","98","1","2022-11-13 12:52:08","a60ee176136a54a92dc2853177adfa2c","112.43.97.93","Mozilla/5.0 (Windows NT 6.1; WOW64) AppleWebKit/537.36 (KHTML, like Gecko) Chrome/94.0.4606.71 Safari/537.36 Core/1.94.186.400 QQBrowser/11.3.5195.400","WebKit","Chrome","94.0.4606.71","Windows","6.1","26677","<p style=""font-size:20px;font-weight:bold;"">实验知情同意书</p><p style=""text-align:left;""><strong>实验名称：</strong>社会冲突研究</p><p style=""text-align:left;""><strong>主要研究者：</strong>韩晓春副教授（北京师范大学心理学部）</p><p style=""text-align:left;""><strong>联系方式：</strong>发送邮件至xiaochun.han@bnu.edu.cn</p><p style=""text-align:left;""><strong>研究目的：</strong>研究旨在了解人类面对群体冲突时的决策方式，以及相关的心理学特质。实验调查大约需要20分钟。</p><p style=""text-align:left;""><strong>实验流程：</strong>实验包含两部分。第一部分呈现一系列群体冲突场景，请你决定如何对这些冲突进行反应，大约需要10分钟完成。第二部分包含一系列人口统计学信息收集和心理学问卷，大约需要10分钟完成。</p><p style=""text-align:left;""><strong>参加及退出规则：</strong>参加本实验完全取决于您的个人意愿。在参与过程中，您可以随时退出，并且不用承担任何后果。</p><p style=""text-align:left;""><strong>隐私：</strong>本实验完全匿名进行，不会收集您的姓名或其他能够识别您身份的信息。实验中收集的作答仅用作科学研究使用，可能会在学术期刊/书籍上发表，或者用于教学，您的数据未来可能会和其他研究者或实验室分享，但您的个人身份不会被识别。</p><p style=""text-align:left;""><strong>实验报酬：</strong>实验完成后，您将获得15元人民币报酬，以感谢您的时间和努力。调查问卷中包含几道题目用以测验您作答时的认真度。只有完成全部实验，并且正确回答认真度测验的被试才能获得实验报酬。实验报酬将通过支付宝转账发放。</p><p style=""text-align:left;font-size:20px;""><strong>如果您同意以上实验知情同意书的内容，请点击'同意并且开始实验'按钮；否则请关闭浏览器界面，退出实验。</strong></p>","0",""
"","","","","","html-button-response","3","103692","0.0-3.0","98","1","2022-11-13 12:52:08","a60ee176136a54a92dc2853177adfa2c","112.43.97.93","Mozilla/5.0 (Windows NT 6.1; WOW64) AppleWebKit/537.36 (KHTML, like Gecko) Chrome/94.0.4606.71 Safari/537.36 Core/1.94.186.400 QQBrowser/11.3.5195.400","WebKit","Chrome","94.0.4606.71","Windows","6.1","42960","<p ><strong>实验任务一：</strong></p><p>请想象你的国家与另一个国家发生了军事冲突。</p><p>你是国家军队的指挥官，你将如何在冲突中进行决策。</p><p>具体来说，作为军队指挥官，请你决定是否发射导弹进行打击。</p><p>接下来，你会面对一系列场景，请仔细阅读每个场景，然后进行决策。</p><p>这部分实验任务大约需要10分钟。</p><p><strong>实验过程中，请集中注意力。</strong></p>","0",""
"","","","","","html-keyboard-response","4","104695","0.0-4.0-0.0","98","1","2022-11-13 12:52:08","a60ee176136a54a92dc2853177adfa2c","112.43.97.93","Mozilla/5.0 (Windows NT 6.1; WOW64) AppleWebKit/537.36 (KHTML, like Gecko) Chrome/94.0.4606.71 Safari/537.36 Core/1.94.186.400 QQBrowser/11.3.5195.400","WebKit","Chrome","94.0.4606.71","Windows","6.1","null","<div style=""font-size:60px;"">+</div>","null",""
"","","","","","html-button-response","5","115221","0.0-4.0-1.0","98","1","2022-11-13 12:52:08","a60ee176136a54a92dc2853177adfa2c","112.43.97.93","Mozilla/5.0 (Windows NT 6.1; WOW64) AppleWebKit/537.36 (KHTML, like Gecko) Chrome/94.0.4606.71 Safari/537.36 Core/1.94.186.400 QQBrowser/11.3.5195.400","WebKit","Chrome","94.0.4606.71","Windows","6.1","10518","<p>作为军队的指挥官，你可以选择发射导弹杀死 <strong>1名</strong> 敌国士兵，但会炸毁附近的 <strong>1棵</strong> 敌国树木。</p> <p>树木的照片如下图所示。</p> <p></p> <img src='stimuli/trees/8.png', style='max-width: 30%;'> </img> <p><strong>你是否选择发射武器？</strong></p>","1",""
"","","","","","html-keyboard-response","6","116225","0.0-4.0-0.1","98","1","2022-11-13 12:52:08","a60ee176136a54a92dc2853177adfa2c","112.43.97.93","Mozilla/5.0 (Windows NT 6.1; WOW64) AppleWebKit/537.36 (KHTML, like Gecko) Chrome/94.0.4606.71 Safari/537.36 Core/1.94.186.400 QQBrowser/11.3.5195.400","WebKit","Chrome","94.0.4606.71","Windows","6.1","null","<div style=""font-size:60px;"">+</div>","null",""
"","","","","","html-button-response","7","120268","0.0-4.0-1.1","98","1","2022-11-13 12:52:08","a60ee176136a54a92dc2853177adfa2c","112.43.97.93","Mozilla/5.0 (Windows NT 6.1; WOW64) AppleWebKit/537.36 (KHTML, like Gecko) Chrome/94.0.4606.71 Safari/537.36 Core/1.94.186.400 QQBrowser/11.3.5195.400","WebKit","Chrome","94.0.4606.71","Windows","6.1","4039","<p>作为军队的指挥官，你可以选择发射导弹杀死 <strong>8名</strong> 敌国士兵，但会炸毁附近的 <strong>1棵</strong> 敌国树木。</p> <p>树木的照片如下图所示。</p> <p></p> <img src='stimuli/trees/11.png', style='max-width: 30%;'> </img> <p><strong>你是否选择发射武器？</strong></p>","0",""
"","","","","","html-keyboard-response","8","121271","0.0-4.0-0.2","98","1","2022-11-13 12:52:08","a60ee176136a54a92dc2853177adfa2c","112.43.97.93","Mozilla/5.0 (Windows NT 6.1; WOW64) AppleWebKit/537.36 (KHTML, like Gecko) Chrome/94.0.4606.71 Safari/537.36 Core/1.94.186.400 QQBrowser/11.3.5195.400","WebKit","Chrome","94.0.4606.71","Windows","6.1","null","<div style=""font-size:60px;"">+</div>","null",""
"","","","","","html-button-response","9","127716","0.0-4.0-1.2","98","1","2022-11-13 12:52:08","a60ee176136a54a92dc2853177adfa2c","112.43.97.93","Mozilla/5.0 (Windows NT 6.1; WOW64) AppleWebKit/537.36 (KHTML, like Gecko) Chrome/94.0.4606.71 Safari/537.36 Core/1.94.186.400 QQBrowser/11.3.5195.400","WebKit","Chrome","94.0.4606.71","Windows","6.1","6441","<p>作为军队的指挥官，你可以选择发射导弹杀死 <strong>7名</strong> 敌国士兵，但会误杀附近的 <strong>1名</strong> 敌国平民。</p> <p>平民照片如下图所示。</p> <p></p> <img src='stimuli/faces/PCM3.jpg', style='max-width: 30%;'> </img> <p><strong>你是否选择发射武器？</strong></p>","1",""
"","","","","","html-keyboard-response","10","128722","0.0-4.0-0.3","98","1","2022-11-13 12:52:08","a60ee176136a54a92dc2853177adfa2c","112.43.97.93","Mozilla/5.0 (Windows NT 6.1; WOW64) AppleWebKit/537.36 (KHTML, like Gecko) Chrome/94.0.4606.71 Safari/537.36 Core/1.94.186.400 QQBrowser/11.3.5195.400","WebKit","Chrome","94.0.4606.71","Windows","6.1","null","<div style=""font-size:60px;"">+</div>","null",""
"","","","","","html-button-response","11","133115","0.0-4.0-1.3","98","1","2022-11-13 12:52:08","a60ee176136a54a92dc2853177adfa2c","112.43.97.93","Mozilla/5.0 (Windows NT 6.1; WOW64) AppleWebKit/537.36 (KHTML, like Gecko) Chrome/94.0.4606.71 Safari/537.36 Core/1.94.186.400 QQBrowser/11.3.5195.400","WebKit","Chrome","94.0.4606.71","Windows","6.1","4390","<p>作为军队的指挥官，你可以选择发射导弹杀死 <strong>10名</strong> 敌国士兵，但会炸毁附近的 <strong>1棵</strong> 敌国树木。</p> <p>树木的照片如下图所示。</p> <p></p> <img src='stimuli/trees/12.png', style='max-width: 30%;'> </img> <p><strong>你是否选择发射武器？</strong></p>","0",""
"","","","","","html-keyboard-response","12","134117","0.0-4.0-0.4","98","1","2022-11-13 12:52:08","a60ee176136a54a92dc2853177adfa2c","112.43.97.93","Mozilla/5.0 (Windows NT 6.1; WOW64) AppleWebKit/537.36 (KHTML, like Gecko) Chrome/94.0.4606.71 Safari/537.36 Core/1.94.186.400 QQBrowser/11.3.5195.400","WebKit","Chrome","94.0.4606.71","Windows","6.1","null","<div style=""font-size:60px;"">+</div>","null",""
"","","","","","html-button-response","13","137282","0.0-4.0-1.4","98","1","2022-11-13 12:52:08","a60ee176136a54a92dc2853177adfa2c","112.43.97.93","Mozilla/5.0 (Windows NT 6.1; WOW64) AppleWebKit/537.36 (KHTML, like Gecko) Chrome/94.0.4606.71 Safari/537.36 Core/1.94.186.400 QQBrowser/11.3.5195.400","WebKit","Chrome","94.0.4606.71","Windows","6.1","3159","<p>作为军队的指挥官，你可以选择发射导弹杀死 <strong>3名</strong> 敌国士兵，但会误杀附近的 <strong>1名</strong> 敌国平民。</p> <p>平民照片如下图所示。</p> <p></p> <img src='stimuli/faces/PCM8.jpg', style='max-width: 30%;'> </img> <p><strong>你是否选择发射武器？</strong></p>","1",""
"","","","","","html-keyboard-response","14","138285","0.0-4.0-0.5","98","1","2022-11-13 12:52:08","a60ee176136a54a92dc2853177adfa2c","112.43.97.93","Mozilla/5.0 (Windows NT 6.1; WOW64) AppleWebKit/537.36 (KHTML, like Gecko) Chrome/94.0.4606.71 Safari/537.36 Core/1.94.186.400 QQBrowser/11.3.5195.400","WebKit","Chrome","94.0.4606.71","Windows","6.1","null","<div style=""font-size:60px;"">+</div>","null",""
"","","","","","html-button-response","15","141571","0.0-4.0-1.5","98","1","2022-11-13 12:52:08","a60ee176136a54a92dc2853177adfa2c","112.43.97.93","Mozilla/5.0 (Windows NT 6.1; WOW64) AppleWebKit/537.36 (KHTML, like Gecko) Chrome/94.0.4606.71 Safari/537.36 Core/1.94.186.400 QQBrowser/11.3.5195.400","WebKit","Chrome","94.0.4606.71","Windows","6.1","3282","<p>作为军队的指挥官，你可以选择发射导弹杀死 <strong>9名</strong> 敌国士兵，但会炸毁附近的 <strong>1棵</strong> 敌国树木。</p> <p>树木的照片如下图所示。</p> <p></p> <img src='stimuli/trees/8.png', style='max-width: 30%;'> </img> <p><strong>你是否选择发射武器？</strong></p>","0",""
"","","","","","html-keyboard-response","16","142600","0.0-4.0-0.6","98","1","2022-11-13 12:52:08","a60ee176136a54a92dc2853177adfa2c","112.43.97.93","Mozilla/5.0 (Windows NT 6.1; WOW64) AppleWebKit/537.36 (KHTML, like Gecko) Chrome/94.0.4606.71 Safari/537.36 Core/1.94.186.400 QQBrowser/11.3.5195.400","WebKit","Chrome","94.0.4606.71","Windows","6.1","null","<div style=""font-size:60px;"">+</div>","null",""
"","","","","","html-button-response","17","146283","0.0-4.0-1.6","98","1","2022-11-13 12:52:08","a60ee176136a54a92dc2853177adfa2c","112.43.97.93","Mozilla/5.0 (Windows NT 6.1; WOW64) AppleWebKit/537.36 (KHTML, like Gecko) Chrome/94.0.4606.71 Safari/537.36 Core/1.94.186.400 QQBrowser/11.3.5195.400","WebKit","Chrome","94.0.4606.71","Windows","6.1","3679","<p>作为军队的指挥官，你可以选择发射导弹杀死 <strong>1名</strong> 敌国士兵，但会误杀附近的 <strong>1名</strong> 敌国平民。</p> <p>平民照片如下图所示。</p> <p></p> <img src='stimuli/faces/PCF2.jpg', style='max-width: 30%;'> </img> <p><strong>你是否选择发射武器？</strong></p>","1",""
"","","","","","html-keyboard-response","18","147286","0.0-4.0-0.7","98","1","2022-11-13 12:52:08","a60ee176136a54a92dc2853177adfa2c","112.43.97.93","Mozilla/5.0 (Windows NT 6.1; WOW64) AppleWebKit/537.36 (KHTML, like Gecko) Chrome/94.0.4606.71 Safari/537.36 Core/1.94.186.400 QQBrowser/11.3.5195.400","WebKit","Chrome","94.0.4606.71","Windows","6.1","null","<div style=""font-size:60px;"">+</div>","null",""
"","","","","","html-button-response","19","150842","0.0-4.0-1.7","98","1","2022-11-13 12:52:08","a60ee176136a54a92dc2853177adfa2c","112.43.97.93","Mozilla/5.0 (Windows NT 6.1; WOW64) AppleWebKit/537.36 (KHTML, like Gecko) Chrome/94.0.4606.71 Safari/537.36 Core/1.94.186.400 QQBrowser/11.3.5195.400","WebKit","Chrome","94.0.4606.71","Windows","6.1","3552","<p>作为军队的指挥官，你可以选择发射导弹杀死 <strong>5名</strong> 敌国士兵，但会误杀附近的 <strong>1名</strong> 敌国平民。</p> <p>平民照片如下图所示。</p> <p></p> <img src='stimuli/faces/PCM7.jpg', style='max-width: 30%;'> </img> <p><strong>你是否选择发射武器？</strong></p>","1",""
"","","","","","html-keyboard-response","20","151845","0.0-4.0-0.8","98","1","2022-11-13 12:52:08","a60ee176136a54a92dc2853177adfa2c","112.43.97.93","Mozilla/5.0 (Windows NT 6.1; WOW64) AppleWebKit/537.36 (KHTML, like Gecko) Chrome/94.0.4606.71 Safari/537.36 Core/1.94.186.400 QQBrowser/11.3.5195.400","WebKit","Chrome","94.0.4606.71","Windows","6.1","null","<div style=""font-size:60px;"">+</div>","null",""
"","","","","","html-button-response","21","153659","0.0-4.0-1.8","98","1","2022-11-13 12:52:08","a60ee176136a54a92dc2853177adfa2c","112.43.97.93","Mozilla/5.0 (Windows NT 6.1; WOW64) AppleWebKit/537.36 (KHTML, like Gecko) Chrome/94.0.4606.71 Safari/537.36 Core/1.94.186.400 QQBrowser/11.3.5195.400","WebKit","Chrome","94.0.4606.71","Windows","6.1","1811","<p>作为军队的指挥官，你可以选择发射导弹杀死 <strong>5名</strong> 敌国士兵，但会误杀附近的 <strong>1名</strong> 敌国平民。</p> <p>平民照片如下图所示。</p> <p></p> <img src='stimuli/faces/PCM3.jpg', style='max-width: 30%;'> </img> <p><strong>你是否选择发射武器？</strong></p>","1",""
"","","","","","html-keyboard-response","22","154666","0.0-4.0-0.9","98","1","2022-11-13 12:52:08","a60ee176136a54a92dc2853177adfa2c","112.43.97.93","Mozilla/5.0 (Windows NT 6.1; WOW64) AppleWebKit/537.36 (KHTML, like Gecko) Chrome/94.0.4606.71 Safari/537.36 Core/1.94.186.400 QQBrowser/11.3.5195.400","WebKit","Chrome","94.0.4606.71","Windows","6.1","null","<div style=""font-size:60px;"">+</div>","null",""
"","","","","","html-button-response","23","155979","0.0-4.0-1.9","98","1","2022-11-13 12:52:08","a60ee176136a54a92dc2853177adfa2c","112.43.97.93","Mozilla/5.0 (Windows NT 6.1; WOW64) AppleWebKit/537.36 (KHTML, like Gecko) Chrome/94.0.4606.71 Safari/537.36 Core/1.94.186.400 QQBrowser/11.3.5195.400","WebKit","Chrome","94.0.4606.71","Windows","6.1","1309","<p>作为军队的指挥官，你可以选择发射导弹杀死 <strong>7名</strong> 敌国士兵，但会误杀附近的 <strong>1名</strong> 敌国平民。</p> <p>平民照片如下图所示。</p> <p></p> <img src='stimuli/faces/PCF3.jpg', style='max-width: 30%;'> </img> <p><strong>你是否选择发射武器？</strong></p>","1",""
"","","","","","html-keyboard-response","24","156982","0.0-4.0-0.10","98","1","2022-11-13 12:52:08","a60ee176136a54a92dc2853177adfa2c","112.43.97.93","Mozilla/5.0 (Windows NT 6.1; WOW64) AppleWebKit/537.36 (KHTML, like Gecko) Chrome/94.0.4606.71 Safari/537.36 Core/1.94.186.400 QQBrowser/11.3.5195.400","WebKit","Chrome","94.0.4606.71","Windows","6.1","null","<div style=""font-size:60px;"">+</div>","null",""
"","","","","","html-button-response","25","158379","0.0-4.0-1.10","98","1","2022-11-13 12:52:08","a60ee176136a54a92dc2853177adfa2c","112.43.97.93","Mozilla/5.0 (Windows NT 6.1; WOW64) AppleWebKit/537.36 (KHTML, like Gecko) Chrome/94.0.4606.71 Safari/537.36 Core/1.94.186.400 QQBrowser/11.3.5195.400","WebKit","Chrome","94.0.4606.71","Windows","6.1","1393","<p>作为军队的指挥官，你可以选择发射导弹杀死 <strong>2名</strong> 敌国士兵，但会误杀附近的 <strong>1名</strong> 敌国平民。</p> <p>平民照片如下图所示。</p> <p></p> <img src='stimuli/faces/PCM4.jpg', style='max-width: 30%;'> </img> <p><strong>你是否选择发射武器？</strong></p>","1",""
"","","","","","html-keyboard-response","26","159383","0.0-4.0-0.11","98","1","2022-11-13 12:52:08","a60ee176136a54a92dc2853177adfa2c","112.43.97.93","Mozilla/5.0 (Windows NT 6.1; WOW64) AppleWebKit/537.36 (KHTML, like Gecko) Chrome/94.0.4606.71 Safari/537.36 Core/1.94.186.400 QQBrowser/11.3.5195.400","WebKit","Chrome","94.0.4606.71","Windows","6.1","null","<div style=""font-size:60px;"">+</div>","null",""
"","","","","","html-button-response","27","162851","0.0-4.0-1.11","98","1","2022-11-13 12:52:08","a60ee176136a54a92dc2853177adfa2c","112.43.97.93","Mozilla/5.0 (Windows NT 6.1; WOW64) AppleWebKit/537.36 (KHTML, like Gecko) Chrome/94.0.4606.71 Safari/537.36 Core/1.94.186.400 QQBrowser/11.3.5195.400","WebKit","Chrome","94.0.4606.71","Windows","6.1","3464","<p>作为军队的指挥官，你可以选择发射导弹杀死 <strong>9名</strong> 敌国士兵，但会炸毁附近的 <strong>1棵</strong> 敌国树木。</p> <p>树木的照片如下图所示。</p> <p></p> <img src='stimuli/trees/9.png', style='max-width: 30%;'> </img> <p><strong>你是否选择发射武器？</strong></p>","0",""
"","","","","","html-keyboard-response","28","163854","0.0-4.0-0.12","98","1","2022-11-13 12:52:08","a60ee176136a54a92dc2853177adfa2c","112.43.97.93","Mozilla/5.0 (Windows NT 6.1; WOW64) AppleWebKit/537.36 (KHTML, like Gecko) Chrome/94.0.4606.71 Safari/537.36 Core/1.94.186.400 QQBrowser/11.3.5195.400","WebKit","Chrome","94.0.4606.71","Windows","6.1","null","<div style=""font-size:60px;"">+</div>","null",""
"","","","","","html-button-response","29","165050","0.0-4.0-1.12","98","1","2022-11-13 12:52:08","a60ee176136a54a92dc2853177adfa2c","112.43.97.93","Mozilla/5.0 (Windows NT 6.1; WOW64) AppleWebKit/537.36 (KHTML, like Gecko) Chrome/94.0.4606.71 Safari/537.36 Core/1.94.186.400 QQBrowser/11.3.5195.400","WebKit","Chrome","94.0.4606.71","Windows","6.1","1192","<p>作为军队的指挥官，你可以选择发射导弹杀死 <strong>6名</strong> 敌国士兵，但会误杀附近的 <strong>1名</strong> 敌国平民。</p> <p>平民照片如下图所示。</p> <p></p> <img src='stimuli/faces/PCF2.jpg', style='max-width: 30%;'> </img> <p><strong>你是否选择发射武器？</strong></p>","1",""
"","","","","","html-keyboard-response","30","166054","0.0-4.0-0.13","98","1","2022-11-13 12:52:08","a60ee176136a54a92dc2853177adfa2c","112.43.97.93","Mozilla/5.0 (Windows NT 6.1; WOW64) AppleWebKit/537.36 (KHTML, like Gecko) Chrome/94.0.4606.71 Safari/537.36 Core/1.94.186.400 QQBrowser/11.3.5195.400","WebKit","Chrome","94.0.4606.71","Windows","6.1","null","<div style=""font-size:60px;"">+</div>","null",""
"","","","","","html-button-response","31","168066","0.0-4.0-1.13","98","1","2022-11-13 12:52:08","a60ee176136a54a92dc2853177adfa2c","112.43.97.93","Mozilla/5.0 (Windows NT 6.1; WOW64) AppleWebKit/537.36 (KHTML, like Gecko) Chrome/94.0.4606.71 Safari/537.36 Core/1.94.186.400 QQBrowser/11.3.5195.400","WebKit","Chrome","94.0.4606.71","Windows","6.1","2008","<p>作为军队的指挥官，你可以选择发射导弹杀死 <strong>4名</strong> 敌国士兵，但会炸毁附近的 <strong>1棵</strong> 敌国树木。</p> <p>树木的照片如下图所示。</p> <p></p> <img src='stimuli/trees/1.png', style='max-width: 30%;'> </img> <p><strong>你是否选择发射武器？</strong></p>","0",""
"","","","","","html-keyboard-response","32","169069","0.0-4.0-0.14","98","1","2022-11-13 12:52:08","a60ee176136a54a92dc2853177adfa2c","112.43.97.93","Mozilla/5.0 (Windows NT 6.1; WOW64) AppleWebKit/537.36 (KHTML, like Gecko) Chrome/94.0.4606.71 Safari/537.36 Core/1.94.186.400 QQBrowser/11.3.5195.400","WebKit","Chrome","94.0.4606.71","Windows","6.1","null","<div style=""font-size:60px;"">+</div>","null",""
"","","","","","html-button-response","33","170466","0.0-4.0-1.14","98","1","2022-11-13 12:52:08","a60ee176136a54a92dc2853177adfa2c","112.43.97.93","Mozilla/5.0 (Windows NT 6.1; WOW64) AppleWebKit/537.36 (KHTML, like Gecko) Chrome/94.0.4606.71 Safari/537.36 Core/1.94.186.400 QQBrowser/11.3.5195.400","WebKit","Chrome","94.0.4606.71","Windows","6.1","1394","<p>作为军队的指挥官，你可以选择发射导弹杀死 <strong>7名</strong> 敌国士兵，但会误杀附近的 <strong>1名</strong> 敌国平民。</p> <p>平民照片如下图所示。</p> <p></p> <img src='stimuli/faces/PCM2.jpg', style='max-width: 30%;'> </img> <p><strong>你是否选择发射武器？</strong></p>","1",""
"","","","","","html-keyboard-response","34","171471","0.0-4.0-0.15","98","1","2022-11-13 12:52:08","a60ee176136a54a92dc2853177adfa2c","112.43.97.93","Mozilla/5.0 (Windows NT 6.1; WOW64) AppleWebKit/537.36 (KHTML, like Gecko) Chrome/94.0.4606.71 Safari/537.36 Core/1.94.186.400 QQBrowser/11.3.5195.400","WebKit","Chrome","94.0.4606.71","Windows","6.1","null","<div style=""font-size:60px;"">+</div>","null",""
"","","","","","html-button-response","35","173138","0.0-4.0-1.15","98","1","2022-11-13 12:52:08","a60ee176136a54a92dc2853177adfa2c","112.43.97.93","Mozilla/5.0 (Windows NT 6.1; WOW64) AppleWebKit/537.36 (KHTML, like Gecko) Chrome/94.0.4606.71 Safari/537.36 Core/1.94.186.400 QQBrowser/11.3.5195.400","WebKit","Chrome","94.0.4606.71","Windows","6.1","1661","<p>作为军队的指挥官，你可以选择发射导弹杀死 <strong>9名</strong> 敌国士兵，但会误杀附近的 <strong>1名</strong> 敌国平民。</p> <p>平民照片如下图所示。</p> <p></p> <img src='stimuli/faces/PCM7.jpg', style='max-width: 30%;'> </img> <p><strong>你是否选择发射武器？</strong></p>","1",""
"","","","","","html-keyboard-response","36","174143","0.0-4.0-0.16","98","1","2022-11-13 12:52:08","a60ee176136a54a92dc2853177adfa2c","112.43.97.93","Mozilla/5.0 (Windows NT 6.1; WOW64) AppleWebKit/537.36 (KHTML, like Gecko) Chrome/94.0.4606.71 Safari/537.36 Core/1.94.186.400 QQBrowser/11.3.5195.400","WebKit","Chrome","94.0.4606.71","Windows","6.1","null","<div style=""font-size:60px;"">+</div>","null",""
"","","","","","html-button-response","37","175011","0.0-4.0-1.16","98","1","2022-11-13 12:52:08","a60ee176136a54a92dc2853177adfa2c","112.43.97.93","Mozilla/5.0 (Windows NT 6.1; WOW64) AppleWebKit/537.36 (KHTML, like Gecko) Chrome/94.0.4606.71 Safari/537.36 Core/1.94.186.400 QQBrowser/11.3.5195.400","WebKit","Chrome","94.0.4606.71","Windows","6.1","860","<p>作为军队的指挥官，你可以选择发射导弹杀死 <strong>6名</strong> 敌国士兵，但会误杀附近的 <strong>1名</strong> 敌国平民。</p> <p>平民照片如下图所示。</p> <p></p> <img src='stimuli/faces/PCM4.jpg', style='max-width: 30%;'> </img> <p><strong>你是否选择发射武器？</strong></p>","1",""
"","","","","","html-keyboard-response","38","176015","0.0-4.0-0.17","98","1","2022-11-13 12:52:08","a60ee176136a54a92dc2853177adfa2c","112.43.97.93","Mozilla/5.0 (Windows NT 6.1; WOW64) AppleWebKit/537.36 (KHTML, like Gecko) Chrome/94.0.4606.71 Safari/537.36 Core/1.94.186.400 QQBrowser/11.3.5195.400","WebKit","Chrome","94.0.4606.71","Windows","6.1","null","<div style=""font-size:60px;"">+</div>","null",""
"","","","","","html-button-response","39","177258","0.0-4.0-1.17","98","1","2022-11-13 12:52:08","a60ee176136a54a92dc2853177adfa2c","112.43.97.93","Mozilla/5.0 (Windows NT 6.1; WOW64) AppleWebKit/537.36 (KHTML, like Gecko) Chrome/94.0.4606.71 Safari/537.36 Core/1.94.186.400 QQBrowser/11.3.5195.400","WebKit","Chrome","94.0.4606.71","Windows","6.1","1239","<p>作为军队的指挥官，你可以选择发射导弹杀死 <strong>6名</strong> 敌国士兵，但会误杀附近的 <strong>1名</strong> 敌国平民。</p> <p>平民照片如下图所示。</p> <p></p> <img src='stimuli/faces/PCF1.jpg', style='max-width: 30%;'> </img> <p><strong>你是否选择发射武器？</strong></p>","1",""
"","","","","","html-keyboard-response","40","178262","0.0-4.0-0.18","98","1","2022-11-13 12:52:08","a60ee176136a54a92dc2853177adfa2c","112.43.97.93","Mozilla/5.0 (Windows NT 6.1; WOW64) AppleWebKit/537.36 (KHTML, like Gecko) Chrome/94.0.4606.71 Safari/537.36 Core/1.94.186.400 QQBrowser/11.3.5195.400","WebKit","Chrome","94.0.4606.71","Windows","6.1","null","<div style=""font-size:60px;"">+</div>","null",""
"","","","","","html-button-response","41","179362","0.0-4.0-1.18","98","1","2022-11-13 12:52:08","a60ee176136a54a92dc2853177adfa2c","112.43.97.93","Mozilla/5.0 (Windows NT 6.1; WOW64) AppleWebKit/537.36 (KHTML, like Gecko) Chrome/94.0.4606.71 Safari/537.36 Core/1.94.186.400 QQBrowser/11.3.5195.400","WebKit","Chrome","94.0.4606.71","Windows","6.1","1098","<p>作为军队的指挥官，你可以选择发射导弹杀死 <strong>2名</strong> 敌国士兵，但会误杀附近的 <strong>1名</strong> 敌国平民。</p> <p>平民照片如下图所示。</p> <p></p> <img src='stimuli/faces/PCM1.jpg', style='max-width: 30%;'> </img> <p><strong>你是否选择发射武器？</strong></p>","1",""
"","","","","","html-keyboard-response","42","180367","0.0-4.0-0.19","98","1","2022-11-13 12:52:08","a60ee176136a54a92dc2853177adfa2c","112.43.97.93","Mozilla/5.0 (Windows NT 6.1; WOW64) AppleWebKit/537.36 (KHTML, like Gecko) Chrome/94.0.4606.71 Safari/537.36 Core/1.94.186.400 QQBrowser/11.3.5195.400","WebKit","Chrome","94.0.4606.71","Windows","6.1","null","<div style=""font-size:60px;"">+</div>","null",""
"","","","","","html-button-response","43","182354","0.0-4.0-1.19","98","1","2022-11-13 12:52:08","a60ee176136a54a92dc2853177adfa2c","112.43.97.93","Mozilla/5.0 (Windows NT 6.1; WOW64) AppleWebKit/537.36 (KHTML, like Gecko) Chrome/94.0.4606.71 Safari/537.36 Core/1.94.186.400 QQBrowser/11.3.5195.400","WebKit","Chrome","94.0.4606.71","Windows","6.1","1983","<p>作为军队的指挥官，你可以选择发射导弹杀死 <strong>7名</strong> 敌国士兵，但会误杀附近的 <strong>1名</strong> 敌国平民。</p> <p>平民照片如下图所示。</p> <p></p> <img src='stimuli/faces/PCF5.jpg', style='max-width: 30%;'> </img> <p><strong>你是否选择发射武器？</strong></p>","1",""
"","","","","","html-keyboard-response","44","183359","0.0-4.0-0.20","98","1","2022-11-13 12:52:08","a60ee176136a54a92dc2853177adfa2c","112.43.97.93","Mozilla/5.0 (Windows NT 6.1; WOW64) AppleWebKit/537.36 (KHTML, like Gecko) Chrome/94.0.4606.71 Safari/537.36 Core/1.94.186.400 QQBrowser/11.3.5195.400","WebKit","Chrome","94.0.4606.71","Windows","6.1","null","<div style=""font-size:60px;"">+</div>","null",""
"","","","","","html-button-response","45","186218","0.0-4.0-1.20","98","1","2022-11-13 12:52:08","a60ee176136a54a92dc2853177adfa2c","112.43.97.93","Mozilla/5.0 (Windows NT 6.1; WOW64) AppleWebKit/537.36 (KHTML, like Gecko) Chrome/94.0.4606.71 Safari/537.36 Core/1.94.186.400 QQBrowser/11.3.5195.400","WebKit","Chrome","94.0.4606.71","Windows","6.1","2856","<p>作为军队的指挥官，你可以选择发射导弹杀死 <strong>8名</strong> 敌国士兵，但会炸毁附近的 <strong>1棵</strong> 敌国树木。</p> <p>树木的照片如下图所示。</p> <p></p> <img src='stimuli/trees/13.png', style='max-width: 30%;'> </img> <p><strong>你是否选择发射武器？</strong></p>","0",""
"","","","","","html-keyboard-response","46","187223","0.0-4.0-0.21","98","1","2022-11-13 12:52:08","a60ee176136a54a92dc2853177adfa2c","112.43.97.93","Mozilla/5.0 (Windows NT 6.1; WOW64) AppleWebKit/537.36 (KHTML, like Gecko) Chrome/94.0.4606.71 Safari/537.36 Core/1.94.186.400 QQBrowser/11.3.5195.400","WebKit","Chrome","94.0.4606.71","Windows","6.1","null","<div style=""font-size:60px;"">+</div>","null",""
"","","","","","html-button-response","47","188338","0.0-4.0-1.21","98","1","2022-11-13 12:52:08","a60ee176136a54a92dc2853177adfa2c","112.43.97.93","Mozilla/5.0 (Windows NT 6.1; WOW64) AppleWebKit/537.36 (KHTML, like Gecko) Chrome/94.0.4606.71 Safari/537.36 Core/1.94.186.400 QQBrowser/11.3.5195.400","WebKit","Chrome","94.0.4606.71","Windows","6.1","1110","<p>作为军队的指挥官，你可以选择发射导弹杀死 <strong>5名</strong> 敌国士兵，但会炸毁附近的 <strong>1棵</strong> 敌国树木。</p> <p>树木的照片如下图所示。</p> <p></p> <img src='stimuli/trees/16.png', style='max-width: 30%;'> </img> <p><strong>你是否选择发射武器？</strong></p>","0",""
"","","","","","html-keyboard-response","48","189343","0.0-4.0-0.22","98","1","2022-11-13 12:52:08","a60ee176136a54a92dc2853177adfa2c","112.43.97.93","Mozilla/5.0 (Windows NT 6.1; WOW64) AppleWebKit/537.36 (KHTML, like Gecko) Chrome/94.0.4606.71 Safari/537.36 Core/1.94.186.400 QQBrowser/11.3.5195.400","WebKit","Chrome","94.0.4606.71","Windows","6.1","null","<div style=""font-size:60px;"">+</div>","null",""
"","","","","","html-button-response","49","205634","0.0-4.0-1.22","98","1","2022-11-13 12:52:08","a60ee176136a54a92dc2853177adfa2c","112.43.97.93","Mozilla/5.0 (Windows NT 6.1; WOW64) AppleWebKit/537.36 (KHTML, like Gecko) Chrome/94.0.4606.71 Safari/537.36 Core/1.94.186.400 QQBrowser/11.3.5195.400","WebKit","Chrome","94.0.4606.71","Windows","6.1","16287","<p>作为军队的指挥官，你可以选择发射导弹杀死 <strong>9名</strong> 敌国士兵，但会误杀附近的 <strong>1名</strong> 敌国平民。</p> <p>平民照片如下图所示。</p> <p></p> <img src='stimuli/faces/PCF4.jpg', style='max-width: 30%;'> </img> <p><strong>你是否选择发射武器？</strong></p>","1",""
"","","","","","html-keyboard-response","50","206639","0.0-4.0-0.23","98","1","2022-11-13 12:52:08","a60ee176136a54a92dc2853177adfa2c","112.43.97.93","Mozilla/5.0 (Windows NT 6.1; WOW64) AppleWebKit/537.36 (KHTML, like Gecko) Chrome/94.0.4606.71 Safari/537.36 Core/1.94.186.400 QQBrowser/11.3.5195.400","WebKit","Chrome","94.0.4606.71","Windows","6.1","null","<div style=""font-size:60px;"">+</div>","null",""
"","","","","","html-button-response","51","208498","0.0-4.0-1.23","98","1","2022-11-13 12:52:08","a60ee176136a54a92dc2853177adfa2c","112.43.97.93","Mozilla/5.0 (Windows NT 6.1; WOW64) AppleWebKit/537.36 (KHTML, like Gecko) Chrome/94.0.4606.71 Safari/537.36 Core/1.94.186.400 QQBrowser/11.3.5195.400","WebKit","Chrome","94.0.4606.71","Windows","6.1","1852","<p>作为军队的指挥官，你可以选择发射导弹杀死 <strong>2名</strong> 敌国士兵，但会炸毁附近的 <strong>1棵</strong> 敌国树木。</p> <p>树木的照片如下图所示。</p> <p></p> <img src='stimuli/trees/10.png', style='max-width: 30%;'> </img> <p><strong>你是否选择发射武器？</strong></p>","1",""
"","","","","","html-keyboard-response","52","209503","0.0-4.0-0.24","98","1","2022-11-13 12:52:08","a60ee176136a54a92dc2853177adfa2c","112.43.97.93","Mozilla/5.0 (Windows NT 6.1; WOW64) AppleWebKit/537.36 (KHTML, like Gecko) Chrome/94.0.4606.71 Safari/537.36 Core/1.94.186.400 QQBrowser/11.3.5195.400","WebKit","Chrome","94.0.4606.71","Windows","6.1","null","<div style=""font-size:60px;"">+</div>","null",""
"","","","","","html-button-response","53","211178","0.0-4.0-1.24","98","1","2022-11-13 12:52:08","a60ee176136a54a92dc2853177adfa2c","112.43.97.93","Mozilla/5.0 (Windows NT 6.1; WOW64) AppleWebKit/537.36 (KHTML, like Gecko) Chrome/94.0.4606.71 Safari/537.36 Core/1.94.186.400 QQBrowser/11.3.5195.400","WebKit","Chrome","94.0.4606.71","Windows","6.1","1670","<p>作为军队的指挥官，你可以选择发射导弹杀死 <strong>4名</strong> 敌国士兵，但会误杀附近的 <strong>1名</strong> 敌国平民。</p> <p>平民照片如下图所示。</p> <p></p> <img src='stimuli/faces/PCF4.jpg', style='max-width: 30%;'> </img> <p><strong>你是否选择发射武器？</strong></p>","1",""
"","","","","","html-keyboard-response","54","212185","0.0-4.0-0.25","98","1","2022-11-13 12:52:08","a60ee176136a54a92dc2853177adfa2c","112.43.97.93","Mozilla/5.0 (Windows NT 6.1; WOW64) AppleWebKit/537.36 (KHTML, like Gecko) Chrome/94.0.4606.71 Safari/537.36 Core/1.94.186.400 QQBrowser/11.3.5195.400","WebKit","Chrome","94.0.4606.71","Windows","6.1","null","<div style=""font-size:60px;"">+</div>","null",""
"","","","","","html-button-response","55","226050","0.0-4.0-1.25","98","1","2022-11-13 12:52:08","a60ee176136a54a92dc2853177adfa2c","112.43.97.93","Mozilla/5.0 (Windows NT 6.1; WOW64) AppleWebKit/537.36 (KHTML, like Gecko) Chrome/94.0.4606.71 Safari/537.36 Core/1.94.186.400 QQBrowser/11.3.5195.400","WebKit","Chrome","94.0.4606.71","Windows","6.1","13860","<p>作为军队的指挥官，你可以选择发射导弹杀死 <strong>10名</strong> 敌国士兵，但会误杀附近的 <strong>1名</strong> 敌国平民。</p> <p>平民照片如下图所示。</p> <p></p> <img src='stimuli/faces/PCM5.jpg', style='max-width: 30%;'> </img> <p><strong>你是否选择发射武器？</strong></p>","1",""
"","","","","","html-keyboard-response","56","227054","0.0-4.0-0.26","98","1","2022-11-13 12:52:08","a60ee176136a54a92dc2853177adfa2c","112.43.97.93","Mozilla/5.0 (Windows NT 6.1; WOW64) AppleWebKit/537.36 (KHTML, like Gecko) Chrome/94.0.4606.71 Safari/537.36 Core/1.94.186.400 QQBrowser/11.3.5195.400","WebKit","Chrome","94.0.4606.71","Windows","6.1","null","<div style=""font-size:60px;"">+</div>","null",""
"","","","","","html-button-response","57","228225","0.0-4.0-1.26","98","1","2022-11-13 12:52:08","a60ee176136a54a92dc2853177adfa2c","112.43.97.93","Mozilla/5.0 (Windows NT 6.1; WOW64) AppleWebKit/537.36 (KHTML, like Gecko) Chrome/94.0.4606.71 Safari/537.36 Core/1.94.186.400 QQBrowser/11.3.5195.400","WebKit","Chrome","94.0.4606.71","Windows","6.1","1165","<p>作为军队的指挥官，你可以选择发射导弹杀死 <strong>9名</strong> 敌国士兵，但会炸毁附近的 <strong>1棵</strong> 敌国树木。</p> <p>树木的照片如下图所示。</p> <p></p> <img src='stimuli/trees/3.png', style='max-width: 30%;'> </img> <p><strong>你是否选择发射武器？</strong></p>","0",""
"","","","","","html-keyboard-response","58","229229","0.0-4.0-0.27","98","1","2022-11-13 12:52:08","a60ee176136a54a92dc2853177adfa2c","112.43.97.93","Mozilla/5.0 (Windows NT 6.1; WOW64) AppleWebKit/537.36 (KHTML, like Gecko) Chrome/94.0.4606.71 Safari/537.36 Core/1.94.186.400 QQBrowser/11.3.5195.400","WebKit","Chrome","94.0.4606.71","Windows","6.1","null","<div style=""font-size:60px;"">+</div>","null",""
"","","","","","html-button-response","59","230209","0.0-4.0-1.27","98","1","2022-11-13 12:52:08","a60ee176136a54a92dc2853177adfa2c","112.43.97.93","Mozilla/5.0 (Windows NT 6.1; WOW64) AppleWebKit/537.36 (KHTML, like Gecko) Chrome/94.0.4606.71 Safari/537.36 Core/1.94.186.400 QQBrowser/11.3.5195.400","WebKit","Chrome","94.0.4606.71","Windows","6.1","977","<p>作为军队的指挥官，你可以选择发射导弹杀死 <strong>4名</strong> 敌国士兵，但会炸毁附近的 <strong>1棵</strong> 敌国树木。</p> <p>树木的照片如下图所示。</p> <p></p> <img src='stimuli/trees/4.png', style='max-width: 30%;'> </img> <p><strong>你是否选择发射武器？</strong></p>","0",""
"","","","","","html-keyboard-response","60","231215","0.0-4.0-0.28","98","1","2022-11-13 12:52:08","a60ee176136a54a92dc2853177adfa2c","112.43.97.93","Mozilla/5.0 (Windows NT 6.1; WOW64) AppleWebKit/537.36 (KHTML, like Gecko) Chrome/94.0.4606.71 Safari/537.36 Core/1.94.186.400 QQBrowser/11.3.5195.400","WebKit","Chrome","94.0.4606.71","Windows","6.1","null","<div style=""font-size:60px;"">+</div>","null",""
"","","","","","html-button-response","61","232290","0.0-4.0-1.28","98","1","2022-11-13 12:52:08","a60ee176136a54a92dc2853177adfa2c","112.43.97.93","Mozilla/5.0 (Windows NT 6.1; WOW64) AppleWebKit/537.36 (KHTML, like Gecko) Chrome/94.0.4606.71 Safari/537.36 Core/1.94.186.400 QQBrowser/11.3.5195.400","WebKit","Chrome","94.0.4606.71","Windows","6.1","1068","<p>作为军队的指挥官，你可以选择发射导弹杀死 <strong>6名</strong> 敌国士兵，但会误杀附近的 <strong>1名</strong> 敌国平民。</p> <p>平民照片如下图所示。</p> <p></p> <img src='stimuli/faces/PCM6.jpg', style='max-width: 30%;'> </img> <p><strong>你是否选择发射武器？</strong></p>","1",""
"","","","","","html-keyboard-response","62","233294","0.0-4.0-0.29","98","1","2022-11-13 12:52:08","a60ee176136a54a92dc2853177adfa2c","112.43.97.93","Mozilla/5.0 (Windows NT 6.1; WOW64) AppleWebKit/537.36 (KHTML, like Gecko) Chrome/94.0.4606.71 Safari/537.36 Core/1.94.186.400 QQBrowser/11.3.5195.400","WebKit","Chrome","94.0.4606.71","Windows","6.1","null","<div style=""font-size:60px;"">+</div>","null",""
"","","","","","html-button-response","63","234810","0.0-4.0-1.29","98","1","2022-11-13 12:52:08","a60ee176136a54a92dc2853177adfa2c","112.43.97.93","Mozilla/5.0 (Windows NT 6.1; WOW64) AppleWebKit/537.36 (KHTML, like Gecko) Chrome/94.0.4606.71 Safari/537.36 Core/1.94.186.400 QQBrowser/11.3.5195.400","WebKit","Chrome","94.0.4606.71","Windows","6.1","1509","<p>作为军队的指挥官，你可以选择发射导弹杀死 <strong>8名</strong> 敌国士兵，但会炸毁附近的 <strong>1棵</strong> 敌国树木。</p> <p>树木的照片如下图所示。</p> <p></p> <img src='stimuli/trees/2.png', style='max-width: 30%;'> </img> <p><strong>你是否选择发射武器？</strong></p>","0",""
"","","","","","html-keyboard-response","64","235823","0.0-4.0-0.30","98","1","2022-11-13 12:52:08","a60ee176136a54a92dc2853177adfa2c","112.43.97.93","Mozilla/5.0 (Windows NT 6.1; WOW64) AppleWebKit/537.36 (KHTML, like Gecko) Chrome/94.0.4606.71 Safari/537.36 Core/1.94.186.400 QQBrowser/11.3.5195.400","WebKit","Chrome","94.0.4606.71","Windows","6.1","null","<div style=""font-size:60px;"">+</div>","null",""
"","","","","","html-button-response","65","236882","0.0-4.0-1.30","98","1","2022-11-13 12:52:08","a60ee176136a54a92dc2853177adfa2c","112.43.97.93","Mozilla/5.0 (Windows NT 6.1; WOW64) AppleWebKit/537.36 (KHTML, like Gecko) Chrome/94.0.4606.71 Safari/537.36 Core/1.94.186.400 QQBrowser/11.3.5195.400","WebKit","Chrome","94.0.4606.71","Windows","6.1","1054","<p>作为军队的指挥官，你可以选择发射导弹杀死 <strong>9名</strong> 敌国士兵，但会误杀附近的 <strong>1名</strong> 敌国平民。</p> <p>平民照片如下图所示。</p> <p></p> <img src='stimuli/faces/PCF8.jpg', style='max-width: 30%;'> </img> <p><strong>你是否选择发射武器？</strong></p>","1",""
"","","","","","html-keyboard-response","66","237888","0.0-4.0-0.31","98","1","2022-11-13 12:52:08","a60ee176136a54a92dc2853177adfa2c","112.43.97.93","Mozilla/5.0 (Windows NT 6.1; WOW64) AppleWebKit/537.36 (KHTML, like Gecko) Chrome/94.0.4606.71 Safari/537.36 Core/1.94.186.400 QQBrowser/11.3.5195.400","WebKit","Chrome","94.0.4606.71","Windows","6.1","null","<div style=""font-size:60px;"">+</div>","null",""
"","","","","","html-button-response","67","240674","0.0-4.0-1.31","98","1","2022-11-13 12:52:08","a60ee176136a54a92dc2853177adfa2c","112.43.97.93","Mozilla/5.0 (Windows NT 6.1; WOW64) AppleWebKit/537.36 (KHTML, like Gecko) Chrome/94.0.4606.71 Safari/537.36 Core/1.94.186.400 QQBrowser/11.3.5195.400","WebKit","Chrome","94.0.4606.71","Windows","6.1","2781","<p>作为军队的指挥官，你可以选择发射导弹杀死 <strong>3名</strong> 敌国士兵，但会炸毁附近的 <strong>1棵</strong> 敌国树木。</p> <p>树木的照片如下图所示。</p> <p></p> <img src='stimuli/trees/3.png', style='max-width: 30%;'> </img> <p><strong>你是否选择发射武器？</strong></p>","1",""
"","","","","","html-keyboard-response","68","241680","0.0-4.0-0.32","98","1","2022-11-13 12:52:08","a60ee176136a54a92dc2853177adfa2c","112.43.97.93","Mozilla/5.0 (Windows NT 6.1; WOW64) AppleWebKit/537.36 (KHTML, like Gecko) Chrome/94.0.4606.71 Safari/537.36 Core/1.94.186.400 QQBrowser/11.3.5195.400","WebKit","Chrome","94.0.4606.71","Windows","6.1","null","<div style=""font-size:60px;"">+</div>","null",""
"","","","","","html-button-response","69","242451","0.0-4.0-1.32","98","1","2022-11-13 12:52:08","a60ee176136a54a92dc2853177adfa2c","112.43.97.93","Mozilla/5.0 (Windows NT 6.1; WOW64) AppleWebKit/537.36 (KHTML, like Gecko) Chrome/94.0.4606.71 Safari/537.36 Core/1.94.186.400 QQBrowser/11.3.5195.400","WebKit","Chrome","94.0.4606.71","Windows","6.1","765","<p>作为军队的指挥官，你可以选择发射导弹杀死 <strong>3名</strong> 敌国士兵，但会误杀附近的 <strong>1名</strong> 敌国平民。</p> <p>平民照片如下图所示。</p> <p></p> <img src='stimuli/faces/PCM2.jpg', style='max-width: 30%;'> </img> <p><strong>你是否选择发射武器？</strong></p>","1",""
"","","","","","html-keyboard-response","70","243455","0.0-4.0-0.33","98","1","2022-11-13 12:52:08","a60ee176136a54a92dc2853177adfa2c","112.43.97.93","Mozilla/5.0 (Windows NT 6.1; WOW64) AppleWebKit/537.36 (KHTML, like Gecko) Chrome/94.0.4606.71 Safari/537.36 Core/1.94.186.400 QQBrowser/11.3.5195.400","WebKit","Chrome","94.0.4606.71","Windows","6.1","null","<div style=""font-size:60px;"">+</div>","null",""
"","","","","","html-button-response","71","244610","0.0-4.0-1.33","98","1","2022-11-13 12:52:08","a60ee176136a54a92dc2853177adfa2c","112.43.97.93","Mozilla/5.0 (Windows NT 6.1; WOW64) AppleWebKit/537.36 (KHTML, like Gecko) Chrome/94.0.4606.71 Safari/537.36 Core/1.94.186.400 QQBrowser/11.3.5195.400","WebKit","Chrome","94.0.4606.71","Windows","6.1","1149","<p>作为军队的指挥官，你可以选择发射导弹杀死 <strong>10名</strong> 敌国士兵，但会误杀附近的 <strong>1名</strong> 敌国平民。</p> <p>平民照片如下图所示。</p> <p></p> <img src='stimuli/faces/PCM1.jpg', style='max-width: 30%;'> </img> <p><strong>你是否选择发射武器？</strong></p>","1",""
"","","","","","html-keyboard-response","72","245616","0.0-4.0-0.34","98","1","2022-11-13 12:52:08","a60ee176136a54a92dc2853177adfa2c","112.43.97.93","Mozilla/5.0 (Windows NT 6.1; WOW64) AppleWebKit/537.36 (KHTML, like Gecko) Chrome/94.0.4606.71 Safari/537.36 Core/1.94.186.400 QQBrowser/11.3.5195.400","WebKit","Chrome","94.0.4606.71","Windows","6.1","null","<div style=""font-size:60px;"">+</div>","null",""
"","","","","","html-button-response","73","246666","0.0-4.0-1.34","98","1","2022-11-13 12:52:08","a60ee176136a54a92dc2853177adfa2c","112.43.97.93","Mozilla/5.0 (Windows NT 6.1; WOW64) AppleWebKit/537.36 (KHTML, like Gecko) Chrome/94.0.4606.71 Safari/537.36 Core/1.94.186.400 QQBrowser/11.3.5195.400","WebKit","Chrome","94.0.4606.71","Windows","6.1","1042","<p>作为军队的指挥官，你可以选择发射导弹杀死 <strong>9名</strong> 敌国士兵，但会炸毁附近的 <strong>1棵</strong> 敌国树木。</p> <p>树木的照片如下图所示。</p> <p></p> <img src='stimuli/trees/6.png', style='max-width: 30%;'> </img> <p><strong>你是否选择发射武器？</strong></p>","0",""
"","","","","","html-keyboard-response","74","247672","0.0-4.0-0.35","98","1","2022-11-13 12:52:08","a60ee176136a54a92dc2853177adfa2c","112.43.97.93","Mozilla/5.0 (Windows NT 6.1; WOW64) AppleWebKit/537.36 (KHTML, like Gecko) Chrome/94.0.4606.71 Safari/537.36 Core/1.94.186.400 QQBrowser/11.3.5195.400","WebKit","Chrome","94.0.4606.71","Windows","6.1","null","<div style=""font-size:60px;"">+</div>","null",""
"","","","","","html-button-response","75","248682","0.0-4.0-1.35","98","1","2022-11-13 12:52:08","a60ee176136a54a92dc2853177adfa2c","112.43.97.93","Mozilla/5.0 (Windows NT 6.1; WOW64) AppleWebKit/537.36 (KHTML, like Gecko) Chrome/94.0.4606.71 Safari/537.36 Core/1.94.186.400 QQBrowser/11.3.5195.400","WebKit","Chrome","94.0.4606.71","Windows","6.1","1004","<p>作为军队的指挥官，你可以选择发射导弹杀死 <strong>4名</strong> 敌国士兵，但会误杀附近的 <strong>1名</strong> 敌国平民。</p> <p>平民照片如下图所示。</p> <p></p> <img src='stimuli/faces/PCF1.jpg', style='max-width: 30%;'> </img> <p><strong>你是否选择发射武器？</strong></p>","1",""
"","","","","","html-keyboard-response","76","249688","0.0-4.0-0.36","98","1","2022-11-13 12:52:08","a60ee176136a54a92dc2853177adfa2c","112.43.97.93","Mozilla/5.0 (Windows NT 6.1; WOW64) AppleWebKit/537.36 (KHTML, like Gecko) Chrome/94.0.4606.71 Safari/537.36 Core/1.94.186.400 QQBrowser/11.3.5195.400","WebKit","Chrome","94.0.4606.71","Windows","6.1","null","<div style=""font-size:60px;"">+</div>","null",""
"","","","","","html-button-response","77","250915","0.0-4.0-1.36","98","1","2022-11-13 12:52:08","a60ee176136a54a92dc2853177adfa2c","112.43.97.93","Mozilla/5.0 (Windows NT 6.1; WOW64) AppleWebKit/537.36 (KHTML, like Gecko) Chrome/94.0.4606.71 Safari/537.36 Core/1.94.186.400 QQBrowser/11.3.5195.400","WebKit","Chrome","94.0.4606.71","Windows","6.1","1223","<p>作为军队的指挥官，你可以选择发射导弹杀死 <strong>5名</strong> 敌国士兵，但会误杀附近的 <strong>1名</strong> 敌国平民。</p> <p>平民照片如下图所示。</p> <p></p> <img src='stimuli/faces/PCF3.jpg', style='max-width: 30%;'> </img> <p><strong>你是否选择发射武器？</strong></p>","1",""
"","","","","","html-keyboard-response","78","251921","0.0-4.0-0.37","98","1","2022-11-13 12:52:08","a60ee176136a54a92dc2853177adfa2c","112.43.97.93","Mozilla/5.0 (Windows NT 6.1; WOW64) AppleWebKit/537.36 (KHTML, like Gecko) Chrome/94.0.4606.71 Safari/537.36 Core/1.94.186.400 QQBrowser/11.3.5195.400","WebKit","Chrome","94.0.4606.71","Windows","6.1","null","<div style=""font-size:60px;"">+</div>","null",""
"","","","","","html-button-response","79","252569","0.0-4.0-1.37","98","1","2022-11-13 12:52:08","a60ee176136a54a92dc2853177adfa2c","112.43.97.93","Mozilla/5.0 (Windows NT 6.1; WOW64) AppleWebKit/537.36 (KHTML, like Gecko) Chrome/94.0.4606.71 Safari/537.36 Core/1.94.186.400 QQBrowser/11.3.5195.400","WebKit","Chrome","94.0.4606.71","Windows","6.1","641","<p>作为军队的指挥官，你可以选择发射导弹杀死 <strong>10名</strong> 敌国士兵，但会误杀附近的 <strong>1名</strong> 敌国平民。</p> <p>平民照片如下图所示。</p> <p></p> <img src='stimuli/faces/PCM8.jpg', style='max-width: 30%;'> </img> <p><strong>你是否选择发射武器？</strong></p>","1",""
"","","","","","html-keyboard-response","80","253573","0.0-4.0-0.38","98","1","2022-11-13 12:52:08","a60ee176136a54a92dc2853177adfa2c","112.43.97.93","Mozilla/5.0 (Windows NT 6.1; WOW64) AppleWebKit/537.36 (KHTML, like Gecko) Chrome/94.0.4606.71 Safari/537.36 Core/1.94.186.400 QQBrowser/11.3.5195.400","WebKit","Chrome","94.0.4606.71","Windows","6.1","null","<div style=""font-size:60px;"">+</div>","null",""
"","","","","","html-button-response","81","254618","0.0-4.0-1.38","98","1","2022-11-13 12:52:08","a60ee176136a54a92dc2853177adfa2c","112.43.97.93","Mozilla/5.0 (Windows NT 6.1; WOW64) AppleWebKit/537.36 (KHTML, like Gecko) Chrome/94.0.4606.71 Safari/537.36 Core/1.94.186.400 QQBrowser/11.3.5195.400","WebKit","Chrome","94.0.4606.71","Windows","6.1","1038","<p>作为军队的指挥官，你可以选择发射导弹杀死 <strong>6名</strong> 敌国士兵，但会炸毁附近的 <strong>1棵</strong> 敌国树木。</p> <p>树木的照片如下图所示。</p> <p></p> <img src='stimuli/trees/14.png', style='max-width: 30%;'> </img> <p><strong>你是否选择发射武器？</strong></p>","0",""
"","","","","","html-keyboard-response","82","255624","0.0-4.0-0.39","98","1","2022-11-13 12:52:08","a60ee176136a54a92dc2853177adfa2c","112.43.97.93","Mozilla/5.0 (Windows NT 6.1; WOW64) AppleWebKit/537.36 (KHTML, like Gecko) Chrome/94.0.4606.71 Safari/537.36 Core/1.94.186.400 QQBrowser/11.3.5195.400","WebKit","Chrome","94.0.4606.71","Windows","6.1","null","<div style=""font-size:60px;"">+</div>","null",""
"","","","","","html-button-response","83","258210","0.0-4.0-1.39","98","1","2022-11-13 12:52:08","a60ee176136a54a92dc2853177adfa2c","112.43.97.93","Mozilla/5.0 (Windows NT 6.1; WOW64) AppleWebKit/537.36 (KHTML, like Gecko) Chrome/94.0.4606.71 Safari/537.36 Core/1.94.186.400 QQBrowser/11.3.5195.400","WebKit","Chrome","94.0.4606.71","Windows","6.1","2580","<p>作为军队的指挥官，你可以选择发射导弹杀死 <strong>1名</strong> 敌国士兵，但会炸毁附近的 <strong>1棵</strong> 敌国树木。</p> <p>树木的照片如下图所示。</p> <p></p> <img src='stimuli/trees/11.png', style='max-width: 30%;'> </img> <p><strong>你是否选择发射武器？</strong></p>","1",""
"","","","","","html-keyboard-response","84","259216","0.0-4.0-0.40","98","1","2022-11-13 12:52:08","a60ee176136a54a92dc2853177adfa2c","112.43.97.93","Mozilla/5.0 (Windows NT 6.1; WOW64) AppleWebKit/537.36 (KHTML, like Gecko) Chrome/94.0.4606.71 Safari/537.36 Core/1.94.186.400 QQBrowser/11.3.5195.400","WebKit","Chrome","94.0.4606.71","Windows","6.1","null","<div style=""font-size:60px;"">+</div>","null",""
"","","","","","html-button-response","85","259849","0.0-4.0-1.40","98","1","2022-11-13 12:52:08","a60ee176136a54a92dc2853177adfa2c","112.43.97.93","Mozilla/5.0 (Windows NT 6.1; WOW64) AppleWebKit/537.36 (KHTML, like Gecko) Chrome/94.0.4606.71 Safari/537.36 Core/1.94.186.400 QQBrowser/11.3.5195.400","WebKit","Chrome","94.0.4606.71","Windows","6.1","626","<p>作为军队的指挥官，你可以选择发射导弹杀死 <strong>1名</strong> 敌国士兵，但会误杀附近的 <strong>1名</strong> 敌国平民。</p> <p>平民照片如下图所示。</p> <p></p> <img src='stimuli/faces/PCF8.jpg', style='max-width: 30%;'> </img> <p><strong>你是否选择发射武器？</strong></p>","1",""
"","","","","","html-keyboard-response","86","260858","0.0-4.0-0.41","98","1","2022-11-13 12:52:08","a60ee176136a54a92dc2853177adfa2c","112.43.97.93","Mozilla/5.0 (Windows NT 6.1; WOW64) AppleWebKit/537.36 (KHTML, like Gecko) Chrome/94.0.4606.71 Safari/537.36 Core/1.94.186.400 QQBrowser/11.3.5195.400","WebKit","Chrome","94.0.4606.71","Windows","6.1","null","<div style=""font-size:60px;"">+</div>","null",""
"","","","","","html-button-response","87","261722","0.0-4.0-1.41","98","1","2022-11-13 12:52:08","a60ee176136a54a92dc2853177adfa2c","112.43.97.93","Mozilla/5.0 (Windows NT 6.1; WOW64) AppleWebKit/537.36 (KHTML, like Gecko) Chrome/94.0.4606.71 Safari/537.36 Core/1.94.186.400 QQBrowser/11.3.5195.400","WebKit","Chrome","94.0.4606.71","Windows","6.1","858","<p>作为军队的指挥官，你可以选择发射导弹杀死 <strong>1名</strong> 敌国士兵，但会炸毁附近的 <strong>1棵</strong> 敌国树木。</p> <p>树木的照片如下图所示。</p> <p></p> <img src='stimuli/trees/12.png', style='max-width: 30%;'> </img> <p><strong>你是否选择发射武器？</strong></p>","1",""
"","","","","","html-keyboard-response","88","262728","0.0-4.0-0.42","98","1","2022-11-13 12:52:08","a60ee176136a54a92dc2853177adfa2c","112.43.97.93","Mozilla/5.0 (Windows NT 6.1; WOW64) AppleWebKit/537.36 (KHTML, like Gecko) Chrome/94.0.4606.71 Safari/537.36 Core/1.94.186.400 QQBrowser/11.3.5195.400","WebKit","Chrome","94.0.4606.71","Windows","6.1","null","<div style=""font-size:60px;"">+</div>","null",""
"","","","","","html-button-response","89","263610","0.0-4.0-1.42","98","1","2022-11-13 12:52:08","a60ee176136a54a92dc2853177adfa2c","112.43.97.93","Mozilla/5.0 (Windows NT 6.1; WOW64) AppleWebKit/537.36 (KHTML, like Gecko) Chrome/94.0.4606.71 Safari/537.36 Core/1.94.186.400 QQBrowser/11.3.5195.400","WebKit","Chrome","94.0.4606.71","Windows","6.1","875","<p>作为军队的指挥官，你可以选择发射导弹杀死 <strong>9名</strong> 敌国士兵，但会误杀附近的 <strong>1名</strong> 敌国平民。</p> <p>平民照片如下图所示。</p> <p></p> <img src='stimuli/faces/PCF6.jpg', style='max-width: 30%;'> </img> <p><strong>你是否选择发射武器？</strong></p>","1",""
"","","","","","html-keyboard-response","90","264616","0.0-4.0-0.43","98","1","2022-11-13 12:52:08","a60ee176136a54a92dc2853177adfa2c","112.43.97.93","Mozilla/5.0 (Windows NT 6.1; WOW64) AppleWebKit/537.36 (KHTML, like Gecko) Chrome/94.0.4606.71 Safari/537.36 Core/1.94.186.400 QQBrowser/11.3.5195.400","WebKit","Chrome","94.0.4606.71","Windows","6.1","null","<div style=""font-size:60px;"">+</div>","null",""
"","","","","","html-button-response","91","266580","0.0-4.0-1.43","98","1","2022-11-13 12:52:08","a60ee176136a54a92dc2853177adfa2c","112.43.97.93","Mozilla/5.0 (Windows NT 6.1; WOW64) AppleWebKit/537.36 (KHTML, like Gecko) Chrome/94.0.4606.71 Safari/537.36 Core/1.94.186.400 QQBrowser/11.3.5195.400","WebKit","Chrome","94.0.4606.71","Windows","6.1","1953","<p>作为军队的指挥官，你可以选择发射导弹杀死 <strong>8名</strong> 敌国士兵，但会炸毁附近的 <strong>1棵</strong> 敌国树木。</p> <p>树木的照片如下图所示。</p> <p></p> <img src='stimuli/trees/10.png', style='max-width: 30%;'> </img> <p><strong>你是否选择发射武器？</strong></p>","0",""
"","","","","","html-keyboard-response","92","267584","0.0-4.0-0.44","98","1","2022-11-13 12:52:08","a60ee176136a54a92dc2853177adfa2c","112.43.97.93","Mozilla/5.0 (Windows NT 6.1; WOW64) AppleWebKit/537.36 (KHTML, like Gecko) Chrome/94.0.4606.71 Safari/537.36 Core/1.94.186.400 QQBrowser/11.3.5195.400","WebKit","Chrome","94.0.4606.71","Windows","6.1","null","<div style=""font-size:60px;"">+</div>","null",""
"","","","","","html-button-response","93","268705","0.0-4.0-1.44","98","1","2022-11-13 12:52:08","a60ee176136a54a92dc2853177adfa2c","112.43.97.93","Mozilla/5.0 (Windows NT 6.1; WOW64) AppleWebKit/537.36 (KHTML, like Gecko) Chrome/94.0.4606.71 Safari/537.36 Core/1.94.186.400 QQBrowser/11.3.5195.400","WebKit","Chrome","94.0.4606.71","Windows","6.1","1114","<p>作为军队的指挥官，你可以选择发射导弹杀死 <strong>6名</strong> 敌国士兵，但会炸毁附近的 <strong>1棵</strong> 敌国树木。</p> <p>树木的照片如下图所示。</p> <p></p> <img src='stimuli/trees/1.png', style='max-width: 30%;'> </img> <p><strong>你是否选择发射武器？</strong></p>","0",""
"","","","","","html-keyboard-response","94","269709","0.0-4.0-0.45","98","1","2022-11-13 12:52:08","a60ee176136a54a92dc2853177adfa2c","112.43.97.93","Mozilla/5.0 (Windows NT 6.1; WOW64) AppleWebKit/537.36 (KHTML, like Gecko) Chrome/94.0.4606.71 Safari/537.36 Core/1.94.186.400 QQBrowser/11.3.5195.400","WebKit","Chrome","94.0.4606.71","Windows","6.1","null","<div style=""font-size:60px;"">+</div>","null",""
"","","","","","html-button-response","95","271219","0.0-4.0-1.45","98","1","2022-11-13 12:52:08","a60ee176136a54a92dc2853177adfa2c","112.43.97.93","Mozilla/5.0 (Windows NT 6.1; WOW64) AppleWebKit/537.36 (KHTML, like Gecko) Chrome/94.0.4606.71 Safari/537.36 Core/1.94.186.400 QQBrowser/11.3.5195.400","WebKit","Chrome","94.0.4606.71","Windows","6.1","1502","<p>作为军队的指挥官，你可以选择发射导弹杀死 <strong>3名</strong> 敌国士兵，但会炸毁附近的 <strong>1棵</strong> 敌国树木。</p> <p>树木的照片如下图所示。</p> <p></p> <img src='stimuli/trees/13.png', style='max-width: 30%;'> </img> <p><strong>你是否选择发射武器？</strong></p>","1",""
"","","","","","html-keyboard-response","96","272225","0.0-4.0-0.46","98","1","2022-11-13 12:52:08","a60ee176136a54a92dc2853177adfa2c","112.43.97.93","Mozilla/5.0 (Windows NT 6.1; WOW64) AppleWebKit/537.36 (KHTML, like Gecko) Chrome/94.0.4606.71 Safari/537.36 Core/1.94.186.400 QQBrowser/11.3.5195.400","WebKit","Chrome","94.0.4606.71","Windows","6.1","null","<div style=""font-size:60px;"">+</div>","null",""
"","","","","","html-button-response","97","273154","0.0-4.0-1.46","98","1","2022-11-13 12:52:08","a60ee176136a54a92dc2853177adfa2c","112.43.97.93","Mozilla/5.0 (Windows NT 6.1; WOW64) AppleWebKit/537.36 (KHTML, like Gecko) Chrome/94.0.4606.71 Safari/537.36 Core/1.94.186.400 QQBrowser/11.3.5195.400","WebKit","Chrome","94.0.4606.71","Windows","6.1","922","<p>作为军队的指挥官，你可以选择发射导弹杀死 <strong>6名</strong> 敌国士兵，但会炸毁附近的 <strong>1棵</strong> 敌国树木。</p> <p>树木的照片如下图所示。</p> <p></p> <img src='stimuli/trees/5.png', style='max-width: 30%;'> </img> <p><strong>你是否选择发射武器？</strong></p>","0",""
"","","","","","html-keyboard-response","98","274163","0.0-4.0-0.47","98","1","2022-11-13 12:52:08","a60ee176136a54a92dc2853177adfa2c","112.43.97.93","Mozilla/5.0 (Windows NT 6.1; WOW64) AppleWebKit/537.36 (KHTML, like Gecko) Chrome/94.0.4606.71 Safari/537.36 Core/1.94.186.400 QQBrowser/11.3.5195.400","WebKit","Chrome","94.0.4606.71","Windows","6.1","null","<div style=""font-size:60px;"">+</div>","null",""
"","","","","","html-button-response","99","275610","0.0-4.0-1.47","98","1","2022-11-13 12:52:08","a60ee176136a54a92dc2853177adfa2c","112.43.97.93","Mozilla/5.0 (Windows NT 6.1; WOW64) AppleWebKit/537.36 (KHTML, like Gecko) Chrome/94.0.4606.71 Safari/537.36 Core/1.94.186.400 QQBrowser/11.3.5195.400","WebKit","Chrome","94.0.4606.71","Windows","6.1","1439","<p>作为军队的指挥官，你可以选择发射导弹杀死 <strong>5名</strong> 敌国士兵，但会炸毁附近的 <strong>1棵</strong> 敌国树木。</p> <p>树木的照片如下图所示。</p> <p></p> <img src='stimuli/trees/15.png', style='max-width: 30%;'> </img> <p><strong>你是否选择发射武器？</strong></p>","0",""
"","","","","","html-keyboard-response","100","276617","0.0-4.0-0.48","98","1","2022-11-13 12:52:08","a60ee176136a54a92dc2853177adfa2c","112.43.97.93","Mozilla/5.0 (Windows NT 6.1; WOW64) AppleWebKit/537.36 (KHTML, like Gecko) Chrome/94.0.4606.71 Safari/537.36 Core/1.94.186.400 QQBrowser/11.3.5195.400","WebKit","Chrome","94.0.4606.71","Windows","6.1","null","<div style=""font-size:60px;"">+</div>","null",""
"","","","","","html-button-response","101","277346","0.0-4.0-1.48","98","1","2022-11-13 12:52:08","a60ee176136a54a92dc2853177adfa2c","112.43.97.93","Mozilla/5.0 (Windows NT 6.1; WOW64) AppleWebKit/537.36 (KHTML, like Gecko) Chrome/94.0.4606.71 Safari/537.36 Core/1.94.186.400 QQBrowser/11.3.5195.400","WebKit","Chrome","94.0.4606.71","Windows","6.1","716","<p>作为军队的指挥官，你可以选择发射导弹杀死 <strong>5名</strong> 敌国士兵，但会炸毁附近的 <strong>1棵</strong> 敌国树木。</p> <p>树木的照片如下图所示。</p> <p></p> <img src='stimuli/trees/5.png', style='max-width: 30%;'> </img> <p><strong>你是否选择发射武器？</strong></p>","0",""
"","","","","","html-keyboard-response","102","278354","0.0-4.0-0.49","98","1","2022-11-13 12:52:08","a60ee176136a54a92dc2853177adfa2c","112.43.97.93","Mozilla/5.0 (Windows NT 6.1; WOW64) AppleWebKit/537.36 (KHTML, like Gecko) Chrome/94.0.4606.71 Safari/537.36 Core/1.94.186.400 QQBrowser/11.3.5195.400","WebKit","Chrome","94.0.4606.71","Windows","6.1","null","<div style=""font-size:60px;"">+</div>","null",""
"","","","","","html-button-response","103","279538","0.0-4.0-1.49","98","1","2022-11-13 12:52:08","a60ee176136a54a92dc2853177adfa2c","112.43.97.93","Mozilla/5.0 (Windows NT 6.1; WOW64) AppleWebKit/537.36 (KHTML, like Gecko) Chrome/94.0.4606.71 Safari/537.36 Core/1.94.186.400 QQBrowser/11.3.5195.400","WebKit","Chrome","94.0.4606.71","Windows","6.1","1175","<p>作为军队的指挥官，你可以选择发射导弹杀死 <strong>3名</strong> 敌国士兵，但会误杀附近的 <strong>1名</strong> 敌国平民。</p> <p>平民照片如下图所示。</p> <p></p> <img src='stimuli/faces/PCF7.jpg', style='max-width: 30%;'> </img> <p><strong>你是否选择发射武器？</strong></p>","1",""
"","","","","","html-keyboard-response","104","280545","0.0-4.0-0.50","98","1","2022-11-13 12:52:08","a60ee176136a54a92dc2853177adfa2c","112.43.97.93","Mozilla/5.0 (Windows NT 6.1; WOW64) AppleWebKit/537.36 (KHTML, like Gecko) Chrome/94.0.4606.71 Safari/537.36 Core/1.94.186.400 QQBrowser/11.3.5195.400","WebKit","Chrome","94.0.4606.71","Windows","6.1","null","<div style=""font-size:60px;"">+</div>","null",""
"","","","","","html-button-response","105","281578","0.0-4.0-1.50","98","1","2022-11-13 12:52:08","a60ee176136a54a92dc2853177adfa2c","112.43.97.93","Mozilla/5.0 (Windows NT 6.1; WOW64) AppleWebKit/537.36 (KHTML, like Gecko) Chrome/94.0.4606.71 Safari/537.36 Core/1.94.186.400 QQBrowser/11.3.5195.400","WebKit","Chrome","94.0.4606.71","Windows","6.1","1027","<p>作为军队的指挥官，你可以选择发射导弹杀死 <strong>7名</strong> 敌国士兵，但会炸毁附近的 <strong>1棵</strong> 敌国树木。</p> <p>树木的照片如下图所示。</p> <p></p> <img src='stimuli/trees/4.png', style='max-width: 30%;'> </img> <p><strong>你是否选择发射武器？</strong></p>","0",""
"","","","","","html-keyboard-response","106","282584","0.0-4.0-0.51","98","1","2022-11-13 12:52:08","a60ee176136a54a92dc2853177adfa2c","112.43.97.93","Mozilla/5.0 (Windows NT 6.1; WOW64) AppleWebKit/537.36 (KHTML, like Gecko) Chrome/94.0.4606.71 Safari/537.36 Core/1.94.186.400 QQBrowser/11.3.5195.400","WebKit","Chrome","94.0.4606.71","Windows","6.1","null","<div style=""font-size:60px;"">+</div>","null",""
"","","","","","html-button-response","107","284026","0.0-4.0-1.51","98","1","2022-11-13 12:52:08","a60ee176136a54a92dc2853177adfa2c","112.43.97.93","Mozilla/5.0 (Windows NT 6.1; WOW64) AppleWebKit/537.36 (KHTML, like Gecko) Chrome/94.0.4606.71 Safari/537.36 Core/1.94.186.400 QQBrowser/11.3.5195.400","WebKit","Chrome","94.0.4606.71","Windows","6.1","1435","<p>作为军队的指挥官，你可以选择发射导弹杀死 <strong>4名</strong> 敌国士兵，但会炸毁附近的 <strong>1棵</strong> 敌国树木。</p> <p>树木的照片如下图所示。</p> <p></p> <img src='stimuli/trees/6.png', style='max-width: 30%;'> </img> <p><strong>你是否选择发射武器？</strong></p>","0",""
"","","","","","html-keyboard-response","108","285032","0.0-4.0-0.52","98","1","2022-11-13 12:52:08","a60ee176136a54a92dc2853177adfa2c","112.43.97.93","Mozilla/5.0 (Windows NT 6.1; WOW64) AppleWebKit/537.36 (KHTML, like Gecko) Chrome/94.0.4606.71 Safari/537.36 Core/1.94.186.400 QQBrowser/11.3.5195.400","WebKit","Chrome","94.0.4606.71","Windows","6.1","null","<div style=""font-size:60px;"">+</div>","null",""
"","","","","","html-button-response","109","285945","0.0-4.0-1.52","98","1","2022-11-13 12:52:08","a60ee176136a54a92dc2853177adfa2c","112.43.97.93","Mozilla/5.0 (Windows NT 6.1; WOW64) AppleWebKit/537.36 (KHTML, like Gecko) Chrome/94.0.4606.71 Safari/537.36 Core/1.94.186.400 QQBrowser/11.3.5195.400","WebKit","Chrome","94.0.4606.71","Windows","6.1","907","<p>作为军队的指挥官，你可以选择发射导弹杀死 <strong>2名</strong> 敌国士兵，但会误杀附近的 <strong>1名</strong> 敌国平民。</p> <p>平民照片如下图所示。</p> <p></p> <img src='stimuli/faces/PCF6.jpg', style='max-width: 30%;'> </img> <p><strong>你是否选择发射武器？</strong></p>","1",""
"","","","","","html-keyboard-response","110","286950","0.0-4.0-0.53","98","1","2022-11-13 12:52:08","a60ee176136a54a92dc2853177adfa2c","112.43.97.93","Mozilla/5.0 (Windows NT 6.1; WOW64) AppleWebKit/537.36 (KHTML, like Gecko) Chrome/94.0.4606.71 Safari/537.36 Core/1.94.186.400 QQBrowser/11.3.5195.400","WebKit","Chrome","94.0.4606.71","Windows","6.1","null","<div style=""font-size:60px;"">+</div>","null",""
"","","","","","html-button-response","111","287777","0.0-4.0-1.53","98","1","2022-11-13 12:52:08","a60ee176136a54a92dc2853177adfa2c","112.43.97.93","Mozilla/5.0 (Windows NT 6.1; WOW64) AppleWebKit/537.36 (KHTML, like Gecko) Chrome/94.0.4606.71 Safari/537.36 Core/1.94.186.400 QQBrowser/11.3.5195.400","WebKit","Chrome","94.0.4606.71","Windows","6.1","819","<p>作为军队的指挥官，你可以选择发射导弹杀死 <strong>5名</strong> 敌国士兵，但会误杀附近的 <strong>1名</strong> 敌国平民。</p> <p>平民照片如下图所示。</p> <p></p> <img src='stimuli/faces/PCM6.jpg', style='max-width: 30%;'> </img> <p><strong>你是否选择发射武器？</strong></p>","1",""
"","","","","","html-keyboard-response","112","288781","0.0-4.0-0.54","98","1","2022-11-13 12:52:08","a60ee176136a54a92dc2853177adfa2c","112.43.97.93","Mozilla/5.0 (Windows NT 6.1; WOW64) AppleWebKit/537.36 (KHTML, like Gecko) Chrome/94.0.4606.71 Safari/537.36 Core/1.94.186.400 QQBrowser/11.3.5195.400","WebKit","Chrome","94.0.4606.71","Windows","6.1","null","<div style=""font-size:60px;"">+</div>","null",""
"","","","","","html-button-response","113","289729","0.0-4.0-1.54","98","1","2022-11-13 12:52:08","a60ee176136a54a92dc2853177adfa2c","112.43.97.93","Mozilla/5.0 (Windows NT 6.1; WOW64) AppleWebKit/537.36 (KHTML, like Gecko) Chrome/94.0.4606.71 Safari/537.36 Core/1.94.186.400 QQBrowser/11.3.5195.400","WebKit","Chrome","94.0.4606.71","Windows","6.1","941","<p>作为军队的指挥官，你可以选择发射导弹杀死 <strong>2名</strong> 敌国士兵，但会误杀附近的 <strong>1名</strong> 敌国平民。</p> <p>平民照片如下图所示。</p> <p></p> <img src='stimuli/faces/PCF5.jpg', style='max-width: 30%;'> </img> <p><strong>你是否选择发射武器？</strong></p>","1",""
"","","","","","html-keyboard-response","114","290737","0.0-4.0-0.55","98","1","2022-11-13 12:52:08","a60ee176136a54a92dc2853177adfa2c","112.43.97.93","Mozilla/5.0 (Windows NT 6.1; WOW64) AppleWebKit/537.36 (KHTML, like Gecko) Chrome/94.0.4606.71 Safari/537.36 Core/1.94.186.400 QQBrowser/11.3.5195.400","WebKit","Chrome","94.0.4606.71","Windows","6.1","null","<div style=""font-size:60px;"">+</div>","null",""
"","","","","","html-button-response","115","291705","0.0-4.0-1.55","98","1","2022-11-13 12:52:08","a60ee176136a54a92dc2853177adfa2c","112.43.97.93","Mozilla/5.0 (Windows NT 6.1; WOW64) AppleWebKit/537.36 (KHTML, like Gecko) Chrome/94.0.4606.71 Safari/537.36 Core/1.94.186.400 QQBrowser/11.3.5195.400","WebKit","Chrome","94.0.4606.71","Windows","6.1","962","<p>作为军队的指挥官，你可以选择发射导弹杀死 <strong>5名</strong> 敌国士兵，但会炸毁附近的 <strong>1棵</strong> 敌国树木。</p> <p>树木的照片如下图所示。</p> <p></p> <img src='stimuli/trees/14.png', style='max-width: 30%;'> </img> <p><strong>你是否选择发射武器？</strong></p>","0",""
"","","","","","html-keyboard-response","116","292712","0.0-4.0-0.56","98","1","2022-11-13 12:52:08","a60ee176136a54a92dc2853177adfa2c","112.43.97.93","Mozilla/5.0 (Windows NT 6.1; WOW64) AppleWebKit/537.36 (KHTML, like Gecko) Chrome/94.0.4606.71 Safari/537.36 Core/1.94.186.400 QQBrowser/11.3.5195.400","WebKit","Chrome","94.0.4606.71","Windows","6.1","null","<div style=""font-size:60px;"">+</div>","null",""
"","","","","","html-button-response","117","294409","0.0-4.0-1.56","98","1","2022-11-13 12:52:08","a60ee176136a54a92dc2853177adfa2c","112.43.97.93","Mozilla/5.0 (Windows NT 6.1; WOW64) AppleWebKit/537.36 (KHTML, like Gecko) Chrome/94.0.4606.71 Safari/537.36 Core/1.94.186.400 QQBrowser/11.3.5195.400","WebKit","Chrome","94.0.4606.71","Windows","6.1","1683","<p>作为军队的指挥官，你可以选择发射导弹杀死 <strong>1名</strong> 敌国士兵，但会炸毁附近的 <strong>1棵</strong> 敌国树木。</p> <p>树木的照片如下图所示。</p> <p></p> <img src='stimuli/trees/9.png', style='max-width: 30%;'> </img> <p><strong>你是否选择发射武器？</strong></p>","1",""
"","","","","","html-keyboard-response","118","295412","0.0-4.0-0.57","98","1","2022-11-13 12:52:08","a60ee176136a54a92dc2853177adfa2c","112.43.97.93","Mozilla/5.0 (Windows NT 6.1; WOW64) AppleWebKit/537.36 (KHTML, like Gecko) Chrome/94.0.4606.71 Safari/537.36 Core/1.94.186.400 QQBrowser/11.3.5195.400","WebKit","Chrome","94.0.4606.71","Windows","6.1","null","<div style=""font-size:60px;"">+</div>","null",""
"","","","","","html-button-response","119","299316","0.0-4.0-1.57","98","1","2022-11-13 12:52:08","a60ee176136a54a92dc2853177adfa2c","112.43.97.93","Mozilla/5.0 (Windows NT 6.1; WOW64) AppleWebKit/537.36 (KHTML, like Gecko) Chrome/94.0.4606.71 Safari/537.36 Core/1.94.186.400 QQBrowser/11.3.5195.400","WebKit","Chrome","94.0.4606.71","Windows","6.1","3897","<p>作为军队的指挥官，你可以选择发射导弹杀死 <strong>7名</strong> 敌国士兵，但会炸毁附近的 <strong>1棵</strong> 敌国树木。</p> <p>树木的照片如下图所示。</p> <p></p> <img src='stimuli/trees/15.png', style='max-width: 30%;'> </img> <p><strong>你是否选择发射武器？</strong></p>","0",""
"","","","","","html-keyboard-response","120","300323","0.0-4.0-0.58","98","1","2022-11-13 12:52:08","a60ee176136a54a92dc2853177adfa2c","112.43.97.93","Mozilla/5.0 (Windows NT 6.1; WOW64) AppleWebKit/537.36 (KHTML, like Gecko) Chrome/94.0.4606.71 Safari/537.36 Core/1.94.186.400 QQBrowser/11.3.5195.400","WebKit","Chrome","94.0.4606.71","Windows","6.1","null","<div style=""font-size:60px;"">+</div>","null",""
"","","","","","html-button-response","121","301154","0.0-4.0-1.58","98","1","2022-11-13 12:52:08","a60ee176136a54a92dc2853177adfa2c","112.43.97.93","Mozilla/5.0 (Windows NT 6.1; WOW64) AppleWebKit/537.36 (KHTML, like Gecko) Chrome/94.0.4606.71 Safari/537.36 Core/1.94.186.400 QQBrowser/11.3.5195.400","WebKit","Chrome","94.0.4606.71","Windows","6.1","823","<p>作为军队的指挥官，你可以选择发射导弹杀死 <strong>10名</strong> 敌国士兵，但会炸毁附近的 <strong>1棵</strong> 敌国树木。</p> <p>树木的照片如下图所示。</p> <p></p> <img src='stimuli/trees/16.png', style='max-width: 30%;'> </img> <p><strong>你是否选择发射武器？</strong></p>","0",""
"","","","","","html-keyboard-response","122","302162","0.0-4.0-0.59","98","1","2022-11-13 12:52:08","a60ee176136a54a92dc2853177adfa2c","112.43.97.93","Mozilla/5.0 (Windows NT 6.1; WOW64) AppleWebKit/537.36 (KHTML, like Gecko) Chrome/94.0.4606.71 Safari/537.36 Core/1.94.186.400 QQBrowser/11.3.5195.400","WebKit","Chrome","94.0.4606.71","Windows","6.1","null","<div style=""font-size:60px;"">+</div>","null",""
"","","","","","html-button-response","123","303489","0.0-4.0-1.59","98","1","2022-11-13 12:52:08","a60ee176136a54a92dc2853177adfa2c","112.43.97.93","Mozilla/5.0 (Windows NT 6.1; WOW64) AppleWebKit/537.36 (KHTML, like Gecko) Chrome/94.0.4606.71 Safari/537.36 Core/1.94.186.400 QQBrowser/11.3.5195.400","WebKit","Chrome","94.0.4606.71","Windows","6.1","1320","<p>作为军队的指挥官，你可以选择发射导弹杀死 <strong>3名</strong> 敌国士兵，但会炸毁附近的 <strong>1棵</strong> 敌国树木。</p> <p>树木的照片如下图所示。</p> <p></p> <img src='stimuli/trees/2.png', style='max-width: 30%;'> </img> <p><strong>你是否选择发射武器？</strong></p>","1",""
"","","","","","html-keyboard-response","124","304494","0.0-4.0-0.60","98","1","2022-11-13 12:52:08","a60ee176136a54a92dc2853177adfa2c","112.43.97.93","Mozilla/5.0 (Windows NT 6.1; WOW64) AppleWebKit/537.36 (KHTML, like Gecko) Chrome/94.0.4606.71 Safari/537.36 Core/1.94.186.400 QQBrowser/11.3.5195.400","WebKit","Chrome","94.0.4606.71","Windows","6.1","null","<div style=""font-size:60px;"">+</div>","null",""
"","","","","","html-button-response","125","305715","0.0-4.0-1.60","98","1","2022-11-13 12:52:08","a60ee176136a54a92dc2853177adfa2c","112.43.97.93","Mozilla/5.0 (Windows NT 6.1; WOW64) AppleWebKit/537.36 (KHTML, like Gecko) Chrome/94.0.4606.71 Safari/537.36 Core/1.94.186.400 QQBrowser/11.3.5195.400","WebKit","Chrome","94.0.4606.71","Windows","6.1","1212","<p>作为军队的指挥官，你可以选择发射导弹杀死 <strong>7名</strong> 敌国士兵，但会炸毁附近的 <strong>1棵</strong> 敌国树木。</p> <p>树木的照片如下图所示。</p> <p></p> <img src='stimuli/trees/7.png', style='max-width: 30%;'> </img> <p><strong>你是否选择发射武器？</strong></p>","0",""
"","","","","","html-keyboard-response","126","306724","0.0-4.0-0.61","98","1","2022-11-13 12:52:08","a60ee176136a54a92dc2853177adfa2c","112.43.97.93","Mozilla/5.0 (Windows NT 6.1; WOW64) AppleWebKit/537.36 (KHTML, like Gecko) Chrome/94.0.4606.71 Safari/537.36 Core/1.94.186.400 QQBrowser/11.3.5195.400","WebKit","Chrome","94.0.4606.71","Windows","6.1","null","<div style=""font-size:60px;"">+</div>","null",""
"","","","","","html-button-response","127","307705","0.0-4.0-1.61","98","1","2022-11-13 12:52:08","a60ee176136a54a92dc2853177adfa2c","112.43.97.93","Mozilla/5.0 (Windows NT 6.1; WOW64) AppleWebKit/537.36 (KHTML, like Gecko) Chrome/94.0.4606.71 Safari/537.36 Core/1.94.186.400 QQBrowser/11.3.5195.400","WebKit","Chrome","94.0.4606.71","Windows","6.1","974","<p>作为军队的指挥官，你可以选择发射导弹杀死 <strong>3名</strong> 敌国士兵，但会误杀附近的 <strong>1名</strong> 敌国平民。</p> <p>平民照片如下图所示。</p> <p></p> <img src='stimuli/faces/PCM5.jpg', style='max-width: 30%;'> </img> <p><strong>你是否选择发射武器？</strong></p>","1",""
"","","","","","html-keyboard-response","128","308710","0.0-4.0-0.62","98","1","2022-11-13 12:52:08","a60ee176136a54a92dc2853177adfa2c","112.43.97.93","Mozilla/5.0 (Windows NT 6.1; WOW64) AppleWebKit/537.36 (KHTML, like Gecko) Chrome/94.0.4606.71 Safari/537.36 Core/1.94.186.400 QQBrowser/11.3.5195.400","WebKit","Chrome","94.0.4606.71","Windows","6.1","null","<div style=""font-size:60px;"">+</div>","null",""
"","","","","","html-button-response","129","309746","0.0-4.0-1.62","98","1","2022-11-13 12:52:08","a60ee176136a54a92dc2853177adfa2c","112.43.97.93","Mozilla/5.0 (Windows NT 6.1; WOW64) AppleWebKit/537.36 (KHTML, like Gecko) Chrome/94.0.4606.71 Safari/537.36 Core/1.94.186.400 QQBrowser/11.3.5195.400","WebKit","Chrome","94.0.4606.71","Windows","6.1","1029","<p>作为军队的指挥官，你可以选择发射导弹杀死 <strong>4名</strong> 敌国士兵，但会炸毁附近的 <strong>1棵</strong> 敌国树木。</p> <p>树木的照片如下图所示。</p> <p></p> <img src='stimuli/trees/7.png', style='max-width: 30%;'> </img> <p><strong>你是否选择发射武器？</strong></p>","0",""
"","","","","","html-keyboard-response","130","310753","0.0-4.0-0.63","98","1","2022-11-13 12:52:08","a60ee176136a54a92dc2853177adfa2c","112.43.97.93","Mozilla/5.0 (Windows NT 6.1; WOW64) AppleWebKit/537.36 (KHTML, like Gecko) Chrome/94.0.4606.71 Safari/537.36 Core/1.94.186.400 QQBrowser/11.3.5195.400","WebKit","Chrome","94.0.4606.71","Windows","6.1","null","<div style=""font-size:60px;"">+</div>","null",""
"","","","","","html-button-response","131","311834","0.0-4.0-1.63","98","1","2022-11-13 12:52:08","a60ee176136a54a92dc2853177adfa2c","112.43.97.93","Mozilla/5.0 (Windows NT 6.1; WOW64) AppleWebKit/537.36 (KHTML, like Gecko) Chrome/94.0.4606.71 Safari/537.36 Core/1.94.186.400 QQBrowser/11.3.5195.400","WebKit","Chrome","94.0.4606.71","Windows","6.1","1073","<p>作为军队的指挥官，你可以选择发射导弹杀死 <strong>10名</strong> 敌国士兵，但会误杀附近的 <strong>1名</strong> 敌国平民。</p> <p>平民照片如下图所示。</p> <p></p> <img src='stimuli/faces/PCF7.jpg', style='max-width: 30%;'> </img> <p><strong>你是否选择发射武器？</strong></p>","1",""
"","","","","","survey-multi-choice","132","350387","0.0-5.0","98","1","2022-11-13 12:52:08","a60ee176136a54a92dc2853177adfa2c","112.43.97.93","Mozilla/5.0 (Windows NT 6.1; WOW64) AppleWebKit/537.36 (KHTML, like Gecko) Chrome/94.0.4606.71 Safari/537.36 Core/1.94.186.400 QQBrowser/11.3.5195.400","WebKit","Chrome","94.0.4606.71","Windows","6.1","38542","","{""Attention1"":""""}","[0]"
"","","","","","html-button-response","133","355221","0.0-6.0","98","1","2022-11-13 12:52:08","a60ee176136a54a92dc2853177adfa2c","112.43.97.93","Mozilla/5.0 (Windows NT 6.1; WOW64) AppleWebKit/537.36 (KHTML, like Gecko) Chrome/94.0.4606.71 Safari/537.36 Core/1.94.186.400 QQBrowser/11.3.5195.400","WebKit","Chrome","94.0.4606.71","Windows","6.1","4815","<p style=""font-size:20px;font-weight:bold;"">恭喜！</p><p>你已经完成了实验的第一部分。</p><p>请休息放松一下，然后进入第二部分。</p><p>这部分大约需要10分钟。</p>","0",""
"","","","","","survey-text","134","434443","0.0-7.0","98","1","2022-11-13 12:52:08","a60ee176136a54a92dc2853177adfa2c","112.43.97.93","Mozilla/5.0 (Windows NT 6.1; WOW64) AppleWebKit/537.36 (KHTML, like Gecko) Chrome/94.0.4606.71 Safari/537.36 Core/1.94.186.400 QQBrowser/11.3.5195.400","WebKit","Chrome","94.0.4606.71","Windows","6.1","78167","","{""Age"":""22"",""Nation"":""中国"",""Born"":""新疆乌鲁木齐"",""Live"":""新疆乌鲁木齐"",""Ethnic"":""汉族"",""Alipay"":""13999891843""}",""
"","","","","","survey-multi-choice","135","467939","0.0-8.0","98","1","2022-11-13 12:52:08","a60ee176136a54a92dc2853177adfa2c","112.43.97.93","Mozilla/5.0 (Windows NT 6.1; WOW64) AppleWebKit/537.36 (KHTML, like Gecko) Chrome/94.0.4606.71 Safari/537.36 Core/1.94.186.400 QQBrowser/11.3.5195.400","WebKit","Chrome","94.0.4606.71","Windows","6.1","33485","","{""Gender"":""女"",""Education"":""高中毕业"",""Income"":""￥35,000-￥69,999"",""Children"":""0"",""Race"":""亚洲人""}","[0,1,2,3,4]"
"","","","","","survey-multi-select","136","474619","0.0-9.0","98","1","2022-11-13 12:52:08","a60ee176136a54a92dc2853177adfa2c","112.43.97.93","Mozilla/5.0 (Windows NT 6.1; WOW64) AppleWebKit/537.36 (KHTML, like Gecko) Chrome/94.0.4606.71 Safari/537.36 Core/1.94.186.400 QQBrowser/11.3.5195.400","WebKit","Chrome","94.0.4606.71","Windows","6.1","6647","","{""Marriage"":[""未婚""],""Religion"":[""无宗教信仰""]}","[0,1]"
"","","","","","survey-multi-choice","137","490314","0.0-10.0","98","1","2022-11-13 12:52:08","a60ee176136a54a92dc2853177adfa2c","112.43.97.93","Mozilla/5.0 (Windows NT 6.1; WOW64) AppleWebKit/537.36 (KHTML, like Gecko) Chrome/94.0.4606.71 Safari/537.36 Core/1.94.186.400 QQBrowser/11.3.5195.400","WebKit","Chrome","94.0.4606.71","Windows","6.1","15680","","{""SES"":""5""}","[0]"
"","","","","","html-button-response","138","500521","0.0-11.0","98","1","2022-11-13 12:52:08","a60ee176136a54a92dc2853177adfa2c","112.43.97.93","Mozilla/5.0 (Windows NT 6.1; WOW64) AppleWebKit/537.36 (KHTML, like Gecko) Chrome/94.0.4606.71 Safari/537.36 Core/1.94.186.400 QQBrowser/11.3.5195.400","WebKit","Chrome","94.0.4606.71","Windows","6.1","10192","<p><strong>请判断下列陈述在多大程度上可以形容你？</p><p> (1 = ""和我一点都不像"" to 5 = ""非常像我"".)</strong></p>","0",""
"","","","","","survey-likert","139","540894","0.0-12.0","98","1","2022-11-13 12:52:08","a60ee176136a54a92dc2853177adfa2c","112.43.97.93","Mozilla/5.0 (Windows NT 6.1; WOW64) AppleWebKit/537.36 (KHTML, like Gecko) Chrome/94.0.4606.71 Safari/537.36 Core/1.94.186.400 QQBrowser/11.3.5195.400","WebKit","Chrome","94.0.4606.71","Windows","6.1","40358","","{""Aggression1"":1,""Aggression2"":3,""Aggression3"":3,""Aggression4"":1,""Aggression5"":3,""Aggression6"":2,""Aggression7"":2,""Aggression8"":1,""Aggression9"":1}","[0,1,2,3,4,5,6,7,8]"
"","","","","","html-button-response","140","545144","0.0-13.0","98","1","2022-11-13 12:52:08","a60ee176136a54a92dc2853177adfa2c","112.43.97.93","Mozilla/5.0 (Windows NT 6.1; WOW64) AppleWebKit/537.36 (KHTML, like Gecko) Chrome/94.0.4606.71 Safari/537.36 Core/1.94.186.400 QQBrowser/11.3.5195.400","WebKit","Chrome","94.0.4606.71","Windows","6.1","4239","<p><strong>请判断你在多大程度上同意下列陈述。</strong></p>","0",""
"","","","","","survey-likert","141","668022","0.0-14.0","98","1","2022-11-13 12:52:08","a60ee176136a54a92dc2853177adfa2c","112.43.97.93","Mozilla/5.0 (Windows NT 6.1; WOW64) AppleWebKit/537.36 (KHTML, like Gecko) Chrome/94.0.4606.71 Safari/537.36 Core/1.94.186.400 QQBrowser/11.3.5195.400","WebKit","Chrome","94.0.4606.71","Windows","6.1","122865","","{""scale2"":2,""scale7"":3,""scale28"":3,""scale14"":2,""scale4"":2,""scale13"":1,""scale24"":1,""scale8"":3,""scale10"":3,""scale6"":2,""scale16"":1,""scale9"":3,""scale12"":3,""scale5"":2,""scale25"":2,""scale3"":1,""scale26"":2,""scale18"":2,""scale11"":3,""scale23"":1,""scale20"":2,""scale22"":1,""scale17"":1,""scale1"":0,""scale27"":0,""scale15"":2,""scale19"":2,""scale21"":3}","[1,6,27,13,3,12,23,7,9,5,15,8,11,4,24,2,25,17,10,22,19,21,16,0,26,14,18,20]"
"","","","","","html-button-response","142","669511","0.0-15.0","98","1","2022-11-13 12:52:08","a60ee176136a54a92dc2853177adfa2c","112.43.97.93","Mozilla/5.0 (Windows NT 6.1; WOW64) AppleWebKit/537.36 (KHTML, like Gecko) Chrome/94.0.4606.71 Safari/537.36 Core/1.94.186.400 QQBrowser/11.3.5195.400","WebKit","Chrome","94.0.4606.71","Windows","6.1","1479","<p><strong>请判断你在多大程度上同意下列陈述。</strong></p>","0",""
"","","","","","survey-likert","143","745412","0.0-16.0","98","1","2022-11-13 12:52:08","a60ee176136a54a92dc2853177adfa2c","112.43.97.93","Mozilla/5.0 (Windows NT 6.1; WOW64) AppleWebKit/537.36 (KHTML, like Gecko) Chrome/94.0.4606.71 Safari/537.36 Core/1.94.186.400 QQBrowser/11.3.5195.400","WebKit","Chrome","94.0.4606.71","Windows","6.1","75889","","{""sdo10"":3,""sdo11"":6,""sdo4"":2,""sdo5"":3,""sdo9"":4,""sdo7"":0,""sdo12"":6,""sdo13"":6,""sdo1"":1,""sdo14"":5,""sdo8"":0,""sdo3"":3,""sdo2"":0,""sdo15"":4,""sdo16"":2,""sdo6"":1}","[9,10,3,4,8,6,11,12,0,13,7,2,1,14,15,5]"
"","","","","","html-button-response","144","746847","0.0-17.0","98","1","2022-11-13 12:52:08","a60ee176136a54a92dc2853177adfa2c","112.43.97.93","Mozilla/5.0 (Windows NT 6.1; WOW64) AppleWebKit/537.36 (KHTML, like Gecko) Chrome/94.0.4606.71 Safari/537.36 Core/1.94.186.400 QQBrowser/11.3.5195.400","WebKit","Chrome","94.0.4606.71","Windows","6.1","1425","<p><strong>请判断你在多大程度上同意下列陈述。</strong></p>","0",""
"","","","","","survey-likert","145","786389","0.0-18.0","98","1","2022-11-13 12:52:08","a60ee176136a54a92dc2853177adfa2c","112.43.97.93","Mozilla/5.0 (Windows NT 6.1; WOW64) AppleWebKit/537.36 (KHTML, like Gecko) Chrome/94.0.4606.71 Safari/537.36 Core/1.94.186.400 QQBrowser/11.3.5195.400","WebKit","Chrome","94.0.4606.71","Windows","6.1","39526","","{""caring1"":3,""liking1"":2,""caring2"":3,""protection1"":3,""liking2"":1,""caring3"":2,""protection2"":2,""liking3"":2,""protection3"":3,""caring4"":3,""liking4"":2,""protection4"":3,""caring5"":3,""liking5"":2,""protection5"":2}","[0,1,2,3,4,5,6,7,8,9,10,11,12,13,14]"
"","","","","","html-button-response","146","787886","0.0-19.0","98","1","2022-11-13 12:52:08","a60ee176136a54a92dc2853177adfa2c","112.43.97.93","Mozilla/5.0 (Windows NT 6.1; WOW64) AppleWebKit/537.36 (KHTML, like Gecko) Chrome/94.0.4606.71 Safari/537.36 Core/1.94.186.400 QQBrowser/11.3.5195.400","WebKit","Chrome","94.0.4606.71","Windows","6.1","1488","<p><strong>请判断下列场景中你的内心感受有多柔软。</strong></p>","0",""
"","","","","","survey-likert","147","811755","0.0-20.0","98","1","2022-11-13 12:52:08","a60ee176136a54a92dc2853177adfa2c","112.43.97.93","Mozilla/5.0 (Windows NT 6.1; WOW64) AppleWebKit/537.36 (KHTML, like Gecko) Chrome/94.0.4606.71 Safari/537.36 Core/1.94.186.400 QQBrowser/11.3.5195.400","WebKit","Chrome","94.0.4606.71","Windows","6.1","23859","","{""tenderness-positive1"":3,""tenderness-negative1"":3,""tenderness-negative2"":2,""tenderness-positive2"":3,""tenderness-positive3"":2,""tenderness-negative3"":2,""tenderness-positive4"":4,""tenderness-negative4"":2,""tenderness-negative5"":3,""tenderness-positive5"":3}","[0,1,2,3,4,5,6,7,8,9]"
"","","","","","survey-multi-choice","148","841144","0.0-21.0","98","1","2022-11-13 12:52:08","a60ee176136a54a92dc2853177adfa2c","112.43.97.93","Mozilla/5.0 (Windows NT 6.1; WOW64) AppleWebKit/537.36 (KHTML, like Gecko) Chrome/94.0.4606.71 Safari/537.36 Core/1.94.186.400 QQBrowser/11.3.5195.400","WebKit","Chrome","94.0.4606.71","Windows","6.1","29371","","{""Attention2"":""其他""}","[0]"
"","","","","","html-button-response","149","842471","0.0-22.0","98","1","2022-11-13 12:52:08","a60ee176136a54a92dc2853177adfa2c","112.43.97.93","Mozilla/5.0 (Windows NT 6.1; WOW64) AppleWebKit/537.36 (KHTML, like Gecko) Chrome/94.0.4606.71 Safari/537.36 Core/1.94.186.400 QQBrowser/11.3.5195.400","WebKit","Chrome","94.0.4606.71","Windows","6.1","1310","<p><strong>请判断你在多大程度上同意下列陈述。</strong></p>","0",""
"","","","","","survey-likert","150","950893","0.0-23.0","98","1","2022-11-13 12:52:08","a60ee176136a54a92dc2853177adfa2c","112.43.97.93","Mozilla/5.0 (Windows NT 6.1; WOW64) AppleWebKit/537.36 (KHTML, like Gecko) Chrome/94.0.4606.71 Safari/537.36 Core/1.94.186.400 QQBrowser/11.3.5195.400","WebKit","Chrome","94.0.4606.71","Windows","6.1","108400","","{""Nation5"":1,""Nation2"":4,""Patri1"":4,""Patri12"":1,""Patri3"":2,""Nation7"":3,""Nation8"":3,""Nation3"":1,""Patri9"":3,""Patri8"":4,""Patri4"":3,""Nation6"":2,""Patri10"":0,""Patri6"":0,""Patri11"":0,""Patri5"":4,""Patri2"":4,""Nation1"":2,""Nation4"":1,""Patri7"":4}","[16,13,0,11,2,18,19,14,8,7,3,17,9,5,10,4,1,12,15,6]"
"","","","","","html-button-response","151","952148","0.0-24.0","98","1","2022-11-13 12:52:08","a60ee176136a54a92dc2853177adfa2c","112.43.97.93","Mozilla/5.0 (Windows NT 6.1; WOW64) AppleWebKit/537.36 (KHTML, like Gecko) Chrome/94.0.4606.71 Safari/537.36 Core/1.94.186.400 QQBrowser/11.3.5195.400","WebKit","Chrome","94.0.4606.71","Windows","6.1","1239","<p><strong>请判断你在多大程度上同意下列陈述。</strong></p>","0",""
"","","","","","survey-likert","152","1005456","0.0-25.0","98","1","2022-11-13 12:52:08","a60ee176136a54a92dc2853177adfa2c","112.43.97.93","Mozilla/5.0 (Windows NT 6.1; WOW64) AppleWebKit/537.36 (KHTML, like Gecko) Chrome/94.0.4606.71 Safari/537.36 Core/1.94.186.400 QQBrowser/11.3.5195.400","WebKit","Chrome","94.0.4606.71","Windows","6.1","53284","","{""vi3"":6,""vc2"":6,""hi4"":7,""vi1"":4,""hc2"":5,""hi3"":2,""vi2"":2,""hc4"":6,""hc1"":6,""hi1"":6,""vc1"":6,""vc3"":5,""hc3"":5,""Robot"":6,""vc4"":6,""vi4"":3,""hi2"":6}","[6,14,3,4,10,2,5,12,9,0,13,15,11,7,16,8,1]"
"","","","","","survey-text","153","1014679","0.0-26.0","98","1","2022-11-13 12:52:08","a60ee176136a54a92dc2853177adfa2c","112.43.97.93","Mozilla/5.0 (Windows NT 6.1; WOW64) AppleWebKit/537.36 (KHTML, like Gecko) Chrome/94.0.4606.71 Safari/537.36 Core/1.94.186.400 QQBrowser/11.3.5195.400","WebKit","Chrome","94.0.4606.71","Windows","6.1","9174","","{""Comments"":""无""}",""
"","","","","","html-button-response","154","1018460","0.0-27.0","98","1","2022-11-13 12:52:08","a60ee176136a54a92dc2853177adfa2c","112.43.97.93","Mozilla/5.0 (Windows NT 6.1; WOW64) AppleWebKit/537.36 (KHTML, like Gecko) Chrome/94.0.4606.71 Safari/537.36 Core/1.94.186.400 QQBrowser/11.3.5195.400","WebKit","Chrome","94.0.4606.71","Windows","6.1","3773","<strong><p>恭喜你完成了实验！</p><p>感谢您的参与。</p></strong>","0",""
