"success","timeout","failed_images","failed_audio","failed_video","trial_type","trial_index","time_elapsed","internal_node_id","run_id","condition","recorded_at","source_code_version","ip","user_agent","device","browser","browser_version","platform","platform_version","rt","stimulus","response","question_order"
"true","false","[]","[]","[]","preload","0","101865","0.0-0.0","12","1","2023-06-27 15:49:17","846205d480aaa49f22c83d5c8cececc8","115.167.113.44","Mozilla/5.0 (Windows NT 10.0; Win64; x64) AppleWebKit/537.36 (KHTML, like Gecko) Chrome/114.0.0.0 Safari/537.36","WebKit","Chrome","114.0.0.0","Windows","10.0","","","",""
"true","","","","","fullscreen","1","114004","0.0-1.0","12","1","2023-06-27 15:49:17","846205d480aaa49f22c83d5c8cececc8","115.167.113.44","Mozilla/5.0 (Windows NT 10.0; Win64; x64) AppleWebKit/537.36 (KHTML, like Gecko) Chrome/114.0.0.0 Safari/537.36","WebKit","Chrome","114.0.0.0","Windows","10.0","","","",""
"","","","","","html-button-response","2","115150","0.0-2.0","12","1","2023-06-27 15:49:17","846205d480aaa49f22c83d5c8cececc8","115.167.113.44","Mozilla/5.0 (Windows NT 10.0; Win64; x64) AppleWebKit/537.36 (KHTML, like Gecko) Chrome/114.0.0.0 Safari/537.36","WebKit","Chrome","114.0.0.0","Windows","10.0","1143","<p ><strong>Welcome to the experiment!</strong></p><p ><strong>In the first task, please imagine:</strong></p><p>Your country is involved in a military conflict with another country.</p><p>You are the commander of your army and must make decisions in the conflict.</p><p>Specifically, as the military commander, you must decide whether to launch a missile to strike enemy.</p><p>You will face a series of scenarios. Please read each scenario carefully and make a decision.</p><p>The task will take around 10 minutes to complete.</p><p><strong>Please pay your attention during the experiment.</strong></p>","0",""
"","","","","","html-keyboard-response","3","116152","0.0-3.0-0.0","12","1","2023-06-27 15:49:17","846205d480aaa49f22c83d5c8cececc8","115.167.113.44","Mozilla/5.0 (Windows NT 10.0; Win64; x64) AppleWebKit/537.36 (KHTML, like Gecko) Chrome/114.0.0.0 Safari/537.36","WebKit","Chrome","114.0.0.0","Windows","10.0","null","<div style=""font-size:60px;"">+</div>","null",""
"","","","","","html-button-response","4","117469","0.0-3.0-1.0","12","1","2023-06-27 15:49:17","846205d480aaa49f22c83d5c8cececc8","115.167.113.44","Mozilla/5.0 (Windows NT 10.0; Win64; x64) AppleWebKit/537.36 (KHTML, like Gecko) Chrome/114.0.0.0 Safari/537.36","WebKit","Chrome","114.0.0.0","Windows","10.0","1314","<p>As the military commander, you could choose to launch a missile to kill <strong>5 enemy soldiers</strong> , but would accidentally kill <strong>1 enemy civilian</strong> nearby.</p> <p>The photo of the <strong>enemy civilian</strong> is shown below.</p> <p></p> <img src='stimuli/faces/PCF4.jpg', style='max-width: 30%;'> </img> <p><strong>Would you launch the weapon?</strong></p>","0",""
"","","","","","html-keyboard-response","5","118471","0.0-3.0-0.1","12","1","2023-06-27 15:49:17","846205d480aaa49f22c83d5c8cececc8","115.167.113.44","Mozilla/5.0 (Windows NT 10.0; Win64; x64) AppleWebKit/537.36 (KHTML, like Gecko) Chrome/114.0.0.0 Safari/537.36","WebKit","Chrome","114.0.0.0","Windows","10.0","null","<div style=""font-size:60px;"">+</div>","null",""
"","","","","","html-button-response","6","119301","0.0-3.0-1.1","12","1","2023-06-27 15:49:17","846205d480aaa49f22c83d5c8cececc8","115.167.113.44","Mozilla/5.0 (Windows NT 10.0; Win64; x64) AppleWebKit/537.36 (KHTML, like Gecko) Chrome/114.0.0.0 Safari/537.36","WebKit","Chrome","114.0.0.0","Windows","10.0","825","<p>As the military commander, you could choose to launch a missile to kill <strong>10 enemy soldiers</strong> , but would accidentally kill <strong>1 enemy civilian</strong> nearby.</p> <p>The photo of the <strong>enemy civilian</strong> is shown below.</p> <p></p> <img src='stimuli/faces/PCM6.jpg', style='max-width: 30%;'> </img> <p><strong>Would you launch the weapon?</strong></p>","1",""
"","","","","","html-keyboard-response","7","120303","0.0-3.0-0.2","12","1","2023-06-27 15:49:17","846205d480aaa49f22c83d5c8cececc8","115.167.113.44","Mozilla/5.0 (Windows NT 10.0; Win64; x64) AppleWebKit/537.36 (KHTML, like Gecko) Chrome/114.0.0.0 Safari/537.36","WebKit","Chrome","114.0.0.0","Windows","10.0","null","<div style=""font-size:60px;"">+</div>","null",""
"","","","","","html-button-response","8","120925","0.0-3.0-1.2","12","1","2023-06-27 15:49:17","846205d480aaa49f22c83d5c8cececc8","115.167.113.44","Mozilla/5.0 (Windows NT 10.0; Win64; x64) AppleWebKit/537.36 (KHTML, like Gecko) Chrome/114.0.0.0 Safari/537.36","WebKit","Chrome","114.0.0.0","Windows","10.0","621","<p>As the military commander, you could choose to launch a missile to kill <strong>10 enemy soldiers</strong> , but would accidentally kill <strong>1 enemy civilian</strong> nearby.</p> <p>The photo of the <strong>enemy civilian</strong> is shown below.</p> <p></p> <img src='stimuli/faces/PCF8.jpg', style='max-width: 30%;'> </img> <p><strong>Would you launch the weapon?</strong></p>","0",""
"","","","","","html-keyboard-response","9","121927","0.0-3.0-0.3","12","1","2023-06-27 15:49:17","846205d480aaa49f22c83d5c8cececc8","115.167.113.44","Mozilla/5.0 (Windows NT 10.0; Win64; x64) AppleWebKit/537.36 (KHTML, like Gecko) Chrome/114.0.0.0 Safari/537.36","WebKit","Chrome","114.0.0.0","Windows","10.0","null","<div style=""font-size:60px;"">+</div>","null",""
"","","","","","html-button-response","10","132973","0.0-3.0-1.3","12","1","2023-06-27 15:49:17","846205d480aaa49f22c83d5c8cececc8","115.167.113.44","Mozilla/5.0 (Windows NT 10.0; Win64; x64) AppleWebKit/537.36 (KHTML, like Gecko) Chrome/114.0.0.0 Safari/537.36","WebKit","Chrome","114.0.0.0","Windows","10.0","11043","<p>As the military commander, you could choose to launch a missile to kill <strong>8 enemy soldiers</strong> , but would accidentally kill <strong>1 enemy civilian</strong> nearby.</p> <p>The photo of the <strong>enemy civilian</strong> is shown below.</p> <p></p> <img src='stimuli/faces/PCM2.jpg', style='max-width: 30%;'> </img> <p><strong>Would you launch the weapon?</strong></p>","0",""
"","","","","","html-keyboard-response","11","133975","0.0-3.0-0.4","12","1","2023-06-27 15:49:17","846205d480aaa49f22c83d5c8cececc8","115.167.113.44","Mozilla/5.0 (Windows NT 10.0; Win64; x64) AppleWebKit/537.36 (KHTML, like Gecko) Chrome/114.0.0.0 Safari/537.36","WebKit","Chrome","114.0.0.0","Windows","10.0","null","<div style=""font-size:60px;"">+</div>","null",""
"","","","","","html-button-response","12","135988","0.0-3.0-1.4","12","1","2023-06-27 15:49:17","846205d480aaa49f22c83d5c8cececc8","115.167.113.44","Mozilla/5.0 (Windows NT 10.0; Win64; x64) AppleWebKit/537.36 (KHTML, like Gecko) Chrome/114.0.0.0 Safari/537.36","WebKit","Chrome","114.0.0.0","Windows","10.0","2010","<p>As the military commander, you could choose to launch a missile to kill <strong>9 enemy soldiers</strong> , but would accidentally kill <strong>1 enemy civilian</strong> nearby.</p> <p>The photo of the <strong>enemy civilian</strong> is shown below.</p> <p></p> <img src='stimuli/faces/PCM7.jpg', style='max-width: 30%;'> </img> <p><strong>Would you launch the weapon?</strong></p>","0",""
"","","","","","html-keyboard-response","13","136990","0.0-3.0-0.5","12","1","2023-06-27 15:49:17","846205d480aaa49f22c83d5c8cececc8","115.167.113.44","Mozilla/5.0 (Windows NT 10.0; Win64; x64) AppleWebKit/537.36 (KHTML, like Gecko) Chrome/114.0.0.0 Safari/537.36","WebKit","Chrome","114.0.0.0","Windows","10.0","null","<div style=""font-size:60px;"">+</div>","null",""
"","","","","","html-button-response","14","138053","0.0-3.0-1.5","12","1","2023-06-27 15:49:17","846205d480aaa49f22c83d5c8cececc8","115.167.113.44","Mozilla/5.0 (Windows NT 10.0; Win64; x64) AppleWebKit/537.36 (KHTML, like Gecko) Chrome/114.0.0.0 Safari/537.36","WebKit","Chrome","114.0.0.0","Windows","10.0","1061","<p>As the military commander, you could choose to launch a missile to kill <strong>1 enemy soldier</strong> , but would accidentally kill <strong>1 enemy tree</strong> nearby.</p> <p>The photo of the <strong>enemy tree</strong> is shown below.</p> <p></p> <img src='stimuli/tree/8.png', style='max-width: 30%;'> </img> <p><strong>Would you launch the weapon?</strong></p>","0",""
"","","","","","html-keyboard-response","15","139054","0.0-3.0-0.6","12","1","2023-06-27 15:49:17","846205d480aaa49f22c83d5c8cececc8","115.167.113.44","Mozilla/5.0 (Windows NT 10.0; Win64; x64) AppleWebKit/537.36 (KHTML, like Gecko) Chrome/114.0.0.0 Safari/537.36","WebKit","Chrome","114.0.0.0","Windows","10.0","null","<div style=""font-size:60px;"">+</div>","null",""
"","","","","","html-button-response","16","139621","0.0-3.0-1.6","12","1","2023-06-27 15:49:17","846205d480aaa49f22c83d5c8cececc8","115.167.113.44","Mozilla/5.0 (Windows NT 10.0; Win64; x64) AppleWebKit/537.36 (KHTML, like Gecko) Chrome/114.0.0.0 Safari/537.36","WebKit","Chrome","114.0.0.0","Windows","10.0","565","<p>As the military commander, you could choose to launch a missile to kill <strong>7 enemy soldiers</strong> , but would accidentally kill <strong>1 enemy tree</strong> nearby.</p> <p>The photo of the <strong>enemy tree</strong> is shown below.</p> <p></p> <img src='stimuli/tree/6.png', style='max-width: 30%;'> </img> <p><strong>Would you launch the weapon?</strong></p>","1",""
"","","","","","html-keyboard-response","17","140623","0.0-3.0-0.7","12","1","2023-06-27 15:49:17","846205d480aaa49f22c83d5c8cececc8","115.167.113.44","Mozilla/5.0 (Windows NT 10.0; Win64; x64) AppleWebKit/537.36 (KHTML, like Gecko) Chrome/114.0.0.0 Safari/537.36","WebKit","Chrome","114.0.0.0","Windows","10.0","null","<div style=""font-size:60px;"">+</div>","null",""
"","","","","","html-button-response","18","141365","0.0-3.0-1.7","12","1","2023-06-27 15:49:17","846205d480aaa49f22c83d5c8cececc8","115.167.113.44","Mozilla/5.0 (Windows NT 10.0; Win64; x64) AppleWebKit/537.36 (KHTML, like Gecko) Chrome/114.0.0.0 Safari/537.36","WebKit","Chrome","114.0.0.0","Windows","10.0","739","<p>As the military commander, you could choose to launch a missile to kill <strong>8 enemy soldiers</strong> , but would accidentally kill <strong>1 enemy tree</strong> nearby.</p> <p>The photo of the <strong>enemy tree</strong> is shown below.</p> <p></p> <img src='stimuli/tree/7.png', style='max-width: 30%;'> </img> <p><strong>Would you launch the weapon?</strong></p>","1",""
"","","","","","html-keyboard-response","19","142369","0.0-3.0-0.8","12","1","2023-06-27 15:49:17","846205d480aaa49f22c83d5c8cececc8","115.167.113.44","Mozilla/5.0 (Windows NT 10.0; Win64; x64) AppleWebKit/537.36 (KHTML, like Gecko) Chrome/114.0.0.0 Safari/537.36","WebKit","Chrome","114.0.0.0","Windows","10.0","null","<div style=""font-size:60px;"">+</div>","null",""
"","","","","","html-button-response","20","144549","0.0-3.0-1.8","12","1","2023-06-27 15:49:17","846205d480aaa49f22c83d5c8cececc8","115.167.113.44","Mozilla/5.0 (Windows NT 10.0; Win64; x64) AppleWebKit/537.36 (KHTML, like Gecko) Chrome/114.0.0.0 Safari/537.36","WebKit","Chrome","114.0.0.0","Windows","10.0","2176","<p>As the military commander, you could choose to launch a missile to kill <strong>3 enemy soldiers</strong> , but would accidentally kill <strong>1 enemy civilian</strong> nearby.</p> <p>The photo of the <strong>enemy civilian</strong> is shown below.</p> <p></p> <img src='stimuli/faces/PCM8.jpg', style='max-width: 30%;'> </img> <p><strong>Would you launch the weapon?</strong></p>","1",""
"","","","","","html-keyboard-response","21","145551","0.0-3.0-0.9","12","1","2023-06-27 15:49:17","846205d480aaa49f22c83d5c8cececc8","115.167.113.44","Mozilla/5.0 (Windows NT 10.0; Win64; x64) AppleWebKit/537.36 (KHTML, like Gecko) Chrome/114.0.0.0 Safari/537.36","WebKit","Chrome","114.0.0.0","Windows","10.0","null","<div style=""font-size:60px;"">+</div>","null",""
"","","","","","html-button-response","22","149677","0.0-3.0-1.9","12","1","2023-06-27 15:49:17","846205d480aaa49f22c83d5c8cececc8","115.167.113.44","Mozilla/5.0 (Windows NT 10.0; Win64; x64) AppleWebKit/537.36 (KHTML, like Gecko) Chrome/114.0.0.0 Safari/537.36","WebKit","Chrome","114.0.0.0","Windows","10.0","4122","<p>As the military commander, you could choose to launch a missile to kill <strong>4 enemy soldiers</strong> , but would accidentally kill <strong>1 enemy tree</strong> nearby.</p> <p>The photo of the <strong>enemy tree</strong> is shown below.</p> <p></p> <img src='stimuli/tree/10.png', style='max-width: 30%;'> </img> <p><strong>Would you launch the weapon?</strong></p>","1",""
"","","","","","html-keyboard-response","23","150678","0.0-3.0-0.10","12","1","2023-06-27 15:49:17","846205d480aaa49f22c83d5c8cececc8","115.167.113.44","Mozilla/5.0 (Windows NT 10.0; Win64; x64) AppleWebKit/537.36 (KHTML, like Gecko) Chrome/114.0.0.0 Safari/537.36","WebKit","Chrome","114.0.0.0","Windows","10.0","null","<div style=""font-size:60px;"">+</div>","null",""
"","","","","","html-button-response","24","151485","0.0-3.0-1.10","12","1","2023-06-27 15:49:17","846205d480aaa49f22c83d5c8cececc8","115.167.113.44","Mozilla/5.0 (Windows NT 10.0; Win64; x64) AppleWebKit/537.36 (KHTML, like Gecko) Chrome/114.0.0.0 Safari/537.36","WebKit","Chrome","114.0.0.0","Windows","10.0","803","<p>As the military commander, you could choose to launch a missile to kill <strong>3 enemy soldiers</strong> , but would accidentally kill <strong>1 enemy civilian</strong> nearby.</p> <p>The photo of the <strong>enemy civilian</strong> is shown below.</p> <p></p> <img src='stimuli/faces/PCF6.jpg', style='max-width: 30%;'> </img> <p><strong>Would you launch the weapon?</strong></p>","0",""
"","","","","","html-keyboard-response","25","152486","0.0-3.0-0.11","12","1","2023-06-27 15:49:17","846205d480aaa49f22c83d5c8cececc8","115.167.113.44","Mozilla/5.0 (Windows NT 10.0; Win64; x64) AppleWebKit/537.36 (KHTML, like Gecko) Chrome/114.0.0.0 Safari/537.36","WebKit","Chrome","114.0.0.0","Windows","10.0","null","<div style=""font-size:60px;"">+</div>","null",""
"","","","","","html-button-response","26","153333","0.0-3.0-1.11","12","1","2023-06-27 15:49:17","846205d480aaa49f22c83d5c8cececc8","115.167.113.44","Mozilla/5.0 (Windows NT 10.0; Win64; x64) AppleWebKit/537.36 (KHTML, like Gecko) Chrome/114.0.0.0 Safari/537.36","WebKit","Chrome","114.0.0.0","Windows","10.0","844","<p>As the military commander, you could choose to launch a missile to kill <strong>6 enemy soldiers</strong> , but would accidentally kill <strong>1 enemy civilian</strong> nearby.</p> <p>The photo of the <strong>enemy civilian</strong> is shown below.</p> <p></p> <img src='stimuli/faces/PCM5.jpg', style='max-width: 30%;'> </img> <p><strong>Would you launch the weapon?</strong></p>","0",""
"","","","","","html-keyboard-response","27","154334","0.0-3.0-0.12","12","1","2023-06-27 15:49:17","846205d480aaa49f22c83d5c8cececc8","115.167.113.44","Mozilla/5.0 (Windows NT 10.0; Win64; x64) AppleWebKit/537.36 (KHTML, like Gecko) Chrome/114.0.0.0 Safari/537.36","WebKit","Chrome","114.0.0.0","Windows","10.0","null","<div style=""font-size:60px;"">+</div>","null",""
"","","","","","html-button-response","28","155373","0.0-3.0-1.12","12","1","2023-06-27 15:49:17","846205d480aaa49f22c83d5c8cececc8","115.167.113.44","Mozilla/5.0 (Windows NT 10.0; Win64; x64) AppleWebKit/537.36 (KHTML, like Gecko) Chrome/114.0.0.0 Safari/537.36","WebKit","Chrome","114.0.0.0","Windows","10.0","1035","<p>As the military commander, you could choose to launch a missile to kill <strong>9 enemy soldiers</strong> , but would accidentally kill <strong>1 enemy tree</strong> nearby.</p> <p>The photo of the <strong>enemy tree</strong> is shown below.</p> <p></p> <img src='stimuli/tree/16.png', style='max-width: 30%;'> </img> <p><strong>Would you launch the weapon?</strong></p>","0",""
"","","","","","html-keyboard-response","29","156376","0.0-3.0-0.13","12","1","2023-06-27 15:49:17","846205d480aaa49f22c83d5c8cececc8","115.167.113.44","Mozilla/5.0 (Windows NT 10.0; Win64; x64) AppleWebKit/537.36 (KHTML, like Gecko) Chrome/114.0.0.0 Safari/537.36","WebKit","Chrome","114.0.0.0","Windows","10.0","null","<div style=""font-size:60px;"">+</div>","null",""
"","","","","","html-button-response","30","158046","0.0-3.0-1.13","12","1","2023-06-27 15:49:17","846205d480aaa49f22c83d5c8cececc8","115.167.113.44","Mozilla/5.0 (Windows NT 10.0; Win64; x64) AppleWebKit/537.36 (KHTML, like Gecko) Chrome/114.0.0.0 Safari/537.36","WebKit","Chrome","114.0.0.0","Windows","10.0","1667","<p>As the military commander, you could choose to launch a missile to kill <strong>9 enemy soldiers</strong> , but would accidentally kill <strong>1 enemy tree</strong> nearby.</p> <p>The photo of the <strong>enemy tree</strong> is shown below.</p> <p></p> <img src='stimuli/tree/2.png', style='max-width: 30%;'> </img> <p><strong>Would you launch the weapon?</strong></p>","0",""
"","","","","","html-keyboard-response","31","159048","0.0-3.0-0.14","12","1","2023-06-27 15:49:17","846205d480aaa49f22c83d5c8cececc8","115.167.113.44","Mozilla/5.0 (Windows NT 10.0; Win64; x64) AppleWebKit/537.36 (KHTML, like Gecko) Chrome/114.0.0.0 Safari/537.36","WebKit","Chrome","114.0.0.0","Windows","10.0","null","<div style=""font-size:60px;"">+</div>","null",""
"","","","","","html-button-response","32","159821","0.0-3.0-1.14","12","1","2023-06-27 15:49:17","846205d480aaa49f22c83d5c8cececc8","115.167.113.44","Mozilla/5.0 (Windows NT 10.0; Win64; x64) AppleWebKit/537.36 (KHTML, like Gecko) Chrome/114.0.0.0 Safari/537.36","WebKit","Chrome","114.0.0.0","Windows","10.0","769","<p>As the military commander, you could choose to launch a missile to kill <strong>2 enemy soldiers</strong> , but would accidentally kill <strong>1 enemy civilian</strong> nearby.</p> <p>The photo of the <strong>enemy civilian</strong> is shown below.</p> <p></p> <img src='stimuli/faces/PCM7.jpg', style='max-width: 30%;'> </img> <p><strong>Would you launch the weapon?</strong></p>","0",""
"","","","","","html-keyboard-response","33","160822","0.0-3.0-0.15","12","1","2023-06-27 15:49:17","846205d480aaa49f22c83d5c8cececc8","115.167.113.44","Mozilla/5.0 (Windows NT 10.0; Win64; x64) AppleWebKit/537.36 (KHTML, like Gecko) Chrome/114.0.0.0 Safari/537.36","WebKit","Chrome","114.0.0.0","Windows","10.0","null","<div style=""font-size:60px;"">+</div>","null",""
"","","","","","html-button-response","34","162317","0.0-3.0-1.15","12","1","2023-06-27 15:49:17","846205d480aaa49f22c83d5c8cececc8","115.167.113.44","Mozilla/5.0 (Windows NT 10.0; Win64; x64) AppleWebKit/537.36 (KHTML, like Gecko) Chrome/114.0.0.0 Safari/537.36","WebKit","Chrome","114.0.0.0","Windows","10.0","1493","<p>As the military commander, you could choose to launch a missile to kill <strong>8 enemy soldiers</strong> , but would accidentally kill <strong>1 enemy civilian</strong> nearby.</p> <p>The photo of the <strong>enemy civilian</strong> is shown below.</p> <p></p> <img src='stimuli/faces/PCM8.jpg', style='max-width: 30%;'> </img> <p><strong>Would you launch the weapon?</strong></p>","0",""
"","","","","","html-keyboard-response","35","163320","0.0-3.0-0.16","12","1","2023-06-27 15:49:17","846205d480aaa49f22c83d5c8cececc8","115.167.113.44","Mozilla/5.0 (Windows NT 10.0; Win64; x64) AppleWebKit/537.36 (KHTML, like Gecko) Chrome/114.0.0.0 Safari/537.36","WebKit","Chrome","114.0.0.0","Windows","10.0","null","<div style=""font-size:60px;"">+</div>","null",""
"","","","","","html-button-response","36","164309","0.0-3.0-1.16","12","1","2023-06-27 15:49:17","846205d480aaa49f22c83d5c8cececc8","115.167.113.44","Mozilla/5.0 (Windows NT 10.0; Win64; x64) AppleWebKit/537.36 (KHTML, like Gecko) Chrome/114.0.0.0 Safari/537.36","WebKit","Chrome","114.0.0.0","Windows","10.0","986","<p>As the military commander, you could choose to launch a missile to kill <strong>1 enemy soldier</strong> , but would accidentally kill <strong>1 enemy tree</strong> nearby.</p> <p>The photo of the <strong>enemy tree</strong> is shown below.</p> <p></p> <img src='stimuli/tree/2.png', style='max-width: 30%;'> </img> <p><strong>Would you launch the weapon?</strong></p>","1",""
"","","","","","html-keyboard-response","37","165311","0.0-3.0-0.17","12","1","2023-06-27 15:49:17","846205d480aaa49f22c83d5c8cececc8","115.167.113.44","Mozilla/5.0 (Windows NT 10.0; Win64; x64) AppleWebKit/537.36 (KHTML, like Gecko) Chrome/114.0.0.0 Safari/537.36","WebKit","Chrome","114.0.0.0","Windows","10.0","null","<div style=""font-size:60px;"">+</div>","null",""
"","","","","","html-button-response","38","168133","0.0-3.0-1.17","12","1","2023-06-27 15:49:17","846205d480aaa49f22c83d5c8cececc8","115.167.113.44","Mozilla/5.0 (Windows NT 10.0; Win64; x64) AppleWebKit/537.36 (KHTML, like Gecko) Chrome/114.0.0.0 Safari/537.36","WebKit","Chrome","114.0.0.0","Windows","10.0","2818","<p>As the military commander, you could choose to launch a missile to kill <strong>2 enemy soldiers</strong> , but would accidentally kill <strong>1 enemy civilian</strong> nearby.</p> <p>The photo of the <strong>enemy civilian</strong> is shown below.</p> <p></p> <img src='stimuli/faces/PCM4.jpg', style='max-width: 30%;'> </img> <p><strong>Would you launch the weapon?</strong></p>","0",""
"","","","","","html-keyboard-response","39","169134","0.0-3.0-0.18","12","1","2023-06-27 15:49:17","846205d480aaa49f22c83d5c8cececc8","115.167.113.44","Mozilla/5.0 (Windows NT 10.0; Win64; x64) AppleWebKit/537.36 (KHTML, like Gecko) Chrome/114.0.0.0 Safari/537.36","WebKit","Chrome","114.0.0.0","Windows","10.0","null","<div style=""font-size:60px;"">+</div>","null",""
"","","","","","html-button-response","40","171125","0.0-3.0-1.18","12","1","2023-06-27 15:49:17","846205d480aaa49f22c83d5c8cececc8","115.167.113.44","Mozilla/5.0 (Windows NT 10.0; Win64; x64) AppleWebKit/537.36 (KHTML, like Gecko) Chrome/114.0.0.0 Safari/537.36","WebKit","Chrome","114.0.0.0","Windows","10.0","1988","<p>As the military commander, you could choose to launch a missile to kill <strong>3 enemy soldiers</strong> , but would accidentally kill <strong>1 enemy tree</strong> nearby.</p> <p>The photo of the <strong>enemy tree</strong> is shown below.</p> <p></p> <img src='stimuli/tree/12.png', style='max-width: 30%;'> </img> <p><strong>Would you launch the weapon?</strong></p>","0",""
"","","","","","html-keyboard-response","41","172127","0.0-3.0-0.19","12","1","2023-06-27 15:49:17","846205d480aaa49f22c83d5c8cececc8","115.167.113.44","Mozilla/5.0 (Windows NT 10.0; Win64; x64) AppleWebKit/537.36 (KHTML, like Gecko) Chrome/114.0.0.0 Safari/537.36","WebKit","Chrome","114.0.0.0","Windows","10.0","null","<div style=""font-size:60px;"">+</div>","null",""
"","","","","","html-button-response","42","178893","0.0-3.0-1.19","12","1","2023-06-27 15:49:17","846205d480aaa49f22c83d5c8cececc8","115.167.113.44","Mozilla/5.0 (Windows NT 10.0; Win64; x64) AppleWebKit/537.36 (KHTML, like Gecko) Chrome/114.0.0.0 Safari/537.36","WebKit","Chrome","114.0.0.0","Windows","10.0","6761","<p>As the military commander, you could choose to launch a missile to kill <strong>3 enemy soldiers</strong> , but would accidentally kill <strong>1 enemy civilian</strong> nearby.</p> <p>The photo of the <strong>enemy civilian</strong> is shown below.</p> <p></p> <img src='stimuli/faces/PCM2.jpg', style='max-width: 30%;'> </img> <p><strong>Would you launch the weapon?</strong></p>","0",""
"","","","","","html-keyboard-response","43","179894","0.0-3.0-0.20","12","1","2023-06-27 15:49:17","846205d480aaa49f22c83d5c8cececc8","115.167.113.44","Mozilla/5.0 (Windows NT 10.0; Win64; x64) AppleWebKit/537.36 (KHTML, like Gecko) Chrome/114.0.0.0 Safari/537.36","WebKit","Chrome","114.0.0.0","Windows","10.0","null","<div style=""font-size:60px;"">+</div>","null",""
"","","","","","html-button-response","44","181532","0.0-3.0-1.20","12","1","2023-06-27 15:49:17","846205d480aaa49f22c83d5c8cececc8","115.167.113.44","Mozilla/5.0 (Windows NT 10.0; Win64; x64) AppleWebKit/537.36 (KHTML, like Gecko) Chrome/114.0.0.0 Safari/537.36","WebKit","Chrome","114.0.0.0","Windows","10.0","1634","<p>As the military commander, you could choose to launch a missile to kill <strong>7 enemy soldiers</strong> , but would accidentally kill <strong>1 enemy civilian</strong> nearby.</p> <p>The photo of the <strong>enemy civilian</strong> is shown below.</p> <p></p> <img src='stimuli/faces/PCF7.jpg', style='max-width: 30%;'> </img> <p><strong>Would you launch the weapon?</strong></p>","0",""
"","","","","","html-keyboard-response","45","182535","0.0-3.0-0.21","12","1","2023-06-27 15:49:17","846205d480aaa49f22c83d5c8cececc8","115.167.113.44","Mozilla/5.0 (Windows NT 10.0; Win64; x64) AppleWebKit/537.36 (KHTML, like Gecko) Chrome/114.0.0.0 Safari/537.36","WebKit","Chrome","114.0.0.0","Windows","10.0","null","<div style=""font-size:60px;"">+</div>","null",""
"","","","","","html-button-response","46","185236","0.0-3.0-1.21","12","1","2023-06-27 15:49:17","846205d480aaa49f22c83d5c8cececc8","115.167.113.44","Mozilla/5.0 (Windows NT 10.0; Win64; x64) AppleWebKit/537.36 (KHTML, like Gecko) Chrome/114.0.0.0 Safari/537.36","WebKit","Chrome","114.0.0.0","Windows","10.0","2697","<p>As the military commander, you could choose to launch a missile to kill <strong>3 enemy soldiers</strong> , but would accidentally kill <strong>1 enemy civilian</strong> nearby.</p> <p>The photo of the <strong>enemy civilian</strong> is shown below.</p> <p></p> <img src='stimuli/faces/PCF8.jpg', style='max-width: 30%;'> </img> <p><strong>Would you launch the weapon?</strong></p>","0",""
"","","","","","html-keyboard-response","47","186238","0.0-3.0-0.22","12","1","2023-06-27 15:49:17","846205d480aaa49f22c83d5c8cececc8","115.167.113.44","Mozilla/5.0 (Windows NT 10.0; Win64; x64) AppleWebKit/537.36 (KHTML, like Gecko) Chrome/114.0.0.0 Safari/537.36","WebKit","Chrome","114.0.0.0","Windows","10.0","null","<div style=""font-size:60px;"">+</div>","null",""
"","","","","","html-button-response","48","187844","0.0-3.0-1.22","12","1","2023-06-27 15:49:17","846205d480aaa49f22c83d5c8cececc8","115.167.113.44","Mozilla/5.0 (Windows NT 10.0; Win64; x64) AppleWebKit/537.36 (KHTML, like Gecko) Chrome/114.0.0.0 Safari/537.36","WebKit","Chrome","114.0.0.0","Windows","10.0","1603","<p>As the military commander, you could choose to launch a missile to kill <strong>8 enemy soldiers</strong> , but would accidentally kill <strong>1 enemy tree</strong> nearby.</p> <p>The photo of the <strong>enemy tree</strong> is shown below.</p> <p></p> <img src='stimuli/tree/8.png', style='max-width: 30%;'> </img> <p><strong>Would you launch the weapon?</strong></p>","0",""
"","","","","","html-keyboard-response","49","188848","0.0-3.0-0.23","12","1","2023-06-27 15:49:17","846205d480aaa49f22c83d5c8cececc8","115.167.113.44","Mozilla/5.0 (Windows NT 10.0; Win64; x64) AppleWebKit/537.36 (KHTML, like Gecko) Chrome/114.0.0.0 Safari/537.36","WebKit","Chrome","114.0.0.0","Windows","10.0","null","<div style=""font-size:60px;"">+</div>","null",""
"","","","","","html-button-response","50","194012","0.0-3.0-1.23","12","1","2023-06-27 15:49:17","846205d480aaa49f22c83d5c8cececc8","115.167.113.44","Mozilla/5.0 (Windows NT 10.0; Win64; x64) AppleWebKit/537.36 (KHTML, like Gecko) Chrome/114.0.0.0 Safari/537.36","WebKit","Chrome","114.0.0.0","Windows","10.0","5160","<p>As the military commander, you could choose to launch a missile to kill <strong>5 enemy soldiers</strong> , but would accidentally kill <strong>1 enemy tree</strong> nearby.</p> <p>The photo of the <strong>enemy tree</strong> is shown below.</p> <p></p> <img src='stimuli/tree/14.png', style='max-width: 30%;'> </img> <p><strong>Would you launch the weapon?</strong></p>","0",""
"","","","","","html-keyboard-response","51","195014","0.0-3.0-0.24","12","1","2023-06-27 15:49:17","846205d480aaa49f22c83d5c8cececc8","115.167.113.44","Mozilla/5.0 (Windows NT 10.0; Win64; x64) AppleWebKit/537.36 (KHTML, like Gecko) Chrome/114.0.0.0 Safari/537.36","WebKit","Chrome","114.0.0.0","Windows","10.0","null","<div style=""font-size:60px;"">+</div>","null",""
"","","","","","html-button-response","52","195572","0.0-3.0-1.24","12","1","2023-06-27 15:49:17","846205d480aaa49f22c83d5c8cececc8","115.167.113.44","Mozilla/5.0 (Windows NT 10.0; Win64; x64) AppleWebKit/537.36 (KHTML, like Gecko) Chrome/114.0.0.0 Safari/537.36","WebKit","Chrome","114.0.0.0","Windows","10.0","553","<p>As the military commander, you could choose to launch a missile to kill <strong>2 enemy soldiers</strong> , but would accidentally kill <strong>1 enemy tree</strong> nearby.</p> <p>The photo of the <strong>enemy tree</strong> is shown below.</p> <p></p> <img src='stimuli/tree/6.png', style='max-width: 30%;'> </img> <p><strong>Would you launch the weapon?</strong></p>","0",""
"","","","","","html-keyboard-response","53","196576","0.0-3.0-0.25","12","1","2023-06-27 15:49:17","846205d480aaa49f22c83d5c8cececc8","115.167.113.44","Mozilla/5.0 (Windows NT 10.0; Win64; x64) AppleWebKit/537.36 (KHTML, like Gecko) Chrome/114.0.0.0 Safari/537.36","WebKit","Chrome","114.0.0.0","Windows","10.0","null","<div style=""font-size:60px;"">+</div>","null",""
"","","","","","html-button-response","54","202381","0.0-3.0-1.25","12","1","2023-06-27 15:49:17","846205d480aaa49f22c83d5c8cececc8","115.167.113.44","Mozilla/5.0 (Windows NT 10.0; Win64; x64) AppleWebKit/537.36 (KHTML, like Gecko) Chrome/114.0.0.0 Safari/537.36","WebKit","Chrome","114.0.0.0","Windows","10.0","5802","<p>As the military commander, you could choose to launch a missile to kill <strong>1 enemy soldier</strong> , but would accidentally kill <strong>1 enemy civilian</strong> nearby.</p> <p>The photo of the <strong>enemy civilian</strong> is shown below.</p> <p></p> <img src='stimuli/faces/PCM5.jpg', style='max-width: 30%;'> </img> <p><strong>Would you launch the weapon?</strong></p>","0",""
"","","","","","html-keyboard-response","55","203383","0.0-3.0-0.26","12","1","2023-06-27 15:49:17","846205d480aaa49f22c83d5c8cececc8","115.167.113.44","Mozilla/5.0 (Windows NT 10.0; Win64; x64) AppleWebKit/537.36 (KHTML, like Gecko) Chrome/114.0.0.0 Safari/537.36","WebKit","Chrome","114.0.0.0","Windows","10.0","null","<div style=""font-size:60px;"">+</div>","null",""
"","","","","","html-button-response","56","203972","0.0-3.0-1.26","12","1","2023-06-27 15:49:17","846205d480aaa49f22c83d5c8cececc8","115.167.113.44","Mozilla/5.0 (Windows NT 10.0; Win64; x64) AppleWebKit/537.36 (KHTML, like Gecko) Chrome/114.0.0.0 Safari/537.36","WebKit","Chrome","114.0.0.0","Windows","10.0","585","<p>As the military commander, you could choose to launch a missile to kill <strong>4 enemy soldiers</strong> , but would accidentally kill <strong>1 enemy civilian</strong> nearby.</p> <p>The photo of the <strong>enemy civilian</strong> is shown below.</p> <p></p> <img src='stimuli/faces/PCF2.jpg', style='max-width: 30%;'> </img> <p><strong>Would you launch the weapon?</strong></p>","1",""
"","","","","","html-keyboard-response","57","204974","0.0-3.0-0.27","12","1","2023-06-27 15:49:17","846205d480aaa49f22c83d5c8cececc8","115.167.113.44","Mozilla/5.0 (Windows NT 10.0; Win64; x64) AppleWebKit/537.36 (KHTML, like Gecko) Chrome/114.0.0.0 Safari/537.36","WebKit","Chrome","114.0.0.0","Windows","10.0","null","<div style=""font-size:60px;"">+</div>","null",""
"","","","","","html-button-response","58","205661","0.0-3.0-1.27","12","1","2023-06-27 15:49:17","846205d480aaa49f22c83d5c8cececc8","115.167.113.44","Mozilla/5.0 (Windows NT 10.0; Win64; x64) AppleWebKit/537.36 (KHTML, like Gecko) Chrome/114.0.0.0 Safari/537.36","WebKit","Chrome","114.0.0.0","Windows","10.0","683","<p>As the military commander, you could choose to launch a missile to kill <strong>8 enemy soldiers</strong> , but would accidentally kill <strong>1 enemy tree</strong> nearby.</p> <p>The photo of the <strong>enemy tree</strong> is shown below.</p> <p></p> <img src='stimuli/tree/1.png', style='max-width: 30%;'> </img> <p><strong>Would you launch the weapon?</strong></p>","0",""
"","","","","","html-keyboard-response","59","206663","0.0-3.0-0.28","12","1","2023-06-27 15:49:17","846205d480aaa49f22c83d5c8cececc8","115.167.113.44","Mozilla/5.0 (Windows NT 10.0; Win64; x64) AppleWebKit/537.36 (KHTML, like Gecko) Chrome/114.0.0.0 Safari/537.36","WebKit","Chrome","114.0.0.0","Windows","10.0","null","<div style=""font-size:60px;"">+</div>","null",""
"","","","","","html-button-response","60","209772","0.0-3.0-1.28","12","1","2023-06-27 15:49:17","846205d480aaa49f22c83d5c8cececc8","115.167.113.44","Mozilla/5.0 (Windows NT 10.0; Win64; x64) AppleWebKit/537.36 (KHTML, like Gecko) Chrome/114.0.0.0 Safari/537.36","WebKit","Chrome","114.0.0.0","Windows","10.0","3104","<p>As the military commander, you could choose to launch a missile to kill <strong>10 enemy soldiers</strong> , but would accidentally kill <strong>1 enemy civilian</strong> nearby.</p> <p>The photo of the <strong>enemy civilian</strong> is shown below.</p> <p></p> <img src='stimuli/faces/PCM4.jpg', style='max-width: 30%;'> </img> <p><strong>Would you launch the weapon?</strong></p>","0",""
"","","","","","html-keyboard-response","61","210775","0.0-3.0-0.29","12","1","2023-06-27 15:49:17","846205d480aaa49f22c83d5c8cececc8","115.167.113.44","Mozilla/5.0 (Windows NT 10.0; Win64; x64) AppleWebKit/537.36 (KHTML, like Gecko) Chrome/114.0.0.0 Safari/537.36","WebKit","Chrome","114.0.0.0","Windows","10.0","null","<div style=""font-size:60px;"">+</div>","null",""
"","","","","","html-button-response","62","213307","0.0-3.0-1.29","12","1","2023-06-27 15:49:17","846205d480aaa49f22c83d5c8cececc8","115.167.113.44","Mozilla/5.0 (Windows NT 10.0; Win64; x64) AppleWebKit/537.36 (KHTML, like Gecko) Chrome/114.0.0.0 Safari/537.36","WebKit","Chrome","114.0.0.0","Windows","10.0","2528","<p>As the military commander, you could choose to launch a missile to kill <strong>2 enemy soldiers</strong> , but would accidentally kill <strong>1 enemy civilian</strong> nearby.</p> <p>The photo of the <strong>enemy civilian</strong> is shown below.</p> <p></p> <img src='stimuli/faces/PCM6.jpg', style='max-width: 30%;'> </img> <p><strong>Would you launch the weapon?</strong></p>","0",""
"","","","","","html-keyboard-response","63","214310","0.0-3.0-0.30","12","1","2023-06-27 15:49:17","846205d480aaa49f22c83d5c8cececc8","115.167.113.44","Mozilla/5.0 (Windows NT 10.0; Win64; x64) AppleWebKit/537.36 (KHTML, like Gecko) Chrome/114.0.0.0 Safari/537.36","WebKit","Chrome","114.0.0.0","Windows","10.0","null","<div style=""font-size:60px;"">+</div>","null",""
"","","","","","html-button-response","64","215316","0.0-3.0-1.30","12","1","2023-06-27 15:49:17","846205d480aaa49f22c83d5c8cececc8","115.167.113.44","Mozilla/5.0 (Windows NT 10.0; Win64; x64) AppleWebKit/537.36 (KHTML, like Gecko) Chrome/114.0.0.0 Safari/537.36","WebKit","Chrome","114.0.0.0","Windows","10.0","1000","<p>As the military commander, you could choose to launch a missile to kill <strong>3 enemy soldiers</strong> , but would accidentally kill <strong>1 enemy civilian</strong> nearby.</p> <p>The photo of the <strong>enemy civilian</strong> is shown below.</p> <p></p> <img src='stimuli/faces/PCF3.jpg', style='max-width: 30%;'> </img> <p><strong>Would you launch the weapon?</strong></p>","0",""
"","","","","","html-keyboard-response","65","216318","0.0-3.0-0.31","12","1","2023-06-27 15:49:17","846205d480aaa49f22c83d5c8cececc8","115.167.113.44","Mozilla/5.0 (Windows NT 10.0; Win64; x64) AppleWebKit/537.36 (KHTML, like Gecko) Chrome/114.0.0.0 Safari/537.36","WebKit","Chrome","114.0.0.0","Windows","10.0","null","<div style=""font-size:60px;"">+</div>","null",""
"","","","","","html-button-response","66","219388","0.0-3.0-1.31","12","1","2023-06-27 15:49:17","846205d480aaa49f22c83d5c8cececc8","115.167.113.44","Mozilla/5.0 (Windows NT 10.0; Win64; x64) AppleWebKit/537.36 (KHTML, like Gecko) Chrome/114.0.0.0 Safari/537.36","WebKit","Chrome","114.0.0.0","Windows","10.0","3066","<p>As the military commander, you could choose to launch a missile to kill <strong>10 enemy soldiers</strong> , but would accidentally kill <strong>1 enemy tree</strong> nearby.</p> <p>The photo of the <strong>enemy tree</strong> is shown below.</p> <p></p> <img src='stimuli/tree/14.png', style='max-width: 30%;'> </img> <p><strong>Would you launch the weapon?</strong></p>","0",""
"","","","","","html-keyboard-response","67","220392","0.0-3.0-0.32","12","1","2023-06-27 15:49:17","846205d480aaa49f22c83d5c8cececc8","115.167.113.44","Mozilla/5.0 (Windows NT 10.0; Win64; x64) AppleWebKit/537.36 (KHTML, like Gecko) Chrome/114.0.0.0 Safari/537.36","WebKit","Chrome","114.0.0.0","Windows","10.0","null","<div style=""font-size:60px;"">+</div>","null",""
"","","","","","html-button-response","68","223180","0.0-3.0-1.32","12","1","2023-06-27 15:49:17","846205d480aaa49f22c83d5c8cececc8","115.167.113.44","Mozilla/5.0 (Windows NT 10.0; Win64; x64) AppleWebKit/537.36 (KHTML, like Gecko) Chrome/114.0.0.0 Safari/537.36","WebKit","Chrome","114.0.0.0","Windows","10.0","2782","<p>As the military commander, you could choose to launch a missile to kill <strong>1 enemy soldier</strong> , but would accidentally kill <strong>1 enemy tree</strong> nearby.</p> <p>The photo of the <strong>enemy tree</strong> is shown below.</p> <p></p> <img src='stimuli/tree/5.png', style='max-width: 30%;'> </img> <p><strong>Would you launch the weapon?</strong></p>","0",""
"","","","","","html-keyboard-response","69","224183","0.0-3.0-0.33","12","1","2023-06-27 15:49:17","846205d480aaa49f22c83d5c8cececc8","115.167.113.44","Mozilla/5.0 (Windows NT 10.0; Win64; x64) AppleWebKit/537.36 (KHTML, like Gecko) Chrome/114.0.0.0 Safari/537.36","WebKit","Chrome","114.0.0.0","Windows","10.0","null","<div style=""font-size:60px;"">+</div>","null",""
"","","","","","html-button-response","70","227868","0.0-3.0-1.33","12","1","2023-06-27 15:49:17","846205d480aaa49f22c83d5c8cececc8","115.167.113.44","Mozilla/5.0 (Windows NT 10.0; Win64; x64) AppleWebKit/537.36 (KHTML, like Gecko) Chrome/114.0.0.0 Safari/537.36","WebKit","Chrome","114.0.0.0","Windows","10.0","3681","<p>As the military commander, you could choose to launch a missile to kill <strong>8 enemy soldiers</strong> , but would accidentally kill <strong>1 enemy civilian</strong> nearby.</p> <p>The photo of the <strong>enemy civilian</strong> is shown below.</p> <p></p> <img src='stimuli/faces/PCF1.jpg', style='max-width: 30%;'> </img> <p><strong>Would you launch the weapon?</strong></p>","0",""
"","","","","","html-keyboard-response","71","228878","0.0-3.0-0.34","12","1","2023-06-27 15:49:17","846205d480aaa49f22c83d5c8cececc8","115.167.113.44","Mozilla/5.0 (Windows NT 10.0; Win64; x64) AppleWebKit/537.36 (KHTML, like Gecko) Chrome/114.0.0.0 Safari/537.36","WebKit","Chrome","114.0.0.0","Windows","10.0","null","<div style=""font-size:60px;"">+</div>","null",""
"","","","","","html-button-response","72","229611","0.0-3.0-1.34","12","1","2023-06-27 15:49:17","846205d480aaa49f22c83d5c8cececc8","115.167.113.44","Mozilla/5.0 (Windows NT 10.0; Win64; x64) AppleWebKit/537.36 (KHTML, like Gecko) Chrome/114.0.0.0 Safari/537.36","WebKit","Chrome","114.0.0.0","Windows","10.0","728","<p>As the military commander, you could choose to launch a missile to kill <strong>3 enemy soldiers</strong> , but would accidentally kill <strong>1 enemy tree</strong> nearby.</p> <p>The photo of the <strong>enemy tree</strong> is shown below.</p> <p></p> <img src='stimuli/tree/15.png', style='max-width: 30%;'> </img> <p><strong>Would you launch the weapon?</strong></p>","0",""
"","","","","","html-keyboard-response","73","230614","0.0-3.0-0.35","12","1","2023-06-27 15:49:17","846205d480aaa49f22c83d5c8cececc8","115.167.113.44","Mozilla/5.0 (Windows NT 10.0; Win64; x64) AppleWebKit/537.36 (KHTML, like Gecko) Chrome/114.0.0.0 Safari/537.36","WebKit","Chrome","114.0.0.0","Windows","10.0","null","<div style=""font-size:60px;"">+</div>","null",""
"","","","","","html-button-response","74","232364","0.0-3.0-1.35","12","1","2023-06-27 15:49:17","846205d480aaa49f22c83d5c8cececc8","115.167.113.44","Mozilla/5.0 (Windows NT 10.0; Win64; x64) AppleWebKit/537.36 (KHTML, like Gecko) Chrome/114.0.0.0 Safari/537.36","WebKit","Chrome","114.0.0.0","Windows","10.0","1747","<p>As the military commander, you could choose to launch a missile to kill <strong>9 enemy soldiers</strong> , but would accidentally kill <strong>1 enemy civilian</strong> nearby.</p> <p>The photo of the <strong>enemy civilian</strong> is shown below.</p> <p></p> <img src='stimuli/faces/PCM1.jpg', style='max-width: 30%;'> </img> <p><strong>Would you launch the weapon?</strong></p>","0",""
"","","","","","html-keyboard-response","75","233367","0.0-3.0-0.36","12","1","2023-06-27 15:49:17","846205d480aaa49f22c83d5c8cececc8","115.167.113.44","Mozilla/5.0 (Windows NT 10.0; Win64; x64) AppleWebKit/537.36 (KHTML, like Gecko) Chrome/114.0.0.0 Safari/537.36","WebKit","Chrome","114.0.0.0","Windows","10.0","null","<div style=""font-size:60px;"">+</div>","null",""
"","","","","","html-button-response","76","233852","0.0-3.0-1.36","12","1","2023-06-27 15:49:17","846205d480aaa49f22c83d5c8cececc8","115.167.113.44","Mozilla/5.0 (Windows NT 10.0; Win64; x64) AppleWebKit/537.36 (KHTML, like Gecko) Chrome/114.0.0.0 Safari/537.36","WebKit","Chrome","114.0.0.0","Windows","10.0","481","<p>As the military commander, you could choose to launch a missile to kill <strong>9 enemy soldiers</strong> , but would accidentally kill <strong>1 enemy civilian</strong> nearby.</p> <p>The photo of the <strong>enemy civilian</strong> is shown below.</p> <p></p> <img src='stimuli/faces/PCF4.jpg', style='max-width: 30%;'> </img> <p><strong>Would you launch the weapon?</strong></p>","0",""
"","","","","","html-keyboard-response","77","234854","0.0-3.0-0.37","12","1","2023-06-27 15:49:17","846205d480aaa49f22c83d5c8cececc8","115.167.113.44","Mozilla/5.0 (Windows NT 10.0; Win64; x64) AppleWebKit/537.36 (KHTML, like Gecko) Chrome/114.0.0.0 Safari/537.36","WebKit","Chrome","114.0.0.0","Windows","10.0","null","<div style=""font-size:60px;"">+</div>","null",""
"","","","","","html-button-response","78","236828","0.0-3.0-1.37","12","1","2023-06-27 15:49:17","846205d480aaa49f22c83d5c8cececc8","115.167.113.44","Mozilla/5.0 (Windows NT 10.0; Win64; x64) AppleWebKit/537.36 (KHTML, like Gecko) Chrome/114.0.0.0 Safari/537.36","WebKit","Chrome","114.0.0.0","Windows","10.0","1968","<p>As the military commander, you could choose to launch a missile to kill <strong>2 enemy soldiers</strong> , but would accidentally kill <strong>1 enemy tree</strong> nearby.</p> <p>The photo of the <strong>enemy tree</strong> is shown below.</p> <p></p> <img src='stimuli/tree/16.png', style='max-width: 30%;'> </img> <p><strong>Would you launch the weapon?</strong></p>","0",""
"","","","","","html-keyboard-response","79","237832","0.0-3.0-0.38","12","1","2023-06-27 15:49:17","846205d480aaa49f22c83d5c8cececc8","115.167.113.44","Mozilla/5.0 (Windows NT 10.0; Win64; x64) AppleWebKit/537.36 (KHTML, like Gecko) Chrome/114.0.0.0 Safari/537.36","WebKit","Chrome","114.0.0.0","Windows","10.0","null","<div style=""font-size:60px;"">+</div>","null",""
"","","","","","html-button-response","80","239572","0.0-3.0-1.38","12","1","2023-06-27 15:49:17","846205d480aaa49f22c83d5c8cececc8","115.167.113.44","Mozilla/5.0 (Windows NT 10.0; Win64; x64) AppleWebKit/537.36 (KHTML, like Gecko) Chrome/114.0.0.0 Safari/537.36","WebKit","Chrome","114.0.0.0","Windows","10.0","1735","<p>As the military commander, you could choose to launch a missile to kill <strong>1 enemy soldier</strong> , but would accidentally kill <strong>1 enemy tree</strong> nearby.</p> <p>The photo of the <strong>enemy tree</strong> is shown below.</p> <p></p> <img src='stimuli/tree/7.png', style='max-width: 30%;'> </img> <p><strong>Would you launch the weapon?</strong></p>","0",""
"","","","","","html-keyboard-response","81","240577","0.0-3.0-0.39","12","1","2023-06-27 15:49:17","846205d480aaa49f22c83d5c8cececc8","115.167.113.44","Mozilla/5.0 (Windows NT 10.0; Win64; x64) AppleWebKit/537.36 (KHTML, like Gecko) Chrome/114.0.0.0 Safari/537.36","WebKit","Chrome","114.0.0.0","Windows","10.0","null","<div style=""font-size:60px;"">+</div>","null",""
"","","","","","html-button-response","82","245493","0.0-3.0-1.39","12","1","2023-06-27 15:49:17","846205d480aaa49f22c83d5c8cececc8","115.167.113.44","Mozilla/5.0 (Windows NT 10.0; Win64; x64) AppleWebKit/537.36 (KHTML, like Gecko) Chrome/114.0.0.0 Safari/537.36","WebKit","Chrome","114.0.0.0","Windows","10.0","4911","<p>As the military commander, you could choose to launch a missile to kill <strong>4 enemy soldiers</strong> , but would accidentally kill <strong>1 enemy tree</strong> nearby.</p> <p>The photo of the <strong>enemy tree</strong> is shown below.</p> <p></p> <img src='stimuli/tree/9.png', style='max-width: 30%;'> </img> <p><strong>Would you launch the weapon?</strong></p>","1",""
"","","","","","html-keyboard-response","83","246495","0.0-3.0-0.40","12","1","2023-06-27 15:49:17","846205d480aaa49f22c83d5c8cececc8","115.167.113.44","Mozilla/5.0 (Windows NT 10.0; Win64; x64) AppleWebKit/537.36 (KHTML, like Gecko) Chrome/114.0.0.0 Safari/537.36","WebKit","Chrome","114.0.0.0","Windows","10.0","null","<div style=""font-size:60px;"">+</div>","null",""
"","","","","","html-button-response","84","249062","0.0-3.0-1.40","12","1","2023-06-27 15:49:17","846205d480aaa49f22c83d5c8cececc8","115.167.113.44","Mozilla/5.0 (Windows NT 10.0; Win64; x64) AppleWebKit/537.36 (KHTML, like Gecko) Chrome/114.0.0.0 Safari/537.36","WebKit","Chrome","114.0.0.0","Windows","10.0","2560","<p>As the military commander, you could choose to launch a missile to kill <strong>1 enemy soldier</strong> , but would accidentally kill <strong>1 enemy tree</strong> nearby.</p> <p>The photo of the <strong>enemy tree</strong> is shown below.</p> <p></p> <img src='stimuli/tree/11.png', style='max-width: 30%;'> </img> <p><strong>Would you launch the weapon?</strong></p>","1",""
"","","","","","html-keyboard-response","85","250065","0.0-3.0-0.41","12","1","2023-06-27 15:49:17","846205d480aaa49f22c83d5c8cececc8","115.167.113.44","Mozilla/5.0 (Windows NT 10.0; Win64; x64) AppleWebKit/537.36 (KHTML, like Gecko) Chrome/114.0.0.0 Safari/537.36","WebKit","Chrome","114.0.0.0","Windows","10.0","null","<div style=""font-size:60px;"">+</div>","null",""
"","","","","","html-button-response","86","295853","0.0-3.0-1.41","12","1","2023-06-27 15:49:17","846205d480aaa49f22c83d5c8cececc8","115.167.113.44","Mozilla/5.0 (Windows NT 10.0; Win64; x64) AppleWebKit/537.36 (KHTML, like Gecko) Chrome/114.0.0.0 Safari/537.36","WebKit","Chrome","114.0.0.0","Windows","10.0","45783","<p>As the military commander, you could choose to launch a missile to kill <strong>8 enemy soldiers</strong> , but would accidentally kill <strong>1 enemy civilian</strong> nearby.</p> <p>The photo of the <strong>enemy civilian</strong> is shown below.</p> <p></p> <img src='stimuli/faces/PCF2.jpg', style='max-width: 30%;'> </img> <p><strong>Would you launch the weapon?</strong></p>","1",""
"","","","","","html-keyboard-response","87","296857","0.0-3.0-0.42","12","1","2023-06-27 15:49:17","846205d480aaa49f22c83d5c8cececc8","115.167.113.44","Mozilla/5.0 (Windows NT 10.0; Win64; x64) AppleWebKit/537.36 (KHTML, like Gecko) Chrome/114.0.0.0 Safari/537.36","WebKit","Chrome","114.0.0.0","Windows","10.0","null","<div style=""font-size:60px;"">+</div>","null",""
"","","","","","html-button-response","88","297309","0.0-3.0-1.42","12","1","2023-06-27 15:49:17","846205d480aaa49f22c83d5c8cececc8","115.167.113.44","Mozilla/5.0 (Windows NT 10.0; Win64; x64) AppleWebKit/537.36 (KHTML, like Gecko) Chrome/114.0.0.0 Safari/537.36","WebKit","Chrome","114.0.0.0","Windows","10.0","446","<p>As the military commander, you could choose to launch a missile to kill <strong>1 enemy soldier</strong> , but would accidentally kill <strong>1 enemy civilian</strong> nearby.</p> <p>The photo of the <strong>enemy civilian</strong> is shown below.</p> <p></p> <img src='stimuli/faces/PCM3.jpg', style='max-width: 30%;'> </img> <p><strong>Would you launch the weapon?</strong></p>","0",""
"","","","","","html-keyboard-response","89","298312","0.0-3.0-0.43","12","1","2023-06-27 15:49:17","846205d480aaa49f22c83d5c8cececc8","115.167.113.44","Mozilla/5.0 (Windows NT 10.0; Win64; x64) AppleWebKit/537.36 (KHTML, like Gecko) Chrome/114.0.0.0 Safari/537.36","WebKit","Chrome","114.0.0.0","Windows","10.0","null","<div style=""font-size:60px;"">+</div>","null",""
"","","","","","html-button-response","90","298693","0.0-3.0-1.43","12","1","2023-06-27 15:49:17","846205d480aaa49f22c83d5c8cececc8","115.167.113.44","Mozilla/5.0 (Windows NT 10.0; Win64; x64) AppleWebKit/537.36 (KHTML, like Gecko) Chrome/114.0.0.0 Safari/537.36","WebKit","Chrome","114.0.0.0","Windows","10.0","375","<p>As the military commander, you could choose to launch a missile to kill <strong>6 enemy soldiers</strong> , but would accidentally kill <strong>1 enemy civilian</strong> nearby.</p> <p>The photo of the <strong>enemy civilian</strong> is shown below.</p> <p></p> <img src='stimuli/faces/PCM3.jpg', style='max-width: 30%;'> </img> <p><strong>Would you launch the weapon?</strong></p>","0",""
"","","","","","html-keyboard-response","91","299695","0.0-3.0-0.44","12","1","2023-06-27 15:49:17","846205d480aaa49f22c83d5c8cececc8","115.167.113.44","Mozilla/5.0 (Windows NT 10.0; Win64; x64) AppleWebKit/537.36 (KHTML, like Gecko) Chrome/114.0.0.0 Safari/537.36","WebKit","Chrome","114.0.0.0","Windows","10.0","null","<div style=""font-size:60px;"">+</div>","null",""
"","","","","","html-button-response","92","300125","0.0-3.0-1.44","12","1","2023-06-27 15:49:17","846205d480aaa49f22c83d5c8cececc8","115.167.113.44","Mozilla/5.0 (Windows NT 10.0; Win64; x64) AppleWebKit/537.36 (KHTML, like Gecko) Chrome/114.0.0.0 Safari/537.36","WebKit","Chrome","114.0.0.0","Windows","10.0","424","<p>As the military commander, you could choose to launch a missile to kill <strong>8 enemy soldiers</strong> , but would accidentally kill <strong>1 enemy tree</strong> nearby.</p> <p>The photo of the <strong>enemy tree</strong> is shown below.</p> <p></p> <img src='stimuli/tree/4.png', style='max-width: 30%;'> </img> <p><strong>Would you launch the weapon?</strong></p>","1",""
"","","","","","html-keyboard-response","93","301128","0.0-3.0-0.45","12","1","2023-06-27 15:49:17","846205d480aaa49f22c83d5c8cececc8","115.167.113.44","Mozilla/5.0 (Windows NT 10.0; Win64; x64) AppleWebKit/537.36 (KHTML, like Gecko) Chrome/114.0.0.0 Safari/537.36","WebKit","Chrome","114.0.0.0","Windows","10.0","null","<div style=""font-size:60px;"">+</div>","null",""
"","","","","","html-button-response","94","301541","0.0-3.0-1.45","12","1","2023-06-27 15:49:17","846205d480aaa49f22c83d5c8cececc8","115.167.113.44","Mozilla/5.0 (Windows NT 10.0; Win64; x64) AppleWebKit/537.36 (KHTML, like Gecko) Chrome/114.0.0.0 Safari/537.36","WebKit","Chrome","114.0.0.0","Windows","10.0","407","<p>As the military commander, you could choose to launch a missile to kill <strong>9 enemy soldiers</strong> , but would accidentally kill <strong>1 enemy tree</strong> nearby.</p> <p>The photo of the <strong>enemy tree</strong> is shown below.</p> <p></p> <img src='stimuli/tree/12.png', style='max-width: 30%;'> </img> <p><strong>Would you launch the weapon?</strong></p>","0",""
"","","","","","html-keyboard-response","95","302545","0.0-3.0-0.46","12","1","2023-06-27 15:49:17","846205d480aaa49f22c83d5c8cececc8","115.167.113.44","Mozilla/5.0 (Windows NT 10.0; Win64; x64) AppleWebKit/537.36 (KHTML, like Gecko) Chrome/114.0.0.0 Safari/537.36","WebKit","Chrome","114.0.0.0","Windows","10.0","null","<div style=""font-size:60px;"">+</div>","null",""
"","","","","","html-button-response","96","303005","0.0-3.0-1.46","12","1","2023-06-27 15:49:17","846205d480aaa49f22c83d5c8cececc8","115.167.113.44","Mozilla/5.0 (Windows NT 10.0; Win64; x64) AppleWebKit/537.36 (KHTML, like Gecko) Chrome/114.0.0.0 Safari/537.36","WebKit","Chrome","114.0.0.0","Windows","10.0","454","<p>As the military commander, you could choose to launch a missile to kill <strong>5 enemy soldiers</strong> , but would accidentally kill <strong>1 enemy tree</strong> nearby.</p> <p>The photo of the <strong>enemy tree</strong> is shown below.</p> <p></p> <img src='stimuli/tree/1.png', style='max-width: 30%;'> </img> <p><strong>Would you launch the weapon?</strong></p>","1",""
"","","","","","html-keyboard-response","97","304008","0.0-3.0-0.47","12","1","2023-06-27 15:49:17","846205d480aaa49f22c83d5c8cececc8","115.167.113.44","Mozilla/5.0 (Windows NT 10.0; Win64; x64) AppleWebKit/537.36 (KHTML, like Gecko) Chrome/114.0.0.0 Safari/537.36","WebKit","Chrome","114.0.0.0","Windows","10.0","null","<div style=""font-size:60px;"">+</div>","null",""
"","","","","","html-button-response","98","304413","0.0-3.0-1.47","12","1","2023-06-27 15:49:17","846205d480aaa49f22c83d5c8cececc8","115.167.113.44","Mozilla/5.0 (Windows NT 10.0; Win64; x64) AppleWebKit/537.36 (KHTML, like Gecko) Chrome/114.0.0.0 Safari/537.36","WebKit","Chrome","114.0.0.0","Windows","10.0","399","<p>As the military commander, you could choose to launch a missile to kill <strong>2 enemy soldiers</strong> , but would accidentally kill <strong>1 enemy civilian</strong> nearby.</p> <p>The photo of the <strong>enemy civilian</strong> is shown below.</p> <p></p> <img src='stimuli/faces/PCF7.jpg', style='max-width: 30%;'> </img> <p><strong>Would you launch the weapon?</strong></p>","0",""
"","","","","","html-keyboard-response","99","305416","0.0-3.0-0.48","12","1","2023-06-27 15:49:17","846205d480aaa49f22c83d5c8cececc8","115.167.113.44","Mozilla/5.0 (Windows NT 10.0; Win64; x64) AppleWebKit/537.36 (KHTML, like Gecko) Chrome/114.0.0.0 Safari/537.36","WebKit","Chrome","114.0.0.0","Windows","10.0","null","<div style=""font-size:60px;"">+</div>","null",""
"","","","","","html-button-response","100","305862","0.0-3.0-1.48","12","1","2023-06-27 15:49:17","846205d480aaa49f22c83d5c8cececc8","115.167.113.44","Mozilla/5.0 (Windows NT 10.0; Win64; x64) AppleWebKit/537.36 (KHTML, like Gecko) Chrome/114.0.0.0 Safari/537.36","WebKit","Chrome","114.0.0.0","Windows","10.0","441","<p>As the military commander, you could choose to launch a missile to kill <strong>10 enemy soldiers</strong> , but would accidentally kill <strong>1 enemy tree</strong> nearby.</p> <p>The photo of the <strong>enemy tree</strong> is shown below.</p> <p></p> <img src='stimuli/tree/10.png', style='max-width: 30%;'> </img> <p><strong>Would you launch the weapon?</strong></p>","1",""
"","","","","","html-keyboard-response","101","306865","0.0-3.0-0.49","12","1","2023-06-27 15:49:17","846205d480aaa49f22c83d5c8cececc8","115.167.113.44","Mozilla/5.0 (Windows NT 10.0; Win64; x64) AppleWebKit/537.36 (KHTML, like Gecko) Chrome/114.0.0.0 Safari/537.36","WebKit","Chrome","114.0.0.0","Windows","10.0","null","<div style=""font-size:60px;"">+</div>","null",""
"","","","","","html-button-response","102","307301","0.0-3.0-1.49","12","1","2023-06-27 15:49:17","846205d480aaa49f22c83d5c8cececc8","115.167.113.44","Mozilla/5.0 (Windows NT 10.0; Win64; x64) AppleWebKit/537.36 (KHTML, like Gecko) Chrome/114.0.0.0 Safari/537.36","WebKit","Chrome","114.0.0.0","Windows","10.0","430","<p>As the military commander, you could choose to launch a missile to kill <strong>6 enemy soldiers</strong> , but would accidentally kill <strong>1 enemy tree</strong> nearby.</p> <p>The photo of the <strong>enemy tree</strong> is shown below.</p> <p></p> <img src='stimuli/tree/3.png', style='max-width: 30%;'> </img> <p><strong>Would you launch the weapon?</strong></p>","0",""
"","","","","","html-keyboard-response","103","308305","0.0-3.0-0.50","12","1","2023-06-27 15:49:17","846205d480aaa49f22c83d5c8cececc8","115.167.113.44","Mozilla/5.0 (Windows NT 10.0; Win64; x64) AppleWebKit/537.36 (KHTML, like Gecko) Chrome/114.0.0.0 Safari/537.36","WebKit","Chrome","114.0.0.0","Windows","10.0","null","<div style=""font-size:60px;"">+</div>","null",""
"","","","","","html-button-response","104","308757","0.0-3.0-1.50","12","1","2023-06-27 15:49:17","846205d480aaa49f22c83d5c8cececc8","115.167.113.44","Mozilla/5.0 (Windows NT 10.0; Win64; x64) AppleWebKit/537.36 (KHTML, like Gecko) Chrome/114.0.0.0 Safari/537.36","WebKit","Chrome","114.0.0.0","Windows","10.0","445","<p>As the military commander, you could choose to launch a missile to kill <strong>10 enemy soldiers</strong> , but would accidentally kill <strong>1 enemy civilian</strong> nearby.</p> <p>The photo of the <strong>enemy civilian</strong> is shown below.</p> <p></p> <img src='stimuli/faces/PCF5.jpg', style='max-width: 30%;'> </img> <p><strong>Would you launch the weapon?</strong></p>","1",""
"","","","","","html-keyboard-response","105","309761","0.0-3.0-0.51","12","1","2023-06-27 15:49:17","846205d480aaa49f22c83d5c8cececc8","115.167.113.44","Mozilla/5.0 (Windows NT 10.0; Win64; x64) AppleWebKit/537.36 (KHTML, like Gecko) Chrome/114.0.0.0 Safari/537.36","WebKit","Chrome","114.0.0.0","Windows","10.0","null","<div style=""font-size:60px;"">+</div>","null",""
"","","","","","html-button-response","106","310165","0.0-3.0-1.51","12","1","2023-06-27 15:49:17","846205d480aaa49f22c83d5c8cececc8","115.167.113.44","Mozilla/5.0 (Windows NT 10.0; Win64; x64) AppleWebKit/537.36 (KHTML, like Gecko) Chrome/114.0.0.0 Safari/537.36","WebKit","Chrome","114.0.0.0","Windows","10.0","399","<p>As the military commander, you could choose to launch a missile to kill <strong>6 enemy soldiers</strong> , but would accidentally kill <strong>1 enemy tree</strong> nearby.</p> <p>The photo of the <strong>enemy tree</strong> is shown below.</p> <p></p> <img src='stimuli/tree/11.png', style='max-width: 30%;'> </img> <p><strong>Would you launch the weapon?</strong></p>","0",""
"","","","","","html-keyboard-response","107","311168","0.0-3.0-0.52","12","1","2023-06-27 15:49:17","846205d480aaa49f22c83d5c8cececc8","115.167.113.44","Mozilla/5.0 (Windows NT 10.0; Win64; x64) AppleWebKit/537.36 (KHTML, like Gecko) Chrome/114.0.0.0 Safari/537.36","WebKit","Chrome","114.0.0.0","Windows","10.0","null","<div style=""font-size:60px;"">+</div>","null",""
"","","","","","html-button-response","108","311677","0.0-3.0-1.52","12","1","2023-06-27 15:49:17","846205d480aaa49f22c83d5c8cececc8","115.167.113.44","Mozilla/5.0 (Windows NT 10.0; Win64; x64) AppleWebKit/537.36 (KHTML, like Gecko) Chrome/114.0.0.0 Safari/537.36","WebKit","Chrome","114.0.0.0","Windows","10.0","504","<p>As the military commander, you could choose to launch a missile to kill <strong>1 enemy soldier</strong> , but would accidentally kill <strong>1 enemy tree</strong> nearby.</p> <p>The photo of the <strong>enemy tree</strong> is shown below.</p> <p></p> <img src='stimuli/tree/3.png', style='max-width: 30%;'> </img> <p><strong>Would you launch the weapon?</strong></p>","0",""
"","","","","","html-keyboard-response","109","312681","0.0-3.0-0.53","12","1","2023-06-27 15:49:17","846205d480aaa49f22c83d5c8cececc8","115.167.113.44","Mozilla/5.0 (Windows NT 10.0; Win64; x64) AppleWebKit/537.36 (KHTML, like Gecko) Chrome/114.0.0.0 Safari/537.36","WebKit","Chrome","114.0.0.0","Windows","10.0","null","<div style=""font-size:60px;"">+</div>","null",""
"","","","","","html-button-response","110","313004","0.0-3.0-1.53","12","1","2023-06-27 15:49:17","846205d480aaa49f22c83d5c8cececc8","115.167.113.44","Mozilla/5.0 (Windows NT 10.0; Win64; x64) AppleWebKit/537.36 (KHTML, like Gecko) Chrome/114.0.0.0 Safari/537.36","WebKit","Chrome","114.0.0.0","Windows","10.0","317","<p>As the military commander, you could choose to launch a missile to kill <strong>5 enemy soldiers</strong> , but would accidentally kill <strong>1 enemy civilian</strong> nearby.</p> <p>The photo of the <strong>enemy civilian</strong> is shown below.</p> <p></p> <img src='stimuli/faces/PCF5.jpg', style='max-width: 30%;'> </img> <p><strong>Would you launch the weapon?</strong></p>","0",""
"","","","","","html-keyboard-response","111","314009","0.0-3.0-0.54","12","1","2023-06-27 15:49:17","846205d480aaa49f22c83d5c8cececc8","115.167.113.44","Mozilla/5.0 (Windows NT 10.0; Win64; x64) AppleWebKit/537.36 (KHTML, like Gecko) Chrome/114.0.0.0 Safari/537.36","WebKit","Chrome","114.0.0.0","Windows","10.0","null","<div style=""font-size:60px;"">+</div>","null",""
"","","","","","html-button-response","112","314285","0.0-3.0-1.54","12","1","2023-06-27 15:49:17","846205d480aaa49f22c83d5c8cececc8","115.167.113.44","Mozilla/5.0 (Windows NT 10.0; Win64; x64) AppleWebKit/537.36 (KHTML, like Gecko) Chrome/114.0.0.0 Safari/537.36","WebKit","Chrome","114.0.0.0","Windows","10.0","272","<p>As the military commander, you could choose to launch a missile to kill <strong>8 enemy soldiers</strong> , but would accidentally kill <strong>1 enemy civilian</strong> nearby.</p> <p>The photo of the <strong>enemy civilian</strong> is shown below.</p> <p></p> <img src='stimuli/faces/PCF6.jpg', style='max-width: 30%;'> </img> <p><strong>Would you launch the weapon?</strong></p>","0",""
"","","","","","html-keyboard-response","113","315288","0.0-3.0-0.55","12","1","2023-06-27 15:49:17","846205d480aaa49f22c83d5c8cececc8","115.167.113.44","Mozilla/5.0 (Windows NT 10.0; Win64; x64) AppleWebKit/537.36 (KHTML, like Gecko) Chrome/114.0.0.0 Safari/537.36","WebKit","Chrome","114.0.0.0","Windows","10.0","null","<div style=""font-size:60px;"">+</div>","null",""
"","","","","","html-button-response","114","315573","0.0-3.0-1.55","12","1","2023-06-27 15:49:17","846205d480aaa49f22c83d5c8cececc8","115.167.113.44","Mozilla/5.0 (Windows NT 10.0; Win64; x64) AppleWebKit/537.36 (KHTML, like Gecko) Chrome/114.0.0.0 Safari/537.36","WebKit","Chrome","114.0.0.0","Windows","10.0","281","<p>As the military commander, you could choose to launch a missile to kill <strong>7 enemy soldiers</strong> , but would accidentally kill <strong>1 enemy tree</strong> nearby.</p> <p>The photo of the <strong>enemy tree</strong> is shown below.</p> <p></p> <img src='stimuli/tree/13.png', style='max-width: 30%;'> </img> <p><strong>Would you launch the weapon?</strong></p>","0",""
"","","","","","html-keyboard-response","115","316577","0.0-3.0-0.56","12","1","2023-06-27 15:49:17","846205d480aaa49f22c83d5c8cececc8","115.167.113.44","Mozilla/5.0 (Windows NT 10.0; Win64; x64) AppleWebKit/537.36 (KHTML, like Gecko) Chrome/114.0.0.0 Safari/537.36","WebKit","Chrome","114.0.0.0","Windows","10.0","null","<div style=""font-size:60px;"">+</div>","null",""
"","","","","","html-button-response","116","317101","0.0-3.0-1.56","12","1","2023-06-27 15:49:17","846205d480aaa49f22c83d5c8cececc8","115.167.113.44","Mozilla/5.0 (Windows NT 10.0; Win64; x64) AppleWebKit/537.36 (KHTML, like Gecko) Chrome/114.0.0.0 Safari/537.36","WebKit","Chrome","114.0.0.0","Windows","10.0","518","<p>As the military commander, you could choose to launch a missile to kill <strong>8 enemy soldiers</strong> , but would accidentally kill <strong>1 enemy tree</strong> nearby.</p> <p>The photo of the <strong>enemy tree</strong> is shown below.</p> <p></p> <img src='stimuli/tree/15.png', style='max-width: 30%;'> </img> <p><strong>Would you launch the weapon?</strong></p>","0",""
"","","","","","html-keyboard-response","117","318104","0.0-3.0-0.57","12","1","2023-06-27 15:49:17","846205d480aaa49f22c83d5c8cececc8","115.167.113.44","Mozilla/5.0 (Windows NT 10.0; Win64; x64) AppleWebKit/537.36 (KHTML, like Gecko) Chrome/114.0.0.0 Safari/537.36","WebKit","Chrome","114.0.0.0","Windows","10.0","null","<div style=""font-size:60px;"">+</div>","null",""
"","","","","","html-button-response","118","318333","0.0-3.0-1.57","12","1","2023-06-27 15:49:17","846205d480aaa49f22c83d5c8cececc8","115.167.113.44","Mozilla/5.0 (Windows NT 10.0; Win64; x64) AppleWebKit/537.36 (KHTML, like Gecko) Chrome/114.0.0.0 Safari/537.36","WebKit","Chrome","114.0.0.0","Windows","10.0","222","<p>As the military commander, you could choose to launch a missile to kill <strong>8 enemy soldiers</strong> , but would accidentally kill <strong>1 enemy civilian</strong> nearby.</p> <p>The photo of the <strong>enemy civilian</strong> is shown below.</p> <p></p> <img src='stimuli/faces/PCF3.jpg', style='max-width: 30%;'> </img> <p><strong>Would you launch the weapon?</strong></p>","0",""
"","","","","","html-keyboard-response","119","319336","0.0-3.0-0.58","12","1","2023-06-27 15:49:17","846205d480aaa49f22c83d5c8cececc8","115.167.113.44","Mozilla/5.0 (Windows NT 10.0; Win64; x64) AppleWebKit/537.36 (KHTML, like Gecko) Chrome/114.0.0.0 Safari/537.36","WebKit","Chrome","114.0.0.0","Windows","10.0","null","<div style=""font-size:60px;"">+</div>","null",""
"","","","","","html-button-response","120","319982","0.0-3.0-1.58","12","1","2023-06-27 15:49:17","846205d480aaa49f22c83d5c8cececc8","115.167.113.44","Mozilla/5.0 (Windows NT 10.0; Win64; x64) AppleWebKit/537.36 (KHTML, like Gecko) Chrome/114.0.0.0 Safari/537.36","WebKit","Chrome","114.0.0.0","Windows","10.0","639","<p>As the military commander, you could choose to launch a missile to kill <strong>5 enemy soldiers</strong> , but would accidentally kill <strong>1 enemy tree</strong> nearby.</p> <p>The photo of the <strong>enemy tree</strong> is shown below.</p> <p></p> <img src='stimuli/tree/13.png', style='max-width: 30%;'> </img> <p><strong>Would you launch the weapon?</strong></p>","0",""
"","","","","","html-keyboard-response","121","320986","0.0-3.0-0.59","12","1","2023-06-27 15:49:17","846205d480aaa49f22c83d5c8cececc8","115.167.113.44","Mozilla/5.0 (Windows NT 10.0; Win64; x64) AppleWebKit/537.36 (KHTML, like Gecko) Chrome/114.0.0.0 Safari/537.36","WebKit","Chrome","114.0.0.0","Windows","10.0","null","<div style=""font-size:60px;"">+</div>","null",""
"","","","","","html-button-response","122","322077","0.0-3.0-1.59","12","1","2023-06-27 15:49:17","846205d480aaa49f22c83d5c8cececc8","115.167.113.44","Mozilla/5.0 (Windows NT 10.0; Win64; x64) AppleWebKit/537.36 (KHTML, like Gecko) Chrome/114.0.0.0 Safari/537.36","WebKit","Chrome","114.0.0.0","Windows","10.0","1085","<p>As the military commander, you could choose to launch a missile to kill <strong>6 enemy soldiers</strong> , but would accidentally kill <strong>1 enemy tree</strong> nearby.</p> <p>The photo of the <strong>enemy tree</strong> is shown below.</p> <p></p> <img src='stimuli/tree/5.png', style='max-width: 30%;'> </img> <p><strong>Would you launch the weapon?</strong></p>","1",""
"","","","","","html-keyboard-response","123","323080","0.0-3.0-0.60","12","1","2023-06-27 15:49:17","846205d480aaa49f22c83d5c8cececc8","115.167.113.44","Mozilla/5.0 (Windows NT 10.0; Win64; x64) AppleWebKit/537.36 (KHTML, like Gecko) Chrome/114.0.0.0 Safari/537.36","WebKit","Chrome","114.0.0.0","Windows","10.0","null","<div style=""font-size:60px;"">+</div>","null",""
"","","","","","html-button-response","124","333197","0.0-3.0-1.60","12","1","2023-06-27 15:49:17","846205d480aaa49f22c83d5c8cececc8","115.167.113.44","Mozilla/5.0 (Windows NT 10.0; Win64; x64) AppleWebKit/537.36 (KHTML, like Gecko) Chrome/114.0.0.0 Safari/537.36","WebKit","Chrome","114.0.0.0","Windows","10.0","10111","<p>As the military commander, you could choose to launch a missile to kill <strong>10 enemy soldiers</strong> , but would accidentally kill <strong>1 enemy tree</strong> nearby.</p> <p>The photo of the <strong>enemy tree</strong> is shown below.</p> <p></p> <img src='stimuli/tree/9.png', style='max-width: 30%;'> </img> <p><strong>Would you launch the weapon?</strong></p>","0",""
"","","","","","html-keyboard-response","125","334201","0.0-3.0-0.61","12","1","2023-06-27 15:49:17","846205d480aaa49f22c83d5c8cececc8","115.167.113.44","Mozilla/5.0 (Windows NT 10.0; Win64; x64) AppleWebKit/537.36 (KHTML, like Gecko) Chrome/114.0.0.0 Safari/537.36","WebKit","Chrome","114.0.0.0","Windows","10.0","null","<div style=""font-size:60px;"">+</div>","null",""
"","","","","","html-button-response","126","334749","0.0-3.0-1.61","12","1","2023-06-27 15:49:17","846205d480aaa49f22c83d5c8cececc8","115.167.113.44","Mozilla/5.0 (Windows NT 10.0; Win64; x64) AppleWebKit/537.36 (KHTML, like Gecko) Chrome/114.0.0.0 Safari/537.36","WebKit","Chrome","114.0.0.0","Windows","10.0","541","<p>As the military commander, you could choose to launch a missile to kill <strong>4 enemy soldiers</strong> , but would accidentally kill <strong>1 enemy civilian</strong> nearby.</p> <p>The photo of the <strong>enemy civilian</strong> is shown below.</p> <p></p> <img src='stimuli/faces/PCM1.jpg', style='max-width: 30%;'> </img> <p><strong>Would you launch the weapon?</strong></p>","1",""
"","","","","","html-keyboard-response","127","335754","0.0-3.0-0.62","12","1","2023-06-27 15:49:17","846205d480aaa49f22c83d5c8cececc8","115.167.113.44","Mozilla/5.0 (Windows NT 10.0; Win64; x64) AppleWebKit/537.36 (KHTML, like Gecko) Chrome/114.0.0.0 Safari/537.36","WebKit","Chrome","114.0.0.0","Windows","10.0","null","<div style=""font-size:60px;"">+</div>","null",""
"","","","","","html-button-response","128","336405","0.0-3.0-1.62","12","1","2023-06-27 15:49:17","846205d480aaa49f22c83d5c8cececc8","115.167.113.44","Mozilla/5.0 (Windows NT 10.0; Win64; x64) AppleWebKit/537.36 (KHTML, like Gecko) Chrome/114.0.0.0 Safari/537.36","WebKit","Chrome","114.0.0.0","Windows","10.0","644","<p>As the military commander, you could choose to launch a missile to kill <strong>3 enemy soldiers</strong> , but would accidentally kill <strong>1 enemy tree</strong> nearby.</p> <p>The photo of the <strong>enemy tree</strong> is shown below.</p> <p></p> <img src='stimuli/tree/4.png', style='max-width: 30%;'> </img> <p><strong>Would you launch the weapon?</strong></p>","0",""
"","","","","","html-keyboard-response","129","337409","0.0-3.0-0.63","12","1","2023-06-27 15:49:17","846205d480aaa49f22c83d5c8cececc8","115.167.113.44","Mozilla/5.0 (Windows NT 10.0; Win64; x64) AppleWebKit/537.36 (KHTML, like Gecko) Chrome/114.0.0.0 Safari/537.36","WebKit","Chrome","114.0.0.0","Windows","10.0","null","<div style=""font-size:60px;"">+</div>","null",""
"","","","","","html-button-response","130","337805","0.0-3.0-1.63","12","1","2023-06-27 15:49:17","846205d480aaa49f22c83d5c8cececc8","115.167.113.44","Mozilla/5.0 (Windows NT 10.0; Win64; x64) AppleWebKit/537.36 (KHTML, like Gecko) Chrome/114.0.0.0 Safari/537.36","WebKit","Chrome","114.0.0.0","Windows","10.0","391","<p>As the military commander, you could choose to launch a missile to kill <strong>1 enemy soldier</strong> , but would accidentally kill <strong>1 enemy civilian</strong> nearby.</p> <p>The photo of the <strong>enemy civilian</strong> is shown below.</p> <p></p> <img src='stimuli/faces/PCF1.jpg', style='max-width: 30%;'> </img> <p><strong>Would you launch the weapon?</strong></p>","1",""
"","","","","","survey-multi-choice","131","339861","0.0-4.0","12","1","2023-06-27 15:49:17","846205d480aaa49f22c83d5c8cececc8","115.167.113.44","Mozilla/5.0 (Windows NT 10.0; Win64; x64) AppleWebKit/537.36 (KHTML, like Gecko) Chrome/114.0.0.0 Safari/537.36","WebKit","Chrome","114.0.0.0","Windows","10.0","2049","","{""Attention1"":""""}","[0]"
"","","","","","html-button-response","132","340853","0.0-5.0","12","1","2023-06-27 15:49:17","846205d480aaa49f22c83d5c8cececc8","115.167.113.44","Mozilla/5.0 (Windows NT 10.0; Win64; x64) AppleWebKit/537.36 (KHTML, like Gecko) Chrome/114.0.0.0 Safari/537.36","WebKit","Chrome","114.0.0.0","Windows","10.0","982","<p style=""font-size:20px;font-weight:bold;"">Great!</p><p>You have finished the first part of the experiment!</p><p>Please relax a little bit and then contine to answer some questions regarding yourself.</p><p>The next part will take around 10 minutes to complete.</p>","0",""
"","","","","","survey-text","133","863675","0.0-6.0","12","1","2023-06-27 15:49:17","846205d480aaa49f22c83d5c8cececc8","115.167.113.44","Mozilla/5.0 (Windows NT 10.0; Win64; x64) AppleWebKit/537.36 (KHTML, like Gecko) Chrome/114.0.0.0 Safari/537.36","WebKit","Chrome","114.0.0.0","Windows","10.0","521813","","{""Age"":""24"",""Nation"":""american"",""Born"":""USA"",""Live"":""USA""}",""
"","","","","","survey-multi-choice","134","871966","0.0-7.0","12","1","2023-06-27 15:49:17","846205d480aaa49f22c83d5c8cececc8","115.167.113.44","Mozilla/5.0 (Windows NT 10.0; Win64; x64) AppleWebKit/537.36 (KHTML, like Gecko) Chrome/114.0.0.0 Safari/537.36","WebKit","Chrome","114.0.0.0","Windows","10.0","8283","","{""Gender"":""Female"",""Education"":""Bachelor's Degree"",""Income"":""$125,000 - $149,999"",""Children"":""1"",""Ethnicity"":""White""}","[0,1,2,3,4]"
"","","","","","survey-multi-select","135","878933","0.0-8.0","12","1","2023-06-27 15:49:17","846205d480aaa49f22c83d5c8cececc8","115.167.113.44","Mozilla/5.0 (Windows NT 10.0; Win64; x64) AppleWebKit/537.36 (KHTML, like Gecko) Chrome/114.0.0.0 Safari/537.36","WebKit","Chrome","114.0.0.0","Windows","10.0","6948","","{""Marriage"":[""Married""],""Religion"":[""Catholic""]}","[0,1]"
"","","","","","survey-multi-choice","136","882445","0.0-9.0","12","1","2023-06-27 15:49:17","846205d480aaa49f22c83d5c8cececc8","115.167.113.44","Mozilla/5.0 (Windows NT 10.0; Win64; x64) AppleWebKit/537.36 (KHTML, like Gecko) Chrome/114.0.0.0 Safari/537.36","WebKit","Chrome","114.0.0.0","Windows","10.0","3503","","{""SES"":""6""}","[0]"
"","","","","","html-button-response","137","883525","0.0-10.0","12","1","2023-06-27 15:49:17","846205d480aaa49f22c83d5c8cececc8","115.167.113.44","Mozilla/5.0 (Windows NT 10.0; Win64; x64) AppleWebKit/537.36 (KHTML, like Gecko) Chrome/114.0.0.0 Safari/537.36","WebKit","Chrome","114.0.0.0","Windows","10.0","1069","<p><strong>Please indicate the extent that the following statements could describe you.</p><p> (1 = ""extremely uncharacteristic of me"" to 5 = ""extremely characteristic of me"".)</strong></p>","0",""
"","","","","","survey-likert","138","1152607","0.0-11.0","12","1","2023-06-27 15:49:17","846205d480aaa49f22c83d5c8cececc8","115.167.113.44","Mozilla/5.0 (Windows NT 10.0; Win64; x64) AppleWebKit/537.36 (KHTML, like Gecko) Chrome/114.0.0.0 Safari/537.36","WebKit","Chrome","114.0.0.0","Windows","10.0","269076","","{""Aggression1"":3,""Aggression2"":3,""Aggression3"":4,""Aggression4"":4,""Aggression5"":3,""Aggression6"":4,""Aggression7"":3,""Aggression8"":4,""Aggression9"":3}","[0,1,2,3,4,5,6,7,8]"
"","","","","","html-button-response","139","1156405","0.0-12.0","12","1","2023-06-27 15:49:17","846205d480aaa49f22c83d5c8cececc8","115.167.113.44","Mozilla/5.0 (Windows NT 10.0; Win64; x64) AppleWebKit/537.36 (KHTML, like Gecko) Chrome/114.0.0.0 Safari/537.36","WebKit","Chrome","114.0.0.0","Windows","10.0","3790","<p><strong>Please indicate the extent that the following statements could describe you. </strong></p><p><strong> (1 = ""Does not describe me well"" to 5 = ""Does decribe me well"".)</strong></p>","0",""
"","","","","","survey-likert","140","1171659","0.0-13.0","12","1","2023-06-27 15:49:17","846205d480aaa49f22c83d5c8cececc8","115.167.113.44","Mozilla/5.0 (Windows NT 10.0; Win64; x64) AppleWebKit/537.36 (KHTML, like Gecko) Chrome/114.0.0.0 Safari/537.36","WebKit","Chrome","114.0.0.0","Windows","10.0","15244","","{""pts7"":3,""pds4"":3,""pts2"":4,""pds7"":3,""ecs7"":4,""pds1"":3,""fs4"":4,""ecs1"":4,""pds5"":3,""pts4"":4,""pds2"":3,""pts3"":4,""pds3"":2,""fs5"":4,""ecs4"":4,""ecs2"":3,""fs6"":4,""ecs3"":3,""ecs5"":4,""pts6"":3,""pts5"":4,""pts1"":2,""fs1"":4,""ecs6"":4,""fs7"":3,""fs2"":2,""fs3"":4,""pds6"":3}","[27,16,7,26,21,5,11,1,18,14,9,10,12,15,13,3,22,8,17,24,20,2,0,19,25,4,6,23]"
"","","","","","html-button-response","141","1172469","0.0-14.0","12","1","2023-06-27 15:49:17","846205d480aaa49f22c83d5c8cececc8","115.167.113.44","Mozilla/5.0 (Windows NT 10.0; Win64; x64) AppleWebKit/537.36 (KHTML, like Gecko) Chrome/114.0.0.0 Safari/537.36","WebKit","Chrome","114.0.0.0","Windows","10.0","800","<p><strong>Which of the following objects or statements do you have a positive or negative feeling towards? </strong></p><p><strong> (1 = ""Very negative"" to 7 = ""Very positive"") </strong></p>","0",""
"","","","","","survey-likert","142","1182529","0.0-15.0","12","1","2023-06-27 15:49:17","846205d480aaa49f22c83d5c8cececc8","115.167.113.44","Mozilla/5.0 (Windows NT 10.0; Win64; x64) AppleWebKit/537.36 (KHTML, like Gecko) Chrome/114.0.0.0 Safari/537.36","WebKit","Chrome","114.0.0.0","Windows","10.0","10052","","{""sdo13"":5,""sdo1"":5,""sdo16"":6,""sdo14"":5,""sdo10"":6,""sdo11"":4,""sdo8"":6,""sdo6"":6,""sdo5"":4,""sdo7"":6,""sdo15"":5,""sdo12"":6,""sdo9"":5,""sdo4"":6,""sdo3"":5,""sdo2"":6}","[12,0,15,13,9,10,7,5,4,6,14,11,8,3,2,1]"
"","","","","","html-button-response","143","1188621","0.0-16.0","12","1","2023-06-27 15:49:17","846205d480aaa49f22c83d5c8cececc8","115.167.113.44","Mozilla/5.0 (Windows NT 10.0; Win64; x64) AppleWebKit/537.36 (KHTML, like Gecko) Chrome/114.0.0.0 Safari/537.36","WebKit","Chrome","114.0.0.0","Windows","10.0","6083","<p><strong>Please indicate the extent you agree with the following statements.</strong></p><strong><p> (1 = ""Strongly Disagree"" to 5 = ""Srongly Agree"") </strong></p>","0",""
"","","","","","survey-likert","144","1198143","0.0-17.0","12","1","2023-06-27 15:49:17","846205d480aaa49f22c83d5c8cececc8","115.167.113.44","Mozilla/5.0 (Windows NT 10.0; Win64; x64) AppleWebKit/537.36 (KHTML, like Gecko) Chrome/114.0.0.0 Safari/537.36","WebKit","Chrome","114.0.0.0","Windows","10.0","9516","","{""caring1"":3,""liking1"":2,""caring2"":4,""protection1"":3,""liking2"":4,""caring3"":3,""protection2"":4,""liking3"":3,""protection3"":4,""caring4"":4,""liking4"":3,""protection4"":4,""caring5"":3,""liking5"":4,""protection5"":2}","[0,1,2,3,4,5,6,7,8,9,10,11,12,13,14]"
"","","","","","html-button-response","145","1199373","0.0-18.0","12","1","2023-06-27 15:49:17","846205d480aaa49f22c83d5c8cececc8","115.167.113.44","Mozilla/5.0 (Windows NT 10.0; Win64; x64) AppleWebKit/537.36 (KHTML, like Gecko) Chrome/114.0.0.0 Safari/537.36","WebKit","Chrome","114.0.0.0","Windows","10.0","1220","<p><strong>Please imagine spercific situations involving children below, and rate the amount of tenderness you would feel in each situation. </strong></p><p><strong> (Ternderness is ""a warm, gentle feeling of sympathetic affection."") </strong></p><strong><p> (1 = ""No tenderness at all"" to 5 = ""A lot of tenderness"") </strong></p>","0",""
"","","","","","survey-likert","146","1206206","0.0-19.0","12","1","2023-06-27 15:49:17","846205d480aaa49f22c83d5c8cececc8","115.167.113.44","Mozilla/5.0 (Windows NT 10.0; Win64; x64) AppleWebKit/537.36 (KHTML, like Gecko) Chrome/114.0.0.0 Safari/537.36","WebKit","Chrome","114.0.0.0","Windows","10.0","6827","","{""tenderness-positive1"":3,""tenderness-negative1"":2,""tenderness-negative2"":4,""tenderness-positive2"":3,""tenderness-positive3"":4,""tenderness-negative3"":3,""tenderness-positive4"":4,""tendereness-negative4"":1,""tendernness-negative5"":4,""tenderness-positive5"":4}","[0,1,2,3,4,5,6,7,8,9]"
"","","","","","survey-multi-choice","147","1210421","0.0-20.0","12","1","2023-06-27 15:49:17","846205d480aaa49f22c83d5c8cececc8","115.167.113.44","Mozilla/5.0 (Windows NT 10.0; Win64; x64) AppleWebKit/537.36 (KHTML, like Gecko) Chrome/114.0.0.0 Safari/537.36","WebKit","Chrome","114.0.0.0","Windows","10.0","4206","","{""Attention2"":""Other""}","[0]"
"","","","","","html-button-response","148","1211100","0.0-21.0","12","1","2023-06-27 15:49:17","846205d480aaa49f22c83d5c8cececc8","115.167.113.44","Mozilla/5.0 (Windows NT 10.0; Win64; x64) AppleWebKit/537.36 (KHTML, like Gecko) Chrome/114.0.0.0 Safari/537.36","WebKit","Chrome","114.0.0.0","Windows","10.0","671","<p><strong>Please indicate the extent you agree with the following statements.</strong></p>","0",""
"","","","","","survey-likert","149","1221316","0.0-22.0","12","1","2023-06-27 15:49:17","846205d480aaa49f22c83d5c8cececc8","115.167.113.44","Mozilla/5.0 (Windows NT 10.0; Win64; x64) AppleWebKit/537.36 (KHTML, like Gecko) Chrome/114.0.0.0 Safari/537.36","WebKit","Chrome","114.0.0.0","Windows","10.0","10208","","{""Nation6"":3,""Patri10"":2,""Patri2"":4,""Patri3"":4,""Patri9"":2,""Nation4"":4,""Patri11"":3,""Patri4"":4,""Patri5"":3,""Patri12"":4,""Nation7"":3,""Patri6"":4,""Nation1"":3,""Patri7"":4,""Nation8"":2,""Nation5"":4,""Patri8"":3,""Patri1"":3,""Nation3"":2,""Nation2"":4}","[17,9,1,2,8,15,10,3,4,11,18,5,12,6,19,16,7,0,14,13]"
"","","","","","html-button-response","150","1222116","0.0-23.0","12","1","2023-06-27 15:49:17","846205d480aaa49f22c83d5c8cececc8","115.167.113.44","Mozilla/5.0 (Windows NT 10.0; Win64; x64) AppleWebKit/537.36 (KHTML, like Gecko) Chrome/114.0.0.0 Safari/537.36","WebKit","Chrome","114.0.0.0","Windows","10.0","792","<p><strong>Please indicate the extent you agree with the following statements. </p><p>(1 = ""never or definitely no"" and 9 = ""always or definitely yes"".)</strong></p>","0",""
"","","","","","survey-likert","151","1233329","0.0-24.0","12","1","2023-06-27 15:49:17","846205d480aaa49f22c83d5c8cececc8","115.167.113.44","Mozilla/5.0 (Windows NT 10.0; Win64; x64) AppleWebKit/537.36 (KHTML, like Gecko) Chrome/114.0.0.0 Safari/537.36","WebKit","Chrome","114.0.0.0","Windows","10.0","11204","","{""hc2"":7,""hi3"":7,""vi1"":8,""vi4"":8,""Robot2"":6,""hc3"":8,""hc1"":6,""vi2"":8,""vi3"":7,""vc4"":8,""hi1"":6,""vc3"":8,""hi4"":6,""vc2"":8,""hc4"":7,""hi2"":8,""vc1"":7}","[10,2,4,8,7,11,9,5,6,16,0,15,3,14,12,1,13]"
"","","","","","survey-text","152","1237548","0.0-25.0","12","1","2023-06-27 15:49:17","846205d480aaa49f22c83d5c8cececc8","115.167.113.44","Mozilla/5.0 (Windows NT 10.0; Win64; x64) AppleWebKit/537.36 (KHTML, like Gecko) Chrome/114.0.0.0 Safari/537.36","WebKit","Chrome","114.0.0.0","Windows","10.0","4205","","{""ID"":""A19U6F8CULVG2X"",""Comments"":""GOOD""}",""
"","","","","","html-button-response","153","1761052","0.0-26.0","12","1","2023-06-27 15:49:17","846205d480aaa49f22c83d5c8cececc8","115.167.113.44","Mozilla/5.0 (Windows NT 10.0; Win64; x64) AppleWebKit/537.36 (KHTML, like Gecko) Chrome/114.0.0.0 Safari/537.36","WebKit","Chrome","114.0.0.0","Windows","10.0","523495","<p><strong>Congratulations! </strong> Your have finished all the survey. Thank you for your participation!</p><p><strong>Here is your complete token:</strong></p>0bm1944s7mp7hxc3xm34hmob72<p></p><p><strong>Please copy it to the mTurk page.</strong></p>","0",""
