"success","timeout","failed_images","failed_audio","failed_video","trial_type","trial_index","time_elapsed","internal_node_id","run_id","condition","recorded_at","source_code_version","ip","user_agent","device","browser","browser_version","platform","platform_version","rt","stimulus","response","question_order"
"true","false","[]","[]","[]","preload","0","1528","0.0-0.0","13","1","2023-06-20 00:48:35","846205d480aaa49f22c83d5c8cececc8","139.171.225.136","Mozilla/5.0 (Windows NT 10.0; Win64; x64) AppleWebKit/537.36 (KHTML, like Gecko) Chrome/112.0.0.0 Safari/537.36","WebKit","Chrome","112.0.0.0","Windows","10.0","","","",""
"true","","","","","fullscreen","1","3876","0.0-1.0","13","1","2023-06-20 00:48:35","846205d480aaa49f22c83d5c8cececc8","139.171.225.136","Mozilla/5.0 (Windows NT 10.0; Win64; x64) AppleWebKit/537.36 (KHTML, like Gecko) Chrome/112.0.0.0 Safari/537.36","WebKit","Chrome","112.0.0.0","Windows","10.0","","","",""
"","","","","","html-button-response","2","5506","0.0-2.0","13","1","2023-06-20 00:48:35","846205d480aaa49f22c83d5c8cececc8","139.171.225.136","Mozilla/5.0 (Windows NT 10.0; Win64; x64) AppleWebKit/537.36 (KHTML, like Gecko) Chrome/112.0.0.0 Safari/537.36","WebKit","Chrome","112.0.0.0","Windows","10.0","1626","<p ><strong>Welcome to the experiment!</strong></p><p ><strong>In the first task, please imagine:</strong></p><p>Your country is involved in a military conflict with another country.</p><p>You are the commander of your army and must make decisions in the conflict.</p><p>Specifically, as the military commander, you must decide whether to launch a missile to strike enemy.</p><p>You will face a series of scenarios. Please read each scenario carefully and make a decision.</p><p>The task will take around 10 minutes to complete.</p><p><strong>Please pay your attention during the experiment.</strong></p>","0",""
"","","","","","html-keyboard-response","3","6508","0.0-3.0-0.0","13","1","2023-06-20 00:48:35","846205d480aaa49f22c83d5c8cececc8","139.171.225.136","Mozilla/5.0 (Windows NT 10.0; Win64; x64) AppleWebKit/537.36 (KHTML, like Gecko) Chrome/112.0.0.0 Safari/537.36","WebKit","Chrome","112.0.0.0","Windows","10.0","null","<div style=""font-size:60px;"">+</div>","null",""
"","","","","","html-button-response","4","8078","0.0-3.0-1.0","13","1","2023-06-20 00:48:35","846205d480aaa49f22c83d5c8cececc8","139.171.225.136","Mozilla/5.0 (Windows NT 10.0; Win64; x64) AppleWebKit/537.36 (KHTML, like Gecko) Chrome/112.0.0.0 Safari/537.36","WebKit","Chrome","112.0.0.0","Windows","10.0","1567","<p>As the military commander, you could choose to launch a missile to kill <strong>2 enemy soldiers</strong> , but would accidentally kill <strong>1 enemy tree</strong> nearby.</p> <p>The photo of the <strong>enemy tree</strong> is shown below.</p> <p></p> <img src='stimuli/tree/4.png', style='max-width: 30%;'> </img> <p><strong>Would you launch the weapon?</strong></p>","0",""
"","","","","","html-keyboard-response","5","9094","0.0-3.0-0.1","13","1","2023-06-20 00:48:35","846205d480aaa49f22c83d5c8cececc8","139.171.225.136","Mozilla/5.0 (Windows NT 10.0; Win64; x64) AppleWebKit/537.36 (KHTML, like Gecko) Chrome/112.0.0.0 Safari/537.36","WebKit","Chrome","112.0.0.0","Windows","10.0","null","<div style=""font-size:60px;"">+</div>","null",""
"","","","","","html-button-response","6","9354","0.0-3.0-1.1","13","1","2023-06-20 00:48:35","846205d480aaa49f22c83d5c8cececc8","139.171.225.136","Mozilla/5.0 (Windows NT 10.0; Win64; x64) AppleWebKit/537.36 (KHTML, like Gecko) Chrome/112.0.0.0 Safari/537.36","WebKit","Chrome","112.0.0.0","Windows","10.0","260","<p>As the military commander, you could choose to launch a missile to kill <strong>7 enemy soldiers</strong> , but would accidentally kill <strong>1 enemy civilian</strong> nearby.</p> <p>The photo of the <strong>enemy civilian</strong> is shown below.</p> <p></p> <img src='stimuli/faces/PCM1.jpg', style='max-width: 30%;'> </img> <p><strong>Would you launch the weapon?</strong></p>","0",""
"","","","","","html-keyboard-response","7","10358","0.0-3.0-0.2","13","1","2023-06-20 00:48:35","846205d480aaa49f22c83d5c8cececc8","139.171.225.136","Mozilla/5.0 (Windows NT 10.0; Win64; x64) AppleWebKit/537.36 (KHTML, like Gecko) Chrome/112.0.0.0 Safari/537.36","WebKit","Chrome","112.0.0.0","Windows","10.0","null","<div style=""font-size:60px;"">+</div>","null",""
"","","","","","html-button-response","8","10708","0.0-3.0-1.2","13","1","2023-06-20 00:48:35","846205d480aaa49f22c83d5c8cececc8","139.171.225.136","Mozilla/5.0 (Windows NT 10.0; Win64; x64) AppleWebKit/537.36 (KHTML, like Gecko) Chrome/112.0.0.0 Safari/537.36","WebKit","Chrome","112.0.0.0","Windows","10.0","348","<p>As the military commander, you could choose to launch a missile to kill <strong>7 enemy soldiers</strong> , but would accidentally kill <strong>1 enemy civilian</strong> nearby.</p> <p>The photo of the <strong>enemy civilian</strong> is shown below.</p> <p></p> <img src='stimuli/faces/PCF6.jpg', style='max-width: 30%;'> </img> <p><strong>Would you launch the weapon?</strong></p>","0",""
"","","","","","html-keyboard-response","9","11730","0.0-3.0-0.3","13","1","2023-06-20 00:48:35","846205d480aaa49f22c83d5c8cececc8","139.171.225.136","Mozilla/5.0 (Windows NT 10.0; Win64; x64) AppleWebKit/537.36 (KHTML, like Gecko) Chrome/112.0.0.0 Safari/537.36","WebKit","Chrome","112.0.0.0","Windows","10.0","null","<div style=""font-size:60px;"">+</div>","null",""
"","","","","","html-button-response","10","12055","0.0-3.0-1.3","13","1","2023-06-20 00:48:35","846205d480aaa49f22c83d5c8cececc8","139.171.225.136","Mozilla/5.0 (Windows NT 10.0; Win64; x64) AppleWebKit/537.36 (KHTML, like Gecko) Chrome/112.0.0.0 Safari/537.36","WebKit","Chrome","112.0.0.0","Windows","10.0","320","<p>As the military commander, you could choose to launch a missile to kill <strong>8 enemy soldiers</strong> , but would accidentally kill <strong>1 enemy civilian</strong> nearby.</p> <p>The photo of the <strong>enemy civilian</strong> is shown below.</p> <p></p> <img src='stimuli/faces/PCF8.jpg', style='max-width: 30%;'> </img> <p><strong>Would you launch the weapon?</strong></p>","0",""
"","","","","","html-keyboard-response","11","13066","0.0-3.0-0.4","13","1","2023-06-20 00:48:35","846205d480aaa49f22c83d5c8cececc8","139.171.225.136","Mozilla/5.0 (Windows NT 10.0; Win64; x64) AppleWebKit/537.36 (KHTML, like Gecko) Chrome/112.0.0.0 Safari/537.36","WebKit","Chrome","112.0.0.0","Windows","10.0","null","<div style=""font-size:60px;"">+</div>","null",""
"","","","","","html-button-response","12","13390","0.0-3.0-1.4","13","1","2023-06-20 00:48:35","846205d480aaa49f22c83d5c8cececc8","139.171.225.136","Mozilla/5.0 (Windows NT 10.0; Win64; x64) AppleWebKit/537.36 (KHTML, like Gecko) Chrome/112.0.0.0 Safari/537.36","WebKit","Chrome","112.0.0.0","Windows","10.0","322","<p>As the military commander, you could choose to launch a missile to kill <strong>2 enemy soldiers</strong> , but would accidentally kill <strong>1 enemy civilian</strong> nearby.</p> <p>The photo of the <strong>enemy civilian</strong> is shown below.</p> <p></p> <img src='stimuli/faces/PCM8.jpg', style='max-width: 30%;'> </img> <p><strong>Would you launch the weapon?</strong></p>","0",""
"","","","","","html-keyboard-response","13","14394","0.0-3.0-0.5","13","1","2023-06-20 00:48:35","846205d480aaa49f22c83d5c8cececc8","139.171.225.136","Mozilla/5.0 (Windows NT 10.0; Win64; x64) AppleWebKit/537.36 (KHTML, like Gecko) Chrome/112.0.0.0 Safari/537.36","WebKit","Chrome","112.0.0.0","Windows","10.0","null","<div style=""font-size:60px;"">+</div>","null",""
"","","","","","html-button-response","14","14675","0.0-3.0-1.5","13","1","2023-06-20 00:48:35","846205d480aaa49f22c83d5c8cececc8","139.171.225.136","Mozilla/5.0 (Windows NT 10.0; Win64; x64) AppleWebKit/537.36 (KHTML, like Gecko) Chrome/112.0.0.0 Safari/537.36","WebKit","Chrome","112.0.0.0","Windows","10.0","278","<p>As the military commander, you could choose to launch a missile to kill <strong>2 enemy soldiers</strong> , but would accidentally kill <strong>1 enemy tree</strong> nearby.</p> <p>The photo of the <strong>enemy tree</strong> is shown below.</p> <p></p> <img src='stimuli/tree/13.png', style='max-width: 30%;'> </img> <p><strong>Would you launch the weapon?</strong></p>","0",""
"","","","","","html-keyboard-response","15","15686","0.0-3.0-0.6","13","1","2023-06-20 00:48:35","846205d480aaa49f22c83d5c8cececc8","139.171.225.136","Mozilla/5.0 (Windows NT 10.0; Win64; x64) AppleWebKit/537.36 (KHTML, like Gecko) Chrome/112.0.0.0 Safari/537.36","WebKit","Chrome","112.0.0.0","Windows","10.0","null","<div style=""font-size:60px;"">+</div>","null",""
"","","","","","html-button-response","16","16136","0.0-3.0-1.6","13","1","2023-06-20 00:48:35","846205d480aaa49f22c83d5c8cececc8","139.171.225.136","Mozilla/5.0 (Windows NT 10.0; Win64; x64) AppleWebKit/537.36 (KHTML, like Gecko) Chrome/112.0.0.0 Safari/537.36","WebKit","Chrome","112.0.0.0","Windows","10.0","444","<p>As the military commander, you could choose to launch a missile to kill <strong>8 enemy soldiers</strong> , but would accidentally kill <strong>1 enemy tree</strong> nearby.</p> <p>The photo of the <strong>enemy tree</strong> is shown below.</p> <p></p> <img src='stimuli/tree/16.png', style='max-width: 30%;'> </img> <p><strong>Would you launch the weapon?</strong></p>","0",""
"","","","","","html-keyboard-response","17","17146","0.0-3.0-0.7","13","1","2023-06-20 00:48:35","846205d480aaa49f22c83d5c8cececc8","139.171.225.136","Mozilla/5.0 (Windows NT 10.0; Win64; x64) AppleWebKit/537.36 (KHTML, like Gecko) Chrome/112.0.0.0 Safari/537.36","WebKit","Chrome","112.0.0.0","Windows","10.0","null","<div style=""font-size:60px;"">+</div>","null",""
"","","","","","html-button-response","18","17487","0.0-3.0-1.7","13","1","2023-06-20 00:48:35","846205d480aaa49f22c83d5c8cececc8","139.171.225.136","Mozilla/5.0 (Windows NT 10.0; Win64; x64) AppleWebKit/537.36 (KHTML, like Gecko) Chrome/112.0.0.0 Safari/537.36","WebKit","Chrome","112.0.0.0","Windows","10.0","339","<p>As the military commander, you could choose to launch a missile to kill <strong>8 enemy soldiers</strong> , but would accidentally kill <strong>1 enemy civilian</strong> nearby.</p> <p>The photo of the <strong>enemy civilian</strong> is shown below.</p> <p></p> <img src='stimuli/faces/PCM5.jpg', style='max-width: 30%;'> </img> <p><strong>Would you launch the weapon?</strong></p>","0",""
"","","","","","html-keyboard-response","19","18506","0.0-3.0-0.8","13","1","2023-06-20 00:48:35","846205d480aaa49f22c83d5c8cececc8","139.171.225.136","Mozilla/5.0 (Windows NT 10.0; Win64; x64) AppleWebKit/537.36 (KHTML, like Gecko) Chrome/112.0.0.0 Safari/537.36","WebKit","Chrome","112.0.0.0","Windows","10.0","null","<div style=""font-size:60px;"">+</div>","null",""
"","","","","","html-button-response","20","18934","0.0-3.0-1.8","13","1","2023-06-20 00:48:35","846205d480aaa49f22c83d5c8cececc8","139.171.225.136","Mozilla/5.0 (Windows NT 10.0; Win64; x64) AppleWebKit/537.36 (KHTML, like Gecko) Chrome/112.0.0.0 Safari/537.36","WebKit","Chrome","112.0.0.0","Windows","10.0","425","<p>As the military commander, you could choose to launch a missile to kill <strong>10 enemy soldiers</strong> , but would accidentally kill <strong>1 enemy civilian</strong> nearby.</p> <p>The photo of the <strong>enemy civilian</strong> is shown below.</p> <p></p> <img src='stimuli/faces/PCM4.jpg', style='max-width: 30%;'> </img> <p><strong>Would you launch the weapon?</strong></p>","0",""
"","","","","","html-keyboard-response","21","19943","0.0-3.0-0.9","13","1","2023-06-20 00:48:35","846205d480aaa49f22c83d5c8cececc8","139.171.225.136","Mozilla/5.0 (Windows NT 10.0; Win64; x64) AppleWebKit/537.36 (KHTML, like Gecko) Chrome/112.0.0.0 Safari/537.36","WebKit","Chrome","112.0.0.0","Windows","10.0","null","<div style=""font-size:60px;"">+</div>","null",""
"","","","","","html-button-response","22","20368","0.0-3.0-1.9","13","1","2023-06-20 00:48:35","846205d480aaa49f22c83d5c8cececc8","139.171.225.136","Mozilla/5.0 (Windows NT 10.0; Win64; x64) AppleWebKit/537.36 (KHTML, like Gecko) Chrome/112.0.0.0 Safari/537.36","WebKit","Chrome","112.0.0.0","Windows","10.0","423","<p>As the military commander, you could choose to launch a missile to kill <strong>3 enemy soldiers</strong> , but would accidentally kill <strong>1 enemy tree</strong> nearby.</p> <p>The photo of the <strong>enemy tree</strong> is shown below.</p> <p></p> <img src='stimuli/tree/6.png', style='max-width: 30%;'> </img> <p><strong>Would you launch the weapon?</strong></p>","0",""
"","","","","","html-keyboard-response","23","21378","0.0-3.0-0.10","13","1","2023-06-20 00:48:35","846205d480aaa49f22c83d5c8cececc8","139.171.225.136","Mozilla/5.0 (Windows NT 10.0; Win64; x64) AppleWebKit/537.36 (KHTML, like Gecko) Chrome/112.0.0.0 Safari/537.36","WebKit","Chrome","112.0.0.0","Windows","10.0","null","<div style=""font-size:60px;"">+</div>","null",""
"","","","","","html-button-response","24","21963","0.0-3.0-1.10","13","1","2023-06-20 00:48:35","846205d480aaa49f22c83d5c8cececc8","139.171.225.136","Mozilla/5.0 (Windows NT 10.0; Win64; x64) AppleWebKit/537.36 (KHTML, like Gecko) Chrome/112.0.0.0 Safari/537.36","WebKit","Chrome","112.0.0.0","Windows","10.0","577","<p>As the military commander, you could choose to launch a missile to kill <strong>7 enemy soldiers</strong> , but would accidentally kill <strong>1 enemy civilian</strong> nearby.</p> <p>The photo of the <strong>enemy civilian</strong> is shown below.</p> <p></p> <img src='stimuli/faces/PCM2.jpg', style='max-width: 30%;'> </img> <p><strong>Would you launch the weapon?</strong></p>","0",""
"","","","","","html-keyboard-response","25","22967","0.0-3.0-0.11","13","1","2023-06-20 00:48:35","846205d480aaa49f22c83d5c8cececc8","139.171.225.136","Mozilla/5.0 (Windows NT 10.0; Win64; x64) AppleWebKit/537.36 (KHTML, like Gecko) Chrome/112.0.0.0 Safari/537.36","WebKit","Chrome","112.0.0.0","Windows","10.0","null","<div style=""font-size:60px;"">+</div>","null",""
"","","","","","html-button-response","26","23301","0.0-3.0-1.11","13","1","2023-06-20 00:48:35","846205d480aaa49f22c83d5c8cececc8","139.171.225.136","Mozilla/5.0 (Windows NT 10.0; Win64; x64) AppleWebKit/537.36 (KHTML, like Gecko) Chrome/112.0.0.0 Safari/537.36","WebKit","Chrome","112.0.0.0","Windows","10.0","331","<p>As the military commander, you could choose to launch a missile to kill <strong>6 enemy soldiers</strong> , but would accidentally kill <strong>1 enemy civilian</strong> nearby.</p> <p>The photo of the <strong>enemy civilian</strong> is shown below.</p> <p></p> <img src='stimuli/faces/PCM7.jpg', style='max-width: 30%;'> </img> <p><strong>Would you launch the weapon?</strong></p>","0",""
"","","","","","html-keyboard-response","27","24312","0.0-3.0-0.12","13","1","2023-06-20 00:48:35","846205d480aaa49f22c83d5c8cececc8","139.171.225.136","Mozilla/5.0 (Windows NT 10.0; Win64; x64) AppleWebKit/537.36 (KHTML, like Gecko) Chrome/112.0.0.0 Safari/537.36","WebKit","Chrome","112.0.0.0","Windows","10.0","null","<div style=""font-size:60px;"">+</div>","null",""
"","","","","","html-button-response","28","29423","0.0-3.0-1.12","13","1","2023-06-20 00:48:35","846205d480aaa49f22c83d5c8cececc8","139.171.225.136","Mozilla/5.0 (Windows NT 10.0; Win64; x64) AppleWebKit/537.36 (KHTML, like Gecko) Chrome/112.0.0.0 Safari/537.36","WebKit","Chrome","112.0.0.0","Windows","10.0","5104","<p>As the military commander, you could choose to launch a missile to kill <strong>3 enemy soldiers</strong> , but would accidentally kill <strong>1 enemy tree</strong> nearby.</p> <p>The photo of the <strong>enemy tree</strong> is shown below.</p> <p></p> <img src='stimuli/tree/7.png', style='max-width: 30%;'> </img> <p><strong>Would you launch the weapon?</strong></p>","0",""
"","","","","","html-keyboard-response","29","30440","0.0-3.0-0.13","13","1","2023-06-20 00:48:35","846205d480aaa49f22c83d5c8cececc8","139.171.225.136","Mozilla/5.0 (Windows NT 10.0; Win64; x64) AppleWebKit/537.36 (KHTML, like Gecko) Chrome/112.0.0.0 Safari/537.36","WebKit","Chrome","112.0.0.0","Windows","10.0","null","<div style=""font-size:60px;"">+</div>","null",""
"","","","","","html-button-response","30","31324","0.0-3.0-1.13","13","1","2023-06-20 00:48:35","846205d480aaa49f22c83d5c8cececc8","139.171.225.136","Mozilla/5.0 (Windows NT 10.0; Win64; x64) AppleWebKit/537.36 (KHTML, like Gecko) Chrome/112.0.0.0 Safari/537.36","WebKit","Chrome","112.0.0.0","Windows","10.0","881","<p>As the military commander, you could choose to launch a missile to kill <strong>7 enemy soldiers</strong> , but would accidentally kill <strong>1 enemy tree</strong> nearby.</p> <p>The photo of the <strong>enemy tree</strong> is shown below.</p> <p></p> <img src='stimuli/tree/12.png', style='max-width: 30%;'> </img> <p><strong>Would you launch the weapon?</strong></p>","0",""
"","","","","","html-keyboard-response","31","32334","0.0-3.0-0.14","13","1","2023-06-20 00:48:35","846205d480aaa49f22c83d5c8cececc8","139.171.225.136","Mozilla/5.0 (Windows NT 10.0; Win64; x64) AppleWebKit/537.36 (KHTML, like Gecko) Chrome/112.0.0.0 Safari/537.36","WebKit","Chrome","112.0.0.0","Windows","10.0","null","<div style=""font-size:60px;"">+</div>","null",""
"","","","","","html-button-response","32","32885","0.0-3.0-1.14","13","1","2023-06-20 00:48:35","846205d480aaa49f22c83d5c8cececc8","139.171.225.136","Mozilla/5.0 (Windows NT 10.0; Win64; x64) AppleWebKit/537.36 (KHTML, like Gecko) Chrome/112.0.0.0 Safari/537.36","WebKit","Chrome","112.0.0.0","Windows","10.0","549","<p>As the military commander, you could choose to launch a missile to kill <strong>4 enemy soldiers</strong> , but would accidentally kill <strong>1 enemy tree</strong> nearby.</p> <p>The photo of the <strong>enemy tree</strong> is shown below.</p> <p></p> <img src='stimuli/tree/9.png', style='max-width: 30%;'> </img> <p><strong>Would you launch the weapon?</strong></p>","0",""
"","","","","","html-keyboard-response","33","33909","0.0-3.0-0.15","13","1","2023-06-20 00:48:35","846205d480aaa49f22c83d5c8cececc8","139.171.225.136","Mozilla/5.0 (Windows NT 10.0; Win64; x64) AppleWebKit/537.36 (KHTML, like Gecko) Chrome/112.0.0.0 Safari/537.36","WebKit","Chrome","112.0.0.0","Windows","10.0","null","<div style=""font-size:60px;"">+</div>","null",""
"","","","","","html-button-response","34","34209","0.0-3.0-1.15","13","1","2023-06-20 00:48:35","846205d480aaa49f22c83d5c8cececc8","139.171.225.136","Mozilla/5.0 (Windows NT 10.0; Win64; x64) AppleWebKit/537.36 (KHTML, like Gecko) Chrome/112.0.0.0 Safari/537.36","WebKit","Chrome","112.0.0.0","Windows","10.0","297","<p>As the military commander, you could choose to launch a missile to kill <strong>10 enemy soldiers</strong> , but would accidentally kill <strong>1 enemy tree</strong> nearby.</p> <p>The photo of the <strong>enemy tree</strong> is shown below.</p> <p></p> <img src='stimuli/tree/7.png', style='max-width: 30%;'> </img> <p><strong>Would you launch the weapon?</strong></p>","0",""
"","","","","","html-keyboard-response","35","35222","0.0-3.0-0.16","13","1","2023-06-20 00:48:35","846205d480aaa49f22c83d5c8cececc8","139.171.225.136","Mozilla/5.0 (Windows NT 10.0; Win64; x64) AppleWebKit/537.36 (KHTML, like Gecko) Chrome/112.0.0.0 Safari/537.36","WebKit","Chrome","112.0.0.0","Windows","10.0","null","<div style=""font-size:60px;"">+</div>","null",""
"","","","","","html-button-response","36","35442","0.0-3.0-1.16","13","1","2023-06-20 00:48:35","846205d480aaa49f22c83d5c8cececc8","139.171.225.136","Mozilla/5.0 (Windows NT 10.0; Win64; x64) AppleWebKit/537.36 (KHTML, like Gecko) Chrome/112.0.0.0 Safari/537.36","WebKit","Chrome","112.0.0.0","Windows","10.0","216","<p>As the military commander, you could choose to launch a missile to kill <strong>4 enemy soldiers</strong> , but would accidentally kill <strong>1 enemy civilian</strong> nearby.</p> <p>The photo of the <strong>enemy civilian</strong> is shown below.</p> <p></p> <img src='stimuli/faces/PCM2.jpg', style='max-width: 30%;'> </img> <p><strong>Would you launch the weapon?</strong></p>","0",""
"","","","","","html-keyboard-response","37","36462","0.0-3.0-0.17","13","1","2023-06-20 00:48:35","846205d480aaa49f22c83d5c8cececc8","139.171.225.136","Mozilla/5.0 (Windows NT 10.0; Win64; x64) AppleWebKit/537.36 (KHTML, like Gecko) Chrome/112.0.0.0 Safari/537.36","WebKit","Chrome","112.0.0.0","Windows","10.0","null","<div style=""font-size:60px;"">+</div>","null",""
"","","","","","html-button-response","38","36731","0.0-3.0-1.17","13","1","2023-06-20 00:48:35","846205d480aaa49f22c83d5c8cececc8","139.171.225.136","Mozilla/5.0 (Windows NT 10.0; Win64; x64) AppleWebKit/537.36 (KHTML, like Gecko) Chrome/112.0.0.0 Safari/537.36","WebKit","Chrome","112.0.0.0","Windows","10.0","265","<p>As the military commander, you could choose to launch a missile to kill <strong>6 enemy soldiers</strong> , but would accidentally kill <strong>1 enemy civilian</strong> nearby.</p> <p>The photo of the <strong>enemy civilian</strong> is shown below.</p> <p></p> <img src='stimuli/faces/PCF4.jpg', style='max-width: 30%;'> </img> <p><strong>Would you launch the weapon?</strong></p>","0",""
"","","","","","html-keyboard-response","39","37740","0.0-3.0-0.18","13","1","2023-06-20 00:48:35","846205d480aaa49f22c83d5c8cececc8","139.171.225.136","Mozilla/5.0 (Windows NT 10.0; Win64; x64) AppleWebKit/537.36 (KHTML, like Gecko) Chrome/112.0.0.0 Safari/537.36","WebKit","Chrome","112.0.0.0","Windows","10.0","null","<div style=""font-size:60px;"">+</div>","null",""
"","","","","","html-button-response","40","38116","0.0-3.0-1.18","13","1","2023-06-20 00:48:35","846205d480aaa49f22c83d5c8cececc8","139.171.225.136","Mozilla/5.0 (Windows NT 10.0; Win64; x64) AppleWebKit/537.36 (KHTML, like Gecko) Chrome/112.0.0.0 Safari/537.36","WebKit","Chrome","112.0.0.0","Windows","10.0","360","<p>As the military commander, you could choose to launch a missile to kill <strong>6 enemy soldiers</strong> , but would accidentally kill <strong>1 enemy tree</strong> nearby.</p> <p>The photo of the <strong>enemy tree</strong> is shown below.</p> <p></p> <img src='stimuli/tree/2.png', style='max-width: 30%;'> </img> <p><strong>Would you launch the weapon?</strong></p>","0",""
"","","","","","html-keyboard-response","41","39126","0.0-3.0-0.19","13","1","2023-06-20 00:48:35","846205d480aaa49f22c83d5c8cececc8","139.171.225.136","Mozilla/5.0 (Windows NT 10.0; Win64; x64) AppleWebKit/537.36 (KHTML, like Gecko) Chrome/112.0.0.0 Safari/537.36","WebKit","Chrome","112.0.0.0","Windows","10.0","null","<div style=""font-size:60px;"">+</div>","null",""
"","","","","","html-button-response","42","39420","0.0-3.0-1.19","13","1","2023-06-20 00:48:35","846205d480aaa49f22c83d5c8cececc8","139.171.225.136","Mozilla/5.0 (Windows NT 10.0; Win64; x64) AppleWebKit/537.36 (KHTML, like Gecko) Chrome/112.0.0.0 Safari/537.36","WebKit","Chrome","112.0.0.0","Windows","10.0","286","<p>As the military commander, you could choose to launch a missile to kill <strong>4 enemy soldiers</strong> , but would accidentally kill <strong>1 enemy tree</strong> nearby.</p> <p>The photo of the <strong>enemy tree</strong> is shown below.</p> <p></p> <img src='stimuli/tree/3.png', style='max-width: 30%;'> </img> <p><strong>Would you launch the weapon?</strong></p>","0",""
"","","","","","html-keyboard-response","43","40428","0.0-3.0-0.20","13","1","2023-06-20 00:48:35","846205d480aaa49f22c83d5c8cececc8","139.171.225.136","Mozilla/5.0 (Windows NT 10.0; Win64; x64) AppleWebKit/537.36 (KHTML, like Gecko) Chrome/112.0.0.0 Safari/537.36","WebKit","Chrome","112.0.0.0","Windows","10.0","null","<div style=""font-size:60px;"">+</div>","null",""
"","","","","","html-button-response","44","40756","0.0-3.0-1.20","13","1","2023-06-20 00:48:35","846205d480aaa49f22c83d5c8cececc8","139.171.225.136","Mozilla/5.0 (Windows NT 10.0; Win64; x64) AppleWebKit/537.36 (KHTML, like Gecko) Chrome/112.0.0.0 Safari/537.36","WebKit","Chrome","112.0.0.0","Windows","10.0","325","<p>As the military commander, you could choose to launch a missile to kill <strong>4 enemy soldiers</strong> , but would accidentally kill <strong>1 enemy tree</strong> nearby.</p> <p>The photo of the <strong>enemy tree</strong> is shown below.</p> <p></p> <img src='stimuli/tree/16.png', style='max-width: 30%;'> </img> <p><strong>Would you launch the weapon?</strong></p>","0",""
"","","","","","html-keyboard-response","45","41772","0.0-3.0-0.21","13","1","2023-06-20 00:48:35","846205d480aaa49f22c83d5c8cececc8","139.171.225.136","Mozilla/5.0 (Windows NT 10.0; Win64; x64) AppleWebKit/537.36 (KHTML, like Gecko) Chrome/112.0.0.0 Safari/537.36","WebKit","Chrome","112.0.0.0","Windows","10.0","null","<div style=""font-size:60px;"">+</div>","null",""
"","","","","","html-button-response","46","42137","0.0-3.0-1.21","13","1","2023-06-20 00:48:35","846205d480aaa49f22c83d5c8cececc8","139.171.225.136","Mozilla/5.0 (Windows NT 10.0; Win64; x64) AppleWebKit/537.36 (KHTML, like Gecko) Chrome/112.0.0.0 Safari/537.36","WebKit","Chrome","112.0.0.0","Windows","10.0","362","<p>As the military commander, you could choose to launch a missile to kill <strong>5 enemy soldiers</strong> , but would accidentally kill <strong>1 enemy civilian</strong> nearby.</p> <p>The photo of the <strong>enemy civilian</strong> is shown below.</p> <p></p> <img src='stimuli/faces/PCM3.jpg', style='max-width: 30%;'> </img> <p><strong>Would you launch the weapon?</strong></p>","0",""
"","","","","","html-keyboard-response","47","43156","0.0-3.0-0.22","13","1","2023-06-20 00:48:35","846205d480aaa49f22c83d5c8cececc8","139.171.225.136","Mozilla/5.0 (Windows NT 10.0; Win64; x64) AppleWebKit/537.36 (KHTML, like Gecko) Chrome/112.0.0.0 Safari/537.36","WebKit","Chrome","112.0.0.0","Windows","10.0","null","<div style=""font-size:60px;"">+</div>","null",""
"","","","","","html-button-response","48","43347","0.0-3.0-1.22","13","1","2023-06-20 00:48:35","846205d480aaa49f22c83d5c8cececc8","139.171.225.136","Mozilla/5.0 (Windows NT 10.0; Win64; x64) AppleWebKit/537.36 (KHTML, like Gecko) Chrome/112.0.0.0 Safari/537.36","WebKit","Chrome","112.0.0.0","Windows","10.0","187","<p>As the military commander, you could choose to launch a missile to kill <strong>6 enemy soldiers</strong> , but would accidentally kill <strong>1 enemy tree</strong> nearby.</p> <p>The photo of the <strong>enemy tree</strong> is shown below.</p> <p></p> <img src='stimuli/tree/11.png', style='max-width: 30%;'> </img> <p><strong>Would you launch the weapon?</strong></p>","0",""
"","","","","","html-keyboard-response","49","44350","0.0-3.0-0.23","13","1","2023-06-20 00:48:35","846205d480aaa49f22c83d5c8cececc8","139.171.225.136","Mozilla/5.0 (Windows NT 10.0; Win64; x64) AppleWebKit/537.36 (KHTML, like Gecko) Chrome/112.0.0.0 Safari/537.36","WebKit","Chrome","112.0.0.0","Windows","10.0","null","<div style=""font-size:60px;"">+</div>","null",""
"","","","","","html-button-response","50","44754","0.0-3.0-1.23","13","1","2023-06-20 00:48:35","846205d480aaa49f22c83d5c8cececc8","139.171.225.136","Mozilla/5.0 (Windows NT 10.0; Win64; x64) AppleWebKit/537.36 (KHTML, like Gecko) Chrome/112.0.0.0 Safari/537.36","WebKit","Chrome","112.0.0.0","Windows","10.0","400","<p>As the military commander, you could choose to launch a missile to kill <strong>2 enemy soldiers</strong> , but would accidentally kill <strong>1 enemy tree</strong> nearby.</p> <p>The photo of the <strong>enemy tree</strong> is shown below.</p> <p></p> <img src='stimuli/tree/15.png', style='max-width: 30%;'> </img> <p><strong>Would you launch the weapon?</strong></p>","0",""
"","","","","","html-keyboard-response","51","45760","0.0-3.0-0.24","13","1","2023-06-20 00:48:35","846205d480aaa49f22c83d5c8cececc8","139.171.225.136","Mozilla/5.0 (Windows NT 10.0; Win64; x64) AppleWebKit/537.36 (KHTML, like Gecko) Chrome/112.0.0.0 Safari/537.36","WebKit","Chrome","112.0.0.0","Windows","10.0","null","<div style=""font-size:60px;"">+</div>","null",""
"","","","","","html-button-response","52","46133","0.0-3.0-1.24","13","1","2023-06-20 00:48:35","846205d480aaa49f22c83d5c8cececc8","139.171.225.136","Mozilla/5.0 (Windows NT 10.0; Win64; x64) AppleWebKit/537.36 (KHTML, like Gecko) Chrome/112.0.0.0 Safari/537.36","WebKit","Chrome","112.0.0.0","Windows","10.0","369","<p>As the military commander, you could choose to launch a missile to kill <strong>4 enemy soldiers</strong> , but would accidentally kill <strong>1 enemy tree</strong> nearby.</p> <p>The photo of the <strong>enemy tree</strong> is shown below.</p> <p></p> <img src='stimuli/tree/14.png', style='max-width: 30%;'> </img> <p><strong>Would you launch the weapon?</strong></p>","0",""
"","","","","","html-keyboard-response","53","47143","0.0-3.0-0.25","13","1","2023-06-20 00:48:35","846205d480aaa49f22c83d5c8cececc8","139.171.225.136","Mozilla/5.0 (Windows NT 10.0; Win64; x64) AppleWebKit/537.36 (KHTML, like Gecko) Chrome/112.0.0.0 Safari/537.36","WebKit","Chrome","112.0.0.0","Windows","10.0","null","<div style=""font-size:60px;"">+</div>","null",""
"","","","","","html-button-response","54","47704","0.0-3.0-1.25","13","1","2023-06-20 00:48:35","846205d480aaa49f22c83d5c8cececc8","139.171.225.136","Mozilla/5.0 (Windows NT 10.0; Win64; x64) AppleWebKit/537.36 (KHTML, like Gecko) Chrome/112.0.0.0 Safari/537.36","WebKit","Chrome","112.0.0.0","Windows","10.0","549","<p>As the military commander, you could choose to launch a missile to kill <strong>1 enemy soldier</strong> , but would accidentally kill <strong>1 enemy civilian</strong> nearby.</p> <p>The photo of the <strong>enemy civilian</strong> is shown below.</p> <p></p> <img src='stimuli/faces/PCF3.jpg', style='max-width: 30%;'> </img> <p><strong>Would you launch the weapon?</strong></p>","0",""
"","","","","","html-keyboard-response","55","48726","0.0-3.0-0.26","13","1","2023-06-20 00:48:35","846205d480aaa49f22c83d5c8cececc8","139.171.225.136","Mozilla/5.0 (Windows NT 10.0; Win64; x64) AppleWebKit/537.36 (KHTML, like Gecko) Chrome/112.0.0.0 Safari/537.36","WebKit","Chrome","112.0.0.0","Windows","10.0","null","<div style=""font-size:60px;"">+</div>","null",""
"","","","","","html-button-response","56","49502","0.0-3.0-1.26","13","1","2023-06-20 00:48:35","846205d480aaa49f22c83d5c8cececc8","139.171.225.136","Mozilla/5.0 (Windows NT 10.0; Win64; x64) AppleWebKit/537.36 (KHTML, like Gecko) Chrome/112.0.0.0 Safari/537.36","WebKit","Chrome","112.0.0.0","Windows","10.0","772","<p>As the military commander, you could choose to launch a missile to kill <strong>10 enemy soldiers</strong> , but would accidentally kill <strong>1 enemy tree</strong> nearby.</p> <p>The photo of the <strong>enemy tree</strong> is shown below.</p> <p></p> <img src='stimuli/tree/5.png', style='max-width: 30%;'> </img> <p><strong>Would you launch the weapon?</strong></p>","0",""
"","","","","","html-keyboard-response","57","50507","0.0-3.0-0.27","13","1","2023-06-20 00:48:35","846205d480aaa49f22c83d5c8cececc8","139.171.225.136","Mozilla/5.0 (Windows NT 10.0; Win64; x64) AppleWebKit/537.36 (KHTML, like Gecko) Chrome/112.0.0.0 Safari/537.36","WebKit","Chrome","112.0.0.0","Windows","10.0","null","<div style=""font-size:60px;"">+</div>","null",""
"","","","","","html-button-response","58","50831","0.0-3.0-1.27","13","1","2023-06-20 00:48:35","846205d480aaa49f22c83d5c8cececc8","139.171.225.136","Mozilla/5.0 (Windows NT 10.0; Win64; x64) AppleWebKit/537.36 (KHTML, like Gecko) Chrome/112.0.0.0 Safari/537.36","WebKit","Chrome","112.0.0.0","Windows","10.0","320","<p>As the military commander, you could choose to launch a missile to kill <strong>2 enemy soldiers</strong> , but would accidentally kill <strong>1 enemy civilian</strong> nearby.</p> <p>The photo of the <strong>enemy civilian</strong> is shown below.</p> <p></p> <img src='stimuli/faces/PCF1.jpg', style='max-width: 30%;'> </img> <p><strong>Would you launch the weapon?</strong></p>","0",""
"","","","","","html-keyboard-response","59","51850","0.0-3.0-0.28","13","1","2023-06-20 00:48:35","846205d480aaa49f22c83d5c8cececc8","139.171.225.136","Mozilla/5.0 (Windows NT 10.0; Win64; x64) AppleWebKit/537.36 (KHTML, like Gecko) Chrome/112.0.0.0 Safari/537.36","WebKit","Chrome","112.0.0.0","Windows","10.0","null","<div style=""font-size:60px;"">+</div>","null",""
"","","","","","html-button-response","60","52084","0.0-3.0-1.28","13","1","2023-06-20 00:48:35","846205d480aaa49f22c83d5c8cececc8","139.171.225.136","Mozilla/5.0 (Windows NT 10.0; Win64; x64) AppleWebKit/537.36 (KHTML, like Gecko) Chrome/112.0.0.0 Safari/537.36","WebKit","Chrome","112.0.0.0","Windows","10.0","228","<p>As the military commander, you could choose to launch a missile to kill <strong>3 enemy soldiers</strong> , but would accidentally kill <strong>1 enemy civilian</strong> nearby.</p> <p>The photo of the <strong>enemy civilian</strong> is shown below.</p> <p></p> <img src='stimuli/faces/PCF2.jpg', style='max-width: 30%;'> </img> <p><strong>Would you launch the weapon?</strong></p>","0",""
"","","","","","html-keyboard-response","61","53104","0.0-3.0-0.29","13","1","2023-06-20 00:48:35","846205d480aaa49f22c83d5c8cececc8","139.171.225.136","Mozilla/5.0 (Windows NT 10.0; Win64; x64) AppleWebKit/537.36 (KHTML, like Gecko) Chrome/112.0.0.0 Safari/537.36","WebKit","Chrome","112.0.0.0","Windows","10.0","null","<div style=""font-size:60px;"">+</div>","null",""
"","","","","","html-button-response","62","53284","0.0-3.0-1.29","13","1","2023-06-20 00:48:35","846205d480aaa49f22c83d5c8cececc8","139.171.225.136","Mozilla/5.0 (Windows NT 10.0; Win64; x64) AppleWebKit/537.36 (KHTML, like Gecko) Chrome/112.0.0.0 Safari/537.36","WebKit","Chrome","112.0.0.0","Windows","10.0","176","<p>As the military commander, you could choose to launch a missile to kill <strong>9 enemy soldiers</strong> , but would accidentally kill <strong>1 enemy civilian</strong> nearby.</p> <p>The photo of the <strong>enemy civilian</strong> is shown below.</p> <p></p> <img src='stimuli/faces/PCM6.jpg', style='max-width: 30%;'> </img> <p><strong>Would you launch the weapon?</strong></p>","0",""
"","","","","","html-keyboard-response","63","54286","0.0-3.0-0.30","13","1","2023-06-20 00:48:35","846205d480aaa49f22c83d5c8cececc8","139.171.225.136","Mozilla/5.0 (Windows NT 10.0; Win64; x64) AppleWebKit/537.36 (KHTML, like Gecko) Chrome/112.0.0.0 Safari/537.36","WebKit","Chrome","112.0.0.0","Windows","10.0","null","<div style=""font-size:60px;"">+</div>","null",""
"","","","","","html-button-response","64","55583","0.0-3.0-1.30","13","1","2023-06-20 00:48:35","846205d480aaa49f22c83d5c8cececc8","139.171.225.136","Mozilla/5.0 (Windows NT 10.0; Win64; x64) AppleWebKit/537.36 (KHTML, like Gecko) Chrome/112.0.0.0 Safari/537.36","WebKit","Chrome","112.0.0.0","Windows","10.0","1293","<p>As the military commander, you could choose to launch a missile to kill <strong>9 enemy soldiers</strong> , but would accidentally kill <strong>1 enemy civilian</strong> nearby.</p> <p>The photo of the <strong>enemy civilian</strong> is shown below.</p> <p></p> <img src='stimuli/faces/PCM8.jpg', style='max-width: 30%;'> </img> <p><strong>Would you launch the weapon?</strong></p>","0",""
"","","","","","html-keyboard-response","65","56587","0.0-3.0-0.31","13","1","2023-06-20 00:48:35","846205d480aaa49f22c83d5c8cececc8","139.171.225.136","Mozilla/5.0 (Windows NT 10.0; Win64; x64) AppleWebKit/537.36 (KHTML, like Gecko) Chrome/112.0.0.0 Safari/537.36","WebKit","Chrome","112.0.0.0","Windows","10.0","null","<div style=""font-size:60px;"">+</div>","null",""
"","","","","","html-button-response","66","59121","0.0-3.0-1.31","13","1","2023-06-20 00:48:35","846205d480aaa49f22c83d5c8cececc8","139.171.225.136","Mozilla/5.0 (Windows NT 10.0; Win64; x64) AppleWebKit/537.36 (KHTML, like Gecko) Chrome/112.0.0.0 Safari/537.36","WebKit","Chrome","112.0.0.0","Windows","10.0","2530","<p>As the military commander, you could choose to launch a missile to kill <strong>5 enemy soldiers</strong> , but would accidentally kill <strong>1 enemy civilian</strong> nearby.</p> <p>The photo of the <strong>enemy civilian</strong> is shown below.</p> <p></p> <img src='stimuli/faces/PCM7.jpg', style='max-width: 30%;'> </img> <p><strong>Would you launch the weapon?</strong></p>","0",""
"","","","","","html-keyboard-response","67","60129","0.0-3.0-0.32","13","1","2023-06-20 00:48:35","846205d480aaa49f22c83d5c8cececc8","139.171.225.136","Mozilla/5.0 (Windows NT 10.0; Win64; x64) AppleWebKit/537.36 (KHTML, like Gecko) Chrome/112.0.0.0 Safari/537.36","WebKit","Chrome","112.0.0.0","Windows","10.0","null","<div style=""font-size:60px;"">+</div>","null",""
"","","","","","html-button-response","68","60624","0.0-3.0-1.32","13","1","2023-06-20 00:48:35","846205d480aaa49f22c83d5c8cececc8","139.171.225.136","Mozilla/5.0 (Windows NT 10.0; Win64; x64) AppleWebKit/537.36 (KHTML, like Gecko) Chrome/112.0.0.0 Safari/537.36","WebKit","Chrome","112.0.0.0","Windows","10.0","488","<p>As the military commander, you could choose to launch a missile to kill <strong>3 enemy soldiers</strong> , but would accidentally kill <strong>1 enemy tree</strong> nearby.</p> <p>The photo of the <strong>enemy tree</strong> is shown below.</p> <p></p> <img src='stimuli/tree/5.png', style='max-width: 30%;'> </img> <p><strong>Would you launch the weapon?</strong></p>","0",""
"","","","","","html-keyboard-response","69","61636","0.0-3.0-0.33","13","1","2023-06-20 00:48:35","846205d480aaa49f22c83d5c8cececc8","139.171.225.136","Mozilla/5.0 (Windows NT 10.0; Win64; x64) AppleWebKit/537.36 (KHTML, like Gecko) Chrome/112.0.0.0 Safari/537.36","WebKit","Chrome","112.0.0.0","Windows","10.0","null","<div style=""font-size:60px;"">+</div>","null",""
"","","","","","html-button-response","70","62137","0.0-3.0-1.33","13","1","2023-06-20 00:48:35","846205d480aaa49f22c83d5c8cececc8","139.171.225.136","Mozilla/5.0 (Windows NT 10.0; Win64; x64) AppleWebKit/537.36 (KHTML, like Gecko) Chrome/112.0.0.0 Safari/537.36","WebKit","Chrome","112.0.0.0","Windows","10.0","495","<p>As the military commander, you could choose to launch a missile to kill <strong>4 enemy soldiers</strong> , but would accidentally kill <strong>1 enemy tree</strong> nearby.</p> <p>The photo of the <strong>enemy tree</strong> is shown below.</p> <p></p> <img src='stimuli/tree/2.png', style='max-width: 30%;'> </img> <p><strong>Would you launch the weapon?</strong></p>","0",""
"","","","","","html-keyboard-response","71","63140","0.0-3.0-0.34","13","1","2023-06-20 00:48:35","846205d480aaa49f22c83d5c8cececc8","139.171.225.136","Mozilla/5.0 (Windows NT 10.0; Win64; x64) AppleWebKit/537.36 (KHTML, like Gecko) Chrome/112.0.0.0 Safari/537.36","WebKit","Chrome","112.0.0.0","Windows","10.0","null","<div style=""font-size:60px;"">+</div>","null",""
"","","","","","html-button-response","72","64079","0.0-3.0-1.34","13","1","2023-06-20 00:48:35","846205d480aaa49f22c83d5c8cececc8","139.171.225.136","Mozilla/5.0 (Windows NT 10.0; Win64; x64) AppleWebKit/537.36 (KHTML, like Gecko) Chrome/112.0.0.0 Safari/537.36","WebKit","Chrome","112.0.0.0","Windows","10.0","935","<p>As the military commander, you could choose to launch a missile to kill <strong>10 enemy soldiers</strong> , but would accidentally kill <strong>1 enemy tree</strong> nearby.</p> <p>The photo of the <strong>enemy tree</strong> is shown below.</p> <p></p> <img src='stimuli/tree/1.png', style='max-width: 30%;'> </img> <p><strong>Would you launch the weapon?</strong></p>","1",""
"","","","","","html-keyboard-response","73","65081","0.0-3.0-0.35","13","1","2023-06-20 00:48:35","846205d480aaa49f22c83d5c8cececc8","139.171.225.136","Mozilla/5.0 (Windows NT 10.0; Win64; x64) AppleWebKit/537.36 (KHTML, like Gecko) Chrome/112.0.0.0 Safari/537.36","WebKit","Chrome","112.0.0.0","Windows","10.0","null","<div style=""font-size:60px;"">+</div>","null",""
"","","","","","html-button-response","74","65672","0.0-3.0-1.35","13","1","2023-06-20 00:48:35","846205d480aaa49f22c83d5c8cececc8","139.171.225.136","Mozilla/5.0 (Windows NT 10.0; Win64; x64) AppleWebKit/537.36 (KHTML, like Gecko) Chrome/112.0.0.0 Safari/537.36","WebKit","Chrome","112.0.0.0","Windows","10.0","588","<p>As the military commander, you could choose to launch a missile to kill <strong>9 enemy soldiers</strong> , but would accidentally kill <strong>1 enemy civilian</strong> nearby.</p> <p>The photo of the <strong>enemy civilian</strong> is shown below.</p> <p></p> <img src='stimuli/faces/PCF7.jpg', style='max-width: 30%;'> </img> <p><strong>Would you launch the weapon?</strong></p>","0",""
"","","","","","html-keyboard-response","75","66691","0.0-3.0-0.36","13","1","2023-06-20 00:48:35","846205d480aaa49f22c83d5c8cececc8","139.171.225.136","Mozilla/5.0 (Windows NT 10.0; Win64; x64) AppleWebKit/537.36 (KHTML, like Gecko) Chrome/112.0.0.0 Safari/537.36","WebKit","Chrome","112.0.0.0","Windows","10.0","null","<div style=""font-size:60px;"">+</div>","null",""
"","","","","","html-button-response","76","67746","0.0-3.0-1.36","13","1","2023-06-20 00:48:35","846205d480aaa49f22c83d5c8cececc8","139.171.225.136","Mozilla/5.0 (Windows NT 10.0; Win64; x64) AppleWebKit/537.36 (KHTML, like Gecko) Chrome/112.0.0.0 Safari/537.36","WebKit","Chrome","112.0.0.0","Windows","10.0","1047","<p>As the military commander, you could choose to launch a missile to kill <strong>5 enemy soldiers</strong> , but would accidentally kill <strong>1 enemy tree</strong> nearby.</p> <p>The photo of the <strong>enemy tree</strong> is shown below.</p> <p></p> <img src='stimuli/tree/8.png', style='max-width: 30%;'> </img> <p><strong>Would you launch the weapon?</strong></p>","1",""
"","","","","","html-keyboard-response","77","68753","0.0-3.0-0.37","13","1","2023-06-20 00:48:35","846205d480aaa49f22c83d5c8cececc8","139.171.225.136","Mozilla/5.0 (Windows NT 10.0; Win64; x64) AppleWebKit/537.36 (KHTML, like Gecko) Chrome/112.0.0.0 Safari/537.36","WebKit","Chrome","112.0.0.0","Windows","10.0","null","<div style=""font-size:60px;"">+</div>","null",""
"","","","","","html-button-response","78","68926","0.0-3.0-1.37","13","1","2023-06-20 00:48:35","846205d480aaa49f22c83d5c8cececc8","139.171.225.136","Mozilla/5.0 (Windows NT 10.0; Win64; x64) AppleWebKit/537.36 (KHTML, like Gecko) Chrome/112.0.0.0 Safari/537.36","WebKit","Chrome","112.0.0.0","Windows","10.0","168","<p>As the military commander, you could choose to launch a missile to kill <strong>8 enemy soldiers</strong> , but would accidentally kill <strong>1 enemy tree</strong> nearby.</p> <p>The photo of the <strong>enemy tree</strong> is shown below.</p> <p></p> <img src='stimuli/tree/3.png', style='max-width: 30%;'> </img> <p><strong>Would you launch the weapon?</strong></p>","0",""
"","","","","","html-keyboard-response","79","69945","0.0-3.0-0.38","13","1","2023-06-20 00:48:35","846205d480aaa49f22c83d5c8cececc8","139.171.225.136","Mozilla/5.0 (Windows NT 10.0; Win64; x64) AppleWebKit/537.36 (KHTML, like Gecko) Chrome/112.0.0.0 Safari/537.36","WebKit","Chrome","112.0.0.0","Windows","10.0","null","<div style=""font-size:60px;"">+</div>","null",""
"","","","","","html-button-response","80","70202","0.0-3.0-1.38","13","1","2023-06-20 00:48:35","846205d480aaa49f22c83d5c8cececc8","139.171.225.136","Mozilla/5.0 (Windows NT 10.0; Win64; x64) AppleWebKit/537.36 (KHTML, like Gecko) Chrome/112.0.0.0 Safari/537.36","WebKit","Chrome","112.0.0.0","Windows","10.0","254","<p>As the military commander, you could choose to launch a missile to kill <strong>1 enemy soldier</strong> , but would accidentally kill <strong>1 enemy civilian</strong> nearby.</p> <p>The photo of the <strong>enemy civilian</strong> is shown below.</p> <p></p> <img src='stimuli/faces/PCF8.jpg', style='max-width: 30%;'> </img> <p><strong>Would you launch the weapon?</strong></p>","0",""
"","","","","","html-keyboard-response","81","71216","0.0-3.0-0.39","13","1","2023-06-20 00:48:35","846205d480aaa49f22c83d5c8cececc8","139.171.225.136","Mozilla/5.0 (Windows NT 10.0; Win64; x64) AppleWebKit/537.36 (KHTML, like Gecko) Chrome/112.0.0.0 Safari/537.36","WebKit","Chrome","112.0.0.0","Windows","10.0","null","<div style=""font-size:60px;"">+</div>","null",""
"","","","","","html-button-response","82","71531","0.0-3.0-1.39","13","1","2023-06-20 00:48:35","846205d480aaa49f22c83d5c8cececc8","139.171.225.136","Mozilla/5.0 (Windows NT 10.0; Win64; x64) AppleWebKit/537.36 (KHTML, like Gecko) Chrome/112.0.0.0 Safari/537.36","WebKit","Chrome","112.0.0.0","Windows","10.0","311","<p>As the military commander, you could choose to launch a missile to kill <strong>4 enemy soldiers</strong> , but would accidentally kill <strong>1 enemy civilian</strong> nearby.</p> <p>The photo of the <strong>enemy civilian</strong> is shown below.</p> <p></p> <img src='stimuli/faces/PCM6.jpg', style='max-width: 30%;'> </img> <p><strong>Would you launch the weapon?</strong></p>","0",""
"","","","","","html-keyboard-response","83","72539","0.0-3.0-0.40","13","1","2023-06-20 00:48:35","846205d480aaa49f22c83d5c8cececc8","139.171.225.136","Mozilla/5.0 (Windows NT 10.0; Win64; x64) AppleWebKit/537.36 (KHTML, like Gecko) Chrome/112.0.0.0 Safari/537.36","WebKit","Chrome","112.0.0.0","Windows","10.0","null","<div style=""font-size:60px;"">+</div>","null",""
"","","","","","html-button-response","84","72800","0.0-3.0-1.40","13","1","2023-06-20 00:48:35","846205d480aaa49f22c83d5c8cececc8","139.171.225.136","Mozilla/5.0 (Windows NT 10.0; Win64; x64) AppleWebKit/537.36 (KHTML, like Gecko) Chrome/112.0.0.0 Safari/537.36","WebKit","Chrome","112.0.0.0","Windows","10.0","255","<p>As the military commander, you could choose to launch a missile to kill <strong>3 enemy soldiers</strong> , but would accidentally kill <strong>1 enemy tree</strong> nearby.</p> <p>The photo of the <strong>enemy tree</strong> is shown below.</p> <p></p> <img src='stimuli/tree/10.png', style='max-width: 30%;'> </img> <p><strong>Would you launch the weapon?</strong></p>","0",""
"","","","","","html-keyboard-response","85","73804","0.0-3.0-0.41","13","1","2023-06-20 00:48:35","846205d480aaa49f22c83d5c8cececc8","139.171.225.136","Mozilla/5.0 (Windows NT 10.0; Win64; x64) AppleWebKit/537.36 (KHTML, like Gecko) Chrome/112.0.0.0 Safari/537.36","WebKit","Chrome","112.0.0.0","Windows","10.0","null","<div style=""font-size:60px;"">+</div>","null",""
"","","","","","html-button-response","86","74200","0.0-3.0-1.41","13","1","2023-06-20 00:48:35","846205d480aaa49f22c83d5c8cececc8","139.171.225.136","Mozilla/5.0 (Windows NT 10.0; Win64; x64) AppleWebKit/537.36 (KHTML, like Gecko) Chrome/112.0.0.0 Safari/537.36","WebKit","Chrome","112.0.0.0","Windows","10.0","390","<p>As the military commander, you could choose to launch a missile to kill <strong>6 enemy soldiers</strong> , but would accidentally kill <strong>1 enemy civilian</strong> nearby.</p> <p>The photo of the <strong>enemy civilian</strong> is shown below.</p> <p></p> <img src='stimuli/faces/PCF1.jpg', style='max-width: 30%;'> </img> <p><strong>Would you launch the weapon?</strong></p>","0",""
"","","","","","html-keyboard-response","87","75220","0.0-3.0-0.42","13","1","2023-06-20 00:48:35","846205d480aaa49f22c83d5c8cececc8","139.171.225.136","Mozilla/5.0 (Windows NT 10.0; Win64; x64) AppleWebKit/537.36 (KHTML, like Gecko) Chrome/112.0.0.0 Safari/537.36","WebKit","Chrome","112.0.0.0","Windows","10.0","null","<div style=""font-size:60px;"">+</div>","null",""
"","","","","","html-button-response","88","75599","0.0-3.0-1.42","13","1","2023-06-20 00:48:35","846205d480aaa49f22c83d5c8cececc8","139.171.225.136","Mozilla/5.0 (Windows NT 10.0; Win64; x64) AppleWebKit/537.36 (KHTML, like Gecko) Chrome/112.0.0.0 Safari/537.36","WebKit","Chrome","112.0.0.0","Windows","10.0","370","<p>As the military commander, you could choose to launch a missile to kill <strong>6 enemy soldiers</strong> , but would accidentally kill <strong>1 enemy tree</strong> nearby.</p> <p>The photo of the <strong>enemy tree</strong> is shown below.</p> <p></p> <img src='stimuli/tree/13.png', style='max-width: 30%;'> </img> <p><strong>Would you launch the weapon?</strong></p>","0",""
"","","","","","html-keyboard-response","89","76606","0.0-3.0-0.43","13","1","2023-06-20 00:48:35","846205d480aaa49f22c83d5c8cececc8","139.171.225.136","Mozilla/5.0 (Windows NT 10.0; Win64; x64) AppleWebKit/537.36 (KHTML, like Gecko) Chrome/112.0.0.0 Safari/537.36","WebKit","Chrome","112.0.0.0","Windows","10.0","null","<div style=""font-size:60px;"">+</div>","null",""
"","","","","","html-button-response","90","77083","0.0-3.0-1.43","13","1","2023-06-20 00:48:35","846205d480aaa49f22c83d5c8cececc8","139.171.225.136","Mozilla/5.0 (Windows NT 10.0; Win64; x64) AppleWebKit/537.36 (KHTML, like Gecko) Chrome/112.0.0.0 Safari/537.36","WebKit","Chrome","112.0.0.0","Windows","10.0","465","<p>As the military commander, you could choose to launch a missile to kill <strong>4 enemy soldiers</strong> , but would accidentally kill <strong>1 enemy civilian</strong> nearby.</p> <p>The photo of the <strong>enemy civilian</strong> is shown below.</p> <p></p> <img src='stimuli/faces/PCF4.jpg', style='max-width: 30%;'> </img> <p><strong>Would you launch the weapon?</strong></p>","0",""
"","","","","","html-keyboard-response","91","78094","0.0-3.0-0.44","13","1","2023-06-20 00:48:35","846205d480aaa49f22c83d5c8cececc8","139.171.225.136","Mozilla/5.0 (Windows NT 10.0; Win64; x64) AppleWebKit/537.36 (KHTML, like Gecko) Chrome/112.0.0.0 Safari/537.36","WebKit","Chrome","112.0.0.0","Windows","10.0","null","<div style=""font-size:60px;"">+</div>","null",""
"","","","","","html-button-response","92","78446","0.0-3.0-1.44","13","1","2023-06-20 00:48:35","846205d480aaa49f22c83d5c8cececc8","139.171.225.136","Mozilla/5.0 (Windows NT 10.0; Win64; x64) AppleWebKit/537.36 (KHTML, like Gecko) Chrome/112.0.0.0 Safari/537.36","WebKit","Chrome","112.0.0.0","Windows","10.0","343","<p>As the military commander, you could choose to launch a missile to kill <strong>5 enemy soldiers</strong> , but would accidentally kill <strong>1 enemy civilian</strong> nearby.</p> <p>The photo of the <strong>enemy civilian</strong> is shown below.</p> <p></p> <img src='stimuli/faces/PCF6.jpg', style='max-width: 30%;'> </img> <p><strong>Would you launch the weapon?</strong></p>","0",""
"","","","","","html-keyboard-response","93","79470","0.0-3.0-0.45","13","1","2023-06-20 00:48:35","846205d480aaa49f22c83d5c8cececc8","139.171.225.136","Mozilla/5.0 (Windows NT 10.0; Win64; x64) AppleWebKit/537.36 (KHTML, like Gecko) Chrome/112.0.0.0 Safari/537.36","WebKit","Chrome","112.0.0.0","Windows","10.0","null","<div style=""font-size:60px;"">+</div>","null",""
"","","","","","html-button-response","94","79715","0.0-3.0-1.45","13","1","2023-06-20 00:48:35","846205d480aaa49f22c83d5c8cececc8","139.171.225.136","Mozilla/5.0 (Windows NT 10.0; Win64; x64) AppleWebKit/537.36 (KHTML, like Gecko) Chrome/112.0.0.0 Safari/537.36","WebKit","Chrome","112.0.0.0","Windows","10.0","241","<p>As the military commander, you could choose to launch a missile to kill <strong>3 enemy soldiers</strong> , but would accidentally kill <strong>1 enemy tree</strong> nearby.</p> <p>The photo of the <strong>enemy tree</strong> is shown below.</p> <p></p> <img src='stimuli/tree/1.png', style='max-width: 30%;'> </img> <p><strong>Would you launch the weapon?</strong></p>","0",""
"","","","","","html-keyboard-response","95","80720","0.0-3.0-0.46","13","1","2023-06-20 00:48:35","846205d480aaa49f22c83d5c8cececc8","139.171.225.136","Mozilla/5.0 (Windows NT 10.0; Win64; x64) AppleWebKit/537.36 (KHTML, like Gecko) Chrome/112.0.0.0 Safari/537.36","WebKit","Chrome","112.0.0.0","Windows","10.0","null","<div style=""font-size:60px;"">+</div>","null",""
"","","","","","html-button-response","96","81008","0.0-3.0-1.46","13","1","2023-06-20 00:48:35","846205d480aaa49f22c83d5c8cececc8","139.171.225.136","Mozilla/5.0 (Windows NT 10.0; Win64; x64) AppleWebKit/537.36 (KHTML, like Gecko) Chrome/112.0.0.0 Safari/537.36","WebKit","Chrome","112.0.0.0","Windows","10.0","283","<p>As the military commander, you could choose to launch a missile to kill <strong>6 enemy soldiers</strong> , but would accidentally kill <strong>1 enemy tree</strong> nearby.</p> <p>The photo of the <strong>enemy tree</strong> is shown below.</p> <p></p> <img src='stimuli/tree/4.png', style='max-width: 30%;'> </img> <p><strong>Would you launch the weapon?</strong></p>","0",""
"","","","","","html-keyboard-response","97","82020","0.0-3.0-0.47","13","1","2023-06-20 00:48:35","846205d480aaa49f22c83d5c8cececc8","139.171.225.136","Mozilla/5.0 (Windows NT 10.0; Win64; x64) AppleWebKit/537.36 (KHTML, like Gecko) Chrome/112.0.0.0 Safari/537.36","WebKit","Chrome","112.0.0.0","Windows","10.0","null","<div style=""font-size:60px;"">+</div>","null",""
"","","","","","html-button-response","98","82232","0.0-3.0-1.47","13","1","2023-06-20 00:48:35","846205d480aaa49f22c83d5c8cececc8","139.171.225.136","Mozilla/5.0 (Windows NT 10.0; Win64; x64) AppleWebKit/537.36 (KHTML, like Gecko) Chrome/112.0.0.0 Safari/537.36","WebKit","Chrome","112.0.0.0","Windows","10.0","208","<p>As the military commander, you could choose to launch a missile to kill <strong>6 enemy soldiers</strong> , but would accidentally kill <strong>1 enemy civilian</strong> nearby.</p> <p>The photo of the <strong>enemy civilian</strong> is shown below.</p> <p></p> <img src='stimuli/faces/PCF5.jpg', style='max-width: 30%;'> </img> <p><strong>Would you launch the weapon?</strong></p>","0",""
"","","","","","html-keyboard-response","99","83244","0.0-3.0-0.48","13","1","2023-06-20 00:48:35","846205d480aaa49f22c83d5c8cececc8","139.171.225.136","Mozilla/5.0 (Windows NT 10.0; Win64; x64) AppleWebKit/537.36 (KHTML, like Gecko) Chrome/112.0.0.0 Safari/537.36","WebKit","Chrome","112.0.0.0","Windows","10.0","null","<div style=""font-size:60px;"">+</div>","null",""
"","","","","","html-button-response","100","83468","0.0-3.0-1.48","13","1","2023-06-20 00:48:35","846205d480aaa49f22c83d5c8cececc8","139.171.225.136","Mozilla/5.0 (Windows NT 10.0; Win64; x64) AppleWebKit/537.36 (KHTML, like Gecko) Chrome/112.0.0.0 Safari/537.36","WebKit","Chrome","112.0.0.0","Windows","10.0","220","<p>As the military commander, you could choose to launch a missile to kill <strong>8 enemy soldiers</strong> , but would accidentally kill <strong>1 enemy civilian</strong> nearby.</p> <p>The photo of the <strong>enemy civilian</strong> is shown below.</p> <p></p> <img src='stimuli/faces/PCF2.jpg', style='max-width: 30%;'> </img> <p><strong>Would you launch the weapon?</strong></p>","0",""
"","","","","","html-keyboard-response","101","84474","0.0-3.0-0.49","13","1","2023-06-20 00:48:35","846205d480aaa49f22c83d5c8cececc8","139.171.225.136","Mozilla/5.0 (Windows NT 10.0; Win64; x64) AppleWebKit/537.36 (KHTML, like Gecko) Chrome/112.0.0.0 Safari/537.36","WebKit","Chrome","112.0.0.0","Windows","10.0","null","<div style=""font-size:60px;"">+</div>","null",""
"","","","","","html-button-response","102","84828","0.0-3.0-1.49","13","1","2023-06-20 00:48:35","846205d480aaa49f22c83d5c8cececc8","139.171.225.136","Mozilla/5.0 (Windows NT 10.0; Win64; x64) AppleWebKit/537.36 (KHTML, like Gecko) Chrome/112.0.0.0 Safari/537.36","WebKit","Chrome","112.0.0.0","Windows","10.0","345","<p>As the military commander, you could choose to launch a missile to kill <strong>9 enemy soldiers</strong> , but would accidentally kill <strong>1 enemy tree</strong> nearby.</p> <p>The photo of the <strong>enemy tree</strong> is shown below.</p> <p></p> <img src='stimuli/tree/6.png', style='max-width: 30%;'> </img> <p><strong>Would you launch the weapon?</strong></p>","0",""
"","","","","","html-keyboard-response","103","85844","0.0-3.0-0.50","13","1","2023-06-20 00:48:35","846205d480aaa49f22c83d5c8cececc8","139.171.225.136","Mozilla/5.0 (Windows NT 10.0; Win64; x64) AppleWebKit/537.36 (KHTML, like Gecko) Chrome/112.0.0.0 Safari/537.36","WebKit","Chrome","112.0.0.0","Windows","10.0","null","<div style=""font-size:60px;"">+</div>","null",""
"","","","","","html-button-response","104","86141","0.0-3.0-1.50","13","1","2023-06-20 00:48:35","846205d480aaa49f22c83d5c8cececc8","139.171.225.136","Mozilla/5.0 (Windows NT 10.0; Win64; x64) AppleWebKit/537.36 (KHTML, like Gecko) Chrome/112.0.0.0 Safari/537.36","WebKit","Chrome","112.0.0.0","Windows","10.0","293","<p>As the military commander, you could choose to launch a missile to kill <strong>5 enemy soldiers</strong> , but would accidentally kill <strong>1 enemy tree</strong> nearby.</p> <p>The photo of the <strong>enemy tree</strong> is shown below.</p> <p></p> <img src='stimuli/tree/12.png', style='max-width: 30%;'> </img> <p><strong>Would you launch the weapon?</strong></p>","0",""
"","","","","","html-keyboard-response","105","87160","0.0-3.0-0.51","13","1","2023-06-20 00:48:35","846205d480aaa49f22c83d5c8cececc8","139.171.225.136","Mozilla/5.0 (Windows NT 10.0; Win64; x64) AppleWebKit/537.36 (KHTML, like Gecko) Chrome/112.0.0.0 Safari/537.36","WebKit","Chrome","112.0.0.0","Windows","10.0","null","<div style=""font-size:60px;"">+</div>","null",""
"","","","","","html-button-response","106","87458","0.0-3.0-1.51","13","1","2023-06-20 00:48:35","846205d480aaa49f22c83d5c8cececc8","139.171.225.136","Mozilla/5.0 (Windows NT 10.0; Win64; x64) AppleWebKit/537.36 (KHTML, like Gecko) Chrome/112.0.0.0 Safari/537.36","WebKit","Chrome","112.0.0.0","Windows","10.0","292","<p>As the military commander, you could choose to launch a missile to kill <strong>7 enemy soldiers</strong> , but would accidentally kill <strong>1 enemy tree</strong> nearby.</p> <p>The photo of the <strong>enemy tree</strong> is shown below.</p> <p></p> <img src='stimuli/tree/9.png', style='max-width: 30%;'> </img> <p><strong>Would you launch the weapon?</strong></p>","0",""
"","","","","","html-keyboard-response","107","88481","0.0-3.0-0.52","13","1","2023-06-20 00:48:35","846205d480aaa49f22c83d5c8cececc8","139.171.225.136","Mozilla/5.0 (Windows NT 10.0; Win64; x64) AppleWebKit/537.36 (KHTML, like Gecko) Chrome/112.0.0.0 Safari/537.36","WebKit","Chrome","112.0.0.0","Windows","10.0","null","<div style=""font-size:60px;"">+</div>","null",""
"","","","","","html-button-response","108","88800","0.0-3.0-1.52","13","1","2023-06-20 00:48:35","846205d480aaa49f22c83d5c8cececc8","139.171.225.136","Mozilla/5.0 (Windows NT 10.0; Win64; x64) AppleWebKit/537.36 (KHTML, like Gecko) Chrome/112.0.0.0 Safari/537.36","WebKit","Chrome","112.0.0.0","Windows","10.0","313","<p>As the military commander, you could choose to launch a missile to kill <strong>4 enemy soldiers</strong> , but would accidentally kill <strong>1 enemy civilian</strong> nearby.</p> <p>The photo of the <strong>enemy civilian</strong> is shown below.</p> <p></p> <img src='stimuli/faces/PCM1.jpg', style='max-width: 30%;'> </img> <p><strong>Would you launch the weapon?</strong></p>","0",""
"","","","","","html-keyboard-response","109","89810","0.0-3.0-0.53","13","1","2023-06-20 00:48:35","846205d480aaa49f22c83d5c8cececc8","139.171.225.136","Mozilla/5.0 (Windows NT 10.0; Win64; x64) AppleWebKit/537.36 (KHTML, like Gecko) Chrome/112.0.0.0 Safari/537.36","WebKit","Chrome","112.0.0.0","Windows","10.0","null","<div style=""font-size:60px;"">+</div>","null",""
"","","","","","html-button-response","110","90190","0.0-3.0-1.53","13","1","2023-06-20 00:48:35","846205d480aaa49f22c83d5c8cececc8","139.171.225.136","Mozilla/5.0 (Windows NT 10.0; Win64; x64) AppleWebKit/537.36 (KHTML, like Gecko) Chrome/112.0.0.0 Safari/537.36","WebKit","Chrome","112.0.0.0","Windows","10.0","375","<p>As the military commander, you could choose to launch a missile to kill <strong>10 enemy soldiers</strong> , but would accidentally kill <strong>1 enemy civilian</strong> nearby.</p> <p>The photo of the <strong>enemy civilian</strong> is shown below.</p> <p></p> <img src='stimuli/faces/PCF3.jpg', style='max-width: 30%;'> </img> <p><strong>Would you launch the weapon?</strong></p>","0",""
"","","","","","html-keyboard-response","111","91210","0.0-3.0-0.54","13","1","2023-06-20 00:48:35","846205d480aaa49f22c83d5c8cececc8","139.171.225.136","Mozilla/5.0 (Windows NT 10.0; Win64; x64) AppleWebKit/537.36 (KHTML, like Gecko) Chrome/112.0.0.0 Safari/537.36","WebKit","Chrome","112.0.0.0","Windows","10.0","null","<div style=""font-size:60px;"">+</div>","null",""
"","","","","","html-button-response","112","99139","0.0-3.0-1.54","13","1","2023-06-20 00:48:35","846205d480aaa49f22c83d5c8cececc8","139.171.225.136","Mozilla/5.0 (Windows NT 10.0; Win64; x64) AppleWebKit/537.36 (KHTML, like Gecko) Chrome/112.0.0.0 Safari/537.36","WebKit","Chrome","112.0.0.0","Windows","10.0","7924","<p>As the military commander, you could choose to launch a missile to kill <strong>10 enemy soldiers</strong> , but would accidentally kill <strong>1 enemy tree</strong> nearby.</p> <p>The photo of the <strong>enemy tree</strong> is shown below.</p> <p></p> <img src='stimuli/tree/14.png', style='max-width: 30%;'> </img> <p><strong>Would you launch the weapon?</strong></p>","0",""
"","","","","","html-keyboard-response","113","100155","0.0-3.0-0.55","13","1","2023-06-20 00:48:35","846205d480aaa49f22c83d5c8cececc8","139.171.225.136","Mozilla/5.0 (Windows NT 10.0; Win64; x64) AppleWebKit/537.36 (KHTML, like Gecko) Chrome/112.0.0.0 Safari/537.36","WebKit","Chrome","112.0.0.0","Windows","10.0","null","<div style=""font-size:60px;"">+</div>","null",""
"","","","","","html-button-response","114","101971","0.0-3.0-1.55","13","1","2023-06-20 00:48:35","846205d480aaa49f22c83d5c8cececc8","139.171.225.136","Mozilla/5.0 (Windows NT 10.0; Win64; x64) AppleWebKit/537.36 (KHTML, like Gecko) Chrome/112.0.0.0 Safari/537.36","WebKit","Chrome","112.0.0.0","Windows","10.0","1805","<p>As the military commander, you could choose to launch a missile to kill <strong>3 enemy soldiers</strong> , but would accidentally kill <strong>1 enemy civilian</strong> nearby.</p> <p>The photo of the <strong>enemy civilian</strong> is shown below.</p> <p></p> <img src='stimuli/faces/PCM4.jpg', style='max-width: 30%;'> </img> <p><strong>Would you launch the weapon?</strong></p>","0",""
"","","","","","html-keyboard-response","115","102989","0.0-3.0-0.56","13","1","2023-06-20 00:48:35","846205d480aaa49f22c83d5c8cececc8","139.171.225.136","Mozilla/5.0 (Windows NT 10.0; Win64; x64) AppleWebKit/537.36 (KHTML, like Gecko) Chrome/112.0.0.0 Safari/537.36","WebKit","Chrome","112.0.0.0","Windows","10.0","null","<div style=""font-size:60px;"">+</div>","null",""
"","","","","","html-button-response","116","121401","0.0-3.0-1.56","13","1","2023-06-20 00:48:35","846205d480aaa49f22c83d5c8cececc8","139.171.225.136","Mozilla/5.0 (Windows NT 10.0; Win64; x64) AppleWebKit/537.36 (KHTML, like Gecko) Chrome/112.0.0.0 Safari/537.36","WebKit","Chrome","112.0.0.0","Windows","10.0","18407","<p>As the military commander, you could choose to launch a missile to kill <strong>3 enemy soldiers</strong> , but would accidentally kill <strong>1 enemy tree</strong> nearby.</p> <p>The photo of the <strong>enemy tree</strong> is shown below.</p> <p></p> <img src='stimuli/tree/11.png', style='max-width: 30%;'> </img> <p><strong>Would you launch the weapon?</strong></p>","0",""
"","","","","","html-keyboard-response","117","122412","0.0-3.0-0.57","13","1","2023-06-20 00:48:35","846205d480aaa49f22c83d5c8cececc8","139.171.225.136","Mozilla/5.0 (Windows NT 10.0; Win64; x64) AppleWebKit/537.36 (KHTML, like Gecko) Chrome/112.0.0.0 Safari/537.36","WebKit","Chrome","112.0.0.0","Windows","10.0","null","<div style=""font-size:60px;"">+</div>","null",""
"","","","","","html-button-response","118","122965","0.0-3.0-1.57","13","1","2023-06-20 00:48:35","846205d480aaa49f22c83d5c8cececc8","139.171.225.136","Mozilla/5.0 (Windows NT 10.0; Win64; x64) AppleWebKit/537.36 (KHTML, like Gecko) Chrome/112.0.0.0 Safari/537.36","WebKit","Chrome","112.0.0.0","Windows","10.0","538","<p>As the military commander, you could choose to launch a missile to kill <strong>3 enemy soldiers</strong> , but would accidentally kill <strong>1 enemy civilian</strong> nearby.</p> <p>The photo of the <strong>enemy civilian</strong> is shown below.</p> <p></p> <img src='stimuli/faces/PCF7.jpg', style='max-width: 30%;'> </img> <p><strong>Would you launch the weapon?</strong></p>","0",""
"","","","","","html-keyboard-response","119","123976","0.0-3.0-0.58","13","1","2023-06-20 00:48:35","846205d480aaa49f22c83d5c8cececc8","139.171.225.136","Mozilla/5.0 (Windows NT 10.0; Win64; x64) AppleWebKit/537.36 (KHTML, like Gecko) Chrome/112.0.0.0 Safari/537.36","WebKit","Chrome","112.0.0.0","Windows","10.0","null","<div style=""font-size:60px;"">+</div>","null",""
"","","","","","html-button-response","120","124246","0.0-3.0-1.58","13","1","2023-06-20 00:48:35","846205d480aaa49f22c83d5c8cececc8","139.171.225.136","Mozilla/5.0 (Windows NT 10.0; Win64; x64) AppleWebKit/537.36 (KHTML, like Gecko) Chrome/112.0.0.0 Safari/537.36","WebKit","Chrome","112.0.0.0","Windows","10.0","262","<p>As the military commander, you could choose to launch a missile to kill <strong>4 enemy soldiers</strong> , but would accidentally kill <strong>1 enemy civilian</strong> nearby.</p> <p>The photo of the <strong>enemy civilian</strong> is shown below.</p> <p></p> <img src='stimuli/faces/PCM5.jpg', style='max-width: 30%;'> </img> <p><strong>Would you launch the weapon?</strong></p>","0",""
"","","","","","html-keyboard-response","121","125259","0.0-3.0-0.59","13","1","2023-06-20 00:48:35","846205d480aaa49f22c83d5c8cececc8","139.171.225.136","Mozilla/5.0 (Windows NT 10.0; Win64; x64) AppleWebKit/537.36 (KHTML, like Gecko) Chrome/112.0.0.0 Safari/537.36","WebKit","Chrome","112.0.0.0","Windows","10.0","null","<div style=""font-size:60px;"">+</div>","null",""
"","","","","","html-button-response","122","125862","0.0-3.0-1.59","13","1","2023-06-20 00:48:35","846205d480aaa49f22c83d5c8cececc8","139.171.225.136","Mozilla/5.0 (Windows NT 10.0; Win64; x64) AppleWebKit/537.36 (KHTML, like Gecko) Chrome/112.0.0.0 Safari/537.36","WebKit","Chrome","112.0.0.0","Windows","10.0","592","<p>As the military commander, you could choose to launch a missile to kill <strong>7 enemy soldiers</strong> , but would accidentally kill <strong>1 enemy civilian</strong> nearby.</p> <p>The photo of the <strong>enemy civilian</strong> is shown below.</p> <p></p> <img src='stimuli/faces/PCM3.jpg', style='max-width: 30%;'> </img> <p><strong>Would you launch the weapon?</strong></p>","0",""
"","","","","","html-keyboard-response","123","126873","0.0-3.0-0.60","13","1","2023-06-20 00:48:35","846205d480aaa49f22c83d5c8cececc8","139.171.225.136","Mozilla/5.0 (Windows NT 10.0; Win64; x64) AppleWebKit/537.36 (KHTML, like Gecko) Chrome/112.0.0.0 Safari/537.36","WebKit","Chrome","112.0.0.0","Windows","10.0","null","<div style=""font-size:60px;"">+</div>","null",""
"","","","","","html-button-response","124","127320","0.0-3.0-1.60","13","1","2023-06-20 00:48:35","846205d480aaa49f22c83d5c8cececc8","139.171.225.136","Mozilla/5.0 (Windows NT 10.0; Win64; x64) AppleWebKit/537.36 (KHTML, like Gecko) Chrome/112.0.0.0 Safari/537.36","WebKit","Chrome","112.0.0.0","Windows","10.0","437","<p>As the military commander, you could choose to launch a missile to kill <strong>7 enemy soldiers</strong> , but would accidentally kill <strong>1 enemy tree</strong> nearby.</p> <p>The photo of the <strong>enemy tree</strong> is shown below.</p> <p></p> <img src='stimuli/tree/10.png', style='max-width: 30%;'> </img> <p><strong>Would you launch the weapon?</strong></p>","0",""
"","","","","","html-keyboard-response","125","128333","0.0-3.0-0.61","13","1","2023-06-20 00:48:35","846205d480aaa49f22c83d5c8cececc8","139.171.225.136","Mozilla/5.0 (Windows NT 10.0; Win64; x64) AppleWebKit/537.36 (KHTML, like Gecko) Chrome/112.0.0.0 Safari/537.36","WebKit","Chrome","112.0.0.0","Windows","10.0","null","<div style=""font-size:60px;"">+</div>","null",""
"","","","","","html-button-response","126","128870","0.0-3.0-1.61","13","1","2023-06-20 00:48:35","846205d480aaa49f22c83d5c8cececc8","139.171.225.136","Mozilla/5.0 (Windows NT 10.0; Win64; x64) AppleWebKit/537.36 (KHTML, like Gecko) Chrome/112.0.0.0 Safari/537.36","WebKit","Chrome","112.0.0.0","Windows","10.0","532","<p>As the military commander, you could choose to launch a missile to kill <strong>6 enemy soldiers</strong> , but would accidentally kill <strong>1 enemy tree</strong> nearby.</p> <p>The photo of the <strong>enemy tree</strong> is shown below.</p> <p></p> <img src='stimuli/tree/8.png', style='max-width: 30%;'> </img> <p><strong>Would you launch the weapon?</strong></p>","0",""
"","","","","","html-keyboard-response","127","129881","0.0-3.0-0.62","13","1","2023-06-20 00:48:35","846205d480aaa49f22c83d5c8cececc8","139.171.225.136","Mozilla/5.0 (Windows NT 10.0; Win64; x64) AppleWebKit/537.36 (KHTML, like Gecko) Chrome/112.0.0.0 Safari/537.36","WebKit","Chrome","112.0.0.0","Windows","10.0","null","<div style=""font-size:60px;"">+</div>","null",""
"","","","","","html-button-response","128","130085","0.0-3.0-1.62","13","1","2023-06-20 00:48:35","846205d480aaa49f22c83d5c8cececc8","139.171.225.136","Mozilla/5.0 (Windows NT 10.0; Win64; x64) AppleWebKit/537.36 (KHTML, like Gecko) Chrome/112.0.0.0 Safari/537.36","WebKit","Chrome","112.0.0.0","Windows","10.0","190","<p>As the military commander, you could choose to launch a missile to kill <strong>3 enemy soldiers</strong> , but would accidentally kill <strong>1 enemy civilian</strong> nearby.</p> <p>The photo of the <strong>enemy civilian</strong> is shown below.</p> <p></p> <img src='stimuli/faces/PCF5.jpg', style='max-width: 30%;'> </img> <p><strong>Would you launch the weapon?</strong></p>","0",""
"","","","","","html-keyboard-response","129","131097","0.0-3.0-0.63","13","1","2023-06-20 00:48:35","846205d480aaa49f22c83d5c8cececc8","139.171.225.136","Mozilla/5.0 (Windows NT 10.0; Win64; x64) AppleWebKit/537.36 (KHTML, like Gecko) Chrome/112.0.0.0 Safari/537.36","WebKit","Chrome","112.0.0.0","Windows","10.0","null","<div style=""font-size:60px;"">+</div>","null",""
"","","","","","html-button-response","130","131649","0.0-3.0-1.63","13","1","2023-06-20 00:48:35","846205d480aaa49f22c83d5c8cececc8","139.171.225.136","Mozilla/5.0 (Windows NT 10.0; Win64; x64) AppleWebKit/537.36 (KHTML, like Gecko) Chrome/112.0.0.0 Safari/537.36","WebKit","Chrome","112.0.0.0","Windows","10.0","548","<p>As the military commander, you could choose to launch a missile to kill <strong>10 enemy soldiers</strong> , but would accidentally kill <strong>1 enemy tree</strong> nearby.</p> <p>The photo of the <strong>enemy tree</strong> is shown below.</p> <p></p> <img src='stimuli/tree/15.png', style='max-width: 30%;'> </img> <p><strong>Would you launch the weapon?</strong></p>","0",""
"","","","","","survey-multi-choice","131","144089","0.0-4.0","13","1","2023-06-20 00:48:35","846205d480aaa49f22c83d5c8cececc8","139.171.225.136","Mozilla/5.0 (Windows NT 10.0; Win64; x64) AppleWebKit/537.36 (KHTML, like Gecko) Chrome/112.0.0.0 Safari/537.36","WebKit","Chrome","112.0.0.0","Windows","10.0","12433","","{""Attention1"":""""}","[0]"
"","","","","","html-button-response","132","145575","0.0-5.0","13","1","2023-06-20 00:48:35","846205d480aaa49f22c83d5c8cececc8","139.171.225.136","Mozilla/5.0 (Windows NT 10.0; Win64; x64) AppleWebKit/537.36 (KHTML, like Gecko) Chrome/112.0.0.0 Safari/537.36","WebKit","Chrome","112.0.0.0","Windows","10.0","1472","<p style=""font-size:20px;font-weight:bold;"">Great!</p><p>You have finished the first part of the experiment!</p><p>Please relax a little bit and then contine to answer some questions regarding yourself.</p><p>The next part will take around 10 minutes to complete.</p>","0",""
"","","","","","survey-text","133","355950","0.0-6.0","13","1","2023-06-20 00:48:35","846205d480aaa49f22c83d5c8cececc8","139.171.225.136","Mozilla/5.0 (Windows NT 10.0; Win64; x64) AppleWebKit/537.36 (KHTML, like Gecko) Chrome/112.0.0.0 Safari/537.36","WebKit","Chrome","112.0.0.0","Windows","10.0","209351","","{""Age"":""25"",""Nation"":""health care"",""Born"":""usa"",""Live"":""alaska""}",""
"","","","","","survey-multi-choice","134","371167","0.0-7.0","13","1","2023-06-20 00:48:35","846205d480aaa49f22c83d5c8cececc8","139.171.225.136","Mozilla/5.0 (Windows NT 10.0; Win64; x64) AppleWebKit/537.36 (KHTML, like Gecko) Chrome/112.0.0.0 Safari/537.36","WebKit","Chrome","112.0.0.0","Windows","10.0","15207","","{""Gender"":""Female"",""Education"":""Advanced Degree"",""Income"":""$20,000 - $39,999"",""Children"":""1"",""Ethnicity"":""White""}","[0,1,2,3,4]"
"","","","","","survey-multi-select","135","383422","0.0-8.0","13","1","2023-06-20 00:48:35","846205d480aaa49f22c83d5c8cececc8","139.171.225.136","Mozilla/5.0 (Windows NT 10.0; Win64; x64) AppleWebKit/537.36 (KHTML, like Gecko) Chrome/112.0.0.0 Safari/537.36","WebKit","Chrome","112.0.0.0","Windows","10.0","12239","","{""Marriage"":[""Married""],""Religion"":[""Christian""]}","[0,1]"
"","","","","","survey-multi-choice","136","387692","0.0-9.0","13","1","2023-06-20 00:48:35","846205d480aaa49f22c83d5c8cececc8","139.171.225.136","Mozilla/5.0 (Windows NT 10.0; Win64; x64) AppleWebKit/537.36 (KHTML, like Gecko) Chrome/112.0.0.0 Safari/537.36","WebKit","Chrome","112.0.0.0","Windows","10.0","4259","","{""SES"":""9""}","[0]"
"","","","","","html-button-response","137","388896","0.0-10.0","13","1","2023-06-20 00:48:35","846205d480aaa49f22c83d5c8cececc8","139.171.225.136","Mozilla/5.0 (Windows NT 10.0; Win64; x64) AppleWebKit/537.36 (KHTML, like Gecko) Chrome/112.0.0.0 Safari/537.36","WebKit","Chrome","112.0.0.0","Windows","10.0","1196","<p><strong>Please indicate the extent that the following statements could describe you.</p><p> (1 = ""extremely uncharacteristic of me"" to 5 = ""extremely characteristic of me"".)</strong></p>","0",""
"","","","","","survey-likert","138","400210","0.0-11.0","13","1","2023-06-20 00:48:35","846205d480aaa49f22c83d5c8cececc8","139.171.225.136","Mozilla/5.0 (Windows NT 10.0; Win64; x64) AppleWebKit/537.36 (KHTML, like Gecko) Chrome/112.0.0.0 Safari/537.36","WebKit","Chrome","112.0.0.0","Windows","10.0","11305","","{""Aggression1"":2,""Aggression2"":3,""Aggression3"":3,""Aggression4"":2,""Aggression5"":4,""Aggression6"":3,""Aggression7"":0,""Aggression8"":4,""Aggression9"":3}","[0,1,2,3,4,5,6,7,8]"
"","","","","","html-button-response","139","402068","0.0-12.0","13","1","2023-06-20 00:48:35","846205d480aaa49f22c83d5c8cececc8","139.171.225.136","Mozilla/5.0 (Windows NT 10.0; Win64; x64) AppleWebKit/537.36 (KHTML, like Gecko) Chrome/112.0.0.0 Safari/537.36","WebKit","Chrome","112.0.0.0","Windows","10.0","1848","<p><strong>Please indicate the extent that the following statements could describe you. </strong></p><p><strong> (1 = ""Does not describe me well"" to 5 = ""Does decribe me well"".)</strong></p>","0",""
"","","","","","survey-likert","140","424956","0.0-13.0","13","1","2023-06-20 00:48:35","846205d480aaa49f22c83d5c8cececc8","139.171.225.136","Mozilla/5.0 (Windows NT 10.0; Win64; x64) AppleWebKit/537.36 (KHTML, like Gecko) Chrome/112.0.0.0 Safari/537.36","WebKit","Chrome","112.0.0.0","Windows","10.0","22875","","{""pts4"":2,""ecs1"":2,""fs2"":2,""ecs5"":2,""ecs2"":2,""fs4"":3,""ecs7"":3,""pts5"":2,""pts6"":2,""pds3"":2,""pds4"":0,""pts1"":4,""pds1"":3,""pts3"":2,""pts7"":1,""ecs6"":4,""fs1"":3,""pds6"":4,""ecs4"":4,""pds7"":4,""pds2"":3,""ecs3"":2,""fs7"":4,""fs6"":2,""fs5"":3,""pds5"":2,""fs3"":2,""pts2"":3}","[14,1,4,17,3,11,21,20,24,12,16,2,5,10,27,19,0,23,13,26,9,8,25,22,15,18,6,7]"
"","","","","","html-button-response","141","426290","0.0-14.0","13","1","2023-06-20 00:48:35","846205d480aaa49f22c83d5c8cececc8","139.171.225.136","Mozilla/5.0 (Windows NT 10.0; Win64; x64) AppleWebKit/537.36 (KHTML, like Gecko) Chrome/112.0.0.0 Safari/537.36","WebKit","Chrome","112.0.0.0","Windows","10.0","1322","<p><strong>Which of the following objects or statements do you have a positive or negative feeling towards? </strong></p><p><strong> (1 = ""Very negative"" to 7 = ""Very positive"") </strong></p>","0",""
"","","","","","survey-likert","142","447031","0.0-15.0","13","1","2023-06-20 00:48:35","846205d480aaa49f22c83d5c8cececc8","139.171.225.136","Mozilla/5.0 (Windows NT 10.0; Win64; x64) AppleWebKit/537.36 (KHTML, like Gecko) Chrome/112.0.0.0 Safari/537.36","WebKit","Chrome","112.0.0.0","Windows","10.0","20731","","{""sdo14"":2,""sdo9"":5,""sdo6"":2,""sdo13"":4,""sdo10"":5,""sdo16"":5,""sdo15"":4,""sdo3"":5,""sdo2"":4,""sdo5"":4,""sdo8"":4,""sdo12"":5,""sdo1"":4,""sdo11"":4,""sdo7"":4,""sdo4"":5}","[13,8,5,12,9,15,14,2,1,4,7,11,0,10,6,3]"
"","","","","","html-button-response","143","448136","0.0-16.0","13","1","2023-06-20 00:48:35","846205d480aaa49f22c83d5c8cececc8","139.171.225.136","Mozilla/5.0 (Windows NT 10.0; Win64; x64) AppleWebKit/537.36 (KHTML, like Gecko) Chrome/112.0.0.0 Safari/537.36","WebKit","Chrome","112.0.0.0","Windows","10.0","1091","<p><strong>Please indicate the extent you agree with the following statements.</strong></p><strong><p> (1 = ""Strongly Disagree"" to 5 = ""Srongly Agree"") </strong></p>","0",""
"","","","","","survey-likert","144","459145","0.0-17.0","13","1","2023-06-20 00:48:35","846205d480aaa49f22c83d5c8cececc8","139.171.225.136","Mozilla/5.0 (Windows NT 10.0; Win64; x64) AppleWebKit/537.36 (KHTML, like Gecko) Chrome/112.0.0.0 Safari/537.36","WebKit","Chrome","112.0.0.0","Windows","10.0","11000","","{""caring1"":2,""liking1"":3,""caring2"":3,""protection1"":3,""liking2"":1,""caring3"":2,""protection2"":3,""liking3"":2,""protection3"":3,""caring4"":3,""liking4"":2,""protection4"":1,""caring5"":2,""liking5"":2,""protection5"":4}","[0,1,2,3,4,5,6,7,8,9,10,11,12,13,14]"
"","","","","","html-button-response","145","460388","0.0-18.0","13","1","2023-06-20 00:48:35","846205d480aaa49f22c83d5c8cececc8","139.171.225.136","Mozilla/5.0 (Windows NT 10.0; Win64; x64) AppleWebKit/537.36 (KHTML, like Gecko) Chrome/112.0.0.0 Safari/537.36","WebKit","Chrome","112.0.0.0","Windows","10.0","1228","<p><strong>Please imagine spercific situations involving children below, and rate the amount of tenderness you would feel in each situation. </strong></p><p><strong> (Ternderness is ""a warm, gentle feeling of sympathetic affection."") </strong></p><strong><p> (1 = ""No tenderness at all"" to 5 = ""A lot of tenderness"") </strong></p>","0",""
"","","","","","survey-likert","146","468048","0.0-19.0","13","1","2023-06-20 00:48:35","846205d480aaa49f22c83d5c8cececc8","139.171.225.136","Mozilla/5.0 (Windows NT 10.0; Win64; x64) AppleWebKit/537.36 (KHTML, like Gecko) Chrome/112.0.0.0 Safari/537.36","WebKit","Chrome","112.0.0.0","Windows","10.0","7648","","{""tenderness-positive1"":2,""tenderness-negative1"":4,""tenderness-negative2"":2,""tenderness-positive2"":3,""tenderness-positive3"":2,""tenderness-negative3"":3,""tenderness-positive4"":2,""tendereness-negative4"":3,""tendernness-negative5"":4,""tenderness-positive5"":1}","[0,1,2,3,4,5,6,7,8,9]"
"","","","","","survey-multi-choice","147","475141","0.0-20.0","13","1","2023-06-20 00:48:35","846205d480aaa49f22c83d5c8cececc8","139.171.225.136","Mozilla/5.0 (Windows NT 10.0; Win64; x64) AppleWebKit/537.36 (KHTML, like Gecko) Chrome/112.0.0.0 Safari/537.36","WebKit","Chrome","112.0.0.0","Windows","10.0","7083","","{""Attention2"":""Other""}","[0]"
"","","","","","html-button-response","148","476579","0.0-21.0","13","1","2023-06-20 00:48:35","846205d480aaa49f22c83d5c8cececc8","139.171.225.136","Mozilla/5.0 (Windows NT 10.0; Win64; x64) AppleWebKit/537.36 (KHTML, like Gecko) Chrome/112.0.0.0 Safari/537.36","WebKit","Chrome","112.0.0.0","Windows","10.0","1421","<p><strong>Please indicate the extent you agree with the following statements.</strong></p>","0",""
"","","","","","survey-likert","149","491362","0.0-22.0","13","1","2023-06-20 00:48:35","846205d480aaa49f22c83d5c8cececc8","139.171.225.136","Mozilla/5.0 (Windows NT 10.0; Win64; x64) AppleWebKit/537.36 (KHTML, like Gecko) Chrome/112.0.0.0 Safari/537.36","WebKit","Chrome","112.0.0.0","Windows","10.0","14775","","{""Nation4"":1,""Nation7"":4,""Patri3"":1,""Patri7"":3,""Patri9"":2,""Nation8"":4,""Patri11"":3,""Patri2"":4,""Patri5"":1,""Nation1"":4,""Patri1"":4,""Nation2"":0,""Patri10"":1,""Nation3"":4,""Patri12"":3,""Patri6"":3,""Nation5"":4,""Patri8"":2,""Nation6"":0,""Patri4"":1}","[15,18,2,6,8,19,10,1,4,12,0,13,9,14,11,5,16,7,17,3]"
"","","","","","html-button-response","150","492506","0.0-23.0","13","1","2023-06-20 00:48:35","846205d480aaa49f22c83d5c8cececc8","139.171.225.136","Mozilla/5.0 (Windows NT 10.0; Win64; x64) AppleWebKit/537.36 (KHTML, like Gecko) Chrome/112.0.0.0 Safari/537.36","WebKit","Chrome","112.0.0.0","Windows","10.0","1133","<p><strong>Please indicate the extent you agree with the following statements. </p><p>(1 = ""never or definitely no"" and 9 = ""always or definitely yes"".)</strong></p>","0",""
"","","","","","survey-likert","151","505455","0.0-24.0","13","1","2023-06-20 00:48:35","846205d480aaa49f22c83d5c8cececc8","139.171.225.136","Mozilla/5.0 (Windows NT 10.0; Win64; x64) AppleWebKit/537.36 (KHTML, like Gecko) Chrome/112.0.0.0 Safari/537.36","WebKit","Chrome","112.0.0.0","Windows","10.0","12936","","{""vi1"":6,""vc2"":7,""Robot2"":6,""vc3"":6,""hc2"":7,""hi3"":8,""vi3"":6,""hi4"":6,""vc4"":6,""vc1"":8,""hc1"":7,""hc3"":7,""hi1"":7,""hc4"":8,""vi4"":7,""vi2"":8,""hi2"":6}","[4,14,7,15,10,2,6,3,16,13,9,11,0,12,8,5,1]"
"","","","","","survey-text","152","526334","0.0-25.0","13","1","2023-06-20 00:48:35","846205d480aaa49f22c83d5c8cececc8","139.171.225.136","Mozilla/5.0 (Windows NT 10.0; Win64; x64) AppleWebKit/537.36 (KHTML, like Gecko) Chrome/112.0.0.0 Safari/537.36","WebKit","Chrome","112.0.0.0","Windows","10.0","20848","","{""ID"":""A3FDNISG0ENQEB"",""Comments"":""good one survey""}",""
"","","","","","html-button-response","153","3679682","0.0-26.0","13","1","2023-06-20 00:48:35","846205d480aaa49f22c83d5c8cececc8","139.171.225.136","Mozilla/5.0 (Windows NT 10.0; Win64; x64) AppleWebKit/537.36 (KHTML, like Gecko) Chrome/112.0.0.0 Safari/537.36","WebKit","Chrome","112.0.0.0","Windows","10.0","3153342","<p><strong>Congratulations! </strong> Your have finished all the survey. Thank you for your participation!</p><p><strong>Here is your complete token:</strong></p>sswd20xkw9ahxcl3u0p1pqik<p></p><p><strong>Please copy it to the mTurk page.</strong></p>","0",""
