"success","timeout","failed_images","failed_audio","failed_video","trial_type","trial_index","time_elapsed","internal_node_id","run_id","condition","recorded_at","source_code_version","ip","user_agent","device","browser","browser_version","platform","platform_version","rt","stimulus","response","question_order"
"true","false","[]","[]","[]","preload","0","356","0.0-0.0","15","1","2023-06-09 15:38:39","846205d480aaa49f22c83d5c8cececc8","104.218.199.20","Mozilla/5.0 (Windows NT 10.0; Win64; x64) AppleWebKit/537.36 (KHTML, like Gecko) Chrome/116.0.0.0 Safari/537.36","WebKit","Chrome","116.0.0.0","Windows","10.0","","","",""
"true","","","","","fullscreen","1","13839","0.0-1.0","15","1","2023-06-09 15:38:39","846205d480aaa49f22c83d5c8cececc8","104.218.199.20","Mozilla/5.0 (Windows NT 10.0; Win64; x64) AppleWebKit/537.36 (KHTML, like Gecko) Chrome/116.0.0.0 Safari/537.36","WebKit","Chrome","116.0.0.0","Windows","10.0","","","",""
"","","","","","html-button-response","2","73313","0.0-2.0","15","1","2023-06-09 15:38:39","846205d480aaa49f22c83d5c8cececc8","104.218.199.20","Mozilla/5.0 (Windows NT 10.0; Win64; x64) AppleWebKit/537.36 (KHTML, like Gecko) Chrome/116.0.0.0 Safari/537.36","WebKit","Chrome","116.0.0.0","Windows","10.0","59468","<p ><strong>Welcome to the experiment!</strong></p><p ><strong>In the first task, please imagine:</strong></p><p>Your country is involved in a military conflict with another country.</p><p>You are the commander of your army and must make decisions in the conflict.</p><p>Specifically, as the military commander, you must decide whether to launch a missile to strike enemy.</p><p>You will face a series of scenarios. Please read each scenario carefully and make a decision.</p><p>The task will take around 10 minutes to complete.</p><p><strong>Please pay your attention during the experiment.</strong></p>","0",""
"","","","","","html-keyboard-response","3","74316","0.0-3.0-0.0","15","1","2023-06-09 15:38:39","846205d480aaa49f22c83d5c8cececc8","104.218.199.20","Mozilla/5.0 (Windows NT 10.0; Win64; x64) AppleWebKit/537.36 (KHTML, like Gecko) Chrome/116.0.0.0 Safari/537.36","WebKit","Chrome","116.0.0.0","Windows","10.0","null","<div style=""font-size:60px;"">+</div>","null",""
"","","","","","html-button-response","4","153453","0.0-3.0-1.0","15","1","2023-06-09 15:38:39","846205d480aaa49f22c83d5c8cececc8","104.218.199.20","Mozilla/5.0 (Windows NT 10.0; Win64; x64) AppleWebKit/537.36 (KHTML, like Gecko) Chrome/116.0.0.0 Safari/537.36","WebKit","Chrome","116.0.0.0","Windows","10.0","79134","<p>As the military commander, you could choose to launch a missile to kill <strong>9 enemy soldiers</strong> , but would accidentally kill <strong>1 enemy tree</strong> nearby.</p> <p>The photo of the <strong>enemy tree</strong> is shown below.</p> <p></p> <img src='stimuli/tree/10.png', style='max-width: 30%;'> </img> <p><strong>Would you launch the weapon?</strong></p>","0",""
"","","","","","html-keyboard-response","5","154458","0.0-3.0-0.1","15","1","2023-06-09 15:38:39","846205d480aaa49f22c83d5c8cececc8","104.218.199.20","Mozilla/5.0 (Windows NT 10.0; Win64; x64) AppleWebKit/537.36 (KHTML, like Gecko) Chrome/116.0.0.0 Safari/537.36","WebKit","Chrome","116.0.0.0","Windows","10.0","null","<div style=""font-size:60px;"">+</div>","null",""
"","","","","","html-button-response","6","178196","0.0-3.0-1.1","15","1","2023-06-09 15:38:39","846205d480aaa49f22c83d5c8cececc8","104.218.199.20","Mozilla/5.0 (Windows NT 10.0; Win64; x64) AppleWebKit/537.36 (KHTML, like Gecko) Chrome/116.0.0.0 Safari/537.36","WebKit","Chrome","116.0.0.0","Windows","10.0","23736","<p>As the military commander, you could choose to launch a missile to kill <strong>9 enemy soldiers</strong> , but would accidentally kill <strong>1 enemy civilian</strong> nearby.</p> <p>The photo of the <strong>enemy civilian</strong> is shown below.</p> <p></p> <img src='stimuli/faces/PCF6.jpg', style='max-width: 30%;'> </img> <p><strong>Would you launch the weapon?</strong></p>","0",""
"","","","","","html-keyboard-response","7","179198","0.0-3.0-0.2","15","1","2023-06-09 15:38:39","846205d480aaa49f22c83d5c8cececc8","104.218.199.20","Mozilla/5.0 (Windows NT 10.0; Win64; x64) AppleWebKit/537.36 (KHTML, like Gecko) Chrome/116.0.0.0 Safari/537.36","WebKit","Chrome","116.0.0.0","Windows","10.0","null","<div style=""font-size:60px;"">+</div>","null",""
"","","","","","html-button-response","8","187132","0.0-3.0-1.2","15","1","2023-06-09 15:38:39","846205d480aaa49f22c83d5c8cececc8","104.218.199.20","Mozilla/5.0 (Windows NT 10.0; Win64; x64) AppleWebKit/537.36 (KHTML, like Gecko) Chrome/116.0.0.0 Safari/537.36","WebKit","Chrome","116.0.0.0","Windows","10.0","7932","<p>As the military commander, you could choose to launch a missile to kill <strong>7 enemy soldiers</strong> , but would accidentally kill <strong>1 enemy tree</strong> nearby.</p> <p>The photo of the <strong>enemy tree</strong> is shown below.</p> <p></p> <img src='stimuli/tree/1.png', style='max-width: 30%;'> </img> <p><strong>Would you launch the weapon?</strong></p>","0",""
"","","","","","html-keyboard-response","9","188135","0.0-3.0-0.3","15","1","2023-06-09 15:38:39","846205d480aaa49f22c83d5c8cececc8","104.218.199.20","Mozilla/5.0 (Windows NT 10.0; Win64; x64) AppleWebKit/537.36 (KHTML, like Gecko) Chrome/116.0.0.0 Safari/537.36","WebKit","Chrome","116.0.0.0","Windows","10.0","null","<div style=""font-size:60px;"">+</div>","null",""
"","","","","","html-button-response","10","192972","0.0-3.0-1.3","15","1","2023-06-09 15:38:39","846205d480aaa49f22c83d5c8cececc8","104.218.199.20","Mozilla/5.0 (Windows NT 10.0; Win64; x64) AppleWebKit/537.36 (KHTML, like Gecko) Chrome/116.0.0.0 Safari/537.36","WebKit","Chrome","116.0.0.0","Windows","10.0","4834","<p>As the military commander, you could choose to launch a missile to kill <strong>2 enemy soldiers</strong> , but would accidentally kill <strong>1 enemy civilian</strong> nearby.</p> <p>The photo of the <strong>enemy civilian</strong> is shown below.</p> <p></p> <img src='stimuli/faces/PCF4.jpg', style='max-width: 30%;'> </img> <p><strong>Would you launch the weapon?</strong></p>","1",""
"","","","","","html-keyboard-response","11","193974","0.0-3.0-0.4","15","1","2023-06-09 15:38:39","846205d480aaa49f22c83d5c8cececc8","104.218.199.20","Mozilla/5.0 (Windows NT 10.0; Win64; x64) AppleWebKit/537.36 (KHTML, like Gecko) Chrome/116.0.0.0 Safari/537.36","WebKit","Chrome","116.0.0.0","Windows","10.0","null","<div style=""font-size:60px;"">+</div>","null",""
"","","","","","html-button-response","12","199941","0.0-3.0-1.4","15","1","2023-06-09 15:38:39","846205d480aaa49f22c83d5c8cececc8","104.218.199.20","Mozilla/5.0 (Windows NT 10.0; Win64; x64) AppleWebKit/537.36 (KHTML, like Gecko) Chrome/116.0.0.0 Safari/537.36","WebKit","Chrome","116.0.0.0","Windows","10.0","5964","<p>As the military commander, you could choose to launch a missile to kill <strong>5 enemy soldiers</strong> , but would accidentally kill <strong>1 enemy tree</strong> nearby.</p> <p>The photo of the <strong>enemy tree</strong> is shown below.</p> <p></p> <img src='stimuli/tree/4.png', style='max-width: 30%;'> </img> <p><strong>Would you launch the weapon?</strong></p>","0",""
"","","","","","html-keyboard-response","13","200942","0.0-3.0-0.5","15","1","2023-06-09 15:38:39","846205d480aaa49f22c83d5c8cececc8","104.218.199.20","Mozilla/5.0 (Windows NT 10.0; Win64; x64) AppleWebKit/537.36 (KHTML, like Gecko) Chrome/116.0.0.0 Safari/537.36","WebKit","Chrome","116.0.0.0","Windows","10.0","null","<div style=""font-size:60px;"">+</div>","null",""
"","","","","","html-button-response","14","204932","0.0-3.0-1.5","15","1","2023-06-09 15:38:39","846205d480aaa49f22c83d5c8cececc8","104.218.199.20","Mozilla/5.0 (Windows NT 10.0; Win64; x64) AppleWebKit/537.36 (KHTML, like Gecko) Chrome/116.0.0.0 Safari/537.36","WebKit","Chrome","116.0.0.0","Windows","10.0","3988","<p>As the military commander, you could choose to launch a missile to kill <strong>9 enemy soldiers</strong> , but would accidentally kill <strong>1 enemy tree</strong> nearby.</p> <p>The photo of the <strong>enemy tree</strong> is shown below.</p> <p></p> <img src='stimuli/tree/7.png', style='max-width: 30%;'> </img> <p><strong>Would you launch the weapon?</strong></p>","0",""
"","","","","","html-keyboard-response","15","205934","0.0-3.0-0.6","15","1","2023-06-09 15:38:39","846205d480aaa49f22c83d5c8cececc8","104.218.199.20","Mozilla/5.0 (Windows NT 10.0; Win64; x64) AppleWebKit/537.36 (KHTML, like Gecko) Chrome/116.0.0.0 Safari/537.36","WebKit","Chrome","116.0.0.0","Windows","10.0","null","<div style=""font-size:60px;"">+</div>","null",""
"","","","","","html-button-response","16","211045","0.0-3.0-1.6","15","1","2023-06-09 15:38:39","846205d480aaa49f22c83d5c8cececc8","104.218.199.20","Mozilla/5.0 (Windows NT 10.0; Win64; x64) AppleWebKit/537.36 (KHTML, like Gecko) Chrome/116.0.0.0 Safari/537.36","WebKit","Chrome","116.0.0.0","Windows","10.0","5108","<p>As the military commander, you could choose to launch a missile to kill <strong>2 enemy soldiers</strong> , but would accidentally kill <strong>1 enemy civilian</strong> nearby.</p> <p>The photo of the <strong>enemy civilian</strong> is shown below.</p> <p></p> <img src='stimuli/faces/PCF8.jpg', style='max-width: 30%;'> </img> <p><strong>Would you launch the weapon?</strong></p>","1",""
"","","","","","html-keyboard-response","17","212048","0.0-3.0-0.7","15","1","2023-06-09 15:38:39","846205d480aaa49f22c83d5c8cececc8","104.218.199.20","Mozilla/5.0 (Windows NT 10.0; Win64; x64) AppleWebKit/537.36 (KHTML, like Gecko) Chrome/116.0.0.0 Safari/537.36","WebKit","Chrome","116.0.0.0","Windows","10.0","null","<div style=""font-size:60px;"">+</div>","null",""
"","","","","","html-button-response","18","215781","0.0-3.0-1.7","15","1","2023-06-09 15:38:39","846205d480aaa49f22c83d5c8cececc8","104.218.199.20","Mozilla/5.0 (Windows NT 10.0; Win64; x64) AppleWebKit/537.36 (KHTML, like Gecko) Chrome/116.0.0.0 Safari/537.36","WebKit","Chrome","116.0.0.0","Windows","10.0","3730","<p>As the military commander, you could choose to launch a missile to kill <strong>5 enemy soldiers</strong> , but would accidentally kill <strong>1 enemy civilian</strong> nearby.</p> <p>The photo of the <strong>enemy civilian</strong> is shown below.</p> <p></p> <img src='stimuli/faces/PCM7.jpg', style='max-width: 30%;'> </img> <p><strong>Would you launch the weapon?</strong></p>","0",""
"","","","","","html-keyboard-response","19","216784","0.0-3.0-0.8","15","1","2023-06-09 15:38:39","846205d480aaa49f22c83d5c8cececc8","104.218.199.20","Mozilla/5.0 (Windows NT 10.0; Win64; x64) AppleWebKit/537.36 (KHTML, like Gecko) Chrome/116.0.0.0 Safari/537.36","WebKit","Chrome","116.0.0.0","Windows","10.0","null","<div style=""font-size:60px;"">+</div>","null",""
"","","","","","html-button-response","20","222716","0.0-3.0-1.8","15","1","2023-06-09 15:38:39","846205d480aaa49f22c83d5c8cececc8","104.218.199.20","Mozilla/5.0 (Windows NT 10.0; Win64; x64) AppleWebKit/537.36 (KHTML, like Gecko) Chrome/116.0.0.0 Safari/537.36","WebKit","Chrome","116.0.0.0","Windows","10.0","5929","<p>As the military commander, you could choose to launch a missile to kill <strong>4 enemy soldiers</strong> , but would accidentally kill <strong>1 enemy civilian</strong> nearby.</p> <p>The photo of the <strong>enemy civilian</strong> is shown below.</p> <p></p> <img src='stimuli/faces/PCF3.jpg', style='max-width: 30%;'> </img> <p><strong>Would you launch the weapon?</strong></p>","1",""
"","","","","","html-keyboard-response","21","223720","0.0-3.0-0.9","15","1","2023-06-09 15:38:39","846205d480aaa49f22c83d5c8cececc8","104.218.199.20","Mozilla/5.0 (Windows NT 10.0; Win64; x64) AppleWebKit/537.36 (KHTML, like Gecko) Chrome/116.0.0.0 Safari/537.36","WebKit","Chrome","116.0.0.0","Windows","10.0","null","<div style=""font-size:60px;"">+</div>","null",""
"","","","","","html-button-response","22","227244","0.0-3.0-1.9","15","1","2023-06-09 15:38:39","846205d480aaa49f22c83d5c8cececc8","104.218.199.20","Mozilla/5.0 (Windows NT 10.0; Win64; x64) AppleWebKit/537.36 (KHTML, like Gecko) Chrome/116.0.0.0 Safari/537.36","WebKit","Chrome","116.0.0.0","Windows","10.0","3521","<p>As the military commander, you could choose to launch a missile to kill <strong>3 enemy soldiers</strong> , but would accidentally kill <strong>1 enemy tree</strong> nearby.</p> <p>The photo of the <strong>enemy tree</strong> is shown below.</p> <p></p> <img src='stimuli/tree/15.png', style='max-width: 30%;'> </img> <p><strong>Would you launch the weapon?</strong></p>","0",""
"","","","","","html-keyboard-response","23","228246","0.0-3.0-0.10","15","1","2023-06-09 15:38:39","846205d480aaa49f22c83d5c8cececc8","104.218.199.20","Mozilla/5.0 (Windows NT 10.0; Win64; x64) AppleWebKit/537.36 (KHTML, like Gecko) Chrome/116.0.0.0 Safari/537.36","WebKit","Chrome","116.0.0.0","Windows","10.0","null","<div style=""font-size:60px;"">+</div>","null",""
"","","","","","html-button-response","24","231675","0.0-3.0-1.10","15","1","2023-06-09 15:38:39","846205d480aaa49f22c83d5c8cececc8","104.218.199.20","Mozilla/5.0 (Windows NT 10.0; Win64; x64) AppleWebKit/537.36 (KHTML, like Gecko) Chrome/116.0.0.0 Safari/537.36","WebKit","Chrome","116.0.0.0","Windows","10.0","3426","<p>As the military commander, you could choose to launch a missile to kill <strong>5 enemy soldiers</strong> , but would accidentally kill <strong>1 enemy civilian</strong> nearby.</p> <p>The photo of the <strong>enemy civilian</strong> is shown below.</p> <p></p> <img src='stimuli/faces/PCM5.jpg', style='max-width: 30%;'> </img> <p><strong>Would you launch the weapon?</strong></p>","0",""
"","","","","","html-keyboard-response","25","232677","0.0-3.0-0.11","15","1","2023-06-09 15:38:39","846205d480aaa49f22c83d5c8cececc8","104.218.199.20","Mozilla/5.0 (Windows NT 10.0; Win64; x64) AppleWebKit/537.36 (KHTML, like Gecko) Chrome/116.0.0.0 Safari/537.36","WebKit","Chrome","116.0.0.0","Windows","10.0","null","<div style=""font-size:60px;"">+</div>","null",""
"","","","","","html-button-response","26","235108","0.0-3.0-1.11","15","1","2023-06-09 15:38:39","846205d480aaa49f22c83d5c8cececc8","104.218.199.20","Mozilla/5.0 (Windows NT 10.0; Win64; x64) AppleWebKit/537.36 (KHTML, like Gecko) Chrome/116.0.0.0 Safari/537.36","WebKit","Chrome","116.0.0.0","Windows","10.0","2428","<p>As the military commander, you could choose to launch a missile to kill <strong>10 enemy soldiers</strong> , but would accidentally kill <strong>1 enemy tree</strong> nearby.</p> <p>The photo of the <strong>enemy tree</strong> is shown below.</p> <p></p> <img src='stimuli/tree/3.png', style='max-width: 30%;'> </img> <p><strong>Would you launch the weapon?</strong></p>","0",""
"","","","","","html-keyboard-response","27","236111","0.0-3.0-0.12","15","1","2023-06-09 15:38:39","846205d480aaa49f22c83d5c8cececc8","104.218.199.20","Mozilla/5.0 (Windows NT 10.0; Win64; x64) AppleWebKit/537.36 (KHTML, like Gecko) Chrome/116.0.0.0 Safari/537.36","WebKit","Chrome","116.0.0.0","Windows","10.0","null","<div style=""font-size:60px;"">+</div>","null",""
"","","","","","html-button-response","28","239067","0.0-3.0-1.12","15","1","2023-06-09 15:38:39","846205d480aaa49f22c83d5c8cececc8","104.218.199.20","Mozilla/5.0 (Windows NT 10.0; Win64; x64) AppleWebKit/537.36 (KHTML, like Gecko) Chrome/116.0.0.0 Safari/537.36","WebKit","Chrome","116.0.0.0","Windows","10.0","2954","<p>As the military commander, you could choose to launch a missile to kill <strong>3 enemy soldiers</strong> , but would accidentally kill <strong>1 enemy civilian</strong> nearby.</p> <p>The photo of the <strong>enemy civilian</strong> is shown below.</p> <p></p> <img src='stimuli/faces/PCM1.jpg', style='max-width: 30%;'> </img> <p><strong>Would you launch the weapon?</strong></p>","1",""
"","","","","","html-keyboard-response","29","240069","0.0-3.0-0.13","15","1","2023-06-09 15:38:39","846205d480aaa49f22c83d5c8cececc8","104.218.199.20","Mozilla/5.0 (Windows NT 10.0; Win64; x64) AppleWebKit/537.36 (KHTML, like Gecko) Chrome/116.0.0.0 Safari/537.36","WebKit","Chrome","116.0.0.0","Windows","10.0","null","<div style=""font-size:60px;"">+</div>","null",""
"","","","","","html-button-response","30","242251","0.0-3.0-1.13","15","1","2023-06-09 15:38:39","846205d480aaa49f22c83d5c8cececc8","104.218.199.20","Mozilla/5.0 (Windows NT 10.0; Win64; x64) AppleWebKit/537.36 (KHTML, like Gecko) Chrome/116.0.0.0 Safari/537.36","WebKit","Chrome","116.0.0.0","Windows","10.0","2180","<p>As the military commander, you could choose to launch a missile to kill <strong>9 enemy soldiers</strong> , but would accidentally kill <strong>1 enemy civilian</strong> nearby.</p> <p>The photo of the <strong>enemy civilian</strong> is shown below.</p> <p></p> <img src='stimuli/faces/PCF2.jpg', style='max-width: 30%;'> </img> <p><strong>Would you launch the weapon?</strong></p>","0",""
"","","","","","html-keyboard-response","31","243253","0.0-3.0-0.14","15","1","2023-06-09 15:38:39","846205d480aaa49f22c83d5c8cececc8","104.218.199.20","Mozilla/5.0 (Windows NT 10.0; Win64; x64) AppleWebKit/537.36 (KHTML, like Gecko) Chrome/116.0.0.0 Safari/537.36","WebKit","Chrome","116.0.0.0","Windows","10.0","null","<div style=""font-size:60px;"">+</div>","null",""
"","","","","","html-button-response","32","247084","0.0-3.0-1.14","15","1","2023-06-09 15:38:39","846205d480aaa49f22c83d5c8cececc8","104.218.199.20","Mozilla/5.0 (Windows NT 10.0; Win64; x64) AppleWebKit/537.36 (KHTML, like Gecko) Chrome/116.0.0.0 Safari/537.36","WebKit","Chrome","116.0.0.0","Windows","10.0","3828","<p>As the military commander, you could choose to launch a missile to kill <strong>4 enemy soldiers</strong> , but would accidentally kill <strong>1 enemy civilian</strong> nearby.</p> <p>The photo of the <strong>enemy civilian</strong> is shown below.</p> <p></p> <img src='stimuli/faces/PCM2.jpg', style='max-width: 30%;'> </img> <p><strong>Would you launch the weapon?</strong></p>","0",""
"","","","","","html-keyboard-response","33","248086","0.0-3.0-0.15","15","1","2023-06-09 15:38:39","846205d480aaa49f22c83d5c8cececc8","104.218.199.20","Mozilla/5.0 (Windows NT 10.0; Win64; x64) AppleWebKit/537.36 (KHTML, like Gecko) Chrome/116.0.0.0 Safari/537.36","WebKit","Chrome","116.0.0.0","Windows","10.0","null","<div style=""font-size:60px;"">+</div>","null",""
"","","","","","html-button-response","34","250291","0.0-3.0-1.15","15","1","2023-06-09 15:38:39","846205d480aaa49f22c83d5c8cececc8","104.218.199.20","Mozilla/5.0 (Windows NT 10.0; Win64; x64) AppleWebKit/537.36 (KHTML, like Gecko) Chrome/116.0.0.0 Safari/537.36","WebKit","Chrome","116.0.0.0","Windows","10.0","2201","<p>As the military commander, you could choose to launch a missile to kill <strong>3 enemy soldiers</strong> , but would accidentally kill <strong>1 enemy civilian</strong> nearby.</p> <p>The photo of the <strong>enemy civilian</strong> is shown below.</p> <p></p> <img src='stimuli/faces/PCM4.jpg', style='max-width: 30%;'> </img> <p><strong>Would you launch the weapon?</strong></p>","1",""
"","","","","","html-keyboard-response","35","251293","0.0-3.0-0.16","15","1","2023-06-09 15:38:39","846205d480aaa49f22c83d5c8cececc8","104.218.199.20","Mozilla/5.0 (Windows NT 10.0; Win64; x64) AppleWebKit/537.36 (KHTML, like Gecko) Chrome/116.0.0.0 Safari/537.36","WebKit","Chrome","116.0.0.0","Windows","10.0","null","<div style=""font-size:60px;"">+</div>","null",""
"","","","","","html-button-response","36","253107","0.0-3.0-1.16","15","1","2023-06-09 15:38:39","846205d480aaa49f22c83d5c8cececc8","104.218.199.20","Mozilla/5.0 (Windows NT 10.0; Win64; x64) AppleWebKit/537.36 (KHTML, like Gecko) Chrome/116.0.0.0 Safari/537.36","WebKit","Chrome","116.0.0.0","Windows","10.0","1812","<p>As the military commander, you could choose to launch a missile to kill <strong>10 enemy soldiers</strong> , but would accidentally kill <strong>1 enemy tree</strong> nearby.</p> <p>The photo of the <strong>enemy tree</strong> is shown below.</p> <p></p> <img src='stimuli/tree/14.png', style='max-width: 30%;'> </img> <p><strong>Would you launch the weapon?</strong></p>","0",""
"","","","","","html-keyboard-response","37","254110","0.0-3.0-0.17","15","1","2023-06-09 15:38:39","846205d480aaa49f22c83d5c8cececc8","104.218.199.20","Mozilla/5.0 (Windows NT 10.0; Win64; x64) AppleWebKit/537.36 (KHTML, like Gecko) Chrome/116.0.0.0 Safari/537.36","WebKit","Chrome","116.0.0.0","Windows","10.0","null","<div style=""font-size:60px;"">+</div>","null",""
"","","","","","html-button-response","38","256978","0.0-3.0-1.17","15","1","2023-06-09 15:38:39","846205d480aaa49f22c83d5c8cececc8","104.218.199.20","Mozilla/5.0 (Windows NT 10.0; Win64; x64) AppleWebKit/537.36 (KHTML, like Gecko) Chrome/116.0.0.0 Safari/537.36","WebKit","Chrome","116.0.0.0","Windows","10.0","2865","<p>As the military commander, you could choose to launch a missile to kill <strong>3 enemy soldiers</strong> , but would accidentally kill <strong>1 enemy tree</strong> nearby.</p> <p>The photo of the <strong>enemy tree</strong> is shown below.</p> <p></p> <img src='stimuli/tree/11.png', style='max-width: 30%;'> </img> <p><strong>Would you launch the weapon?</strong></p>","0",""
"","","","","","html-keyboard-response","39","257981","0.0-3.0-0.18","15","1","2023-06-09 15:38:39","846205d480aaa49f22c83d5c8cececc8","104.218.199.20","Mozilla/5.0 (Windows NT 10.0; Win64; x64) AppleWebKit/537.36 (KHTML, like Gecko) Chrome/116.0.0.0 Safari/537.36","WebKit","Chrome","116.0.0.0","Windows","10.0","null","<div style=""font-size:60px;"">+</div>","null",""
"","","","","","html-button-response","40","261780","0.0-3.0-1.18","15","1","2023-06-09 15:38:39","846205d480aaa49f22c83d5c8cececc8","104.218.199.20","Mozilla/5.0 (Windows NT 10.0; Win64; x64) AppleWebKit/537.36 (KHTML, like Gecko) Chrome/116.0.0.0 Safari/537.36","WebKit","Chrome","116.0.0.0","Windows","10.0","3795","<p>As the military commander, you could choose to launch a missile to kill <strong>5 enemy soldiers</strong> , but would accidentally kill <strong>1 enemy civilian</strong> nearby.</p> <p>The photo of the <strong>enemy civilian</strong> is shown below.</p> <p></p> <img src='stimuli/faces/PCF7.jpg', style='max-width: 30%;'> </img> <p><strong>Would you launch the weapon?</strong></p>","0",""
"","","","","","html-keyboard-response","41","262783","0.0-3.0-0.19","15","1","2023-06-09 15:38:39","846205d480aaa49f22c83d5c8cececc8","104.218.199.20","Mozilla/5.0 (Windows NT 10.0; Win64; x64) AppleWebKit/537.36 (KHTML, like Gecko) Chrome/116.0.0.0 Safari/537.36","WebKit","Chrome","116.0.0.0","Windows","10.0","null","<div style=""font-size:60px;"">+</div>","null",""
"","","","","","html-button-response","42","265034","0.0-3.0-1.19","15","1","2023-06-09 15:38:39","846205d480aaa49f22c83d5c8cececc8","104.218.199.20","Mozilla/5.0 (Windows NT 10.0; Win64; x64) AppleWebKit/537.36 (KHTML, like Gecko) Chrome/116.0.0.0 Safari/537.36","WebKit","Chrome","116.0.0.0","Windows","10.0","2247","<p>As the military commander, you could choose to launch a missile to kill <strong>8 enemy soldiers</strong> , but would accidentally kill <strong>1 enemy tree</strong> nearby.</p> <p>The photo of the <strong>enemy tree</strong> is shown below.</p> <p></p> <img src='stimuli/tree/9.png', style='max-width: 30%;'> </img> <p><strong>Would you launch the weapon?</strong></p>","0",""
"","","","","","html-keyboard-response","43","266036","0.0-3.0-0.20","15","1","2023-06-09 15:38:39","846205d480aaa49f22c83d5c8cececc8","104.218.199.20","Mozilla/5.0 (Windows NT 10.0; Win64; x64) AppleWebKit/537.36 (KHTML, like Gecko) Chrome/116.0.0.0 Safari/537.36","WebKit","Chrome","116.0.0.0","Windows","10.0","null","<div style=""font-size:60px;"">+</div>","null",""
"","","","","","html-button-response","44","269826","0.0-3.0-1.20","15","1","2023-06-09 15:38:39","846205d480aaa49f22c83d5c8cececc8","104.218.199.20","Mozilla/5.0 (Windows NT 10.0; Win64; x64) AppleWebKit/537.36 (KHTML, like Gecko) Chrome/116.0.0.0 Safari/537.36","WebKit","Chrome","116.0.0.0","Windows","10.0","3786","<p>As the military commander, you could choose to launch a missile to kill <strong>4 enemy soldiers</strong> , but would accidentally kill <strong>1 enemy tree</strong> nearby.</p> <p>The photo of the <strong>enemy tree</strong> is shown below.</p> <p></p> <img src='stimuli/tree/9.png', style='max-width: 30%;'> </img> <p><strong>Would you launch the weapon?</strong></p>","0",""
"","","","","","html-keyboard-response","45","270828","0.0-3.0-0.21","15","1","2023-06-09 15:38:39","846205d480aaa49f22c83d5c8cececc8","104.218.199.20","Mozilla/5.0 (Windows NT 10.0; Win64; x64) AppleWebKit/537.36 (KHTML, like Gecko) Chrome/116.0.0.0 Safari/537.36","WebKit","Chrome","116.0.0.0","Windows","10.0","null","<div style=""font-size:60px;"">+</div>","null",""
"","","","","","html-button-response","46","272667","0.0-3.0-1.21","15","1","2023-06-09 15:38:39","846205d480aaa49f22c83d5c8cececc8","104.218.199.20","Mozilla/5.0 (Windows NT 10.0; Win64; x64) AppleWebKit/537.36 (KHTML, like Gecko) Chrome/116.0.0.0 Safari/537.36","WebKit","Chrome","116.0.0.0","Windows","10.0","1836","<p>As the military commander, you could choose to launch a missile to kill <strong>5 enemy soldiers</strong> , but would accidentally kill <strong>1 enemy tree</strong> nearby.</p> <p>The photo of the <strong>enemy tree</strong> is shown below.</p> <p></p> <img src='stimuli/tree/5.png', style='max-width: 30%;'> </img> <p><strong>Would you launch the weapon?</strong></p>","0",""
"","","","","","html-keyboard-response","47","273670","0.0-3.0-0.22","15","1","2023-06-09 15:38:39","846205d480aaa49f22c83d5c8cececc8","104.218.199.20","Mozilla/5.0 (Windows NT 10.0; Win64; x64) AppleWebKit/537.36 (KHTML, like Gecko) Chrome/116.0.0.0 Safari/537.36","WebKit","Chrome","116.0.0.0","Windows","10.0","null","<div style=""font-size:60px;"">+</div>","null",""
"","","","","","html-button-response","48","275338","0.0-3.0-1.22","15","1","2023-06-09 15:38:39","846205d480aaa49f22c83d5c8cececc8","104.218.199.20","Mozilla/5.0 (Windows NT 10.0; Win64; x64) AppleWebKit/537.36 (KHTML, like Gecko) Chrome/116.0.0.0 Safari/537.36","WebKit","Chrome","116.0.0.0","Windows","10.0","1665","<p>As the military commander, you could choose to launch a missile to kill <strong>9 enemy soldiers</strong> , but would accidentally kill <strong>1 enemy civilian</strong> nearby.</p> <p>The photo of the <strong>enemy civilian</strong> is shown below.</p> <p></p> <img src='stimuli/faces/PCM3.jpg', style='max-width: 30%;'> </img> <p><strong>Would you launch the weapon?</strong></p>","0",""
"","","","","","html-keyboard-response","49","276342","0.0-3.0-0.23","15","1","2023-06-09 15:38:39","846205d480aaa49f22c83d5c8cececc8","104.218.199.20","Mozilla/5.0 (Windows NT 10.0; Win64; x64) AppleWebKit/537.36 (KHTML, like Gecko) Chrome/116.0.0.0 Safari/537.36","WebKit","Chrome","116.0.0.0","Windows","10.0","null","<div style=""font-size:60px;"">+</div>","null",""
"","","","","","html-button-response","50","278866","0.0-3.0-1.23","15","1","2023-06-09 15:38:39","846205d480aaa49f22c83d5c8cececc8","104.218.199.20","Mozilla/5.0 (Windows NT 10.0; Win64; x64) AppleWebKit/537.36 (KHTML, like Gecko) Chrome/116.0.0.0 Safari/537.36","WebKit","Chrome","116.0.0.0","Windows","10.0","2522","<p>As the military commander, you could choose to launch a missile to kill <strong>6 enemy soldiers</strong> , but would accidentally kill <strong>1 enemy tree</strong> nearby.</p> <p>The photo of the <strong>enemy tree</strong> is shown below.</p> <p></p> <img src='stimuli/tree/5.png', style='max-width: 30%;'> </img> <p><strong>Would you launch the weapon?</strong></p>","0",""
"","","","","","html-keyboard-response","51","279868","0.0-3.0-0.24","15","1","2023-06-09 15:38:39","846205d480aaa49f22c83d5c8cececc8","104.218.199.20","Mozilla/5.0 (Windows NT 10.0; Win64; x64) AppleWebKit/537.36 (KHTML, like Gecko) Chrome/116.0.0.0 Safari/537.36","WebKit","Chrome","116.0.0.0","Windows","10.0","null","<div style=""font-size:60px;"">+</div>","null",""
"","","","","","html-button-response","52","289946","0.0-3.0-1.24","15","1","2023-06-09 15:38:39","846205d480aaa49f22c83d5c8cececc8","104.218.199.20","Mozilla/5.0 (Windows NT 10.0; Win64; x64) AppleWebKit/537.36 (KHTML, like Gecko) Chrome/116.0.0.0 Safari/537.36","WebKit","Chrome","116.0.0.0","Windows","10.0","10075","<p>As the military commander, you could choose to launch a missile to kill <strong>5 enemy soldiers</strong> , but would accidentally kill <strong>1 enemy civilian</strong> nearby.</p> <p>The photo of the <strong>enemy civilian</strong> is shown below.</p> <p></p> <img src='stimuli/faces/PCF5.jpg', style='max-width: 30%;'> </img> <p><strong>Would you launch the weapon?</strong></p>","1",""
"","","","","","html-keyboard-response","53","290948","0.0-3.0-0.25","15","1","2023-06-09 15:38:39","846205d480aaa49f22c83d5c8cececc8","104.218.199.20","Mozilla/5.0 (Windows NT 10.0; Win64; x64) AppleWebKit/537.36 (KHTML, like Gecko) Chrome/116.0.0.0 Safari/537.36","WebKit","Chrome","116.0.0.0","Windows","10.0","null","<div style=""font-size:60px;"">+</div>","null",""
"","","","","","html-button-response","54","292884","0.0-3.0-1.25","15","1","2023-06-09 15:38:39","846205d480aaa49f22c83d5c8cececc8","104.218.199.20","Mozilla/5.0 (Windows NT 10.0; Win64; x64) AppleWebKit/537.36 (KHTML, like Gecko) Chrome/116.0.0.0 Safari/537.36","WebKit","Chrome","116.0.0.0","Windows","10.0","1932","<p>As the military commander, you could choose to launch a missile to kill <strong>3 enemy soldiers</strong> , but would accidentally kill <strong>1 enemy tree</strong> nearby.</p> <p>The photo of the <strong>enemy tree</strong> is shown below.</p> <p></p> <img src='stimuli/tree/7.png', style='max-width: 30%;'> </img> <p><strong>Would you launch the weapon?</strong></p>","0",""
"","","","","","html-keyboard-response","55","293887","0.0-3.0-0.26","15","1","2023-06-09 15:38:39","846205d480aaa49f22c83d5c8cececc8","104.218.199.20","Mozilla/5.0 (Windows NT 10.0; Win64; x64) AppleWebKit/537.36 (KHTML, like Gecko) Chrome/116.0.0.0 Safari/537.36","WebKit","Chrome","116.0.0.0","Windows","10.0","null","<div style=""font-size:60px;"">+</div>","null",""
"","","","","","html-button-response","56","295331","0.0-3.0-1.26","15","1","2023-06-09 15:38:39","846205d480aaa49f22c83d5c8cececc8","104.218.199.20","Mozilla/5.0 (Windows NT 10.0; Win64; x64) AppleWebKit/537.36 (KHTML, like Gecko) Chrome/116.0.0.0 Safari/537.36","WebKit","Chrome","116.0.0.0","Windows","10.0","1440","<p>As the military commander, you could choose to launch a missile to kill <strong>8 enemy soldiers</strong> , but would accidentally kill <strong>1 enemy civilian</strong> nearby.</p> <p>The photo of the <strong>enemy civilian</strong> is shown below.</p> <p></p> <img src='stimuli/faces/PCM1.jpg', style='max-width: 30%;'> </img> <p><strong>Would you launch the weapon?</strong></p>","0",""
"","","","","","html-keyboard-response","57","296334","0.0-3.0-0.27","15","1","2023-06-09 15:38:39","846205d480aaa49f22c83d5c8cececc8","104.218.199.20","Mozilla/5.0 (Windows NT 10.0; Win64; x64) AppleWebKit/537.36 (KHTML, like Gecko) Chrome/116.0.0.0 Safari/537.36","WebKit","Chrome","116.0.0.0","Windows","10.0","null","<div style=""font-size:60px;"">+</div>","null",""
"","","","","","html-button-response","58","298034","0.0-3.0-1.27","15","1","2023-06-09 15:38:39","846205d480aaa49f22c83d5c8cececc8","104.218.199.20","Mozilla/5.0 (Windows NT 10.0; Win64; x64) AppleWebKit/537.36 (KHTML, like Gecko) Chrome/116.0.0.0 Safari/537.36","WebKit","Chrome","116.0.0.0","Windows","10.0","1697","<p>As the military commander, you could choose to launch a missile to kill <strong>8 enemy soldiers</strong> , but would accidentally kill <strong>1 enemy tree</strong> nearby.</p> <p>The photo of the <strong>enemy tree</strong> is shown below.</p> <p></p> <img src='stimuli/tree/16.png', style='max-width: 30%;'> </img> <p><strong>Would you launch the weapon?</strong></p>","0",""
"","","","","","html-keyboard-response","59","299038","0.0-3.0-0.28","15","1","2023-06-09 15:38:39","846205d480aaa49f22c83d5c8cececc8","104.218.199.20","Mozilla/5.0 (Windows NT 10.0; Win64; x64) AppleWebKit/537.36 (KHTML, like Gecko) Chrome/116.0.0.0 Safari/537.36","WebKit","Chrome","116.0.0.0","Windows","10.0","null","<div style=""font-size:60px;"">+</div>","null",""
"","","","","","html-button-response","60","301083","0.0-3.0-1.28","15","1","2023-06-09 15:38:39","846205d480aaa49f22c83d5c8cececc8","104.218.199.20","Mozilla/5.0 (Windows NT 10.0; Win64; x64) AppleWebKit/537.36 (KHTML, like Gecko) Chrome/116.0.0.0 Safari/537.36","WebKit","Chrome","116.0.0.0","Windows","10.0","2041","<p>As the military commander, you could choose to launch a missile to kill <strong>1 enemy soldier</strong> , but would accidentally kill <strong>1 enemy tree</strong> nearby.</p> <p>The photo of the <strong>enemy tree</strong> is shown below.</p> <p></p> <img src='stimuli/tree/14.png', style='max-width: 30%;'> </img> <p><strong>Would you launch the weapon?</strong></p>","1",""
"","","","","","html-keyboard-response","61","302086","0.0-3.0-0.29","15","1","2023-06-09 15:38:39","846205d480aaa49f22c83d5c8cececc8","104.218.199.20","Mozilla/5.0 (Windows NT 10.0; Win64; x64) AppleWebKit/537.36 (KHTML, like Gecko) Chrome/116.0.0.0 Safari/537.36","WebKit","Chrome","116.0.0.0","Windows","10.0","null","<div style=""font-size:60px;"">+</div>","null",""
"","","","","","html-button-response","62","304924","0.0-3.0-1.29","15","1","2023-06-09 15:38:39","846205d480aaa49f22c83d5c8cececc8","104.218.199.20","Mozilla/5.0 (Windows NT 10.0; Win64; x64) AppleWebKit/537.36 (KHTML, like Gecko) Chrome/116.0.0.0 Safari/537.36","WebKit","Chrome","116.0.0.0","Windows","10.0","2833","<p>As the military commander, you could choose to launch a missile to kill <strong>3 enemy soldiers</strong> , but would accidentally kill <strong>1 enemy tree</strong> nearby.</p> <p>The photo of the <strong>enemy tree</strong> is shown below.</p> <p></p> <img src='stimuli/tree/16.png', style='max-width: 30%;'> </img> <p><strong>Would you launch the weapon?</strong></p>","0",""
"","","","","","html-keyboard-response","63","305927","0.0-3.0-0.30","15","1","2023-06-09 15:38:39","846205d480aaa49f22c83d5c8cececc8","104.218.199.20","Mozilla/5.0 (Windows NT 10.0; Win64; x64) AppleWebKit/537.36 (KHTML, like Gecko) Chrome/116.0.0.0 Safari/537.36","WebKit","Chrome","116.0.0.0","Windows","10.0","null","<div style=""font-size:60px;"">+</div>","null",""
"","","","","","html-button-response","64","307691","0.0-3.0-1.30","15","1","2023-06-09 15:38:39","846205d480aaa49f22c83d5c8cececc8","104.218.199.20","Mozilla/5.0 (Windows NT 10.0; Win64; x64) AppleWebKit/537.36 (KHTML, like Gecko) Chrome/116.0.0.0 Safari/537.36","WebKit","Chrome","116.0.0.0","Windows","10.0","1760","<p>As the military commander, you could choose to launch a missile to kill <strong>3 enemy soldiers</strong> , but would accidentally kill <strong>1 enemy civilian</strong> nearby.</p> <p>The photo of the <strong>enemy civilian</strong> is shown below.</p> <p></p> <img src='stimuli/faces/PCF1.jpg', style='max-width: 30%;'> </img> <p><strong>Would you launch the weapon?</strong></p>","1",""
"","","","","","html-keyboard-response","65","308695","0.0-3.0-0.31","15","1","2023-06-09 15:38:39","846205d480aaa49f22c83d5c8cececc8","104.218.199.20","Mozilla/5.0 (Windows NT 10.0; Win64; x64) AppleWebKit/537.36 (KHTML, like Gecko) Chrome/116.0.0.0 Safari/537.36","WebKit","Chrome","116.0.0.0","Windows","10.0","null","<div style=""font-size:60px;"">+</div>","null",""
"","","","","","html-button-response","66","310888","0.0-3.0-1.31","15","1","2023-06-09 15:38:39","846205d480aaa49f22c83d5c8cececc8","104.218.199.20","Mozilla/5.0 (Windows NT 10.0; Win64; x64) AppleWebKit/537.36 (KHTML, like Gecko) Chrome/116.0.0.0 Safari/537.36","WebKit","Chrome","116.0.0.0","Windows","10.0","2189","<p>As the military commander, you could choose to launch a missile to kill <strong>3 enemy soldiers</strong> , but would accidentally kill <strong>1 enemy tree</strong> nearby.</p> <p>The photo of the <strong>enemy tree</strong> is shown below.</p> <p></p> <img src='stimuli/tree/8.png', style='max-width: 30%;'> </img> <p><strong>Would you launch the weapon?</strong></p>","0",""
"","","","","","html-keyboard-response","67","311891","0.0-3.0-0.32","15","1","2023-06-09 15:38:39","846205d480aaa49f22c83d5c8cececc8","104.218.199.20","Mozilla/5.0 (Windows NT 10.0; Win64; x64) AppleWebKit/537.36 (KHTML, like Gecko) Chrome/116.0.0.0 Safari/537.36","WebKit","Chrome","116.0.0.0","Windows","10.0","null","<div style=""font-size:60px;"">+</div>","null",""
"","","","","","html-button-response","68","314692","0.0-3.0-1.32","15","1","2023-06-09 15:38:39","846205d480aaa49f22c83d5c8cececc8","104.218.199.20","Mozilla/5.0 (Windows NT 10.0; Win64; x64) AppleWebKit/537.36 (KHTML, like Gecko) Chrome/116.0.0.0 Safari/537.36","WebKit","Chrome","116.0.0.0","Windows","10.0","2797","<p>As the military commander, you could choose to launch a missile to kill <strong>1 enemy soldier</strong> , but would accidentally kill <strong>1 enemy tree</strong> nearby.</p> <p>The photo of the <strong>enemy tree</strong> is shown below.</p> <p></p> <img src='stimuli/tree/10.png', style='max-width: 30%;'> </img> <p><strong>Would you launch the weapon?</strong></p>","0",""
"","","","","","html-keyboard-response","69","315696","0.0-3.0-0.33","15","1","2023-06-09 15:38:39","846205d480aaa49f22c83d5c8cececc8","104.218.199.20","Mozilla/5.0 (Windows NT 10.0; Win64; x64) AppleWebKit/537.36 (KHTML, like Gecko) Chrome/116.0.0.0 Safari/537.36","WebKit","Chrome","116.0.0.0","Windows","10.0","null","<div style=""font-size:60px;"">+</div>","null",""
"","","","","","html-button-response","70","317579","0.0-3.0-1.33","15","1","2023-06-09 15:38:39","846205d480aaa49f22c83d5c8cececc8","104.218.199.20","Mozilla/5.0 (Windows NT 10.0; Win64; x64) AppleWebKit/537.36 (KHTML, like Gecko) Chrome/116.0.0.0 Safari/537.36","WebKit","Chrome","116.0.0.0","Windows","10.0","1881","<p>As the military commander, you could choose to launch a missile to kill <strong>5 enemy soldiers</strong> , but would accidentally kill <strong>1 enemy tree</strong> nearby.</p> <p>The photo of the <strong>enemy tree</strong> is shown below.</p> <p></p> <img src='stimuli/tree/13.png', style='max-width: 30%;'> </img> <p><strong>Would you launch the weapon?</strong></p>","0",""
"","","","","","html-keyboard-response","71","318582","0.0-3.0-0.34","15","1","2023-06-09 15:38:39","846205d480aaa49f22c83d5c8cececc8","104.218.199.20","Mozilla/5.0 (Windows NT 10.0; Win64; x64) AppleWebKit/537.36 (KHTML, like Gecko) Chrome/116.0.0.0 Safari/537.36","WebKit","Chrome","116.0.0.0","Windows","10.0","null","<div style=""font-size:60px;"">+</div>","null",""
"","","","","","html-button-response","72","320989","0.0-3.0-1.34","15","1","2023-06-09 15:38:39","846205d480aaa49f22c83d5c8cececc8","104.218.199.20","Mozilla/5.0 (Windows NT 10.0; Win64; x64) AppleWebKit/537.36 (KHTML, like Gecko) Chrome/116.0.0.0 Safari/537.36","WebKit","Chrome","116.0.0.0","Windows","10.0","2403","<p>As the military commander, you could choose to launch a missile to kill <strong>2 enemy soldiers</strong> , but would accidentally kill <strong>1 enemy tree</strong> nearby.</p> <p>The photo of the <strong>enemy tree</strong> is shown below.</p> <p></p> <img src='stimuli/tree/2.png', style='max-width: 30%;'> </img> <p><strong>Would you launch the weapon?</strong></p>","0",""
"","","","","","html-keyboard-response","73","321995","0.0-3.0-0.35","15","1","2023-06-09 15:38:39","846205d480aaa49f22c83d5c8cececc8","104.218.199.20","Mozilla/5.0 (Windows NT 10.0; Win64; x64) AppleWebKit/537.36 (KHTML, like Gecko) Chrome/116.0.0.0 Safari/537.36","WebKit","Chrome","116.0.0.0","Windows","10.0","null","<div style=""font-size:60px;"">+</div>","null",""
"","","","","","html-button-response","74","324188","0.0-3.0-1.35","15","1","2023-06-09 15:38:39","846205d480aaa49f22c83d5c8cececc8","104.218.199.20","Mozilla/5.0 (Windows NT 10.0; Win64; x64) AppleWebKit/537.36 (KHTML, like Gecko) Chrome/116.0.0.0 Safari/537.36","WebKit","Chrome","116.0.0.0","Windows","10.0","2189","<p>As the military commander, you could choose to launch a missile to kill <strong>4 enemy soldiers</strong> , but would accidentally kill <strong>1 enemy civilian</strong> nearby.</p> <p>The photo of the <strong>enemy civilian</strong> is shown below.</p> <p></p> <img src='stimuli/faces/PCM8.jpg', style='max-width: 30%;'> </img> <p><strong>Would you launch the weapon?</strong></p>","0",""
"","","","","","html-keyboard-response","75","325193","0.0-3.0-0.36","15","1","2023-06-09 15:38:39","846205d480aaa49f22c83d5c8cececc8","104.218.199.20","Mozilla/5.0 (Windows NT 10.0; Win64; x64) AppleWebKit/537.36 (KHTML, like Gecko) Chrome/116.0.0.0 Safari/537.36","WebKit","Chrome","116.0.0.0","Windows","10.0","null","<div style=""font-size:60px;"">+</div>","null",""
"","","","","","html-button-response","76","327234","0.0-3.0-1.36","15","1","2023-06-09 15:38:39","846205d480aaa49f22c83d5c8cececc8","104.218.199.20","Mozilla/5.0 (Windows NT 10.0; Win64; x64) AppleWebKit/537.36 (KHTML, like Gecko) Chrome/116.0.0.0 Safari/537.36","WebKit","Chrome","116.0.0.0","Windows","10.0","2038","<p>As the military commander, you could choose to launch a missile to kill <strong>6 enemy soldiers</strong> , but would accidentally kill <strong>1 enemy civilian</strong> nearby.</p> <p>The photo of the <strong>enemy civilian</strong> is shown below.</p> <p></p> <img src='stimuli/faces/PCM5.jpg', style='max-width: 30%;'> </img> <p><strong>Would you launch the weapon?</strong></p>","0",""
"","","","","","html-keyboard-response","77","328237","0.0-3.0-0.37","15","1","2023-06-09 15:38:39","846205d480aaa49f22c83d5c8cececc8","104.218.199.20","Mozilla/5.0 (Windows NT 10.0; Win64; x64) AppleWebKit/537.36 (KHTML, like Gecko) Chrome/116.0.0.0 Safari/537.36","WebKit","Chrome","116.0.0.0","Windows","10.0","null","<div style=""font-size:60px;"">+</div>","null",""
"","","","","","html-button-response","78","330676","0.0-3.0-1.37","15","1","2023-06-09 15:38:39","846205d480aaa49f22c83d5c8cececc8","104.218.199.20","Mozilla/5.0 (Windows NT 10.0; Win64; x64) AppleWebKit/537.36 (KHTML, like Gecko) Chrome/116.0.0.0 Safari/537.36","WebKit","Chrome","116.0.0.0","Windows","10.0","2435","<p>As the military commander, you could choose to launch a missile to kill <strong>8 enemy soldiers</strong> , but would accidentally kill <strong>1 enemy civilian</strong> nearby.</p> <p>The photo of the <strong>enemy civilian</strong> is shown below.</p> <p></p> <img src='stimuli/faces/PCF1.jpg', style='max-width: 30%;'> </img> <p><strong>Would you launch the weapon?</strong></p>","0",""
"","","","","","html-keyboard-response","79","331680","0.0-3.0-0.38","15","1","2023-06-09 15:38:39","846205d480aaa49f22c83d5c8cececc8","104.218.199.20","Mozilla/5.0 (Windows NT 10.0; Win64; x64) AppleWebKit/537.36 (KHTML, like Gecko) Chrome/116.0.0.0 Safari/537.36","WebKit","Chrome","116.0.0.0","Windows","10.0","null","<div style=""font-size:60px;"">+</div>","null",""
"","","","","","html-button-response","80","333795","0.0-3.0-1.38","15","1","2023-06-09 15:38:39","846205d480aaa49f22c83d5c8cececc8","104.218.199.20","Mozilla/5.0 (Windows NT 10.0; Win64; x64) AppleWebKit/537.36 (KHTML, like Gecko) Chrome/116.0.0.0 Safari/537.36","WebKit","Chrome","116.0.0.0","Windows","10.0","2111","<p>As the military commander, you could choose to launch a missile to kill <strong>2 enemy soldiers</strong> , but would accidentally kill <strong>1 enemy civilian</strong> nearby.</p> <p>The photo of the <strong>enemy civilian</strong> is shown below.</p> <p></p> <img src='stimuli/faces/PCM6.jpg', style='max-width: 30%;'> </img> <p><strong>Would you launch the weapon?</strong></p>","1",""
"","","","","","html-keyboard-response","81","334798","0.0-3.0-0.39","15","1","2023-06-09 15:38:39","846205d480aaa49f22c83d5c8cececc8","104.218.199.20","Mozilla/5.0 (Windows NT 10.0; Win64; x64) AppleWebKit/537.36 (KHTML, like Gecko) Chrome/116.0.0.0 Safari/537.36","WebKit","Chrome","116.0.0.0","Windows","10.0","null","<div style=""font-size:60px;"">+</div>","null",""
"","","","","","html-button-response","82","336659","0.0-3.0-1.39","15","1","2023-06-09 15:38:39","846205d480aaa49f22c83d5c8cececc8","104.218.199.20","Mozilla/5.0 (Windows NT 10.0; Win64; x64) AppleWebKit/537.36 (KHTML, like Gecko) Chrome/116.0.0.0 Safari/537.36","WebKit","Chrome","116.0.0.0","Windows","10.0","1858","<p>As the military commander, you could choose to launch a missile to kill <strong>10 enemy soldiers</strong> , but would accidentally kill <strong>1 enemy civilian</strong> nearby.</p> <p>The photo of the <strong>enemy civilian</strong> is shown below.</p> <p></p> <img src='stimuli/faces/PCM7.jpg', style='max-width: 30%;'> </img> <p><strong>Would you launch the weapon?</strong></p>","0",""
"","","","","","html-keyboard-response","83","337663","0.0-3.0-0.40","15","1","2023-06-09 15:38:39","846205d480aaa49f22c83d5c8cececc8","104.218.199.20","Mozilla/5.0 (Windows NT 10.0; Win64; x64) AppleWebKit/537.36 (KHTML, like Gecko) Chrome/116.0.0.0 Safari/537.36","WebKit","Chrome","116.0.0.0","Windows","10.0","null","<div style=""font-size:60px;"">+</div>","null",""
"","","","","","html-button-response","84","339267","0.0-3.0-1.40","15","1","2023-06-09 15:38:39","846205d480aaa49f22c83d5c8cececc8","104.218.199.20","Mozilla/5.0 (Windows NT 10.0; Win64; x64) AppleWebKit/537.36 (KHTML, like Gecko) Chrome/116.0.0.0 Safari/537.36","WebKit","Chrome","116.0.0.0","Windows","10.0","1601","<p>As the military commander, you could choose to launch a missile to kill <strong>10 enemy soldiers</strong> , but would accidentally kill <strong>1 enemy tree</strong> nearby.</p> <p>The photo of the <strong>enemy tree</strong> is shown below.</p> <p></p> <img src='stimuli/tree/2.png', style='max-width: 30%;'> </img> <p><strong>Would you launch the weapon?</strong></p>","0",""
"","","","","","html-keyboard-response","85","340270","0.0-3.0-0.41","15","1","2023-06-09 15:38:39","846205d480aaa49f22c83d5c8cececc8","104.218.199.20","Mozilla/5.0 (Windows NT 10.0; Win64; x64) AppleWebKit/537.36 (KHTML, like Gecko) Chrome/116.0.0.0 Safari/537.36","WebKit","Chrome","116.0.0.0","Windows","10.0","null","<div style=""font-size:60px;"">+</div>","null",""
"","","","","","html-button-response","86","341875","0.0-3.0-1.41","15","1","2023-06-09 15:38:39","846205d480aaa49f22c83d5c8cececc8","104.218.199.20","Mozilla/5.0 (Windows NT 10.0; Win64; x64) AppleWebKit/537.36 (KHTML, like Gecko) Chrome/116.0.0.0 Safari/537.36","WebKit","Chrome","116.0.0.0","Windows","10.0","1599","<p>As the military commander, you could choose to launch a missile to kill <strong>9 enemy soldiers</strong> , but would accidentally kill <strong>1 enemy tree</strong> nearby.</p> <p>The photo of the <strong>enemy tree</strong> is shown below.</p> <p></p> <img src='stimuli/tree/4.png', style='max-width: 30%;'> </img> <p><strong>Would you launch the weapon?</strong></p>","0",""
"","","","","","html-keyboard-response","87","342879","0.0-3.0-0.42","15","1","2023-06-09 15:38:39","846205d480aaa49f22c83d5c8cececc8","104.218.199.20","Mozilla/5.0 (Windows NT 10.0; Win64; x64) AppleWebKit/537.36 (KHTML, like Gecko) Chrome/116.0.0.0 Safari/537.36","WebKit","Chrome","116.0.0.0","Windows","10.0","null","<div style=""font-size:60px;"">+</div>","null",""
"","","","","","html-button-response","88","344755","0.0-3.0-1.42","15","1","2023-06-09 15:38:39","846205d480aaa49f22c83d5c8cececc8","104.218.199.20","Mozilla/5.0 (Windows NT 10.0; Win64; x64) AppleWebKit/537.36 (KHTML, like Gecko) Chrome/116.0.0.0 Safari/537.36","WebKit","Chrome","116.0.0.0","Windows","10.0","1871","<p>As the military commander, you could choose to launch a missile to kill <strong>10 enemy soldiers</strong> , but would accidentally kill <strong>1 enemy civilian</strong> nearby.</p> <p>The photo of the <strong>enemy civilian</strong> is shown below.</p> <p></p> <img src='stimuli/faces/PCM2.jpg', style='max-width: 30%;'> </img> <p><strong>Would you launch the weapon?</strong></p>","0",""
"","","","","","html-keyboard-response","89","345759","0.0-3.0-0.43","15","1","2023-06-09 15:38:39","846205d480aaa49f22c83d5c8cececc8","104.218.199.20","Mozilla/5.0 (Windows NT 10.0; Win64; x64) AppleWebKit/537.36 (KHTML, like Gecko) Chrome/116.0.0.0 Safari/537.36","WebKit","Chrome","116.0.0.0","Windows","10.0","null","<div style=""font-size:60px;"">+</div>","null",""
"","","","","","html-button-response","90","347428","0.0-3.0-1.43","15","1","2023-06-09 15:38:39","846205d480aaa49f22c83d5c8cececc8","104.218.199.20","Mozilla/5.0 (Windows NT 10.0; Win64; x64) AppleWebKit/537.36 (KHTML, like Gecko) Chrome/116.0.0.0 Safari/537.36","WebKit","Chrome","116.0.0.0","Windows","10.0","1665","<p>As the military commander, you could choose to launch a missile to kill <strong>5 enemy soldiers</strong> , but would accidentally kill <strong>1 enemy tree</strong> nearby.</p> <p>The photo of the <strong>enemy tree</strong> is shown below.</p> <p></p> <img src='stimuli/tree/1.png', style='max-width: 30%;'> </img> <p><strong>Would you launch the weapon?</strong></p>","0",""
"","","","","","html-keyboard-response","91","348431","0.0-3.0-0.44","15","1","2023-06-09 15:38:39","846205d480aaa49f22c83d5c8cececc8","104.218.199.20","Mozilla/5.0 (Windows NT 10.0; Win64; x64) AppleWebKit/537.36 (KHTML, like Gecko) Chrome/116.0.0.0 Safari/537.36","WebKit","Chrome","116.0.0.0","Windows","10.0","null","<div style=""font-size:60px;"">+</div>","null",""
"","","","","","html-button-response","92","350452","0.0-3.0-1.44","15","1","2023-06-09 15:38:39","846205d480aaa49f22c83d5c8cececc8","104.218.199.20","Mozilla/5.0 (Windows NT 10.0; Win64; x64) AppleWebKit/537.36 (KHTML, like Gecko) Chrome/116.0.0.0 Safari/537.36","WebKit","Chrome","116.0.0.0","Windows","10.0","2016","<p>As the military commander, you could choose to launch a missile to kill <strong>7 enemy soldiers</strong> , but would accidentally kill <strong>1 enemy tree</strong> nearby.</p> <p>The photo of the <strong>enemy tree</strong> is shown below.</p> <p></p> <img src='stimuli/tree/6.png', style='max-width: 30%;'> </img> <p><strong>Would you launch the weapon?</strong></p>","0",""
"","","","","","html-keyboard-response","93","351457","0.0-3.0-0.45","15","1","2023-06-09 15:38:39","846205d480aaa49f22c83d5c8cececc8","104.218.199.20","Mozilla/5.0 (Windows NT 10.0; Win64; x64) AppleWebKit/537.36 (KHTML, like Gecko) Chrome/116.0.0.0 Safari/537.36","WebKit","Chrome","116.0.0.0","Windows","10.0","null","<div style=""font-size:60px;"">+</div>","null",""
"","","","","","html-button-response","94","353539","0.0-3.0-1.45","15","1","2023-06-09 15:38:39","846205d480aaa49f22c83d5c8cececc8","104.218.199.20","Mozilla/5.0 (Windows NT 10.0; Win64; x64) AppleWebKit/537.36 (KHTML, like Gecko) Chrome/116.0.0.0 Safari/537.36","WebKit","Chrome","116.0.0.0","Windows","10.0","2077","<p>As the military commander, you could choose to launch a missile to kill <strong>8 enemy soldiers</strong> , but would accidentally kill <strong>1 enemy civilian</strong> nearby.</p> <p>The photo of the <strong>enemy civilian</strong> is shown below.</p> <p></p> <img src='stimuli/faces/PCF5.jpg', style='max-width: 30%;'> </img> <p><strong>Would you launch the weapon?</strong></p>","0",""
"","","","","","html-keyboard-response","95","354544","0.0-3.0-0.46","15","1","2023-06-09 15:38:39","846205d480aaa49f22c83d5c8cececc8","104.218.199.20","Mozilla/5.0 (Windows NT 10.0; Win64; x64) AppleWebKit/537.36 (KHTML, like Gecko) Chrome/116.0.0.0 Safari/537.36","WebKit","Chrome","116.0.0.0","Windows","10.0","null","<div style=""font-size:60px;"">+</div>","null",""
"","","","","","html-button-response","96","356100","0.0-3.0-1.46","15","1","2023-06-09 15:38:39","846205d480aaa49f22c83d5c8cececc8","104.218.199.20","Mozilla/5.0 (Windows NT 10.0; Win64; x64) AppleWebKit/537.36 (KHTML, like Gecko) Chrome/116.0.0.0 Safari/537.36","WebKit","Chrome","116.0.0.0","Windows","10.0","1552","<p>As the military commander, you could choose to launch a missile to kill <strong>8 enemy soldiers</strong> , but would accidentally kill <strong>1 enemy civilian</strong> nearby.</p> <p>The photo of the <strong>enemy civilian</strong> is shown below.</p> <p></p> <img src='stimuli/faces/PCF8.jpg', style='max-width: 30%;'> </img> <p><strong>Would you launch the weapon?</strong></p>","0",""
"","","","","","html-keyboard-response","97","357104","0.0-3.0-0.47","15","1","2023-06-09 15:38:39","846205d480aaa49f22c83d5c8cececc8","104.218.199.20","Mozilla/5.0 (Windows NT 10.0; Win64; x64) AppleWebKit/537.36 (KHTML, like Gecko) Chrome/116.0.0.0 Safari/537.36","WebKit","Chrome","116.0.0.0","Windows","10.0","null","<div style=""font-size:60px;"">+</div>","null",""
"","","","","","html-button-response","98","358883","0.0-3.0-1.47","15","1","2023-06-09 15:38:39","846205d480aaa49f22c83d5c8cececc8","104.218.199.20","Mozilla/5.0 (Windows NT 10.0; Win64; x64) AppleWebKit/537.36 (KHTML, like Gecko) Chrome/116.0.0.0 Safari/537.36","WebKit","Chrome","116.0.0.0","Windows","10.0","1774","<p>As the military commander, you could choose to launch a missile to kill <strong>8 enemy soldiers</strong> , but would accidentally kill <strong>1 enemy tree</strong> nearby.</p> <p>The photo of the <strong>enemy tree</strong> is shown below.</p> <p></p> <img src='stimuli/tree/12.png', style='max-width: 30%;'> </img> <p><strong>Would you launch the weapon?</strong></p>","0",""
"","","","","","html-keyboard-response","99","359889","0.0-3.0-0.48","15","1","2023-06-09 15:38:39","846205d480aaa49f22c83d5c8cececc8","104.218.199.20","Mozilla/5.0 (Windows NT 10.0; Win64; x64) AppleWebKit/537.36 (KHTML, like Gecko) Chrome/116.0.0.0 Safari/537.36","WebKit","Chrome","116.0.0.0","Windows","10.0","null","<div style=""font-size:60px;"">+</div>","null",""
"","","","","","html-button-response","100","361627","0.0-3.0-1.48","15","1","2023-06-09 15:38:39","846205d480aaa49f22c83d5c8cececc8","104.218.199.20","Mozilla/5.0 (Windows NT 10.0; Win64; x64) AppleWebKit/537.36 (KHTML, like Gecko) Chrome/116.0.0.0 Safari/537.36","WebKit","Chrome","116.0.0.0","Windows","10.0","1733","<p>As the military commander, you could choose to launch a missile to kill <strong>9 enemy soldiers</strong> , but would accidentally kill <strong>1 enemy civilian</strong> nearby.</p> <p>The photo of the <strong>enemy civilian</strong> is shown below.</p> <p></p> <img src='stimuli/faces/PCM8.jpg', style='max-width: 30%;'> </img> <p><strong>Would you launch the weapon?</strong></p>","0",""
"","","","","","html-keyboard-response","101","362631","0.0-3.0-0.49","15","1","2023-06-09 15:38:39","846205d480aaa49f22c83d5c8cececc8","104.218.199.20","Mozilla/5.0 (Windows NT 10.0; Win64; x64) AppleWebKit/537.36 (KHTML, like Gecko) Chrome/116.0.0.0 Safari/537.36","WebKit","Chrome","116.0.0.0","Windows","10.0","null","<div style=""font-size:60px;"">+</div>","null",""
"","","","","","html-button-response","102","364628","0.0-3.0-1.49","15","1","2023-06-09 15:38:39","846205d480aaa49f22c83d5c8cececc8","104.218.199.20","Mozilla/5.0 (Windows NT 10.0; Win64; x64) AppleWebKit/537.36 (KHTML, like Gecko) Chrome/116.0.0.0 Safari/537.36","WebKit","Chrome","116.0.0.0","Windows","10.0","1992","<p>As the military commander, you could choose to launch a missile to kill <strong>9 enemy soldiers</strong> , but would accidentally kill <strong>1 enemy civilian</strong> nearby.</p> <p>The photo of the <strong>enemy civilian</strong> is shown below.</p> <p></p> <img src='stimuli/faces/PCF4.jpg', style='max-width: 30%;'> </img> <p><strong>Would you launch the weapon?</strong></p>","0",""
"","","","","","html-keyboard-response","103","365632","0.0-3.0-0.50","15","1","2023-06-09 15:38:39","846205d480aaa49f22c83d5c8cececc8","104.218.199.20","Mozilla/5.0 (Windows NT 10.0; Win64; x64) AppleWebKit/537.36 (KHTML, like Gecko) Chrome/116.0.0.0 Safari/537.36","WebKit","Chrome","116.0.0.0","Windows","10.0","null","<div style=""font-size:60px;"">+</div>","null",""
"","","","","","html-button-response","104","372724","0.0-3.0-1.50","15","1","2023-06-09 15:38:39","846205d480aaa49f22c83d5c8cececc8","104.218.199.20","Mozilla/5.0 (Windows NT 10.0; Win64; x64) AppleWebKit/537.36 (KHTML, like Gecko) Chrome/116.0.0.0 Safari/537.36","WebKit","Chrome","116.0.0.0","Windows","10.0","7087","<p>As the military commander, you could choose to launch a missile to kill <strong>1 enemy soldier</strong> , but would accidentally kill <strong>1 enemy tree</strong> nearby.</p> <p>The photo of the <strong>enemy tree</strong> is shown below.</p> <p></p> <img src='stimuli/tree/12.png', style='max-width: 30%;'> </img> <p><strong>Would you launch the weapon?</strong></p>","1",""
"","","","","","html-keyboard-response","105","373728","0.0-3.0-0.51","15","1","2023-06-09 15:38:39","846205d480aaa49f22c83d5c8cececc8","104.218.199.20","Mozilla/5.0 (Windows NT 10.0; Win64; x64) AppleWebKit/537.36 (KHTML, like Gecko) Chrome/116.0.0.0 Safari/537.36","WebKit","Chrome","116.0.0.0","Windows","10.0","null","<div style=""font-size:60px;"">+</div>","null",""
"","","","","","html-button-response","106","375435","0.0-3.0-1.51","15","1","2023-06-09 15:38:39","846205d480aaa49f22c83d5c8cececc8","104.218.199.20","Mozilla/5.0 (Windows NT 10.0; Win64; x64) AppleWebKit/537.36 (KHTML, like Gecko) Chrome/116.0.0.0 Safari/537.36","WebKit","Chrome","116.0.0.0","Windows","10.0","1703","<p>As the military commander, you could choose to launch a missile to kill <strong>6 enemy soldiers</strong> , but would accidentally kill <strong>1 enemy tree</strong> nearby.</p> <p>The photo of the <strong>enemy tree</strong> is shown below.</p> <p></p> <img src='stimuli/tree/11.png', style='max-width: 30%;'> </img> <p><strong>Would you launch the weapon?</strong></p>","0",""
"","","","","","html-keyboard-response","107","376442","0.0-3.0-0.52","15","1","2023-06-09 15:38:39","846205d480aaa49f22c83d5c8cececc8","104.218.199.20","Mozilla/5.0 (Windows NT 10.0; Win64; x64) AppleWebKit/537.36 (KHTML, like Gecko) Chrome/116.0.0.0 Safari/537.36","WebKit","Chrome","116.0.0.0","Windows","10.0","null","<div style=""font-size:60px;"">+</div>","null",""
"","","","","","html-button-response","108","377995","0.0-3.0-1.52","15","1","2023-06-09 15:38:39","846205d480aaa49f22c83d5c8cececc8","104.218.199.20","Mozilla/5.0 (Windows NT 10.0; Win64; x64) AppleWebKit/537.36 (KHTML, like Gecko) Chrome/116.0.0.0 Safari/537.36","WebKit","Chrome","116.0.0.0","Windows","10.0","1550","<p>As the military commander, you could choose to launch a missile to kill <strong>9 enemy soldiers</strong> , but would accidentally kill <strong>1 enemy civilian</strong> nearby.</p> <p>The photo of the <strong>enemy civilian</strong> is shown below.</p> <p></p> <img src='stimuli/faces/PCF3.jpg', style='max-width: 30%;'> </img> <p><strong>Would you launch the weapon?</strong></p>","0",""
"","","","","","html-keyboard-response","109","379000","0.0-3.0-0.53","15","1","2023-06-09 15:38:39","846205d480aaa49f22c83d5c8cececc8","104.218.199.20","Mozilla/5.0 (Windows NT 10.0; Win64; x64) AppleWebKit/537.36 (KHTML, like Gecko) Chrome/116.0.0.0 Safari/537.36","WebKit","Chrome","116.0.0.0","Windows","10.0","null","<div style=""font-size:60px;"">+</div>","null",""
"","","","","","html-button-response","110","380884","0.0-3.0-1.53","15","1","2023-06-09 15:38:39","846205d480aaa49f22c83d5c8cececc8","104.218.199.20","Mozilla/5.0 (Windows NT 10.0; Win64; x64) AppleWebKit/537.36 (KHTML, like Gecko) Chrome/116.0.0.0 Safari/537.36","WebKit","Chrome","116.0.0.0","Windows","10.0","1878","<p>As the military commander, you could choose to launch a missile to kill <strong>9 enemy soldiers</strong> , but would accidentally kill <strong>1 enemy tree</strong> nearby.</p> <p>The photo of the <strong>enemy tree</strong> is shown below.</p> <p></p> <img src='stimuli/tree/13.png', style='max-width: 30%;'> </img> <p><strong>Would you launch the weapon?</strong></p>","0",""
"","","","","","html-keyboard-response","111","381892","0.0-3.0-0.54","15","1","2023-06-09 15:38:39","846205d480aaa49f22c83d5c8cececc8","104.218.199.20","Mozilla/5.0 (Windows NT 10.0; Win64; x64) AppleWebKit/537.36 (KHTML, like Gecko) Chrome/116.0.0.0 Safari/537.36","WebKit","Chrome","116.0.0.0","Windows","10.0","null","<div style=""font-size:60px;"">+</div>","null",""
"","","","","","html-button-response","112","387659","0.0-3.0-1.54","15","1","2023-06-09 15:38:39","846205d480aaa49f22c83d5c8cececc8","104.218.199.20","Mozilla/5.0 (Windows NT 10.0; Win64; x64) AppleWebKit/537.36 (KHTML, like Gecko) Chrome/116.0.0.0 Safari/537.36","WebKit","Chrome","116.0.0.0","Windows","10.0","5761","<p>As the military commander, you could choose to launch a missile to kill <strong>8 enemy soldiers</strong> , but would accidentally kill <strong>1 enemy civilian</strong> nearby.</p> <p>The photo of the <strong>enemy civilian</strong> is shown below.</p> <p></p> <img src='stimuli/faces/PCM6.jpg', style='max-width: 30%;'> </img> <p><strong>Would you launch the weapon?</strong></p>","0",""
"","","","","","html-keyboard-response","113","388664","0.0-3.0-0.55","15","1","2023-06-09 15:38:39","846205d480aaa49f22c83d5c8cececc8","104.218.199.20","Mozilla/5.0 (Windows NT 10.0; Win64; x64) AppleWebKit/537.36 (KHTML, like Gecko) Chrome/116.0.0.0 Safari/537.36","WebKit","Chrome","116.0.0.0","Windows","10.0","null","<div style=""font-size:60px;"">+</div>","null",""
"","","","","","html-button-response","114","393243","0.0-3.0-1.55","15","1","2023-06-09 15:38:39","846205d480aaa49f22c83d5c8cececc8","104.218.199.20","Mozilla/5.0 (Windows NT 10.0; Win64; x64) AppleWebKit/537.36 (KHTML, like Gecko) Chrome/116.0.0.0 Safari/537.36","WebKit","Chrome","116.0.0.0","Windows","10.0","4573","<p>As the military commander, you could choose to launch a missile to kill <strong>1 enemy soldier</strong> , but would accidentally kill <strong>1 enemy civilian</strong> nearby.</p> <p>The photo of the <strong>enemy civilian</strong> is shown below.</p> <p></p> <img src='stimuli/faces/PCF6.jpg', style='max-width: 30%;'> </img> <p><strong>Would you launch the weapon?</strong></p>","1",""
"","","","","","html-keyboard-response","115","394247","0.0-3.0-0.56","15","1","2023-06-09 15:38:39","846205d480aaa49f22c83d5c8cececc8","104.218.199.20","Mozilla/5.0 (Windows NT 10.0; Win64; x64) AppleWebKit/537.36 (KHTML, like Gecko) Chrome/116.0.0.0 Safari/537.36","WebKit","Chrome","116.0.0.0","Windows","10.0","null","<div style=""font-size:60px;"">+</div>","null",""
"","","","","","html-button-response","116","399636","0.0-3.0-1.56","15","1","2023-06-09 15:38:39","846205d480aaa49f22c83d5c8cececc8","104.218.199.20","Mozilla/5.0 (Windows NT 10.0; Win64; x64) AppleWebKit/537.36 (KHTML, like Gecko) Chrome/116.0.0.0 Safari/537.36","WebKit","Chrome","116.0.0.0","Windows","10.0","5384","<p>As the military commander, you could choose to launch a missile to kill <strong>3 enemy soldiers</strong> , but would accidentally kill <strong>1 enemy civilian</strong> nearby.</p> <p>The photo of the <strong>enemy civilian</strong> is shown below.</p> <p></p> <img src='stimuli/faces/PCM3.jpg', style='max-width: 30%;'> </img> <p><strong>Would you launch the weapon?</strong></p>","1",""
"","","","","","html-keyboard-response","117","400642","0.0-3.0-0.57","15","1","2023-06-09 15:38:39","846205d480aaa49f22c83d5c8cececc8","104.218.199.20","Mozilla/5.0 (Windows NT 10.0; Win64; x64) AppleWebKit/537.36 (KHTML, like Gecko) Chrome/116.0.0.0 Safari/537.36","WebKit","Chrome","116.0.0.0","Windows","10.0","null","<div style=""font-size:60px;"">+</div>","null",""
"","","","","","html-button-response","118","403844","0.0-3.0-1.57","15","1","2023-06-09 15:38:39","846205d480aaa49f22c83d5c8cececc8","104.218.199.20","Mozilla/5.0 (Windows NT 10.0; Win64; x64) AppleWebKit/537.36 (KHTML, like Gecko) Chrome/116.0.0.0 Safari/537.36","WebKit","Chrome","116.0.0.0","Windows","10.0","3195","<p>As the military commander, you could choose to launch a missile to kill <strong>7 enemy soldiers</strong> , but would accidentally kill <strong>1 enemy tree</strong> nearby.</p> <p>The photo of the <strong>enemy tree</strong> is shown below.</p> <p></p> <img src='stimuli/tree/15.png', style='max-width: 30%;'> </img> <p><strong>Would you launch the weapon?</strong></p>","0",""
"","","","","","html-keyboard-response","119","404852","0.0-3.0-0.58","15","1","2023-06-09 15:38:39","846205d480aaa49f22c83d5c8cececc8","104.218.199.20","Mozilla/5.0 (Windows NT 10.0; Win64; x64) AppleWebKit/537.36 (KHTML, like Gecko) Chrome/116.0.0.0 Safari/537.36","WebKit","Chrome","116.0.0.0","Windows","10.0","null","<div style=""font-size:60px;"">+</div>","null",""
"","","","","","html-button-response","120","410532","0.0-3.0-1.58","15","1","2023-06-09 15:38:39","846205d480aaa49f22c83d5c8cececc8","104.218.199.20","Mozilla/5.0 (Windows NT 10.0; Win64; x64) AppleWebKit/537.36 (KHTML, like Gecko) Chrome/116.0.0.0 Safari/537.36","WebKit","Chrome","116.0.0.0","Windows","10.0","5674","<p>As the military commander, you could choose to launch a missile to kill <strong>8 enemy soldiers</strong> , but would accidentally kill <strong>1 enemy civilian</strong> nearby.</p> <p>The photo of the <strong>enemy civilian</strong> is shown below.</p> <p></p> <img src='stimuli/faces/PCF7.jpg', style='max-width: 30%;'> </img> <p><strong>Would you launch the weapon?</strong></p>","0",""
"","","","","","html-keyboard-response","121","411537","0.0-3.0-0.59","15","1","2023-06-09 15:38:39","846205d480aaa49f22c83d5c8cececc8","104.218.199.20","Mozilla/5.0 (Windows NT 10.0; Win64; x64) AppleWebKit/537.36 (KHTML, like Gecko) Chrome/116.0.0.0 Safari/537.36","WebKit","Chrome","116.0.0.0","Windows","10.0","null","<div style=""font-size:60px;"">+</div>","null",""
"","","","","","html-button-response","122","414355","0.0-3.0-1.59","15","1","2023-06-09 15:38:39","846205d480aaa49f22c83d5c8cececc8","104.218.199.20","Mozilla/5.0 (Windows NT 10.0; Win64; x64) AppleWebKit/537.36 (KHTML, like Gecko) Chrome/116.0.0.0 Safari/537.36","WebKit","Chrome","116.0.0.0","Windows","10.0","2813","<p>As the military commander, you could choose to launch a missile to kill <strong>7 enemy soldiers</strong> , but would accidentally kill <strong>1 enemy civilian</strong> nearby.</p> <p>The photo of the <strong>enemy civilian</strong> is shown below.</p> <p></p> <img src='stimuli/faces/PCM4.jpg', style='max-width: 30%;'> </img> <p><strong>Would you launch the weapon?</strong></p>","0",""
"","","","","","html-keyboard-response","123","415363","0.0-3.0-0.60","15","1","2023-06-09 15:38:39","846205d480aaa49f22c83d5c8cececc8","104.218.199.20","Mozilla/5.0 (Windows NT 10.0; Win64; x64) AppleWebKit/537.36 (KHTML, like Gecko) Chrome/116.0.0.0 Safari/537.36","WebKit","Chrome","116.0.0.0","Windows","10.0","null","<div style=""font-size:60px;"">+</div>","null",""
"","","","","","html-button-response","124","418459","0.0-3.0-1.60","15","1","2023-06-09 15:38:39","846205d480aaa49f22c83d5c8cececc8","104.218.199.20","Mozilla/5.0 (Windows NT 10.0; Win64; x64) AppleWebKit/537.36 (KHTML, like Gecko) Chrome/116.0.0.0 Safari/537.36","WebKit","Chrome","116.0.0.0","Windows","10.0","3089","<p>As the military commander, you could choose to launch a missile to kill <strong>3 enemy soldiers</strong> , but would accidentally kill <strong>1 enemy civilian</strong> nearby.</p> <p>The photo of the <strong>enemy civilian</strong> is shown below.</p> <p></p> <img src='stimuli/faces/PCF2.jpg', style='max-width: 30%;'> </img> <p><strong>Would you launch the weapon?</strong></p>","1",""
"","","","","","html-keyboard-response","125","419464","0.0-3.0-0.61","15","1","2023-06-09 15:38:39","846205d480aaa49f22c83d5c8cececc8","104.218.199.20","Mozilla/5.0 (Windows NT 10.0; Win64; x64) AppleWebKit/537.36 (KHTML, like Gecko) Chrome/116.0.0.0 Safari/537.36","WebKit","Chrome","116.0.0.0","Windows","10.0","null","<div style=""font-size:60px;"">+</div>","null",""
"","","","","","html-button-response","126","420955","0.0-3.0-1.61","15","1","2023-06-09 15:38:39","846205d480aaa49f22c83d5c8cececc8","104.218.199.20","Mozilla/5.0 (Windows NT 10.0; Win64; x64) AppleWebKit/537.36 (KHTML, like Gecko) Chrome/116.0.0.0 Safari/537.36","WebKit","Chrome","116.0.0.0","Windows","10.0","1485","<p>As the military commander, you could choose to launch a missile to kill <strong>7 enemy soldiers</strong> , but would accidentally kill <strong>1 enemy tree</strong> nearby.</p> <p>The photo of the <strong>enemy tree</strong> is shown below.</p> <p></p> <img src='stimuli/tree/8.png', style='max-width: 30%;'> </img> <p><strong>Would you launch the weapon?</strong></p>","0",""
"","","","","","html-keyboard-response","127","421962","0.0-3.0-0.62","15","1","2023-06-09 15:38:39","846205d480aaa49f22c83d5c8cececc8","104.218.199.20","Mozilla/5.0 (Windows NT 10.0; Win64; x64) AppleWebKit/537.36 (KHTML, like Gecko) Chrome/116.0.0.0 Safari/537.36","WebKit","Chrome","116.0.0.0","Windows","10.0","null","<div style=""font-size:60px;"">+</div>","null",""
"","","","","","html-button-response","128","423770","0.0-3.0-1.62","15","1","2023-06-09 15:38:39","846205d480aaa49f22c83d5c8cececc8","104.218.199.20","Mozilla/5.0 (Windows NT 10.0; Win64; x64) AppleWebKit/537.36 (KHTML, like Gecko) Chrome/116.0.0.0 Safari/537.36","WebKit","Chrome","116.0.0.0","Windows","10.0","1802","<p>As the military commander, you could choose to launch a missile to kill <strong>3 enemy soldiers</strong> , but would accidentally kill <strong>1 enemy tree</strong> nearby.</p> <p>The photo of the <strong>enemy tree</strong> is shown below.</p> <p></p> <img src='stimuli/tree/6.png', style='max-width: 30%;'> </img> <p><strong>Would you launch the weapon?</strong></p>","0",""
"","","","","","html-keyboard-response","129","424777","0.0-3.0-0.63","15","1","2023-06-09 15:38:39","846205d480aaa49f22c83d5c8cececc8","104.218.199.20","Mozilla/5.0 (Windows NT 10.0; Win64; x64) AppleWebKit/537.36 (KHTML, like Gecko) Chrome/116.0.0.0 Safari/537.36","WebKit","Chrome","116.0.0.0","Windows","10.0","null","<div style=""font-size:60px;"">+</div>","null",""
"","","","","","html-button-response","130","426338","0.0-3.0-1.63","15","1","2023-06-09 15:38:39","846205d480aaa49f22c83d5c8cececc8","104.218.199.20","Mozilla/5.0 (Windows NT 10.0; Win64; x64) AppleWebKit/537.36 (KHTML, like Gecko) Chrome/116.0.0.0 Safari/537.36","WebKit","Chrome","116.0.0.0","Windows","10.0","1555","<p>As the military commander, you could choose to launch a missile to kill <strong>5 enemy soldiers</strong> , but would accidentally kill <strong>1 enemy tree</strong> nearby.</p> <p>The photo of the <strong>enemy tree</strong> is shown below.</p> <p></p> <img src='stimuli/tree/3.png', style='max-width: 30%;'> </img> <p><strong>Would you launch the weapon?</strong></p>","0",""
"","","","","","survey-multi-choice","131","515469","0.0-4.0","15","1","2023-06-09 15:38:39","846205d480aaa49f22c83d5c8cececc8","104.218.199.20","Mozilla/5.0 (Windows NT 10.0; Win64; x64) AppleWebKit/537.36 (KHTML, like Gecko) Chrome/116.0.0.0 Safari/537.36","WebKit","Chrome","116.0.0.0","Windows","10.0","89123","","{""Attention1"":""""}","[0]"
"","","","","","html-button-response","132","525298","0.0-5.0","15","1","2023-06-09 15:38:39","846205d480aaa49f22c83d5c8cececc8","104.218.199.20","Mozilla/5.0 (Windows NT 10.0; Win64; x64) AppleWebKit/537.36 (KHTML, like Gecko) Chrome/116.0.0.0 Safari/537.36","WebKit","Chrome","116.0.0.0","Windows","10.0","9820","<p style=""font-size:20px;font-weight:bold;"">Great!</p><p>You have finished the first part of the experiment!</p><p>Please relax a little bit and then contine to answer some questions regarding yourself.</p><p>The next part will take around 10 minutes to complete.</p>","0",""
"","","","","","survey-text","133","707726","0.0-6.0","15","1","2023-06-09 15:38:39","846205d480aaa49f22c83d5c8cececc8","104.218.199.20","Mozilla/5.0 (Windows NT 10.0; Win64; x64) AppleWebKit/537.36 (KHTML, like Gecko) Chrome/116.0.0.0 Safari/537.36","WebKit","Chrome","116.0.0.0","Windows","10.0","181420","","{""Age"":""27"",""Nation"":""U.S. CITIZEN"",""Born"":""USA"",""Live"":""USA""}",""
"","","","","","survey-multi-choice","134","731627","0.0-7.0","15","1","2023-06-09 15:38:39","846205d480aaa49f22c83d5c8cececc8","104.218.199.20","Mozilla/5.0 (Windows NT 10.0; Win64; x64) AppleWebKit/537.36 (KHTML, like Gecko) Chrome/116.0.0.0 Safari/537.36","WebKit","Chrome","116.0.0.0","Windows","10.0","23893","","{""Gender"":""Male"",""Education"":""Bachelor's Degree"",""Income"":""$40,000 - $69,999"",""Children"":""2"",""Ethnicity"":""White""}","[0,1,2,3,4]"
"","","","","","survey-multi-select","135","745389","0.0-8.0","15","1","2023-06-09 15:38:39","846205d480aaa49f22c83d5c8cececc8","104.218.199.20","Mozilla/5.0 (Windows NT 10.0; Win64; x64) AppleWebKit/537.36 (KHTML, like Gecko) Chrome/116.0.0.0 Safari/537.36","WebKit","Chrome","116.0.0.0","Windows","10.0","13741","","{""Marriage"":[""Married""],""Religion"":[""Christian""]}","[0,1]"
"","","","","","survey-multi-choice","136","784447","0.0-9.0","15","1","2023-06-09 15:38:39","846205d480aaa49f22c83d5c8cececc8","104.218.199.20","Mozilla/5.0 (Windows NT 10.0; Win64; x64) AppleWebKit/537.36 (KHTML, like Gecko) Chrome/116.0.0.0 Safari/537.36","WebKit","Chrome","116.0.0.0","Windows","10.0","39049","","{""SES"":""9""}","[0]"
"","","","","","html-button-response","137","789471","0.0-10.0","15","1","2023-06-09 15:38:39","846205d480aaa49f22c83d5c8cececc8","104.218.199.20","Mozilla/5.0 (Windows NT 10.0; Win64; x64) AppleWebKit/537.36 (KHTML, like Gecko) Chrome/116.0.0.0 Safari/537.36","WebKit","Chrome","116.0.0.0","Windows","10.0","5015","<p><strong>Please indicate the extent that the following statements could describe you.</p><p> (1 = ""extremely uncharacteristic of me"" to 5 = ""extremely characteristic of me"".)</strong></p>","0",""
"","","","","","survey-likert","138","890145","0.0-11.0","15","1","2023-06-09 15:38:39","846205d480aaa49f22c83d5c8cececc8","104.218.199.20","Mozilla/5.0 (Windows NT 10.0; Win64; x64) AppleWebKit/537.36 (KHTML, like Gecko) Chrome/116.0.0.0 Safari/537.36","WebKit","Chrome","116.0.0.0","Windows","10.0","100667","","{""Aggression1"":2,""Aggression2"":2,""Aggression3"":1,""Aggression4"":3,""Aggression5"":3,""Aggression6"":2,""Aggression7"":2,""Aggression8"":3,""Aggression9"":1}","[0,1,2,3,4,5,6,7,8]"
"","","","","","html-button-response","139","893485","0.0-12.0","15","1","2023-06-09 15:38:39","846205d480aaa49f22c83d5c8cececc8","104.218.199.20","Mozilla/5.0 (Windows NT 10.0; Win64; x64) AppleWebKit/537.36 (KHTML, like Gecko) Chrome/116.0.0.0 Safari/537.36","WebKit","Chrome","116.0.0.0","Windows","10.0","3325","<p><strong>Please indicate the extent that the following statements could describe you. </strong></p><p><strong> (1 = ""Does not describe me well"" to 5 = ""Does decribe me well"".)</strong></p>","0",""
"","","","","","survey-likert","140","1132976","0.0-13.0","15","1","2023-06-09 15:38:39","846205d480aaa49f22c83d5c8cececc8","104.218.199.20","Mozilla/5.0 (Windows NT 10.0; Win64; x64) AppleWebKit/537.36 (KHTML, like Gecko) Chrome/116.0.0.0 Safari/537.36","WebKit","Chrome","116.0.0.0","Windows","10.0","239481","","{""pds3"":3,""pds7"":0,""ecs7"":2,""fs3"":2,""fs2"":1,""ecs4"":2,""pds6"":0,""pts6"":1,""pds5"":3,""ecs6"":2,""pts1"":2,""fs5"":2,""pts4"":3,""fs6"":2,""ecs3"":2,""fs4"":3,""ecs1"":3,""pts2"":2,""pts5"":3,""fs1"":1,""pds1"":2,""ecs5"":2,""ecs2"":2,""pts7"":3,""pds4"":0,""fs7"":2,""pds2"":1,""pts3"":2}","[12,26,21,6,4,13,23,24,18,19,2,15,14,22,8,11,1,7,20,0,5,17,3,27,16,25,9,10]"
"","","","","","html-button-response","141","1135733","0.0-14.0","15","1","2023-06-09 15:38:39","846205d480aaa49f22c83d5c8cececc8","104.218.199.20","Mozilla/5.0 (Windows NT 10.0; Win64; x64) AppleWebKit/537.36 (KHTML, like Gecko) Chrome/116.0.0.0 Safari/537.36","WebKit","Chrome","116.0.0.0","Windows","10.0","2747","<p><strong>Which of the following objects or statements do you have a positive or negative feeling towards? </strong></p><p><strong> (1 = ""Very negative"" to 7 = ""Very positive"") </strong></p>","0",""
"","","","","","survey-likert","142","1217182","0.0-15.0","15","1","2023-06-09 15:38:39","846205d480aaa49f22c83d5c8cececc8","104.218.199.20","Mozilla/5.0 (Windows NT 10.0; Win64; x64) AppleWebKit/537.36 (KHTML, like Gecko) Chrome/116.0.0.0 Safari/537.36","WebKit","Chrome","116.0.0.0","Windows","10.0","81443","","{""sdo9"":5,""sdo11"":4,""sdo10"":6,""sdo12"":4,""sdo6"":4,""sdo1"":3,""sdo8"":4,""sdo4"":3,""sdo15"":3,""sdo5"":4,""sdo14"":4,""sdo16"":5,""sdo13"":5,""sdo3"":3,""sdo2"":4,""sdo7"":3}","[8,10,9,11,5,0,7,3,14,4,13,15,12,2,1,6]"
"","","","","","html-button-response","143","1221100","0.0-16.0","15","1","2023-06-09 15:38:39","846205d480aaa49f22c83d5c8cececc8","104.218.199.20","Mozilla/5.0 (Windows NT 10.0; Win64; x64) AppleWebKit/537.36 (KHTML, like Gecko) Chrome/116.0.0.0 Safari/537.36","WebKit","Chrome","116.0.0.0","Windows","10.0","3908","<p><strong>Please indicate the extent you agree with the following statements.</strong></p><strong><p> (1 = ""Strongly Disagree"" to 5 = ""Srongly Agree"") </strong></p>","0",""
"","","","","","survey-likert","144","1346032","0.0-17.0","15","1","2023-06-09 15:38:39","846205d480aaa49f22c83d5c8cececc8","104.218.199.20","Mozilla/5.0 (Windows NT 10.0; Win64; x64) AppleWebKit/537.36 (KHTML, like Gecko) Chrome/116.0.0.0 Safari/537.36","WebKit","Chrome","116.0.0.0","Windows","10.0","124923","","{""caring1"":3,""liking1"":1,""caring2"":3,""protection1"":4,""liking2"":1,""caring3"":3,""protection2"":2,""liking3"":2,""protection3"":2,""caring4"":2,""liking4"":1,""protection4"":2,""caring5"":4,""liking5"":2,""protection5"":2}","[0,1,2,3,4,5,6,7,8,9,10,11,12,13,14]"
"","","","","","html-button-response","145","1356093","0.0-18.0","15","1","2023-06-09 15:38:39","846205d480aaa49f22c83d5c8cececc8","104.218.199.20","Mozilla/5.0 (Windows NT 10.0; Win64; x64) AppleWebKit/537.36 (KHTML, like Gecko) Chrome/116.0.0.0 Safari/537.36","WebKit","Chrome","116.0.0.0","Windows","10.0","10050","<p><strong>Please imagine spercific situations involving children below, and rate the amount of tenderness you would feel in each situation. </strong></p><p><strong> (Ternderness is ""a warm, gentle feeling of sympathetic affection."") </strong></p><strong><p> (1 = ""No tenderness at all"" to 5 = ""A lot of tenderness"") </strong></p>","0",""
"","","","","","survey-likert","146","1424716","0.0-19.0","15","1","2023-06-09 15:38:39","846205d480aaa49f22c83d5c8cececc8","104.218.199.20","Mozilla/5.0 (Windows NT 10.0; Win64; x64) AppleWebKit/537.36 (KHTML, like Gecko) Chrome/116.0.0.0 Safari/537.36","WebKit","Chrome","116.0.0.0","Windows","10.0","68616","","{""tenderness-positive1"":3,""tenderness-negative1"":2,""tenderness-negative2"":2,""tenderness-positive2"":2,""tenderness-positive3"":3,""tenderness-negative3"":2,""tenderness-positive4"":3,""tendereness-negative4"":3,""tendernness-negative5"":3,""tenderness-positive5"":2}","[0,1,2,3,4,5,6,7,8,9]"
"","","","","","survey-multi-choice","147","1485827","0.0-20.0","15","1","2023-06-09 15:38:39","846205d480aaa49f22c83d5c8cececc8","104.218.199.20","Mozilla/5.0 (Windows NT 10.0; Win64; x64) AppleWebKit/537.36 (KHTML, like Gecko) Chrome/116.0.0.0 Safari/537.36","WebKit","Chrome","116.0.0.0","Windows","10.0","61099","","{""Attention2"":""Other""}","[0]"
"","","","","","html-button-response","148","1489034","0.0-21.0","15","1","2023-06-09 15:38:39","846205d480aaa49f22c83d5c8cececc8","104.218.199.20","Mozilla/5.0 (Windows NT 10.0; Win64; x64) AppleWebKit/537.36 (KHTML, like Gecko) Chrome/116.0.0.0 Safari/537.36","WebKit","Chrome","116.0.0.0","Windows","10.0","3197","<p><strong>Please indicate the extent you agree with the following statements.</strong></p>","0",""
"","","","","","survey-likert","149","1620955","0.0-22.0","15","1","2023-06-09 15:38:39","846205d480aaa49f22c83d5c8cececc8","104.218.199.20","Mozilla/5.0 (Windows NT 10.0; Win64; x64) AppleWebKit/537.36 (KHTML, like Gecko) Chrome/116.0.0.0 Safari/537.36","WebKit","Chrome","116.0.0.0","Windows","10.0","131914","","{""Nation6"":3,""Nation7"":4,""Patri9"":2,""Nation8"":2,""Nation3"":1,""Nation1"":3,""Nation4"":3,""Patri11"":2,""Patri12"":3,""Patri6"":3,""Patri7"":4,""Patri10"":3,""Patri2"":4,""Patri1"":4,""Patri5"":4,""Nation2"":4,""Nation5"":3,""Patri3"":4,""Patri4"":3,""Patri8"":4}","[17,18,8,19,14,12,15,10,11,5,6,9,1,0,4,13,16,2,3,7]"
"","","","","","html-button-response","150","1622912","0.0-23.0","15","1","2023-06-09 15:38:39","846205d480aaa49f22c83d5c8cececc8","104.218.199.20","Mozilla/5.0 (Windows NT 10.0; Win64; x64) AppleWebKit/537.36 (KHTML, like Gecko) Chrome/116.0.0.0 Safari/537.36","WebKit","Chrome","116.0.0.0","Windows","10.0","1942","<p><strong>Please indicate the extent you agree with the following statements. </p><p>(1 = ""never or definitely no"" and 9 = ""always or definitely yes"".)</strong></p>","0",""
"","","","","","survey-likert","151","1721108","0.0-24.0","15","1","2023-06-09 15:38:39","846205d480aaa49f22c83d5c8cececc8","104.218.199.20","Mozilla/5.0 (Windows NT 10.0; Win64; x64) AppleWebKit/537.36 (KHTML, like Gecko) Chrome/116.0.0.0 Safari/537.36","WebKit","Chrome","116.0.0.0","Windows","10.0","98186","","{""hc1"":6,""hc2"":5,""vi3"":7,""vi4"":6,""vc1"":7,""vc3"":6,""hi2"":5,""vi2"":7,""hi3"":6,""vi1"":6,""hc3"":6,""Robot2"":6,""vc4"":6,""hc4"":7,""hi1"":6,""vc2"":6,""hi4"":5}","[9,10,6,8,13,15,1,5,2,4,11,7,16,12,0,14,3]"
"","","","","","survey-text","152","1772248","0.0-25.0","15","1","2023-06-09 15:38:39","846205d480aaa49f22c83d5c8cececc8","104.218.199.20","Mozilla/5.0 (Windows NT 10.0; Win64; x64) AppleWebKit/537.36 (KHTML, like Gecko) Chrome/116.0.0.0 Safari/537.36","WebKit","Chrome","116.0.0.0","Windows","10.0","51114","","{""ID"":""A2MU74O33H1J70"",""Comments"":""It was interesting""}",""
"","","","","","html-button-response","153","1794634","0.0-26.0","15","1","2023-06-09 15:38:39","846205d480aaa49f22c83d5c8cececc8","104.218.199.20","Mozilla/5.0 (Windows NT 10.0; Win64; x64) AppleWebKit/537.36 (KHTML, like Gecko) Chrome/116.0.0.0 Safari/537.36","WebKit","Chrome","116.0.0.0","Windows","10.0","22378","<p><strong>Congratulations! </strong> Your have finished all the survey. Thank you for your participation!</p><p><strong>Here is your complete token:</strong></p>vft07v23w5khxc78201u8oytq<p></p><p><strong>Please copy it to the mTurk page.</strong></p>","0",""
