"success","timeout","failed_images","failed_audio","failed_video","trial_type","trial_index","time_elapsed","internal_node_id","run_id","condition","recorded_at","source_code_version","ip","user_agent","device","browser","browser_version","platform","platform_version","rt","stimulus","response","question_order"
"true","false","[]","[]","[]","preload","0","1046","0.0-0.0","2","1","2023-06-16 16:31:14","846205d480aaa49f22c83d5c8cececc8","73.17.14.96","Mozilla/5.0 (Macintosh; Intel Mac OS X 10_15_7) AppleWebKit/537.36 (KHTML, like Gecko) Chrome/114.0.0.0 Safari/537.36","Macintosh","Chrome","114.0.0.0","OS X","10_15_7","","","",""
"true","","","","","fullscreen","1","3467","0.0-1.0","2","1","2023-06-16 16:31:14","846205d480aaa49f22c83d5c8cececc8","73.17.14.96","Mozilla/5.0 (Macintosh; Intel Mac OS X 10_15_7) AppleWebKit/537.36 (KHTML, like Gecko) Chrome/114.0.0.0 Safari/537.36","Macintosh","Chrome","114.0.0.0","OS X","10_15_7","","","",""
"","","","","","html-button-response","2","15527","0.0-2.0","2","1","2023-06-16 16:31:14","846205d480aaa49f22c83d5c8cececc8","73.17.14.96","Mozilla/5.0 (Macintosh; Intel Mac OS X 10_15_7) AppleWebKit/537.36 (KHTML, like Gecko) Chrome/114.0.0.0 Safari/537.36","Macintosh","Chrome","114.0.0.0","OS X","10_15_7","12056","<p ><strong>Welcome to the experiment!</strong></p><p ><strong>In the first task, please imagine:</strong></p><p>Your country is involved in a military conflict with another country.</p><p>You are the commander of your army and must make decisions in the conflict.</p><p>Specifically, as the military commander, you must decide whether to launch a missile to strike enemy.</p><p>You will face a series of scenarios. Please read each scenario carefully and make a decision.</p><p>The task will take around 10 minutes to complete.</p><p><strong>Please pay your attention during the experiment.</strong></p>","0",""
"","","","","","html-keyboard-response","3","16535","0.0-3.0-0.0","2","1","2023-06-16 16:31:14","846205d480aaa49f22c83d5c8cececc8","73.17.14.96","Mozilla/5.0 (Macintosh; Intel Mac OS X 10_15_7) AppleWebKit/537.36 (KHTML, like Gecko) Chrome/114.0.0.0 Safari/537.36","Macintosh","Chrome","114.0.0.0","OS X","10_15_7","null","<div style=""font-size:60px;"">+</div>","null",""
"","","","","","html-button-response","4","36292","0.0-3.0-1.0","2","1","2023-06-16 16:31:14","846205d480aaa49f22c83d5c8cececc8","73.17.14.96","Mozilla/5.0 (Macintosh; Intel Mac OS X 10_15_7) AppleWebKit/537.36 (KHTML, like Gecko) Chrome/114.0.0.0 Safari/537.36","Macintosh","Chrome","114.0.0.0","OS X","10_15_7","19754","<p>As the military commander, you could choose to launch a missile to kill <strong>10 enemy soldiers</strong> , but would accidentally kill <strong>1 enemy tree</strong> nearby.</p> <p>The photo of the <strong>enemy tree</strong> is shown below.</p> <p></p> <img src='stimuli/tree/11.png', style='max-width: 30%;'> </img> <p><strong>Would you launch the weapon?</strong></p>","0",""
"","","","","","html-keyboard-response","5","37295","0.0-3.0-0.1","2","1","2023-06-16 16:31:14","846205d480aaa49f22c83d5c8cececc8","73.17.14.96","Mozilla/5.0 (Macintosh; Intel Mac OS X 10_15_7) AppleWebKit/537.36 (KHTML, like Gecko) Chrome/114.0.0.0 Safari/537.36","Macintosh","Chrome","114.0.0.0","OS X","10_15_7","null","<div style=""font-size:60px;"">+</div>","null",""
"","","","","","html-button-response","6","47309","0.0-3.0-1.1","2","1","2023-06-16 16:31:14","846205d480aaa49f22c83d5c8cececc8","73.17.14.96","Mozilla/5.0 (Macintosh; Intel Mac OS X 10_15_7) AppleWebKit/537.36 (KHTML, like Gecko) Chrome/114.0.0.0 Safari/537.36","Macintosh","Chrome","114.0.0.0","OS X","10_15_7","10010","<p>As the military commander, you could choose to launch a missile to kill <strong>10 enemy soldiers</strong> , but would accidentally kill <strong>1 enemy civilian</strong> nearby.</p> <p>The photo of the <strong>enemy civilian</strong> is shown below.</p> <p></p> <img src='stimuli/faces/PCM1.jpg', style='max-width: 30%;'> </img> <p><strong>Would you launch the weapon?</strong></p>","1",""
"","","","","","html-keyboard-response","7","48315","0.0-3.0-0.2","2","1","2023-06-16 16:31:14","846205d480aaa49f22c83d5c8cececc8","73.17.14.96","Mozilla/5.0 (Macintosh; Intel Mac OS X 10_15_7) AppleWebKit/537.36 (KHTML, like Gecko) Chrome/114.0.0.0 Safari/537.36","Macintosh","Chrome","114.0.0.0","OS X","10_15_7","null","<div style=""font-size:60px;"">+</div>","null",""
"","","","","","html-button-response","8","53327","0.0-3.0-1.2","2","1","2023-06-16 16:31:14","846205d480aaa49f22c83d5c8cececc8","73.17.14.96","Mozilla/5.0 (Macintosh; Intel Mac OS X 10_15_7) AppleWebKit/537.36 (KHTML, like Gecko) Chrome/114.0.0.0 Safari/537.36","Macintosh","Chrome","114.0.0.0","OS X","10_15_7","5008","<p>As the military commander, you could choose to launch a missile to kill <strong>7 enemy soldiers</strong> , but would accidentally kill <strong>1 enemy tree</strong> nearby.</p> <p>The photo of the <strong>enemy tree</strong> is shown below.</p> <p></p> <img src='stimuli/tree/14.png', style='max-width: 30%;'> </img> <p><strong>Would you launch the weapon?</strong></p>","0",""
"","","","","","html-keyboard-response","9","54336","0.0-3.0-0.3","2","1","2023-06-16 16:31:14","846205d480aaa49f22c83d5c8cececc8","73.17.14.96","Mozilla/5.0 (Macintosh; Intel Mac OS X 10_15_7) AppleWebKit/537.36 (KHTML, like Gecko) Chrome/114.0.0.0 Safari/537.36","Macintosh","Chrome","114.0.0.0","OS X","10_15_7","null","<div style=""font-size:60px;"">+</div>","null",""
"","","","","","html-button-response","10","57441","0.0-3.0-1.3","2","1","2023-06-16 16:31:14","846205d480aaa49f22c83d5c8cececc8","73.17.14.96","Mozilla/5.0 (Macintosh; Intel Mac OS X 10_15_7) AppleWebKit/537.36 (KHTML, like Gecko) Chrome/114.0.0.0 Safari/537.36","Macintosh","Chrome","114.0.0.0","OS X","10_15_7","3102","<p>As the military commander, you could choose to launch a missile to kill <strong>8 enemy soldiers</strong> , but would accidentally kill <strong>1 enemy tree</strong> nearby.</p> <p>The photo of the <strong>enemy tree</strong> is shown below.</p> <p></p> <img src='stimuli/tree/15.png', style='max-width: 30%;'> </img> <p><strong>Would you launch the weapon?</strong></p>","0",""
"","","","","","html-keyboard-response","11","58450","0.0-3.0-0.4","2","1","2023-06-16 16:31:14","846205d480aaa49f22c83d5c8cececc8","73.17.14.96","Mozilla/5.0 (Macintosh; Intel Mac OS X 10_15_7) AppleWebKit/537.36 (KHTML, like Gecko) Chrome/114.0.0.0 Safari/537.36","Macintosh","Chrome","114.0.0.0","OS X","10_15_7","null","<div style=""font-size:60px;"">+</div>","null",""
"","","","","","html-button-response","12","70159","0.0-3.0-1.4","2","1","2023-06-16 16:31:14","846205d480aaa49f22c83d5c8cececc8","73.17.14.96","Mozilla/5.0 (Macintosh; Intel Mac OS X 10_15_7) AppleWebKit/537.36 (KHTML, like Gecko) Chrome/114.0.0.0 Safari/537.36","Macintosh","Chrome","114.0.0.0","OS X","10_15_7","11705","<p>As the military commander, you could choose to launch a missile to kill <strong>6 enemy soldiers</strong> , but would accidentally kill <strong>1 enemy civilian</strong> nearby.</p> <p>The photo of the <strong>enemy civilian</strong> is shown below.</p> <p></p> <img src='stimuli/faces/PCM7.jpg', style='max-width: 30%;'> </img> <p><strong>Would you launch the weapon?</strong></p>","1",""
"","","","","","html-keyboard-response","13","71170","0.0-3.0-0.5","2","1","2023-06-16 16:31:14","846205d480aaa49f22c83d5c8cececc8","73.17.14.96","Mozilla/5.0 (Macintosh; Intel Mac OS X 10_15_7) AppleWebKit/537.36 (KHTML, like Gecko) Chrome/114.0.0.0 Safari/537.36","Macintosh","Chrome","114.0.0.0","OS X","10_15_7","null","<div style=""font-size:60px;"">+</div>","null",""
"","","","","","html-button-response","14","73856","0.0-3.0-1.5","2","1","2023-06-16 16:31:14","846205d480aaa49f22c83d5c8cececc8","73.17.14.96","Mozilla/5.0 (Macintosh; Intel Mac OS X 10_15_7) AppleWebKit/537.36 (KHTML, like Gecko) Chrome/114.0.0.0 Safari/537.36","Macintosh","Chrome","114.0.0.0","OS X","10_15_7","2682","<p>As the military commander, you could choose to launch a missile to kill <strong>7 enemy soldiers</strong> , but would accidentally kill <strong>1 enemy tree</strong> nearby.</p> <p>The photo of the <strong>enemy tree</strong> is shown below.</p> <p></p> <img src='stimuli/tree/12.png', style='max-width: 30%;'> </img> <p><strong>Would you launch the weapon?</strong></p>","0",""
"","","","","","html-keyboard-response","15","74866","0.0-3.0-0.6","2","1","2023-06-16 16:31:14","846205d480aaa49f22c83d5c8cececc8","73.17.14.96","Mozilla/5.0 (Macintosh; Intel Mac OS X 10_15_7) AppleWebKit/537.36 (KHTML, like Gecko) Chrome/114.0.0.0 Safari/537.36","Macintosh","Chrome","114.0.0.0","OS X","10_15_7","null","<div style=""font-size:60px;"">+</div>","null",""
"","","","","","html-button-response","16","79526","0.0-3.0-1.6","2","1","2023-06-16 16:31:14","846205d480aaa49f22c83d5c8cececc8","73.17.14.96","Mozilla/5.0 (Macintosh; Intel Mac OS X 10_15_7) AppleWebKit/537.36 (KHTML, like Gecko) Chrome/114.0.0.0 Safari/537.36","Macintosh","Chrome","114.0.0.0","OS X","10_15_7","4656","<p>As the military commander, you could choose to launch a missile to kill <strong>2 enemy soldiers</strong> , but would accidentally kill <strong>1 enemy civilian</strong> nearby.</p> <p>The photo of the <strong>enemy civilian</strong> is shown below.</p> <p></p> <img src='stimuli/faces/PCF1.jpg', style='max-width: 30%;'> </img> <p><strong>Would you launch the weapon?</strong></p>","1",""
"","","","","","html-keyboard-response","17","80536","0.0-3.0-0.7","2","1","2023-06-16 16:31:14","846205d480aaa49f22c83d5c8cececc8","73.17.14.96","Mozilla/5.0 (Macintosh; Intel Mac OS X 10_15_7) AppleWebKit/537.36 (KHTML, like Gecko) Chrome/114.0.0.0 Safari/537.36","Macintosh","Chrome","114.0.0.0","OS X","10_15_7","null","<div style=""font-size:60px;"">+</div>","null",""
"","","","","","html-button-response","18","83176","0.0-3.0-1.7","2","1","2023-06-16 16:31:14","846205d480aaa49f22c83d5c8cececc8","73.17.14.96","Mozilla/5.0 (Macintosh; Intel Mac OS X 10_15_7) AppleWebKit/537.36 (KHTML, like Gecko) Chrome/114.0.0.0 Safari/537.36","Macintosh","Chrome","114.0.0.0","OS X","10_15_7","2634","<p>As the military commander, you could choose to launch a missile to kill <strong>9 enemy soldiers</strong> , but would accidentally kill <strong>1 enemy tree</strong> nearby.</p> <p>The photo of the <strong>enemy tree</strong> is shown below.</p> <p></p> <img src='stimuli/tree/6.png', style='max-width: 30%;'> </img> <p><strong>Would you launch the weapon?</strong></p>","0",""
"","","","","","html-keyboard-response","19","84186","0.0-3.0-0.8","2","1","2023-06-16 16:31:14","846205d480aaa49f22c83d5c8cececc8","73.17.14.96","Mozilla/5.0 (Macintosh; Intel Mac OS X 10_15_7) AppleWebKit/537.36 (KHTML, like Gecko) Chrome/114.0.0.0 Safari/537.36","Macintosh","Chrome","114.0.0.0","OS X","10_15_7","null","<div style=""font-size:60px;"">+</div>","null",""
"","","","","","html-button-response","20","86293","0.0-3.0-1.8","2","1","2023-06-16 16:31:14","846205d480aaa49f22c83d5c8cececc8","73.17.14.96","Mozilla/5.0 (Macintosh; Intel Mac OS X 10_15_7) AppleWebKit/537.36 (KHTML, like Gecko) Chrome/114.0.0.0 Safari/537.36","Macintosh","Chrome","114.0.0.0","OS X","10_15_7","2104","<p>As the military commander, you could choose to launch a missile to kill <strong>10 enemy soldiers</strong> , but would accidentally kill <strong>1 enemy civilian</strong> nearby.</p> <p>The photo of the <strong>enemy civilian</strong> is shown below.</p> <p></p> <img src='stimuli/faces/PCM5.jpg', style='max-width: 30%;'> </img> <p><strong>Would you launch the weapon?</strong></p>","1",""
"","","","","","html-keyboard-response","21","87299","0.0-3.0-0.9","2","1","2023-06-16 16:31:14","846205d480aaa49f22c83d5c8cececc8","73.17.14.96","Mozilla/5.0 (Macintosh; Intel Mac OS X 10_15_7) AppleWebKit/537.36 (KHTML, like Gecko) Chrome/114.0.0.0 Safari/537.36","Macintosh","Chrome","114.0.0.0","OS X","10_15_7","null","<div style=""font-size:60px;"">+</div>","null",""
"","","","","","html-button-response","22","92160","0.0-3.0-1.9","2","1","2023-06-16 16:31:14","846205d480aaa49f22c83d5c8cececc8","73.17.14.96","Mozilla/5.0 (Macintosh; Intel Mac OS X 10_15_7) AppleWebKit/537.36 (KHTML, like Gecko) Chrome/114.0.0.0 Safari/537.36","Macintosh","Chrome","114.0.0.0","OS X","10_15_7","4856","<p>As the military commander, you could choose to launch a missile to kill <strong>5 enemy soldiers</strong> , but would accidentally kill <strong>1 enemy tree</strong> nearby.</p> <p>The photo of the <strong>enemy tree</strong> is shown below.</p> <p></p> <img src='stimuli/tree/13.png', style='max-width: 30%;'> </img> <p><strong>Would you launch the weapon?</strong></p>","1",""
"","","","","","html-keyboard-response","23","93170","0.0-3.0-0.10","2","1","2023-06-16 16:31:14","846205d480aaa49f22c83d5c8cececc8","73.17.14.96","Mozilla/5.0 (Macintosh; Intel Mac OS X 10_15_7) AppleWebKit/537.36 (KHTML, like Gecko) Chrome/114.0.0.0 Safari/537.36","Macintosh","Chrome","114.0.0.0","OS X","10_15_7","null","<div style=""font-size:60px;"">+</div>","null",""
"","","","","","html-button-response","24","94342","0.0-3.0-1.10","2","1","2023-06-16 16:31:14","846205d480aaa49f22c83d5c8cececc8","73.17.14.96","Mozilla/5.0 (Macintosh; Intel Mac OS X 10_15_7) AppleWebKit/537.36 (KHTML, like Gecko) Chrome/114.0.0.0 Safari/537.36","Macintosh","Chrome","114.0.0.0","OS X","10_15_7","1168","<p>As the military commander, you could choose to launch a missile to kill <strong>8 enemy soldiers</strong> , but would accidentally kill <strong>1 enemy civilian</strong> nearby.</p> <p>The photo of the <strong>enemy civilian</strong> is shown below.</p> <p></p> <img src='stimuli/faces/PCF2.jpg', style='max-width: 30%;'> </img> <p><strong>Would you launch the weapon?</strong></p>","1",""
"","","","","","html-keyboard-response","25","95354","0.0-3.0-0.11","2","1","2023-06-16 16:31:14","846205d480aaa49f22c83d5c8cececc8","73.17.14.96","Mozilla/5.0 (Macintosh; Intel Mac OS X 10_15_7) AppleWebKit/537.36 (KHTML, like Gecko) Chrome/114.0.0.0 Safari/537.36","Macintosh","Chrome","114.0.0.0","OS X","10_15_7","null","<div style=""font-size:60px;"">+</div>","null",""
"","","","","","html-button-response","26","96726","0.0-3.0-1.11","2","1","2023-06-16 16:31:14","846205d480aaa49f22c83d5c8cececc8","73.17.14.96","Mozilla/5.0 (Macintosh; Intel Mac OS X 10_15_7) AppleWebKit/537.36 (KHTML, like Gecko) Chrome/114.0.0.0 Safari/537.36","Macintosh","Chrome","114.0.0.0","OS X","10_15_7","1369","<p>As the military commander, you could choose to launch a missile to kill <strong>7 enemy soldiers</strong> , but would accidentally kill <strong>1 enemy civilian</strong> nearby.</p> <p>The photo of the <strong>enemy civilian</strong> is shown below.</p> <p></p> <img src='stimuli/faces/PCF7.jpg', style='max-width: 30%;'> </img> <p><strong>Would you launch the weapon?</strong></p>","1",""
"","","","","","html-keyboard-response","27","97736","0.0-3.0-0.12","2","1","2023-06-16 16:31:14","846205d480aaa49f22c83d5c8cececc8","73.17.14.96","Mozilla/5.0 (Macintosh; Intel Mac OS X 10_15_7) AppleWebKit/537.36 (KHTML, like Gecko) Chrome/114.0.0.0 Safari/537.36","Macintosh","Chrome","114.0.0.0","OS X","10_15_7","null","<div style=""font-size:60px;"">+</div>","null",""
"","","","","","html-button-response","28","99025","0.0-3.0-1.12","2","1","2023-06-16 16:31:14","846205d480aaa49f22c83d5c8cececc8","73.17.14.96","Mozilla/5.0 (Macintosh; Intel Mac OS X 10_15_7) AppleWebKit/537.36 (KHTML, like Gecko) Chrome/114.0.0.0 Safari/537.36","Macintosh","Chrome","114.0.0.0","OS X","10_15_7","1288","<p>As the military commander, you could choose to launch a missile to kill <strong>7 enemy soldiers</strong> , but would accidentally kill <strong>1 enemy civilian</strong> nearby.</p> <p>The photo of the <strong>enemy civilian</strong> is shown below.</p> <p></p> <img src='stimuli/faces/PCF3.jpg', style='max-width: 30%;'> </img> <p><strong>Would you launch the weapon?</strong></p>","1",""
"","","","","","html-keyboard-response","29","100030","0.0-3.0-0.13","2","1","2023-06-16 16:31:14","846205d480aaa49f22c83d5c8cececc8","73.17.14.96","Mozilla/5.0 (Macintosh; Intel Mac OS X 10_15_7) AppleWebKit/537.36 (KHTML, like Gecko) Chrome/114.0.0.0 Safari/537.36","Macintosh","Chrome","114.0.0.0","OS X","10_15_7","null","<div style=""font-size:60px;"">+</div>","null",""
"","","","","","html-button-response","30","101805","0.0-3.0-1.13","2","1","2023-06-16 16:31:14","846205d480aaa49f22c83d5c8cececc8","73.17.14.96","Mozilla/5.0 (Macintosh; Intel Mac OS X 10_15_7) AppleWebKit/537.36 (KHTML, like Gecko) Chrome/114.0.0.0 Safari/537.36","Macintosh","Chrome","114.0.0.0","OS X","10_15_7","1774","<p>As the military commander, you could choose to launch a missile to kill <strong>4 enemy soldiers</strong> , but would accidentally kill <strong>1 enemy civilian</strong> nearby.</p> <p>The photo of the <strong>enemy civilian</strong> is shown below.</p> <p></p> <img src='stimuli/faces/PCF5.jpg', style='max-width: 30%;'> </img> <p><strong>Would you launch the weapon?</strong></p>","1",""
"","","","","","html-keyboard-response","31","102818","0.0-3.0-0.14","2","1","2023-06-16 16:31:14","846205d480aaa49f22c83d5c8cececc8","73.17.14.96","Mozilla/5.0 (Macintosh; Intel Mac OS X 10_15_7) AppleWebKit/537.36 (KHTML, like Gecko) Chrome/114.0.0.0 Safari/537.36","Macintosh","Chrome","114.0.0.0","OS X","10_15_7","null","<div style=""font-size:60px;"">+</div>","null",""
"","","","","","html-button-response","32","105659","0.0-3.0-1.14","2","1","2023-06-16 16:31:14","846205d480aaa49f22c83d5c8cececc8","73.17.14.96","Mozilla/5.0 (Macintosh; Intel Mac OS X 10_15_7) AppleWebKit/537.36 (KHTML, like Gecko) Chrome/114.0.0.0 Safari/537.36","Macintosh","Chrome","114.0.0.0","OS X","10_15_7","2837","<p>As the military commander, you could choose to launch a missile to kill <strong>2 enemy soldiers</strong> , but would accidentally kill <strong>1 enemy civilian</strong> nearby.</p> <p>The photo of the <strong>enemy civilian</strong> is shown below.</p> <p></p> <img src='stimuli/faces/PCM5.jpg', style='max-width: 30%;'> </img> <p><strong>Would you launch the weapon?</strong></p>","1",""
"","","","","","html-keyboard-response","33","106666","0.0-3.0-0.15","2","1","2023-06-16 16:31:14","846205d480aaa49f22c83d5c8cececc8","73.17.14.96","Mozilla/5.0 (Macintosh; Intel Mac OS X 10_15_7) AppleWebKit/537.36 (KHTML, like Gecko) Chrome/114.0.0.0 Safari/537.36","Macintosh","Chrome","114.0.0.0","OS X","10_15_7","null","<div style=""font-size:60px;"">+</div>","null",""
"","","","","","html-button-response","34","109923","0.0-3.0-1.15","2","1","2023-06-16 16:31:14","846205d480aaa49f22c83d5c8cececc8","73.17.14.96","Mozilla/5.0 (Macintosh; Intel Mac OS X 10_15_7) AppleWebKit/537.36 (KHTML, like Gecko) Chrome/114.0.0.0 Safari/537.36","Macintosh","Chrome","114.0.0.0","OS X","10_15_7","3253","<p>As the military commander, you could choose to launch a missile to kill <strong>10 enemy soldiers</strong> , but would accidentally kill <strong>1 enemy tree</strong> nearby.</p> <p>The photo of the <strong>enemy tree</strong> is shown below.</p> <p></p> <img src='stimuli/tree/13.png', style='max-width: 30%;'> </img> <p><strong>Would you launch the weapon?</strong></p>","0",""
"","","","","","html-keyboard-response","35","110926","0.0-3.0-0.16","2","1","2023-06-16 16:31:14","846205d480aaa49f22c83d5c8cececc8","73.17.14.96","Mozilla/5.0 (Macintosh; Intel Mac OS X 10_15_7) AppleWebKit/537.36 (KHTML, like Gecko) Chrome/114.0.0.0 Safari/537.36","Macintosh","Chrome","114.0.0.0","OS X","10_15_7","null","<div style=""font-size:60px;"">+</div>","null",""
"","","","","","html-button-response","36","112342","0.0-3.0-1.16","2","1","2023-06-16 16:31:14","846205d480aaa49f22c83d5c8cececc8","73.17.14.96","Mozilla/5.0 (Macintosh; Intel Mac OS X 10_15_7) AppleWebKit/537.36 (KHTML, like Gecko) Chrome/114.0.0.0 Safari/537.36","Macintosh","Chrome","114.0.0.0","OS X","10_15_7","1413","<p>As the military commander, you could choose to launch a missile to kill <strong>9 enemy soldiers</strong> , but would accidentally kill <strong>1 enemy tree</strong> nearby.</p> <p>The photo of the <strong>enemy tree</strong> is shown below.</p> <p></p> <img src='stimuli/tree/5.png', style='max-width: 30%;'> </img> <p><strong>Would you launch the weapon?</strong></p>","0",""
"","","","","","html-keyboard-response","37","113354","0.0-3.0-0.17","2","1","2023-06-16 16:31:14","846205d480aaa49f22c83d5c8cececc8","73.17.14.96","Mozilla/5.0 (Macintosh; Intel Mac OS X 10_15_7) AppleWebKit/537.36 (KHTML, like Gecko) Chrome/114.0.0.0 Safari/537.36","Macintosh","Chrome","114.0.0.0","OS X","10_15_7","null","<div style=""font-size:60px;"">+</div>","null",""
"","","","","","html-button-response","38","114508","0.0-3.0-1.17","2","1","2023-06-16 16:31:14","846205d480aaa49f22c83d5c8cececc8","73.17.14.96","Mozilla/5.0 (Macintosh; Intel Mac OS X 10_15_7) AppleWebKit/537.36 (KHTML, like Gecko) Chrome/114.0.0.0 Safari/537.36","Macintosh","Chrome","114.0.0.0","OS X","10_15_7","1151","<p>As the military commander, you could choose to launch a missile to kill <strong>7 enemy soldiers</strong> , but would accidentally kill <strong>1 enemy tree</strong> nearby.</p> <p>The photo of the <strong>enemy tree</strong> is shown below.</p> <p></p> <img src='stimuli/tree/8.png', style='max-width: 30%;'> </img> <p><strong>Would you launch the weapon?</strong></p>","0",""
"","","","","","html-keyboard-response","39","115514","0.0-3.0-0.18","2","1","2023-06-16 16:31:14","846205d480aaa49f22c83d5c8cececc8","73.17.14.96","Mozilla/5.0 (Macintosh; Intel Mac OS X 10_15_7) AppleWebKit/537.36 (KHTML, like Gecko) Chrome/114.0.0.0 Safari/537.36","Macintosh","Chrome","114.0.0.0","OS X","10_15_7","null","<div style=""font-size:60px;"">+</div>","null",""
"","","","","","html-button-response","40","116942","0.0-3.0-1.18","2","1","2023-06-16 16:31:14","846205d480aaa49f22c83d5c8cececc8","73.17.14.96","Mozilla/5.0 (Macintosh; Intel Mac OS X 10_15_7) AppleWebKit/537.36 (KHTML, like Gecko) Chrome/114.0.0.0 Safari/537.36","Macintosh","Chrome","114.0.0.0","OS X","10_15_7","1424","<p>As the military commander, you could choose to launch a missile to kill <strong>6 enemy soldiers</strong> , but would accidentally kill <strong>1 enemy tree</strong> nearby.</p> <p>The photo of the <strong>enemy tree</strong> is shown below.</p> <p></p> <img src='stimuli/tree/16.png', style='max-width: 30%;'> </img> <p><strong>Would you launch the weapon?</strong></p>","0",""
"","","","","","html-keyboard-response","41","117950","0.0-3.0-0.19","2","1","2023-06-16 16:31:14","846205d480aaa49f22c83d5c8cececc8","73.17.14.96","Mozilla/5.0 (Macintosh; Intel Mac OS X 10_15_7) AppleWebKit/537.36 (KHTML, like Gecko) Chrome/114.0.0.0 Safari/537.36","Macintosh","Chrome","114.0.0.0","OS X","10_15_7","null","<div style=""font-size:60px;"">+</div>","null",""
"","","","","","html-button-response","42","121606","0.0-3.0-1.19","2","1","2023-06-16 16:31:14","846205d480aaa49f22c83d5c8cececc8","73.17.14.96","Mozilla/5.0 (Macintosh; Intel Mac OS X 10_15_7) AppleWebKit/537.36 (KHTML, like Gecko) Chrome/114.0.0.0 Safari/537.36","Macintosh","Chrome","114.0.0.0","OS X","10_15_7","3655","<p>As the military commander, you could choose to launch a missile to kill <strong>4 enemy soldiers</strong> , but would accidentally kill <strong>1 enemy tree</strong> nearby.</p> <p>The photo of the <strong>enemy tree</strong> is shown below.</p> <p></p> <img src='stimuli/tree/12.png', style='max-width: 30%;'> </img> <p><strong>Would you launch the weapon?</strong></p>","1",""
"","","","","","html-keyboard-response","43","122610","0.0-3.0-0.20","2","1","2023-06-16 16:31:14","846205d480aaa49f22c83d5c8cececc8","73.17.14.96","Mozilla/5.0 (Macintosh; Intel Mac OS X 10_15_7) AppleWebKit/537.36 (KHTML, like Gecko) Chrome/114.0.0.0 Safari/537.36","Macintosh","Chrome","114.0.0.0","OS X","10_15_7","null","<div style=""font-size:60px;"">+</div>","null",""
"","","","","","html-button-response","44","123839","0.0-3.0-1.20","2","1","2023-06-16 16:31:14","846205d480aaa49f22c83d5c8cececc8","73.17.14.96","Mozilla/5.0 (Macintosh; Intel Mac OS X 10_15_7) AppleWebKit/537.36 (KHTML, like Gecko) Chrome/114.0.0.0 Safari/537.36","Macintosh","Chrome","114.0.0.0","OS X","10_15_7","1225","<p>As the military commander, you could choose to launch a missile to kill <strong>1 enemy soldier</strong> , but would accidentally kill <strong>1 enemy tree</strong> nearby.</p> <p>The photo of the <strong>enemy tree</strong> is shown below.</p> <p></p> <img src='stimuli/tree/10.png', style='max-width: 30%;'> </img> <p><strong>Would you launch the weapon?</strong></p>","1",""
"","","","","","html-keyboard-response","45","124850","0.0-3.0-0.21","2","1","2023-06-16 16:31:14","846205d480aaa49f22c83d5c8cececc8","73.17.14.96","Mozilla/5.0 (Macintosh; Intel Mac OS X 10_15_7) AppleWebKit/537.36 (KHTML, like Gecko) Chrome/114.0.0.0 Safari/537.36","Macintosh","Chrome","114.0.0.0","OS X","10_15_7","null","<div style=""font-size:60px;"">+</div>","null",""
"","","","","","html-button-response","46","127059","0.0-3.0-1.21","2","1","2023-06-16 16:31:14","846205d480aaa49f22c83d5c8cececc8","73.17.14.96","Mozilla/5.0 (Macintosh; Intel Mac OS X 10_15_7) AppleWebKit/537.36 (KHTML, like Gecko) Chrome/114.0.0.0 Safari/537.36","Macintosh","Chrome","114.0.0.0","OS X","10_15_7","2205","<p>As the military commander, you could choose to launch a missile to kill <strong>4 enemy soldiers</strong> , but would accidentally kill <strong>1 enemy tree</strong> nearby.</p> <p>The photo of the <strong>enemy tree</strong> is shown below.</p> <p></p> <img src='stimuli/tree/6.png', style='max-width: 30%;'> </img> <p><strong>Would you launch the weapon?</strong></p>","1",""
"","","","","","html-keyboard-response","47","128064","0.0-3.0-0.22","2","1","2023-06-16 16:31:14","846205d480aaa49f22c83d5c8cececc8","73.17.14.96","Mozilla/5.0 (Macintosh; Intel Mac OS X 10_15_7) AppleWebKit/537.36 (KHTML, like Gecko) Chrome/114.0.0.0 Safari/537.36","Macintosh","Chrome","114.0.0.0","OS X","10_15_7","null","<div style=""font-size:60px;"">+</div>","null",""
"","","","","","html-button-response","48","129375","0.0-3.0-1.22","2","1","2023-06-16 16:31:14","846205d480aaa49f22c83d5c8cececc8","73.17.14.96","Mozilla/5.0 (Macintosh; Intel Mac OS X 10_15_7) AppleWebKit/537.36 (KHTML, like Gecko) Chrome/114.0.0.0 Safari/537.36","Macintosh","Chrome","114.0.0.0","OS X","10_15_7","1306","<p>As the military commander, you could choose to launch a missile to kill <strong>4 enemy soldiers</strong> , but would accidentally kill <strong>1 enemy tree</strong> nearby.</p> <p>The photo of the <strong>enemy tree</strong> is shown below.</p> <p></p> <img src='stimuli/tree/5.png', style='max-width: 30%;'> </img> <p><strong>Would you launch the weapon?</strong></p>","1",""
"","","","","","html-keyboard-response","49","130386","0.0-3.0-0.23","2","1","2023-06-16 16:31:14","846205d480aaa49f22c83d5c8cececc8","73.17.14.96","Mozilla/5.0 (Macintosh; Intel Mac OS X 10_15_7) AppleWebKit/537.36 (KHTML, like Gecko) Chrome/114.0.0.0 Safari/537.36","Macintosh","Chrome","114.0.0.0","OS X","10_15_7","null","<div style=""font-size:60px;"">+</div>","null",""
"","","","","","html-button-response","50","132892","0.0-3.0-1.23","2","1","2023-06-16 16:31:14","846205d480aaa49f22c83d5c8cececc8","73.17.14.96","Mozilla/5.0 (Macintosh; Intel Mac OS X 10_15_7) AppleWebKit/537.36 (KHTML, like Gecko) Chrome/114.0.0.0 Safari/537.36","Macintosh","Chrome","114.0.0.0","OS X","10_15_7","2502","<p>As the military commander, you could choose to launch a missile to kill <strong>9 enemy soldiers</strong> , but would accidentally kill <strong>1 enemy civilian</strong> nearby.</p> <p>The photo of the <strong>enemy civilian</strong> is shown below.</p> <p></p> <img src='stimuli/faces/PCM6.jpg', style='max-width: 30%;'> </img> <p><strong>Would you launch the weapon?</strong></p>","1",""
"","","","","","html-keyboard-response","51","133898","0.0-3.0-0.24","2","1","2023-06-16 16:31:14","846205d480aaa49f22c83d5c8cececc8","73.17.14.96","Mozilla/5.0 (Macintosh; Intel Mac OS X 10_15_7) AppleWebKit/537.36 (KHTML, like Gecko) Chrome/114.0.0.0 Safari/537.36","Macintosh","Chrome","114.0.0.0","OS X","10_15_7","null","<div style=""font-size:60px;"">+</div>","null",""
"","","","","","html-button-response","52","136109","0.0-3.0-1.24","2","1","2023-06-16 16:31:14","846205d480aaa49f22c83d5c8cececc8","73.17.14.96","Mozilla/5.0 (Macintosh; Intel Mac OS X 10_15_7) AppleWebKit/537.36 (KHTML, like Gecko) Chrome/114.0.0.0 Safari/537.36","Macintosh","Chrome","114.0.0.0","OS X","10_15_7","2210","<p>As the military commander, you could choose to launch a missile to kill <strong>3 enemy soldiers</strong> , but would accidentally kill <strong>1 enemy tree</strong> nearby.</p> <p>The photo of the <strong>enemy tree</strong> is shown below.</p> <p></p> <img src='stimuli/tree/4.png', style='max-width: 30%;'> </img> <p><strong>Would you launch the weapon?</strong></p>","1",""
"","","","","","html-keyboard-response","53","137122","0.0-3.0-0.25","2","1","2023-06-16 16:31:14","846205d480aaa49f22c83d5c8cececc8","73.17.14.96","Mozilla/5.0 (Macintosh; Intel Mac OS X 10_15_7) AppleWebKit/537.36 (KHTML, like Gecko) Chrome/114.0.0.0 Safari/537.36","Macintosh","Chrome","114.0.0.0","OS X","10_15_7","null","<div style=""font-size:60px;"">+</div>","null",""
"","","","","","html-button-response","54","138459","0.0-3.0-1.25","2","1","2023-06-16 16:31:14","846205d480aaa49f22c83d5c8cececc8","73.17.14.96","Mozilla/5.0 (Macintosh; Intel Mac OS X 10_15_7) AppleWebKit/537.36 (KHTML, like Gecko) Chrome/114.0.0.0 Safari/537.36","Macintosh","Chrome","114.0.0.0","OS X","10_15_7","1332","<p>As the military commander, you could choose to launch a missile to kill <strong>3 enemy soldiers</strong> , but would accidentally kill <strong>1 enemy civilian</strong> nearby.</p> <p>The photo of the <strong>enemy civilian</strong> is shown below.</p> <p></p> <img src='stimuli/faces/PCM3.jpg', style='max-width: 30%;'> </img> <p><strong>Would you launch the weapon?</strong></p>","1",""
"","","","","","html-keyboard-response","55","139467","0.0-3.0-0.26","2","1","2023-06-16 16:31:14","846205d480aaa49f22c83d5c8cececc8","73.17.14.96","Mozilla/5.0 (Macintosh; Intel Mac OS X 10_15_7) AppleWebKit/537.36 (KHTML, like Gecko) Chrome/114.0.0.0 Safari/537.36","Macintosh","Chrome","114.0.0.0","OS X","10_15_7","null","<div style=""font-size:60px;"">+</div>","null",""
"","","","","","html-button-response","56","140826","0.0-3.0-1.26","2","1","2023-06-16 16:31:14","846205d480aaa49f22c83d5c8cececc8","73.17.14.96","Mozilla/5.0 (Macintosh; Intel Mac OS X 10_15_7) AppleWebKit/537.36 (KHTML, like Gecko) Chrome/114.0.0.0 Safari/537.36","Macintosh","Chrome","114.0.0.0","OS X","10_15_7","1354","<p>As the military commander, you could choose to launch a missile to kill <strong>3 enemy soldiers</strong> , but would accidentally kill <strong>1 enemy civilian</strong> nearby.</p> <p>The photo of the <strong>enemy civilian</strong> is shown below.</p> <p></p> <img src='stimuli/faces/PCF7.jpg', style='max-width: 30%;'> </img> <p><strong>Would you launch the weapon?</strong></p>","1",""
"","","","","","html-keyboard-response","57","141830","0.0-3.0-0.27","2","1","2023-06-16 16:31:14","846205d480aaa49f22c83d5c8cececc8","73.17.14.96","Mozilla/5.0 (Macintosh; Intel Mac OS X 10_15_7) AppleWebKit/537.36 (KHTML, like Gecko) Chrome/114.0.0.0 Safari/537.36","Macintosh","Chrome","114.0.0.0","OS X","10_15_7","null","<div style=""font-size:60px;"">+</div>","null",""
"","","","","","html-button-response","58","143559","0.0-3.0-1.27","2","1","2023-06-16 16:31:14","846205d480aaa49f22c83d5c8cececc8","73.17.14.96","Mozilla/5.0 (Macintosh; Intel Mac OS X 10_15_7) AppleWebKit/537.36 (KHTML, like Gecko) Chrome/114.0.0.0 Safari/537.36","Macintosh","Chrome","114.0.0.0","OS X","10_15_7","1727","<p>As the military commander, you could choose to launch a missile to kill <strong>6 enemy soldiers</strong> , but would accidentally kill <strong>1 enemy civilian</strong> nearby.</p> <p>The photo of the <strong>enemy civilian</strong> is shown below.</p> <p></p> <img src='stimuli/faces/PCF1.jpg', style='max-width: 30%;'> </img> <p><strong>Would you launch the weapon?</strong></p>","1",""
"","","","","","html-keyboard-response","59","144571","0.0-3.0-0.28","2","1","2023-06-16 16:31:14","846205d480aaa49f22c83d5c8cececc8","73.17.14.96","Mozilla/5.0 (Macintosh; Intel Mac OS X 10_15_7) AppleWebKit/537.36 (KHTML, like Gecko) Chrome/114.0.0.0 Safari/537.36","Macintosh","Chrome","114.0.0.0","OS X","10_15_7","null","<div style=""font-size:60px;"">+</div>","null",""
"","","","","","html-button-response","60","146509","0.0-3.0-1.28","2","1","2023-06-16 16:31:14","846205d480aaa49f22c83d5c8cececc8","73.17.14.96","Mozilla/5.0 (Macintosh; Intel Mac OS X 10_15_7) AppleWebKit/537.36 (KHTML, like Gecko) Chrome/114.0.0.0 Safari/537.36","Macintosh","Chrome","114.0.0.0","OS X","10_15_7","1933","<p>As the military commander, you could choose to launch a missile to kill <strong>6 enemy soldiers</strong> , but would accidentally kill <strong>1 enemy tree</strong> nearby.</p> <p>The photo of the <strong>enemy tree</strong> is shown below.</p> <p></p> <img src='stimuli/tree/4.png', style='max-width: 30%;'> </img> <p><strong>Would you launch the weapon?</strong></p>","0",""
"","","","","","html-keyboard-response","61","147519","0.0-3.0-0.29","2","1","2023-06-16 16:31:14","846205d480aaa49f22c83d5c8cececc8","73.17.14.96","Mozilla/5.0 (Macintosh; Intel Mac OS X 10_15_7) AppleWebKit/537.36 (KHTML, like Gecko) Chrome/114.0.0.0 Safari/537.36","Macintosh","Chrome","114.0.0.0","OS X","10_15_7","null","<div style=""font-size:60px;"">+</div>","null",""
"","","","","","html-button-response","62","149224","0.0-3.0-1.29","2","1","2023-06-16 16:31:14","846205d480aaa49f22c83d5c8cececc8","73.17.14.96","Mozilla/5.0 (Macintosh; Intel Mac OS X 10_15_7) AppleWebKit/537.36 (KHTML, like Gecko) Chrome/114.0.0.0 Safari/537.36","Macintosh","Chrome","114.0.0.0","OS X","10_15_7","1701","<p>As the military commander, you could choose to launch a missile to kill <strong>10 enemy soldiers</strong> , but would accidentally kill <strong>1 enemy civilian</strong> nearby.</p> <p>The photo of the <strong>enemy civilian</strong> is shown below.</p> <p></p> <img src='stimuli/faces/PCM4.jpg', style='max-width: 30%;'> </img> <p><strong>Would you launch the weapon?</strong></p>","1",""
"","","","","","html-keyboard-response","63","150230","0.0-3.0-0.30","2","1","2023-06-16 16:31:14","846205d480aaa49f22c83d5c8cececc8","73.17.14.96","Mozilla/5.0 (Macintosh; Intel Mac OS X 10_15_7) AppleWebKit/537.36 (KHTML, like Gecko) Chrome/114.0.0.0 Safari/537.36","Macintosh","Chrome","114.0.0.0","OS X","10_15_7","null","<div style=""font-size:60px;"">+</div>","null",""
"","","","","","html-button-response","64","151327","0.0-3.0-1.30","2","1","2023-06-16 16:31:14","846205d480aaa49f22c83d5c8cececc8","73.17.14.96","Mozilla/5.0 (Macintosh; Intel Mac OS X 10_15_7) AppleWebKit/537.36 (KHTML, like Gecko) Chrome/114.0.0.0 Safari/537.36","Macintosh","Chrome","114.0.0.0","OS X","10_15_7","1092","<p>As the military commander, you could choose to launch a missile to kill <strong>9 enemy soldiers</strong> , but would accidentally kill <strong>1 enemy civilian</strong> nearby.</p> <p>The photo of the <strong>enemy civilian</strong> is shown below.</p> <p></p> <img src='stimuli/faces/PCM2.jpg', style='max-width: 30%;'> </img> <p><strong>Would you launch the weapon?</strong></p>","1",""
"","","","","","html-keyboard-response","65","152336","0.0-3.0-0.31","2","1","2023-06-16 16:31:14","846205d480aaa49f22c83d5c8cececc8","73.17.14.96","Mozilla/5.0 (Macintosh; Intel Mac OS X 10_15_7) AppleWebKit/537.36 (KHTML, like Gecko) Chrome/114.0.0.0 Safari/537.36","Macintosh","Chrome","114.0.0.0","OS X","10_15_7","null","<div style=""font-size:60px;"">+</div>","null",""
"","","","","","html-button-response","66","154325","0.0-3.0-1.31","2","1","2023-06-16 16:31:14","846205d480aaa49f22c83d5c8cececc8","73.17.14.96","Mozilla/5.0 (Macintosh; Intel Mac OS X 10_15_7) AppleWebKit/537.36 (KHTML, like Gecko) Chrome/114.0.0.0 Safari/537.36","Macintosh","Chrome","114.0.0.0","OS X","10_15_7","1985","<p>As the military commander, you could choose to launch a missile to kill <strong>6 enemy soldiers</strong> , but would accidentally kill <strong>1 enemy tree</strong> nearby.</p> <p>The photo of the <strong>enemy tree</strong> is shown below.</p> <p></p> <img src='stimuli/tree/1.png', style='max-width: 30%;'> </img> <p><strong>Would you launch the weapon?</strong></p>","0",""
"","","","","","html-keyboard-response","67","155331","0.0-3.0-0.32","2","1","2023-06-16 16:31:14","846205d480aaa49f22c83d5c8cececc8","73.17.14.96","Mozilla/5.0 (Macintosh; Intel Mac OS X 10_15_7) AppleWebKit/537.36 (KHTML, like Gecko) Chrome/114.0.0.0 Safari/537.36","Macintosh","Chrome","114.0.0.0","OS X","10_15_7","null","<div style=""font-size:60px;"">+</div>","null",""
"","","","","","html-button-response","68","156725","0.0-3.0-1.32","2","1","2023-06-16 16:31:14","846205d480aaa49f22c83d5c8cececc8","73.17.14.96","Mozilla/5.0 (Macintosh; Intel Mac OS X 10_15_7) AppleWebKit/537.36 (KHTML, like Gecko) Chrome/114.0.0.0 Safari/537.36","Macintosh","Chrome","114.0.0.0","OS X","10_15_7","1390","<p>As the military commander, you could choose to launch a missile to kill <strong>10 enemy soldiers</strong> , but would accidentally kill <strong>1 enemy civilian</strong> nearby.</p> <p>The photo of the <strong>enemy civilian</strong> is shown below.</p> <p></p> <img src='stimuli/faces/PCF6.jpg', style='max-width: 30%;'> </img> <p><strong>Would you launch the weapon?</strong></p>","1",""
"","","","","","html-keyboard-response","69","157735","0.0-3.0-0.33","2","1","2023-06-16 16:31:14","846205d480aaa49f22c83d5c8cececc8","73.17.14.96","Mozilla/5.0 (Macintosh; Intel Mac OS X 10_15_7) AppleWebKit/537.36 (KHTML, like Gecko) Chrome/114.0.0.0 Safari/537.36","Macintosh","Chrome","114.0.0.0","OS X","10_15_7","null","<div style=""font-size:60px;"">+</div>","null",""
"","","","","","html-button-response","70","159391","0.0-3.0-1.33","2","1","2023-06-16 16:31:14","846205d480aaa49f22c83d5c8cececc8","73.17.14.96","Mozilla/5.0 (Macintosh; Intel Mac OS X 10_15_7) AppleWebKit/537.36 (KHTML, like Gecko) Chrome/114.0.0.0 Safari/537.36","Macintosh","Chrome","114.0.0.0","OS X","10_15_7","1654","<p>As the military commander, you could choose to launch a missile to kill <strong>3 enemy soldiers</strong> , but would accidentally kill <strong>1 enemy civilian</strong> nearby.</p> <p>The photo of the <strong>enemy civilian</strong> is shown below.</p> <p></p> <img src='stimuli/faces/PCM8.jpg', style='max-width: 30%;'> </img> <p><strong>Would you launch the weapon?</strong></p>","1",""
"","","","","","html-keyboard-response","71","160399","0.0-3.0-0.34","2","1","2023-06-16 16:31:14","846205d480aaa49f22c83d5c8cececc8","73.17.14.96","Mozilla/5.0 (Macintosh; Intel Mac OS X 10_15_7) AppleWebKit/537.36 (KHTML, like Gecko) Chrome/114.0.0.0 Safari/537.36","Macintosh","Chrome","114.0.0.0","OS X","10_15_7","null","<div style=""font-size:60px;"">+</div>","null",""
"","","","","","html-button-response","72","165642","0.0-3.0-1.34","2","1","2023-06-16 16:31:14","846205d480aaa49f22c83d5c8cececc8","73.17.14.96","Mozilla/5.0 (Macintosh; Intel Mac OS X 10_15_7) AppleWebKit/537.36 (KHTML, like Gecko) Chrome/114.0.0.0 Safari/537.36","Macintosh","Chrome","114.0.0.0","OS X","10_15_7","5238","<p>As the military commander, you could choose to launch a missile to kill <strong>4 enemy soldiers</strong> , but would accidentally kill <strong>1 enemy tree</strong> nearby.</p> <p>The photo of the <strong>enemy tree</strong> is shown below.</p> <p></p> <img src='stimuli/tree/2.png', style='max-width: 30%;'> </img> <p><strong>Would you launch the weapon?</strong></p>","0",""
"","","","","","html-keyboard-response","73","166650","0.0-3.0-0.35","2","1","2023-06-16 16:31:14","846205d480aaa49f22c83d5c8cececc8","73.17.14.96","Mozilla/5.0 (Macintosh; Intel Mac OS X 10_15_7) AppleWebKit/537.36 (KHTML, like Gecko) Chrome/114.0.0.0 Safari/537.36","Macintosh","Chrome","114.0.0.0","OS X","10_15_7","null","<div style=""font-size:60px;"">+</div>","null",""
"","","","","","html-button-response","74","169973","0.0-3.0-1.35","2","1","2023-06-16 16:31:14","846205d480aaa49f22c83d5c8cececc8","73.17.14.96","Mozilla/5.0 (Macintosh; Intel Mac OS X 10_15_7) AppleWebKit/537.36 (KHTML, like Gecko) Chrome/114.0.0.0 Safari/537.36","Macintosh","Chrome","114.0.0.0","OS X","10_15_7","3319","<p>As the military commander, you could choose to launch a missile to kill <strong>6 enemy soldiers</strong> , but would accidentally kill <strong>1 enemy civilian</strong> nearby.</p> <p>The photo of the <strong>enemy civilian</strong> is shown below.</p> <p></p> <img src='stimuli/faces/PCF4.jpg', style='max-width: 30%;'> </img> <p><strong>Would you launch the weapon?</strong></p>","1",""
"","","","","","html-keyboard-response","75","170986","0.0-3.0-0.36","2","1","2023-06-16 16:31:14","846205d480aaa49f22c83d5c8cececc8","73.17.14.96","Mozilla/5.0 (Macintosh; Intel Mac OS X 10_15_7) AppleWebKit/537.36 (KHTML, like Gecko) Chrome/114.0.0.0 Safari/537.36","Macintosh","Chrome","114.0.0.0","OS X","10_15_7","null","<div style=""font-size:60px;"">+</div>","null",""
"","","","","","html-button-response","76","172041","0.0-3.0-1.36","2","1","2023-06-16 16:31:14","846205d480aaa49f22c83d5c8cececc8","73.17.14.96","Mozilla/5.0 (Macintosh; Intel Mac OS X 10_15_7) AppleWebKit/537.36 (KHTML, like Gecko) Chrome/114.0.0.0 Safari/537.36","Macintosh","Chrome","114.0.0.0","OS X","10_15_7","1050","<p>As the military commander, you could choose to launch a missile to kill <strong>4 enemy soldiers</strong> , but would accidentally kill <strong>1 enemy civilian</strong> nearby.</p> <p>The photo of the <strong>enemy civilian</strong> is shown below.</p> <p></p> <img src='stimuli/faces/PCM4.jpg', style='max-width: 30%;'> </img> <p><strong>Would you launch the weapon?</strong></p>","1",""
"","","","","","html-keyboard-response","77","173050","0.0-3.0-0.37","2","1","2023-06-16 16:31:14","846205d480aaa49f22c83d5c8cececc8","73.17.14.96","Mozilla/5.0 (Macintosh; Intel Mac OS X 10_15_7) AppleWebKit/537.36 (KHTML, like Gecko) Chrome/114.0.0.0 Safari/537.36","Macintosh","Chrome","114.0.0.0","OS X","10_15_7","null","<div style=""font-size:60px;"">+</div>","null",""
"","","","","","html-button-response","78","174893","0.0-3.0-1.37","2","1","2023-06-16 16:31:14","846205d480aaa49f22c83d5c8cececc8","73.17.14.96","Mozilla/5.0 (Macintosh; Intel Mac OS X 10_15_7) AppleWebKit/537.36 (KHTML, like Gecko) Chrome/114.0.0.0 Safari/537.36","Macintosh","Chrome","114.0.0.0","OS X","10_15_7","1837","<p>As the military commander, you could choose to launch a missile to kill <strong>3 enemy soldiers</strong> , but would accidentally kill <strong>1 enemy civilian</strong> nearby.</p> <p>The photo of the <strong>enemy civilian</strong> is shown below.</p> <p></p> <img src='stimuli/faces/PCF4.jpg', style='max-width: 30%;'> </img> <p><strong>Would you launch the weapon?</strong></p>","1",""
"","","","","","html-keyboard-response","79","175898","0.0-3.0-0.38","2","1","2023-06-16 16:31:14","846205d480aaa49f22c83d5c8cececc8","73.17.14.96","Mozilla/5.0 (Macintosh; Intel Mac OS X 10_15_7) AppleWebKit/537.36 (KHTML, like Gecko) Chrome/114.0.0.0 Safari/537.36","Macintosh","Chrome","114.0.0.0","OS X","10_15_7","null","<div style=""font-size:60px;"">+</div>","null",""
"","","","","","html-button-response","80","179789","0.0-3.0-1.38","2","1","2023-06-16 16:31:14","846205d480aaa49f22c83d5c8cececc8","73.17.14.96","Mozilla/5.0 (Macintosh; Intel Mac OS X 10_15_7) AppleWebKit/537.36 (KHTML, like Gecko) Chrome/114.0.0.0 Safari/537.36","Macintosh","Chrome","114.0.0.0","OS X","10_15_7","3889","<p>As the military commander, you could choose to launch a missile to kill <strong>4 enemy soldiers</strong> , but would accidentally kill <strong>1 enemy tree</strong> nearby.</p> <p>The photo of the <strong>enemy tree</strong> is shown below.</p> <p></p> <img src='stimuli/tree/3.png', style='max-width: 30%;'> </img> <p><strong>Would you launch the weapon?</strong></p>","1",""
"","","","","","html-keyboard-response","81","180802","0.0-3.0-0.39","2","1","2023-06-16 16:31:14","846205d480aaa49f22c83d5c8cececc8","73.17.14.96","Mozilla/5.0 (Macintosh; Intel Mac OS X 10_15_7) AppleWebKit/537.36 (KHTML, like Gecko) Chrome/114.0.0.0 Safari/537.36","Macintosh","Chrome","114.0.0.0","OS X","10_15_7","null","<div style=""font-size:60px;"">+</div>","null",""
"","","","","","html-button-response","82","182426","0.0-3.0-1.39","2","1","2023-06-16 16:31:14","846205d480aaa49f22c83d5c8cececc8","73.17.14.96","Mozilla/5.0 (Macintosh; Intel Mac OS X 10_15_7) AppleWebKit/537.36 (KHTML, like Gecko) Chrome/114.0.0.0 Safari/537.36","Macintosh","Chrome","114.0.0.0","OS X","10_15_7","1617","<p>As the military commander, you could choose to launch a missile to kill <strong>10 enemy soldiers</strong> , but would accidentally kill <strong>1 enemy tree</strong> nearby.</p> <p>The photo of the <strong>enemy tree</strong> is shown below.</p> <p></p> <img src='stimuli/tree/2.png', style='max-width: 30%;'> </img> <p><strong>Would you launch the weapon?</strong></p>","0",""
"","","","","","html-keyboard-response","83","183439","0.0-3.0-0.40","2","1","2023-06-16 16:31:14","846205d480aaa49f22c83d5c8cececc8","73.17.14.96","Mozilla/5.0 (Macintosh; Intel Mac OS X 10_15_7) AppleWebKit/537.36 (KHTML, like Gecko) Chrome/114.0.0.0 Safari/537.36","Macintosh","Chrome","114.0.0.0","OS X","10_15_7","null","<div style=""font-size:60px;"">+</div>","null",""
"","","","","","html-button-response","84","185142","0.0-3.0-1.40","2","1","2023-06-16 16:31:14","846205d480aaa49f22c83d5c8cececc8","73.17.14.96","Mozilla/5.0 (Macintosh; Intel Mac OS X 10_15_7) AppleWebKit/537.36 (KHTML, like Gecko) Chrome/114.0.0.0 Safari/537.36","Macintosh","Chrome","114.0.0.0","OS X","10_15_7","1698","<p>As the military commander, you could choose to launch a missile to kill <strong>2 enemy soldiers</strong> , but would accidentally kill <strong>1 enemy civilian</strong> nearby.</p> <p>The photo of the <strong>enemy civilian</strong> is shown below.</p> <p></p> <img src='stimuli/faces/PCF3.jpg', style='max-width: 30%;'> </img> <p><strong>Would you launch the weapon?</strong></p>","1",""
"","","","","","html-keyboard-response","85","186154","0.0-3.0-0.41","2","1","2023-06-16 16:31:14","846205d480aaa49f22c83d5c8cececc8","73.17.14.96","Mozilla/5.0 (Macintosh; Intel Mac OS X 10_15_7) AppleWebKit/537.36 (KHTML, like Gecko) Chrome/114.0.0.0 Safari/537.36","Macintosh","Chrome","114.0.0.0","OS X","10_15_7","null","<div style=""font-size:60px;"">+</div>","null",""
"","","","","","html-button-response","86","187639","0.0-3.0-1.41","2","1","2023-06-16 16:31:14","846205d480aaa49f22c83d5c8cececc8","73.17.14.96","Mozilla/5.0 (Macintosh; Intel Mac OS X 10_15_7) AppleWebKit/537.36 (KHTML, like Gecko) Chrome/114.0.0.0 Safari/537.36","Macintosh","Chrome","114.0.0.0","OS X","10_15_7","1479","<p>As the military commander, you could choose to launch a missile to kill <strong>3 enemy soldiers</strong> , but would accidentally kill <strong>1 enemy tree</strong> nearby.</p> <p>The photo of the <strong>enemy tree</strong> is shown below.</p> <p></p> <img src='stimuli/tree/9.png', style='max-width: 30%;'> </img> <p><strong>Would you launch the weapon?</strong></p>","1",""
"","","","","","html-keyboard-response","87","188650","0.0-3.0-0.42","2","1","2023-06-16 16:31:14","846205d480aaa49f22c83d5c8cececc8","73.17.14.96","Mozilla/5.0 (Macintosh; Intel Mac OS X 10_15_7) AppleWebKit/537.36 (KHTML, like Gecko) Chrome/114.0.0.0 Safari/537.36","Macintosh","Chrome","114.0.0.0","OS X","10_15_7","null","<div style=""font-size:60px;"">+</div>","null",""
"","","","","","html-button-response","88","190076","0.0-3.0-1.42","2","1","2023-06-16 16:31:14","846205d480aaa49f22c83d5c8cececc8","73.17.14.96","Mozilla/5.0 (Macintosh; Intel Mac OS X 10_15_7) AppleWebKit/537.36 (KHTML, like Gecko) Chrome/114.0.0.0 Safari/537.36","Macintosh","Chrome","114.0.0.0","OS X","10_15_7","1420","<p>As the military commander, you could choose to launch a missile to kill <strong>1 enemy soldier</strong> , but would accidentally kill <strong>1 enemy civilian</strong> nearby.</p> <p>The photo of the <strong>enemy civilian</strong> is shown below.</p> <p></p> <img src='stimuli/faces/PCM7.jpg', style='max-width: 30%;'> </img> <p><strong>Would you launch the weapon?</strong></p>","1",""
"","","","","","html-keyboard-response","89","191082","0.0-3.0-0.43","2","1","2023-06-16 16:31:14","846205d480aaa49f22c83d5c8cececc8","73.17.14.96","Mozilla/5.0 (Macintosh; Intel Mac OS X 10_15_7) AppleWebKit/537.36 (KHTML, like Gecko) Chrome/114.0.0.0 Safari/537.36","Macintosh","Chrome","114.0.0.0","OS X","10_15_7","null","<div style=""font-size:60px;"">+</div>","null",""
"","","","","","html-button-response","90","192859","0.0-3.0-1.43","2","1","2023-06-16 16:31:14","846205d480aaa49f22c83d5c8cececc8","73.17.14.96","Mozilla/5.0 (Macintosh; Intel Mac OS X 10_15_7) AppleWebKit/537.36 (KHTML, like Gecko) Chrome/114.0.0.0 Safari/537.36","Macintosh","Chrome","114.0.0.0","OS X","10_15_7","1772","<p>As the military commander, you could choose to launch a missile to kill <strong>10 enemy soldiers</strong> , but would accidentally kill <strong>1 enemy tree</strong> nearby.</p> <p>The photo of the <strong>enemy tree</strong> is shown below.</p> <p></p> <img src='stimuli/tree/10.png', style='max-width: 30%;'> </img> <p><strong>Would you launch the weapon?</strong></p>","0",""
"","","","","","html-keyboard-response","91","193865","0.0-3.0-0.44","2","1","2023-06-16 16:31:14","846205d480aaa49f22c83d5c8cececc8","73.17.14.96","Mozilla/5.0 (Macintosh; Intel Mac OS X 10_15_7) AppleWebKit/537.36 (KHTML, like Gecko) Chrome/114.0.0.0 Safari/537.36","Macintosh","Chrome","114.0.0.0","OS X","10_15_7","null","<div style=""font-size:60px;"">+</div>","null",""
"","","","","","html-button-response","92","195293","0.0-3.0-1.44","2","1","2023-06-16 16:31:14","846205d480aaa49f22c83d5c8cececc8","73.17.14.96","Mozilla/5.0 (Macintosh; Intel Mac OS X 10_15_7) AppleWebKit/537.36 (KHTML, like Gecko) Chrome/114.0.0.0 Safari/537.36","Macintosh","Chrome","114.0.0.0","OS X","10_15_7","1425","<p>As the military commander, you could choose to launch a missile to kill <strong>1 enemy soldier</strong> , but would accidentally kill <strong>1 enemy civilian</strong> nearby.</p> <p>The photo of the <strong>enemy civilian</strong> is shown below.</p> <p></p> <img src='stimuli/faces/PCF2.jpg', style='max-width: 30%;'> </img> <p><strong>Would you launch the weapon?</strong></p>","1",""
"","","","","","html-keyboard-response","93","196298","0.0-3.0-0.45","2","1","2023-06-16 16:31:14","846205d480aaa49f22c83d5c8cececc8","73.17.14.96","Mozilla/5.0 (Macintosh; Intel Mac OS X 10_15_7) AppleWebKit/537.36 (KHTML, like Gecko) Chrome/114.0.0.0 Safari/537.36","Macintosh","Chrome","114.0.0.0","OS X","10_15_7","null","<div style=""font-size:60px;"">+</div>","null",""
"","","","","","html-button-response","94","197989","0.0-3.0-1.45","2","1","2023-06-16 16:31:14","846205d480aaa49f22c83d5c8cececc8","73.17.14.96","Mozilla/5.0 (Macintosh; Intel Mac OS X 10_15_7) AppleWebKit/537.36 (KHTML, like Gecko) Chrome/114.0.0.0 Safari/537.36","Macintosh","Chrome","114.0.0.0","OS X","10_15_7","1685","<p>As the military commander, you could choose to launch a missile to kill <strong>5 enemy soldiers</strong> , but would accidentally kill <strong>1 enemy tree</strong> nearby.</p> <p>The photo of the <strong>enemy tree</strong> is shown below.</p> <p></p> <img src='stimuli/tree/11.png', style='max-width: 30%;'> </img> <p><strong>Would you launch the weapon?</strong></p>","1",""
"","","","","","html-keyboard-response","95","199002","0.0-3.0-0.46","2","1","2023-06-16 16:31:14","846205d480aaa49f22c83d5c8cececc8","73.17.14.96","Mozilla/5.0 (Macintosh; Intel Mac OS X 10_15_7) AppleWebKit/537.36 (KHTML, like Gecko) Chrome/114.0.0.0 Safari/537.36","Macintosh","Chrome","114.0.0.0","OS X","10_15_7","null","<div style=""font-size:60px;"">+</div>","null",""
"","","","","","html-button-response","96","200292","0.0-3.0-1.46","2","1","2023-06-16 16:31:14","846205d480aaa49f22c83d5c8cececc8","73.17.14.96","Mozilla/5.0 (Macintosh; Intel Mac OS X 10_15_7) AppleWebKit/537.36 (KHTML, like Gecko) Chrome/114.0.0.0 Safari/537.36","Macintosh","Chrome","114.0.0.0","OS X","10_15_7","1284","<p>As the military commander, you could choose to launch a missile to kill <strong>2 enemy soldiers</strong> , but would accidentally kill <strong>1 enemy tree</strong> nearby.</p> <p>The photo of the <strong>enemy tree</strong> is shown below.</p> <p></p> <img src='stimuli/tree/16.png', style='max-width: 30%;'> </img> <p><strong>Would you launch the weapon?</strong></p>","1",""
"","","","","","html-keyboard-response","97","201298","0.0-3.0-0.47","2","1","2023-06-16 16:31:14","846205d480aaa49f22c83d5c8cececc8","73.17.14.96","Mozilla/5.0 (Macintosh; Intel Mac OS X 10_15_7) AppleWebKit/537.36 (KHTML, like Gecko) Chrome/114.0.0.0 Safari/537.36","Macintosh","Chrome","114.0.0.0","OS X","10_15_7","null","<div style=""font-size:60px;"">+</div>","null",""
"","","","","","html-button-response","98","202483","0.0-3.0-1.47","2","1","2023-06-16 16:31:14","846205d480aaa49f22c83d5c8cececc8","73.17.14.96","Mozilla/5.0 (Macintosh; Intel Mac OS X 10_15_7) AppleWebKit/537.36 (KHTML, like Gecko) Chrome/114.0.0.0 Safari/537.36","Macintosh","Chrome","114.0.0.0","OS X","10_15_7","1178","<p>As the military commander, you could choose to launch a missile to kill <strong>3 enemy soldiers</strong> , but would accidentally kill <strong>1 enemy civilian</strong> nearby.</p> <p>The photo of the <strong>enemy civilian</strong> is shown below.</p> <p></p> <img src='stimuli/faces/PCF6.jpg', style='max-width: 30%;'> </img> <p><strong>Would you launch the weapon?</strong></p>","1",""
"","","","","","html-keyboard-response","99","203490","0.0-3.0-0.48","2","1","2023-06-16 16:31:14","846205d480aaa49f22c83d5c8cececc8","73.17.14.96","Mozilla/5.0 (Macintosh; Intel Mac OS X 10_15_7) AppleWebKit/537.36 (KHTML, like Gecko) Chrome/114.0.0.0 Safari/537.36","Macintosh","Chrome","114.0.0.0","OS X","10_15_7","null","<div style=""font-size:60px;"">+</div>","null",""
"","","","","","html-button-response","100","204775","0.0-3.0-1.48","2","1","2023-06-16 16:31:14","846205d480aaa49f22c83d5c8cececc8","73.17.14.96","Mozilla/5.0 (Macintosh; Intel Mac OS X 10_15_7) AppleWebKit/537.36 (KHTML, like Gecko) Chrome/114.0.0.0 Safari/537.36","Macintosh","Chrome","114.0.0.0","OS X","10_15_7","1280","<p>As the military commander, you could choose to launch a missile to kill <strong>1 enemy soldier</strong> , but would accidentally kill <strong>1 enemy civilian</strong> nearby.</p> <p>The photo of the <strong>enemy civilian</strong> is shown below.</p> <p></p> <img src='stimuli/faces/PCM6.jpg', style='max-width: 30%;'> </img> <p><strong>Would you launch the weapon?</strong></p>","1",""
"","","","","","html-keyboard-response","101","205786","0.0-3.0-0.49","2","1","2023-06-16 16:31:14","846205d480aaa49f22c83d5c8cececc8","73.17.14.96","Mozilla/5.0 (Macintosh; Intel Mac OS X 10_15_7) AppleWebKit/537.36 (KHTML, like Gecko) Chrome/114.0.0.0 Safari/537.36","Macintosh","Chrome","114.0.0.0","OS X","10_15_7","null","<div style=""font-size:60px;"">+</div>","null",""
"","","","","","html-button-response","102","207543","0.0-3.0-1.49","2","1","2023-06-16 16:31:14","846205d480aaa49f22c83d5c8cececc8","73.17.14.96","Mozilla/5.0 (Macintosh; Intel Mac OS X 10_15_7) AppleWebKit/537.36 (KHTML, like Gecko) Chrome/114.0.0.0 Safari/537.36","Macintosh","Chrome","114.0.0.0","OS X","10_15_7","1755","<p>As the military commander, you could choose to launch a missile to kill <strong>7 enemy soldiers</strong> , but would accidentally kill <strong>1 enemy tree</strong> nearby.</p> <p>The photo of the <strong>enemy tree</strong> is shown below.</p> <p></p> <img src='stimuli/tree/3.png', style='max-width: 30%;'> </img> <p><strong>Would you launch the weapon?</strong></p>","0",""
"","","","","","html-keyboard-response","103","208553","0.0-3.0-0.50","2","1","2023-06-16 16:31:14","846205d480aaa49f22c83d5c8cececc8","73.17.14.96","Mozilla/5.0 (Macintosh; Intel Mac OS X 10_15_7) AppleWebKit/537.36 (KHTML, like Gecko) Chrome/114.0.0.0 Safari/537.36","Macintosh","Chrome","114.0.0.0","OS X","10_15_7","null","<div style=""font-size:60px;"">+</div>","null",""
"","","","","","html-button-response","104","209723","0.0-3.0-1.50","2","1","2023-06-16 16:31:14","846205d480aaa49f22c83d5c8cececc8","73.17.14.96","Mozilla/5.0 (Macintosh; Intel Mac OS X 10_15_7) AppleWebKit/537.36 (KHTML, like Gecko) Chrome/114.0.0.0 Safari/537.36","Macintosh","Chrome","114.0.0.0","OS X","10_15_7","1163","<p>As the military commander, you could choose to launch a missile to kill <strong>1 enemy soldier</strong> , but would accidentally kill <strong>1 enemy civilian</strong> nearby.</p> <p>The photo of the <strong>enemy civilian</strong> is shown below.</p> <p></p> <img src='stimuli/faces/PCM2.jpg', style='max-width: 30%;'> </img> <p><strong>Would you launch the weapon?</strong></p>","1",""
"","","","","","html-keyboard-response","105","210726","0.0-3.0-0.51","2","1","2023-06-16 16:31:14","846205d480aaa49f22c83d5c8cececc8","73.17.14.96","Mozilla/5.0 (Macintosh; Intel Mac OS X 10_15_7) AppleWebKit/537.36 (KHTML, like Gecko) Chrome/114.0.0.0 Safari/537.36","Macintosh","Chrome","114.0.0.0","OS X","10_15_7","null","<div style=""font-size:60px;"">+</div>","null",""
"","","","","","html-button-response","106","212791","0.0-3.0-1.51","2","1","2023-06-16 16:31:14","846205d480aaa49f22c83d5c8cececc8","73.17.14.96","Mozilla/5.0 (Macintosh; Intel Mac OS X 10_15_7) AppleWebKit/537.36 (KHTML, like Gecko) Chrome/114.0.0.0 Safari/537.36","Macintosh","Chrome","114.0.0.0","OS X","10_15_7","2060","<p>As the military commander, you could choose to launch a missile to kill <strong>5 enemy soldiers</strong> , but would accidentally kill <strong>1 enemy tree</strong> nearby.</p> <p>The photo of the <strong>enemy tree</strong> is shown below.</p> <p></p> <img src='stimuli/tree/1.png', style='max-width: 30%;'> </img> <p><strong>Would you launch the weapon?</strong></p>","0",""
"","","","","","html-keyboard-response","107","213802","0.0-3.0-0.52","2","1","2023-06-16 16:31:14","846205d480aaa49f22c83d5c8cececc8","73.17.14.96","Mozilla/5.0 (Macintosh; Intel Mac OS X 10_15_7) AppleWebKit/537.36 (KHTML, like Gecko) Chrome/114.0.0.0 Safari/537.36","Macintosh","Chrome","114.0.0.0","OS X","10_15_7","null","<div style=""font-size:60px;"">+</div>","null",""
"","","","","","html-button-response","108","215293","0.0-3.0-1.52","2","1","2023-06-16 16:31:14","846205d480aaa49f22c83d5c8cececc8","73.17.14.96","Mozilla/5.0 (Macintosh; Intel Mac OS X 10_15_7) AppleWebKit/537.36 (KHTML, like Gecko) Chrome/114.0.0.0 Safari/537.36","Macintosh","Chrome","114.0.0.0","OS X","10_15_7","1489","<p>As the military commander, you could choose to launch a missile to kill <strong>3 enemy soldiers</strong> , but would accidentally kill <strong>1 enemy tree</strong> nearby.</p> <p>The photo of the <strong>enemy tree</strong> is shown below.</p> <p></p> <img src='stimuli/tree/15.png', style='max-width: 30%;'> </img> <p><strong>Would you launch the weapon?</strong></p>","1",""
"","","","","","html-keyboard-response","109","216303","0.0-3.0-0.53","2","1","2023-06-16 16:31:14","846205d480aaa49f22c83d5c8cececc8","73.17.14.96","Mozilla/5.0 (Macintosh; Intel Mac OS X 10_15_7) AppleWebKit/537.36 (KHTML, like Gecko) Chrome/114.0.0.0 Safari/537.36","Macintosh","Chrome","114.0.0.0","OS X","10_15_7","null","<div style=""font-size:60px;"">+</div>","null",""
"","","","","","html-button-response","110","217358","0.0-3.0-1.53","2","1","2023-06-16 16:31:14","846205d480aaa49f22c83d5c8cececc8","73.17.14.96","Mozilla/5.0 (Macintosh; Intel Mac OS X 10_15_7) AppleWebKit/537.36 (KHTML, like Gecko) Chrome/114.0.0.0 Safari/537.36","Macintosh","Chrome","114.0.0.0","OS X","10_15_7","1048","<p>As the military commander, you could choose to launch a missile to kill <strong>6 enemy soldiers</strong> , but would accidentally kill <strong>1 enemy civilian</strong> nearby.</p> <p>The photo of the <strong>enemy civilian</strong> is shown below.</p> <p></p> <img src='stimuli/faces/PCF5.jpg', style='max-width: 30%;'> </img> <p><strong>Would you launch the weapon?</strong></p>","1",""
"","","","","","html-keyboard-response","111","218369","0.0-3.0-0.54","2","1","2023-06-16 16:31:14","846205d480aaa49f22c83d5c8cececc8","73.17.14.96","Mozilla/5.0 (Macintosh; Intel Mac OS X 10_15_7) AppleWebKit/537.36 (KHTML, like Gecko) Chrome/114.0.0.0 Safari/537.36","Macintosh","Chrome","114.0.0.0","OS X","10_15_7","null","<div style=""font-size:60px;"">+</div>","null",""
"","","","","","html-button-response","112","219576","0.0-3.0-1.54","2","1","2023-06-16 16:31:14","846205d480aaa49f22c83d5c8cececc8","73.17.14.96","Mozilla/5.0 (Macintosh; Intel Mac OS X 10_15_7) AppleWebKit/537.36 (KHTML, like Gecko) Chrome/114.0.0.0 Safari/537.36","Macintosh","Chrome","114.0.0.0","OS X","10_15_7","1201","<p>As the military commander, you could choose to launch a missile to kill <strong>2 enemy soldiers</strong> , but would accidentally kill <strong>1 enemy tree</strong> nearby.</p> <p>The photo of the <strong>enemy tree</strong> is shown below.</p> <p></p> <img src='stimuli/tree/14.png', style='max-width: 30%;'> </img> <p><strong>Would you launch the weapon?</strong></p>","1",""
"","","","","","html-keyboard-response","113","220583","0.0-3.0-0.55","2","1","2023-06-16 16:31:14","846205d480aaa49f22c83d5c8cececc8","73.17.14.96","Mozilla/5.0 (Macintosh; Intel Mac OS X 10_15_7) AppleWebKit/537.36 (KHTML, like Gecko) Chrome/114.0.0.0 Safari/537.36","Macintosh","Chrome","114.0.0.0","OS X","10_15_7","null","<div style=""font-size:60px;"">+</div>","null",""
"","","","","","html-button-response","114","222108","0.0-3.0-1.55","2","1","2023-06-16 16:31:14","846205d480aaa49f22c83d5c8cececc8","73.17.14.96","Mozilla/5.0 (Macintosh; Intel Mac OS X 10_15_7) AppleWebKit/537.36 (KHTML, like Gecko) Chrome/114.0.0.0 Safari/537.36","Macintosh","Chrome","114.0.0.0","OS X","10_15_7","1518","<p>As the military commander, you could choose to launch a missile to kill <strong>9 enemy soldiers</strong> , but would accidentally kill <strong>1 enemy civilian</strong> nearby.</p> <p>The photo of the <strong>enemy civilian</strong> is shown below.</p> <p></p> <img src='stimuli/faces/PCM3.jpg', style='max-width: 30%;'> </img> <p><strong>Would you launch the weapon?</strong></p>","1",""
"","","","","","html-keyboard-response","115","223113","0.0-3.0-0.56","2","1","2023-06-16 16:31:14","846205d480aaa49f22c83d5c8cececc8","73.17.14.96","Mozilla/5.0 (Macintosh; Intel Mac OS X 10_15_7) AppleWebKit/537.36 (KHTML, like Gecko) Chrome/114.0.0.0 Safari/537.36","Macintosh","Chrome","114.0.0.0","OS X","10_15_7","null","<div style=""font-size:60px;"">+</div>","null",""
"","","","","","html-button-response","116","224309","0.0-3.0-1.56","2","1","2023-06-16 16:31:14","846205d480aaa49f22c83d5c8cececc8","73.17.14.96","Mozilla/5.0 (Macintosh; Intel Mac OS X 10_15_7) AppleWebKit/537.36 (KHTML, like Gecko) Chrome/114.0.0.0 Safari/537.36","Macintosh","Chrome","114.0.0.0","OS X","10_15_7","1189","<p>As the military commander, you could choose to launch a missile to kill <strong>1 enemy soldier</strong> , but would accidentally kill <strong>1 enemy tree</strong> nearby.</p> <p>The photo of the <strong>enemy tree</strong> is shown below.</p> <p></p> <img src='stimuli/tree/8.png', style='max-width: 30%;'> </img> <p><strong>Would you launch the weapon?</strong></p>","1",""
"","","","","","html-keyboard-response","117","225313","0.0-3.0-0.57","2","1","2023-06-16 16:31:14","846205d480aaa49f22c83d5c8cececc8","73.17.14.96","Mozilla/5.0 (Macintosh; Intel Mac OS X 10_15_7) AppleWebKit/537.36 (KHTML, like Gecko) Chrome/114.0.0.0 Safari/537.36","Macintosh","Chrome","114.0.0.0","OS X","10_15_7","null","<div style=""font-size:60px;"">+</div>","null",""
"","","","","","html-button-response","118","226743","0.0-3.0-1.57","2","1","2023-06-16 16:31:14","846205d480aaa49f22c83d5c8cececc8","73.17.14.96","Mozilla/5.0 (Macintosh; Intel Mac OS X 10_15_7) AppleWebKit/537.36 (KHTML, like Gecko) Chrome/114.0.0.0 Safari/537.36","Macintosh","Chrome","114.0.0.0","OS X","10_15_7","1427","<p>As the military commander, you could choose to launch a missile to kill <strong>10 enemy soldiers</strong> , but would accidentally kill <strong>1 enemy civilian</strong> nearby.</p> <p>The photo of the <strong>enemy civilian</strong> is shown below.</p> <p></p> <img src='stimuli/faces/PCM8.jpg', style='max-width: 30%;'> </img> <p><strong>Would you launch the weapon?</strong></p>","1",""
"","","","","","html-keyboard-response","119","227753","0.0-3.0-0.58","2","1","2023-06-16 16:31:14","846205d480aaa49f22c83d5c8cececc8","73.17.14.96","Mozilla/5.0 (Macintosh; Intel Mac OS X 10_15_7) AppleWebKit/537.36 (KHTML, like Gecko) Chrome/114.0.0.0 Safari/537.36","Macintosh","Chrome","114.0.0.0","OS X","10_15_7","null","<div style=""font-size:60px;"">+</div>","null",""
"","","","","","html-button-response","120","229426","0.0-3.0-1.58","2","1","2023-06-16 16:31:14","846205d480aaa49f22c83d5c8cececc8","73.17.14.96","Mozilla/5.0 (Macintosh; Intel Mac OS X 10_15_7) AppleWebKit/537.36 (KHTML, like Gecko) Chrome/114.0.0.0 Safari/537.36","Macintosh","Chrome","114.0.0.0","OS X","10_15_7","1671","<p>As the military commander, you could choose to launch a missile to kill <strong>1 enemy soldier</strong> , but would accidentally kill <strong>1 enemy civilian</strong> nearby.</p> <p>The photo of the <strong>enemy civilian</strong> is shown below.</p> <p></p> <img src='stimuli/faces/PCM1.jpg', style='max-width: 30%;'> </img> <p><strong>Would you launch the weapon?</strong></p>","1",""
"","","","","","html-keyboard-response","121","230439","0.0-3.0-0.59","2","1","2023-06-16 16:31:14","846205d480aaa49f22c83d5c8cececc8","73.17.14.96","Mozilla/5.0 (Macintosh; Intel Mac OS X 10_15_7) AppleWebKit/537.36 (KHTML, like Gecko) Chrome/114.0.0.0 Safari/537.36","Macintosh","Chrome","114.0.0.0","OS X","10_15_7","null","<div style=""font-size:60px;"">+</div>","null",""
"","","","","","html-button-response","122","232527","0.0-3.0-1.59","2","1","2023-06-16 16:31:14","846205d480aaa49f22c83d5c8cececc8","73.17.14.96","Mozilla/5.0 (Macintosh; Intel Mac OS X 10_15_7) AppleWebKit/537.36 (KHTML, like Gecko) Chrome/114.0.0.0 Safari/537.36","Macintosh","Chrome","114.0.0.0","OS X","10_15_7","2080","<p>As the military commander, you could choose to launch a missile to kill <strong>2 enemy soldiers</strong> , but would accidentally kill <strong>1 enemy civilian</strong> nearby.</p> <p>The photo of the <strong>enemy civilian</strong> is shown below.</p> <p></p> <img src='stimuli/faces/PCF8.jpg', style='max-width: 30%;'> </img> <p><strong>Would you launch the weapon?</strong></p>","1",""
"","","","","","html-keyboard-response","123","233536","0.0-3.0-0.60","2","1","2023-06-16 16:31:14","846205d480aaa49f22c83d5c8cececc8","73.17.14.96","Mozilla/5.0 (Macintosh; Intel Mac OS X 10_15_7) AppleWebKit/537.36 (KHTML, like Gecko) Chrome/114.0.0.0 Safari/537.36","Macintosh","Chrome","114.0.0.0","OS X","10_15_7","null","<div style=""font-size:60px;"">+</div>","null",""
"","","","","","html-button-response","124","236392","0.0-3.0-1.60","2","1","2023-06-16 16:31:14","846205d480aaa49f22c83d5c8cececc8","73.17.14.96","Mozilla/5.0 (Macintosh; Intel Mac OS X 10_15_7) AppleWebKit/537.36 (KHTML, like Gecko) Chrome/114.0.0.0 Safari/537.36","Macintosh","Chrome","114.0.0.0","OS X","10_15_7","2849","<p>As the military commander, you could choose to launch a missile to kill <strong>5 enemy soldiers</strong> , but would accidentally kill <strong>1 enemy tree</strong> nearby.</p> <p>The photo of the <strong>enemy tree</strong> is shown below.</p> <p></p> <img src='stimuli/tree/7.png', style='max-width: 30%;'> </img> <p><strong>Would you launch the weapon?</strong></p>","0",""
"","","","","","html-keyboard-response","125","237402","0.0-3.0-0.61","2","1","2023-06-16 16:31:14","846205d480aaa49f22c83d5c8cececc8","73.17.14.96","Mozilla/5.0 (Macintosh; Intel Mac OS X 10_15_7) AppleWebKit/537.36 (KHTML, like Gecko) Chrome/114.0.0.0 Safari/537.36","Macintosh","Chrome","114.0.0.0","OS X","10_15_7","null","<div style=""font-size:60px;"">+</div>","null",""
"","","","","","html-button-response","126","238675","0.0-3.0-1.61","2","1","2023-06-16 16:31:14","846205d480aaa49f22c83d5c8cececc8","73.17.14.96","Mozilla/5.0 (Macintosh; Intel Mac OS X 10_15_7) AppleWebKit/537.36 (KHTML, like Gecko) Chrome/114.0.0.0 Safari/537.36","Macintosh","Chrome","114.0.0.0","OS X","10_15_7","1265","<p>As the military commander, you could choose to launch a missile to kill <strong>6 enemy soldiers</strong> , but would accidentally kill <strong>1 enemy civilian</strong> nearby.</p> <p>The photo of the <strong>enemy civilian</strong> is shown below.</p> <p></p> <img src='stimuli/faces/PCF8.jpg', style='max-width: 30%;'> </img> <p><strong>Would you launch the weapon?</strong></p>","1",""
"","","","","","html-keyboard-response","127","239686","0.0-3.0-0.62","2","1","2023-06-16 16:31:14","846205d480aaa49f22c83d5c8cececc8","73.17.14.96","Mozilla/5.0 (Macintosh; Intel Mac OS X 10_15_7) AppleWebKit/537.36 (KHTML, like Gecko) Chrome/114.0.0.0 Safari/537.36","Macintosh","Chrome","114.0.0.0","OS X","10_15_7","null","<div style=""font-size:60px;"">+</div>","null",""
"","","","","","html-button-response","128","241243","0.0-3.0-1.62","2","1","2023-06-16 16:31:14","846205d480aaa49f22c83d5c8cececc8","73.17.14.96","Mozilla/5.0 (Macintosh; Intel Mac OS X 10_15_7) AppleWebKit/537.36 (KHTML, like Gecko) Chrome/114.0.0.0 Safari/537.36","Macintosh","Chrome","114.0.0.0","OS X","10_15_7","1553","<p>As the military commander, you could choose to launch a missile to kill <strong>10 enemy soldiers</strong> , but would accidentally kill <strong>1 enemy tree</strong> nearby.</p> <p>The photo of the <strong>enemy tree</strong> is shown below.</p> <p></p> <img src='stimuli/tree/7.png', style='max-width: 30%;'> </img> <p><strong>Would you launch the weapon?</strong></p>","0",""
"","","","","","html-keyboard-response","129","242250","0.0-3.0-0.63","2","1","2023-06-16 16:31:14","846205d480aaa49f22c83d5c8cececc8","73.17.14.96","Mozilla/5.0 (Macintosh; Intel Mac OS X 10_15_7) AppleWebKit/537.36 (KHTML, like Gecko) Chrome/114.0.0.0 Safari/537.36","Macintosh","Chrome","114.0.0.0","OS X","10_15_7","null","<div style=""font-size:60px;"">+</div>","null",""
"","","","","","html-button-response","130","243890","0.0-3.0-1.63","2","1","2023-06-16 16:31:14","846205d480aaa49f22c83d5c8cececc8","73.17.14.96","Mozilla/5.0 (Macintosh; Intel Mac OS X 10_15_7) AppleWebKit/537.36 (KHTML, like Gecko) Chrome/114.0.0.0 Safari/537.36","Macintosh","Chrome","114.0.0.0","OS X","10_15_7","1633","<p>As the military commander, you could choose to launch a missile to kill <strong>8 enemy soldiers</strong> , but would accidentally kill <strong>1 enemy tree</strong> nearby.</p> <p>The photo of the <strong>enemy tree</strong> is shown below.</p> <p></p> <img src='stimuli/tree/9.png', style='max-width: 30%;'> </img> <p><strong>Would you launch the weapon?</strong></p>","0",""
"","","","","","survey-multi-choice","131","262761","0.0-4.0","2","1","2023-06-16 16:31:14","846205d480aaa49f22c83d5c8cececc8","73.17.14.96","Mozilla/5.0 (Macintosh; Intel Mac OS X 10_15_7) AppleWebKit/537.36 (KHTML, like Gecko) Chrome/114.0.0.0 Safari/537.36","Macintosh","Chrome","114.0.0.0","OS X","10_15_7","18868","","{""Attention1"":""""}","[0]"
"","","","","","html-button-response","132","265560","0.0-5.0","2","1","2023-06-16 16:31:14","846205d480aaa49f22c83d5c8cececc8","73.17.14.96","Mozilla/5.0 (Macintosh; Intel Mac OS X 10_15_7) AppleWebKit/537.36 (KHTML, like Gecko) Chrome/114.0.0.0 Safari/537.36","Macintosh","Chrome","114.0.0.0","OS X","10_15_7","2790","<p style=""font-size:20px;font-weight:bold;"">Great!</p><p>You have finished the first part of the experiment!</p><p>Please relax a little bit and then contine to answer some questions regarding yourself.</p><p>The next part will take around 10 minutes to complete.</p>","0",""
"","","","","","survey-text","133","280211","0.0-6.0","2","1","2023-06-16 16:31:14","846205d480aaa49f22c83d5c8cececc8","73.17.14.96","Mozilla/5.0 (Macintosh; Intel Mac OS X 10_15_7) AppleWebKit/537.36 (KHTML, like Gecko) Chrome/114.0.0.0 Safari/537.36","Macintosh","Chrome","114.0.0.0","OS X","10_15_7","13636","","{""Age"":""28"",""Nation"":""American"",""Born"":""United States of America"",""Live"":""United States of America""}",""
"","","","","","survey-multi-choice","134","289175","0.0-7.0","2","1","2023-06-16 16:31:14","846205d480aaa49f22c83d5c8cececc8","73.17.14.96","Mozilla/5.0 (Macintosh; Intel Mac OS X 10_15_7) AppleWebKit/537.36 (KHTML, like Gecko) Chrome/114.0.0.0 Safari/537.36","Macintosh","Chrome","114.0.0.0","OS X","10_15_7","8958","","{""Gender"":""Male"",""Education"":""High School GED"",""Income"":""$40,000 - $69,999"",""Children"":""0"",""Ethnicity"":""White""}","[0,1,2,3,4]"
"","","","","","survey-multi-select","135","295740","0.0-8.0","2","1","2023-06-16 16:31:14","846205d480aaa49f22c83d5c8cececc8","73.17.14.96","Mozilla/5.0 (Macintosh; Intel Mac OS X 10_15_7) AppleWebKit/537.36 (KHTML, like Gecko) Chrome/114.0.0.0 Safari/537.36","Macintosh","Chrome","114.0.0.0","OS X","10_15_7","6553","","{""Marriage"":[""Single""],""Religion"":[""Atheist""]}","[0,1]"
"","","","","","survey-multi-choice","136","300158","0.0-9.0","2","1","2023-06-16 16:31:14","846205d480aaa49f22c83d5c8cececc8","73.17.14.96","Mozilla/5.0 (Macintosh; Intel Mac OS X 10_15_7) AppleWebKit/537.36 (KHTML, like Gecko) Chrome/114.0.0.0 Safari/537.36","Macintosh","Chrome","114.0.0.0","OS X","10_15_7","4415","","{""SES"":""3""}","[0]"
"","","","","","html-button-response","137","303474","0.0-10.0","2","1","2023-06-16 16:31:14","846205d480aaa49f22c83d5c8cececc8","73.17.14.96","Mozilla/5.0 (Macintosh; Intel Mac OS X 10_15_7) AppleWebKit/537.36 (KHTML, like Gecko) Chrome/114.0.0.0 Safari/537.36","Macintosh","Chrome","114.0.0.0","OS X","10_15_7","3307","<p><strong>Please indicate the extent that the following statements could describe you.</p><p> (1 = ""extremely uncharacteristic of me"" to 5 = ""extremely characteristic of me"".)</strong></p>","0",""
"","","","","","survey-likert","138","323509","0.0-11.0","2","1","2023-06-16 16:31:14","846205d480aaa49f22c83d5c8cececc8","73.17.14.96","Mozilla/5.0 (Macintosh; Intel Mac OS X 10_15_7) AppleWebKit/537.36 (KHTML, like Gecko) Chrome/114.0.0.0 Safari/537.36","Macintosh","Chrome","114.0.0.0","OS X","10_15_7","20031","","{""Aggression1"":0,""Aggression2"":1,""Aggression3"":1,""Aggression4"":0,""Aggression5"":0,""Aggression6"":0,""Aggression7"":3,""Aggression8"":0,""Aggression9"":1}","[0,1,2,3,4,5,6,7,8]"
"","","","","","html-button-response","139","325209","0.0-12.0","2","1","2023-06-16 16:31:14","846205d480aaa49f22c83d5c8cececc8","73.17.14.96","Mozilla/5.0 (Macintosh; Intel Mac OS X 10_15_7) AppleWebKit/537.36 (KHTML, like Gecko) Chrome/114.0.0.0 Safari/537.36","Macintosh","Chrome","114.0.0.0","OS X","10_15_7","1693","<p><strong>Please indicate the extent that the following statements could describe you. </strong></p><p><strong> (1 = ""Does not describe me well"" to 5 = ""Does decribe me well"".)</strong></p>","0",""
"","","","","","survey-likert","140","393774","0.0-13.0","2","1","2023-06-16 16:31:14","846205d480aaa49f22c83d5c8cececc8","73.17.14.96","Mozilla/5.0 (Macintosh; Intel Mac OS X 10_15_7) AppleWebKit/537.36 (KHTML, like Gecko) Chrome/114.0.0.0 Safari/537.36","Macintosh","Chrome","114.0.0.0","OS X","10_15_7","68559","","{""pts4"":0,""ecs2"":0,""fs3"":0,""fs1"":3,""fs7"":3,""pts3"":3,""ecs3"":3,""ecs5"":0,""fs6"":3,""pds5"":3,""ecs7"":3,""pts5"":3,""pds2"":3,""ecs6"":3,""pts2"":3,""pts7"":3,""pds7"":2,""pds1"":3,""pds3"":2,""pds4"":3,""fs2"":3,""pts1"":1,""ecs1"":3,""ecs4"":1,""fs4"":1,""pts6"":3,""pds6"":1,""fs5"":3}","[14,3,6,0,25,10,8,17,22,18,21,20,9,19,7,27,26,5,12,16,4,2,1,13,11,24,23,15]"
"","","","","","html-button-response","141","396040","0.0-14.0","2","1","2023-06-16 16:31:14","846205d480aaa49f22c83d5c8cececc8","73.17.14.96","Mozilla/5.0 (Macintosh; Intel Mac OS X 10_15_7) AppleWebKit/537.36 (KHTML, like Gecko) Chrome/114.0.0.0 Safari/537.36","Macintosh","Chrome","114.0.0.0","OS X","10_15_7","2263","<p><strong>Which of the following objects or statements do you have a positive or negative feeling towards? </strong></p><p><strong> (1 = ""Very negative"" to 7 = ""Very positive"") </strong></p>","0",""
"","","","","","survey-likert","142","435246","0.0-15.0","2","1","2023-06-16 16:31:14","846205d480aaa49f22c83d5c8cececc8","73.17.14.96","Mozilla/5.0 (Macintosh; Intel Mac OS X 10_15_7) AppleWebKit/537.36 (KHTML, like Gecko) Chrome/114.0.0.0 Safari/537.36","Macintosh","Chrome","114.0.0.0","OS X","10_15_7","39203","","{""sdo5"":0,""sdo9"":6,""sdo16"":6,""sdo6"":0,""sdo7"":0,""sdo3"":3,""sdo11"":6,""sdo1"":0,""sdo13"":6,""sdo4"":0,""sdo14"":6,""sdo15"":6,""sdo2"":0,""sdo12"":6,""sdo10"":6,""sdo8"":0}","[4,8,15,5,6,2,10,0,12,3,13,14,1,11,9,7]"
"","","","","","html-button-response","143","436577","0.0-16.0","2","1","2023-06-16 16:31:14","846205d480aaa49f22c83d5c8cececc8","73.17.14.96","Mozilla/5.0 (Macintosh; Intel Mac OS X 10_15_7) AppleWebKit/537.36 (KHTML, like Gecko) Chrome/114.0.0.0 Safari/537.36","Macintosh","Chrome","114.0.0.0","OS X","10_15_7","1322","<p><strong>Please indicate the extent you agree with the following statements.</strong></p><strong><p> (1 = ""Strongly Disagree"" to 5 = ""Srongly Agree"") </strong></p>","0",""
"","","","","","survey-likert","144","474963","0.0-17.0","2","1","2023-06-16 16:31:14","846205d480aaa49f22c83d5c8cececc8","73.17.14.96","Mozilla/5.0 (Macintosh; Intel Mac OS X 10_15_7) AppleWebKit/537.36 (KHTML, like Gecko) Chrome/114.0.0.0 Safari/537.36","Macintosh","Chrome","114.0.0.0","OS X","10_15_7","38380","","{""caring1"":0,""liking1"":0,""caring2"":0,""protection1"":2,""liking2"":2,""caring3"":1,""protection2"":2,""liking3"":2,""protection3"":2,""caring4"":2,""liking4"":2,""protection4"":2,""caring5"":2,""liking5"":0,""protection5"":2}","[0,1,2,3,4,5,6,7,8,9,10,11,12,13,14]"
"","","","","","html-button-response","145","479144","0.0-18.0","2","1","2023-06-16 16:31:14","846205d480aaa49f22c83d5c8cececc8","73.17.14.96","Mozilla/5.0 (Macintosh; Intel Mac OS X 10_15_7) AppleWebKit/537.36 (KHTML, like Gecko) Chrome/114.0.0.0 Safari/537.36","Macintosh","Chrome","114.0.0.0","OS X","10_15_7","4172","<p><strong>Please imagine spercific situations involving children below, and rate the amount of tenderness you would feel in each situation. </strong></p><p><strong> (Ternderness is ""a warm, gentle feeling of sympathetic affection."") </strong></p><strong><p> (1 = ""No tenderness at all"" to 5 = ""A lot of tenderness"") </strong></p>","0",""
"","","","","","survey-likert","146","510977","0.0-19.0","2","1","2023-06-16 16:31:14","846205d480aaa49f22c83d5c8cececc8","73.17.14.96","Mozilla/5.0 (Macintosh; Intel Mac OS X 10_15_7) AppleWebKit/537.36 (KHTML, like Gecko) Chrome/114.0.0.0 Safari/537.36","Macintosh","Chrome","114.0.0.0","OS X","10_15_7","31827","","{""tenderness-positive1"":3,""tenderness-negative1"":2,""tenderness-negative2"":1,""tenderness-positive2"":2,""tenderness-positive3"":3,""tenderness-negative3"":2,""tenderness-positive4"":3,""tendereness-negative4"":2,""tendernness-negative5"":2,""tenderness-positive5"":2}","[0,1,2,3,4,5,6,7,8,9]"
"","","","","","survey-multi-choice","147","533045","0.0-20.0","2","1","2023-06-16 16:31:14","846205d480aaa49f22c83d5c8cececc8","73.17.14.96","Mozilla/5.0 (Macintosh; Intel Mac OS X 10_15_7) AppleWebKit/537.36 (KHTML, like Gecko) Chrome/114.0.0.0 Safari/537.36","Macintosh","Chrome","114.0.0.0","OS X","10_15_7","22059","","{""Attention2"":""Other""}","[0]"
"","","","","","html-button-response","148","534643","0.0-21.0","2","1","2023-06-16 16:31:14","846205d480aaa49f22c83d5c8cececc8","73.17.14.96","Mozilla/5.0 (Macintosh; Intel Mac OS X 10_15_7) AppleWebKit/537.36 (KHTML, like Gecko) Chrome/114.0.0.0 Safari/537.36","Macintosh","Chrome","114.0.0.0","OS X","10_15_7","1589","<p><strong>Please indicate the extent you agree with the following statements.</strong></p>","0",""
"","","","","","survey-likert","149","605198","0.0-22.0","2","1","2023-06-16 16:31:14","846205d480aaa49f22c83d5c8cececc8","73.17.14.96","Mozilla/5.0 (Macintosh; Intel Mac OS X 10_15_7) AppleWebKit/537.36 (KHTML, like Gecko) Chrome/114.0.0.0 Safari/537.36","Macintosh","Chrome","114.0.0.0","OS X","10_15_7","70549","","{""Patri10"":2,""Nation2"":0,""Patri11"":1,""Patri8"":0,""Patri9"":2,""Nation7"":0,""Nation3"":0,""Patri5"":0,""Patri3"":1,""Patri7"":1,""Nation6"":0,""Patri4"":0,""Nation8"":4,""Patri6"":4,""Patri1"":2,""Nation1"":0,""Patri12"":4,""Patri2"":1,""Nation5"":2,""Nation4"":0}","[9,13,10,7,8,18,14,4,2,6,17,3,19,5,0,12,11,1,16,15]"
"","","","","","html-button-response","150","606777","0.0-23.0","2","1","2023-06-16 16:31:14","846205d480aaa49f22c83d5c8cececc8","73.17.14.96","Mozilla/5.0 (Macintosh; Intel Mac OS X 10_15_7) AppleWebKit/537.36 (KHTML, like Gecko) Chrome/114.0.0.0 Safari/537.36","Macintosh","Chrome","114.0.0.0","OS X","10_15_7","1569","<p><strong>Please indicate the extent you agree with the following statements. </p><p>(1 = ""never or definitely no"" and 9 = ""always or definitely yes"".)</strong></p>","0",""
"","","","","","survey-likert","151","646597","0.0-24.0","2","1","2023-06-16 16:31:14","846205d480aaa49f22c83d5c8cececc8","73.17.14.96","Mozilla/5.0 (Macintosh; Intel Mac OS X 10_15_7) AppleWebKit/537.36 (KHTML, like Gecko) Chrome/114.0.0.0 Safari/537.36","Macintosh","Chrome","114.0.0.0","OS X","10_15_7","39813","","{""hi2"":6,""vi1"":0,""vi3"":0,""vc1"":4,""hc1"":6,""vi4"":0,""hi3"":6,""hc2"":6,""vc4"":8,""vc3"":4,""vc2"":4,""Robot2"":6,""hi4"":6,""vi2"":0,""hi1"":8,""hc4"":8,""hc3"":0}","[1,4,6,13,9,8,2,10,16,15,14,7,3,5,0,12,11]"
"","","","","","survey-text","152","665543","0.0-25.0","2","1","2023-06-16 16:31:14","846205d480aaa49f22c83d5c8cececc8","73.17.14.96","Mozilla/5.0 (Macintosh; Intel Mac OS X 10_15_7) AppleWebKit/537.36 (KHTML, like Gecko) Chrome/114.0.0.0 Safari/537.36","Macintosh","Chrome","114.0.0.0","OS X","10_15_7","18931","","{""ID"":""A11LL3J3YSXB4U"",""Comments"":""This was very well-designed.""}",""
"","","","","","html-button-response","153","672977","0.0-26.0","2","1","2023-06-16 16:31:14","846205d480aaa49f22c83d5c8cececc8","73.17.14.96","Mozilla/5.0 (Macintosh; Intel Mac OS X 10_15_7) AppleWebKit/537.36 (KHTML, like Gecko) Chrome/114.0.0.0 Safari/537.36","Macintosh","Chrome","114.0.0.0","OS X","10_15_7","7431","<p><strong>Congratulations! </strong> Your have finished all the survey. Thank you for your participation!</p><p><strong>Here is your complete token:</strong></p>eampv2wpo8ihxc0dkpm6t1srel<p></p><p><strong>Please copy it to the mTurk page.</strong></p>","0",""
