"success","timeout","failed_images","failed_audio","failed_video","trial_type","trial_index","time_elapsed","internal_node_id","run_id","condition","recorded_at","source_code_version","ip","user_agent","device","browser","browser_version","platform","platform_version","rt","stimulus","response","question_order"
"true","false","[]","[]","[]","preload","0","81299","0.0-0.0","20","1","2023-06-09 15:46:41","846205d480aaa49f22c83d5c8cececc8","5.78.83.194","Mozilla/5.0 (Windows NT 10.0; Win64; x64) AppleWebKit/537.36 (KHTML, like Gecko) Chrome/112.0.0.0 Safari/537.36","WebKit","Chrome","112.0.0.0","Windows","10.0","","","",""
"true","","","","","fullscreen","1","113605","0.0-1.0","20","1","2023-06-09 15:46:41","846205d480aaa49f22c83d5c8cececc8","5.78.83.194","Mozilla/5.0 (Windows NT 10.0; Win64; x64) AppleWebKit/537.36 (KHTML, like Gecko) Chrome/112.0.0.0 Safari/537.36","WebKit","Chrome","112.0.0.0","Windows","10.0","","","",""
"","","","","","html-button-response","2","121040","0.0-2.0","20","1","2023-06-09 15:46:41","846205d480aaa49f22c83d5c8cececc8","5.78.83.194","Mozilla/5.0 (Windows NT 10.0; Win64; x64) AppleWebKit/537.36 (KHTML, like Gecko) Chrome/112.0.0.0 Safari/537.36","WebKit","Chrome","112.0.0.0","Windows","10.0","7427","<p ><strong>Welcome to the experiment!</strong></p><p ><strong>In the first task, please imagine:</strong></p><p>Your country is involved in a military conflict with another country.</p><p>You are the commander of your army and must make decisions in the conflict.</p><p>Specifically, as the military commander, you must decide whether to launch a missile to strike enemy.</p><p>You will face a series of scenarios. Please read each scenario carefully and make a decision.</p><p>The task will take around 10 minutes to complete.</p><p><strong>Please pay your attention during the experiment.</strong></p>","0",""
"","","","","","html-keyboard-response","3","122042","0.0-3.0-0.0","20","1","2023-06-09 15:46:41","846205d480aaa49f22c83d5c8cececc8","5.78.83.194","Mozilla/5.0 (Windows NT 10.0; Win64; x64) AppleWebKit/537.36 (KHTML, like Gecko) Chrome/112.0.0.0 Safari/537.36","WebKit","Chrome","112.0.0.0","Windows","10.0","null","<div style=""font-size:60px;"">+</div>","null",""
"","","","","","html-button-response","4","1715068","0.0-3.0-1.0","20","1","2023-06-09 15:46:41","846205d480aaa49f22c83d5c8cececc8","5.78.83.194","Mozilla/5.0 (Windows NT 10.0; Win64; x64) AppleWebKit/537.36 (KHTML, like Gecko) Chrome/112.0.0.0 Safari/537.36","WebKit","Chrome","112.0.0.0","Windows","10.0","1593021","<p>As the military commander, you could choose to launch a missile to kill <strong>5 enemy soldiers</strong> , but would accidentally kill <strong>1 enemy tree</strong> nearby.</p> <p>The photo of the <strong>enemy tree</strong> is shown below.</p> <p></p> <img src='stimuli/tree/3.png', style='max-width: 30%;'> </img> <p><strong>Would you launch the weapon?</strong></p>","0",""
"","","","","","html-keyboard-response","5","1716074","0.0-3.0-0.1","20","1","2023-06-09 15:46:41","846205d480aaa49f22c83d5c8cececc8","5.78.83.194","Mozilla/5.0 (Windows NT 10.0; Win64; x64) AppleWebKit/537.36 (KHTML, like Gecko) Chrome/112.0.0.0 Safari/537.36","WebKit","Chrome","112.0.0.0","Windows","10.0","null","<div style=""font-size:60px;"">+</div>","null",""
"","","","","","html-button-response","6","1732273","0.0-3.0-1.1","20","1","2023-06-09 15:46:41","846205d480aaa49f22c83d5c8cececc8","5.78.83.194","Mozilla/5.0 (Windows NT 10.0; Win64; x64) AppleWebKit/537.36 (KHTML, like Gecko) Chrome/112.0.0.0 Safari/537.36","WebKit","Chrome","112.0.0.0","Windows","10.0","16196","<p>As the military commander, you could choose to launch a missile to kill <strong>5 enemy soldiers</strong> , but would accidentally kill <strong>1 enemy tree</strong> nearby.</p> <p>The photo of the <strong>enemy tree</strong> is shown below.</p> <p></p> <img src='stimuli/tree/9.png', style='max-width: 30%;'> </img> <p><strong>Would you launch the weapon?</strong></p>","0",""
"","","","","","html-keyboard-response","7","1733289","0.0-3.0-0.2","20","1","2023-06-09 15:46:41","846205d480aaa49f22c83d5c8cececc8","5.78.83.194","Mozilla/5.0 (Windows NT 10.0; Win64; x64) AppleWebKit/537.36 (KHTML, like Gecko) Chrome/112.0.0.0 Safari/537.36","WebKit","Chrome","112.0.0.0","Windows","10.0","null","<div style=""font-size:60px;"">+</div>","null",""
"","","","","","html-button-response","8","1741717","0.0-3.0-1.2","20","1","2023-06-09 15:46:41","846205d480aaa49f22c83d5c8cececc8","5.78.83.194","Mozilla/5.0 (Windows NT 10.0; Win64; x64) AppleWebKit/537.36 (KHTML, like Gecko) Chrome/112.0.0.0 Safari/537.36","WebKit","Chrome","112.0.0.0","Windows","10.0","8425","<p>As the military commander, you could choose to launch a missile to kill <strong>10 enemy soldiers</strong> , but would accidentally kill <strong>1 enemy civilian</strong> nearby.</p> <p>The photo of the <strong>enemy civilian</strong> is shown below.</p> <p></p> <img src='stimuli/faces/PCM6.jpg', style='max-width: 30%;'> </img> <p><strong>Would you launch the weapon?</strong></p>","1",""
"","","","","","html-keyboard-response","9","1742724","0.0-3.0-0.3","20","1","2023-06-09 15:46:41","846205d480aaa49f22c83d5c8cececc8","5.78.83.194","Mozilla/5.0 (Windows NT 10.0; Win64; x64) AppleWebKit/537.36 (KHTML, like Gecko) Chrome/112.0.0.0 Safari/537.36","WebKit","Chrome","112.0.0.0","Windows","10.0","null","<div style=""font-size:60px;"">+</div>","null",""
"","","","","","html-button-response","10","1748257","0.0-3.0-1.3","20","1","2023-06-09 15:46:41","846205d480aaa49f22c83d5c8cececc8","5.78.83.194","Mozilla/5.0 (Windows NT 10.0; Win64; x64) AppleWebKit/537.36 (KHTML, like Gecko) Chrome/112.0.0.0 Safari/537.36","WebKit","Chrome","112.0.0.0","Windows","10.0","5530","<p>As the military commander, you could choose to launch a missile to kill <strong>4 enemy soldiers</strong> , but would accidentally kill <strong>1 enemy tree</strong> nearby.</p> <p>The photo of the <strong>enemy tree</strong> is shown below.</p> <p></p> <img src='stimuli/tree/11.png', style='max-width: 30%;'> </img> <p><strong>Would you launch the weapon?</strong></p>","1",""
"","","","","","html-keyboard-response","11","1749266","0.0-3.0-0.4","20","1","2023-06-09 15:46:41","846205d480aaa49f22c83d5c8cececc8","5.78.83.194","Mozilla/5.0 (Windows NT 10.0; Win64; x64) AppleWebKit/537.36 (KHTML, like Gecko) Chrome/112.0.0.0 Safari/537.36","WebKit","Chrome","112.0.0.0","Windows","10.0","null","<div style=""font-size:60px;"">+</div>","null",""
"","","","","","html-button-response","12","1751076","0.0-3.0-1.4","20","1","2023-06-09 15:46:41","846205d480aaa49f22c83d5c8cececc8","5.78.83.194","Mozilla/5.0 (Windows NT 10.0; Win64; x64) AppleWebKit/537.36 (KHTML, like Gecko) Chrome/112.0.0.0 Safari/537.36","WebKit","Chrome","112.0.0.0","Windows","10.0","1806","<p>As the military commander, you could choose to launch a missile to kill <strong>10 enemy soldiers</strong> , but would accidentally kill <strong>1 enemy tree</strong> nearby.</p> <p>The photo of the <strong>enemy tree</strong> is shown below.</p> <p></p> <img src='stimuli/tree/10.png', style='max-width: 30%;'> </img> <p><strong>Would you launch the weapon?</strong></p>","1",""
"","","","","","html-keyboard-response","13","1752099","0.0-3.0-0.5","20","1","2023-06-09 15:46:41","846205d480aaa49f22c83d5c8cececc8","5.78.83.194","Mozilla/5.0 (Windows NT 10.0; Win64; x64) AppleWebKit/537.36 (KHTML, like Gecko) Chrome/112.0.0.0 Safari/537.36","WebKit","Chrome","112.0.0.0","Windows","10.0","null","<div style=""font-size:60px;"">+</div>","null",""
"","","","","","html-button-response","14","1754089","0.0-3.0-1.5","20","1","2023-06-09 15:46:41","846205d480aaa49f22c83d5c8cececc8","5.78.83.194","Mozilla/5.0 (Windows NT 10.0; Win64; x64) AppleWebKit/537.36 (KHTML, like Gecko) Chrome/112.0.0.0 Safari/537.36","WebKit","Chrome","112.0.0.0","Windows","10.0","1988","<p>As the military commander, you could choose to launch a missile to kill <strong>7 enemy soldiers</strong> , but would accidentally kill <strong>1 enemy civilian</strong> nearby.</p> <p>The photo of the <strong>enemy civilian</strong> is shown below.</p> <p></p> <img src='stimuli/faces/PCM5.jpg', style='max-width: 30%;'> </img> <p><strong>Would you launch the weapon?</strong></p>","1",""
"","","","","","html-keyboard-response","15","1755096","0.0-3.0-0.6","20","1","2023-06-09 15:46:41","846205d480aaa49f22c83d5c8cececc8","5.78.83.194","Mozilla/5.0 (Windows NT 10.0; Win64; x64) AppleWebKit/537.36 (KHTML, like Gecko) Chrome/112.0.0.0 Safari/537.36","WebKit","Chrome","112.0.0.0","Windows","10.0","null","<div style=""font-size:60px;"">+</div>","null",""
"","","","","","html-button-response","16","1757278","0.0-3.0-1.6","20","1","2023-06-09 15:46:41","846205d480aaa49f22c83d5c8cececc8","5.78.83.194","Mozilla/5.0 (Windows NT 10.0; Win64; x64) AppleWebKit/537.36 (KHTML, like Gecko) Chrome/112.0.0.0 Safari/537.36","WebKit","Chrome","112.0.0.0","Windows","10.0","2179","<p>As the military commander, you could choose to launch a missile to kill <strong>6 enemy soldiers</strong> , but would accidentally kill <strong>1 enemy civilian</strong> nearby.</p> <p>The photo of the <strong>enemy civilian</strong> is shown below.</p> <p></p> <img src='stimuli/faces/PCF5.jpg', style='max-width: 30%;'> </img> <p><strong>Would you launch the weapon?</strong></p>","1",""
"","","","","","html-keyboard-response","17","1758293","0.0-3.0-0.7","20","1","2023-06-09 15:46:41","846205d480aaa49f22c83d5c8cececc8","5.78.83.194","Mozilla/5.0 (Windows NT 10.0; Win64; x64) AppleWebKit/537.36 (KHTML, like Gecko) Chrome/112.0.0.0 Safari/537.36","WebKit","Chrome","112.0.0.0","Windows","10.0","null","<div style=""font-size:60px;"">+</div>","null",""
"","","","","","html-button-response","18","1761676","0.0-3.0-1.7","20","1","2023-06-09 15:46:41","846205d480aaa49f22c83d5c8cececc8","5.78.83.194","Mozilla/5.0 (Windows NT 10.0; Win64; x64) AppleWebKit/537.36 (KHTML, like Gecko) Chrome/112.0.0.0 Safari/537.36","WebKit","Chrome","112.0.0.0","Windows","10.0","3380","<p>As the military commander, you could choose to launch a missile to kill <strong>4 enemy soldiers</strong> , but would accidentally kill <strong>1 enemy civilian</strong> nearby.</p> <p>The photo of the <strong>enemy civilian</strong> is shown below.</p> <p></p> <img src='stimuli/faces/PCM6.jpg', style='max-width: 30%;'> </img> <p><strong>Would you launch the weapon?</strong></p>","1",""
"","","","","","html-keyboard-response","19","1762680","0.0-3.0-0.8","20","1","2023-06-09 15:46:41","846205d480aaa49f22c83d5c8cececc8","5.78.83.194","Mozilla/5.0 (Windows NT 10.0; Win64; x64) AppleWebKit/537.36 (KHTML, like Gecko) Chrome/112.0.0.0 Safari/537.36","WebKit","Chrome","112.0.0.0","Windows","10.0","null","<div style=""font-size:60px;"">+</div>","null",""
"","","","","","html-button-response","20","1764106","0.0-3.0-1.8","20","1","2023-06-09 15:46:41","846205d480aaa49f22c83d5c8cececc8","5.78.83.194","Mozilla/5.0 (Windows NT 10.0; Win64; x64) AppleWebKit/537.36 (KHTML, like Gecko) Chrome/112.0.0.0 Safari/537.36","WebKit","Chrome","112.0.0.0","Windows","10.0","1423","<p>As the military commander, you could choose to launch a missile to kill <strong>3 enemy soldiers</strong> , but would accidentally kill <strong>1 enemy civilian</strong> nearby.</p> <p>The photo of the <strong>enemy civilian</strong> is shown below.</p> <p></p> <img src='stimuli/faces/PCF8.jpg', style='max-width: 30%;'> </img> <p><strong>Would you launch the weapon?</strong></p>","1",""
"","","","","","html-keyboard-response","21","1765119","0.0-3.0-0.9","20","1","2023-06-09 15:46:41","846205d480aaa49f22c83d5c8cececc8","5.78.83.194","Mozilla/5.0 (Windows NT 10.0; Win64; x64) AppleWebKit/537.36 (KHTML, like Gecko) Chrome/112.0.0.0 Safari/537.36","WebKit","Chrome","112.0.0.0","Windows","10.0","null","<div style=""font-size:60px;"">+</div>","null",""
"","","","","","html-button-response","22","1768374","0.0-3.0-1.9","20","1","2023-06-09 15:46:41","846205d480aaa49f22c83d5c8cececc8","5.78.83.194","Mozilla/5.0 (Windows NT 10.0; Win64; x64) AppleWebKit/537.36 (KHTML, like Gecko) Chrome/112.0.0.0 Safari/537.36","WebKit","Chrome","112.0.0.0","Windows","10.0","3253","<p>As the military commander, you could choose to launch a missile to kill <strong>6 enemy soldiers</strong> , but would accidentally kill <strong>1 enemy tree</strong> nearby.</p> <p>The photo of the <strong>enemy tree</strong> is shown below.</p> <p></p> <img src='stimuli/tree/15.png', style='max-width: 30%;'> </img> <p><strong>Would you launch the weapon?</strong></p>","1",""
"","","","","","html-keyboard-response","23","1769385","0.0-3.0-0.10","20","1","2023-06-09 15:46:41","846205d480aaa49f22c83d5c8cececc8","5.78.83.194","Mozilla/5.0 (Windows NT 10.0; Win64; x64) AppleWebKit/537.36 (KHTML, like Gecko) Chrome/112.0.0.0 Safari/537.36","WebKit","Chrome","112.0.0.0","Windows","10.0","null","<div style=""font-size:60px;"">+</div>","null",""
"","","","","","html-button-response","24","1771365","0.0-3.0-1.10","20","1","2023-06-09 15:46:41","846205d480aaa49f22c83d5c8cececc8","5.78.83.194","Mozilla/5.0 (Windows NT 10.0; Win64; x64) AppleWebKit/537.36 (KHTML, like Gecko) Chrome/112.0.0.0 Safari/537.36","WebKit","Chrome","112.0.0.0","Windows","10.0","1977","<p>As the military commander, you could choose to launch a missile to kill <strong>5 enemy soldiers</strong> , but would accidentally kill <strong>1 enemy tree</strong> nearby.</p> <p>The photo of the <strong>enemy tree</strong> is shown below.</p> <p></p> <img src='stimuli/tree/15.png', style='max-width: 30%;'> </img> <p><strong>Would you launch the weapon?</strong></p>","0",""
"","","","","","html-keyboard-response","25","1772374","0.0-3.0-0.11","20","1","2023-06-09 15:46:41","846205d480aaa49f22c83d5c8cececc8","5.78.83.194","Mozilla/5.0 (Windows NT 10.0; Win64; x64) AppleWebKit/537.36 (KHTML, like Gecko) Chrome/112.0.0.0 Safari/537.36","WebKit","Chrome","112.0.0.0","Windows","10.0","null","<div style=""font-size:60px;"">+</div>","null",""
"","","","","","html-button-response","26","1774894","0.0-3.0-1.11","20","1","2023-06-09 15:46:41","846205d480aaa49f22c83d5c8cececc8","5.78.83.194","Mozilla/5.0 (Windows NT 10.0; Win64; x64) AppleWebKit/537.36 (KHTML, like Gecko) Chrome/112.0.0.0 Safari/537.36","WebKit","Chrome","112.0.0.0","Windows","10.0","2517","<p>As the military commander, you could choose to launch a missile to kill <strong>7 enemy soldiers</strong> , but would accidentally kill <strong>1 enemy civilian</strong> nearby.</p> <p>The photo of the <strong>enemy civilian</strong> is shown below.</p> <p></p> <img src='stimuli/faces/PCF2.jpg', style='max-width: 30%;'> </img> <p><strong>Would you launch the weapon?</strong></p>","1",""
"","","","","","html-keyboard-response","27","1775905","0.0-3.0-0.12","20","1","2023-06-09 15:46:41","846205d480aaa49f22c83d5c8cececc8","5.78.83.194","Mozilla/5.0 (Windows NT 10.0; Win64; x64) AppleWebKit/537.36 (KHTML, like Gecko) Chrome/112.0.0.0 Safari/537.36","WebKit","Chrome","112.0.0.0","Windows","10.0","null","<div style=""font-size:60px;"">+</div>","null",""
"","","","","","html-button-response","28","1777681","0.0-3.0-1.12","20","1","2023-06-09 15:46:41","846205d480aaa49f22c83d5c8cececc8","5.78.83.194","Mozilla/5.0 (Windows NT 10.0; Win64; x64) AppleWebKit/537.36 (KHTML, like Gecko) Chrome/112.0.0.0 Safari/537.36","WebKit","Chrome","112.0.0.0","Windows","10.0","1772","<p>As the military commander, you could choose to launch a missile to kill <strong>5 enemy soldiers</strong> , but would accidentally kill <strong>1 enemy tree</strong> nearby.</p> <p>The photo of the <strong>enemy tree</strong> is shown below.</p> <p></p> <img src='stimuli/tree/14.png', style='max-width: 30%;'> </img> <p><strong>Would you launch the weapon?</strong></p>","0",""
"","","","","","html-keyboard-response","29","1778699","0.0-3.0-0.13","20","1","2023-06-09 15:46:41","846205d480aaa49f22c83d5c8cececc8","5.78.83.194","Mozilla/5.0 (Windows NT 10.0; Win64; x64) AppleWebKit/537.36 (KHTML, like Gecko) Chrome/112.0.0.0 Safari/537.36","WebKit","Chrome","112.0.0.0","Windows","10.0","null","<div style=""font-size:60px;"">+</div>","null",""
"","","","","","html-button-response","30","1780464","0.0-3.0-1.13","20","1","2023-06-09 15:46:41","846205d480aaa49f22c83d5c8cececc8","5.78.83.194","Mozilla/5.0 (Windows NT 10.0; Win64; x64) AppleWebKit/537.36 (KHTML, like Gecko) Chrome/112.0.0.0 Safari/537.36","WebKit","Chrome","112.0.0.0","Windows","10.0","1763","<p>As the military commander, you could choose to launch a missile to kill <strong>8 enemy soldiers</strong> , but would accidentally kill <strong>1 enemy tree</strong> nearby.</p> <p>The photo of the <strong>enemy tree</strong> is shown below.</p> <p></p> <img src='stimuli/tree/13.png', style='max-width: 30%;'> </img> <p><strong>Would you launch the weapon?</strong></p>","1",""
"","","","","","html-keyboard-response","31","1781478","0.0-3.0-0.14","20","1","2023-06-09 15:46:41","846205d480aaa49f22c83d5c8cececc8","5.78.83.194","Mozilla/5.0 (Windows NT 10.0; Win64; x64) AppleWebKit/537.36 (KHTML, like Gecko) Chrome/112.0.0.0 Safari/537.36","WebKit","Chrome","112.0.0.0","Windows","10.0","null","<div style=""font-size:60px;"">+</div>","null",""
"","","","","","html-button-response","32","1783136","0.0-3.0-1.14","20","1","2023-06-09 15:46:41","846205d480aaa49f22c83d5c8cececc8","5.78.83.194","Mozilla/5.0 (Windows NT 10.0; Win64; x64) AppleWebKit/537.36 (KHTML, like Gecko) Chrome/112.0.0.0 Safari/537.36","WebKit","Chrome","112.0.0.0","Windows","10.0","1654","<p>As the military commander, you could choose to launch a missile to kill <strong>1 enemy soldier</strong> , but would accidentally kill <strong>1 enemy tree</strong> nearby.</p> <p>The photo of the <strong>enemy tree</strong> is shown below.</p> <p></p> <img src='stimuli/tree/6.png', style='max-width: 30%;'> </img> <p><strong>Would you launch the weapon?</strong></p>","0",""
"","","","","","html-keyboard-response","33","1784169","0.0-3.0-0.15","20","1","2023-06-09 15:46:41","846205d480aaa49f22c83d5c8cececc8","5.78.83.194","Mozilla/5.0 (Windows NT 10.0; Win64; x64) AppleWebKit/537.36 (KHTML, like Gecko) Chrome/112.0.0.0 Safari/537.36","WebKit","Chrome","112.0.0.0","Windows","10.0","null","<div style=""font-size:60px;"">+</div>","null",""
"","","","","","html-button-response","34","1785568","0.0-3.0-1.15","20","1","2023-06-09 15:46:41","846205d480aaa49f22c83d5c8cececc8","5.78.83.194","Mozilla/5.0 (Windows NT 10.0; Win64; x64) AppleWebKit/537.36 (KHTML, like Gecko) Chrome/112.0.0.0 Safari/537.36","WebKit","Chrome","112.0.0.0","Windows","10.0","1393","<p>As the military commander, you could choose to launch a missile to kill <strong>7 enemy soldiers</strong> , but would accidentally kill <strong>1 enemy civilian</strong> nearby.</p> <p>The photo of the <strong>enemy civilian</strong> is shown below.</p> <p></p> <img src='stimuli/faces/PCF6.jpg', style='max-width: 30%;'> </img> <p><strong>Would you launch the weapon?</strong></p>","1",""
"","","","","","html-keyboard-response","35","1786575","0.0-3.0-0.16","20","1","2023-06-09 15:46:41","846205d480aaa49f22c83d5c8cececc8","5.78.83.194","Mozilla/5.0 (Windows NT 10.0; Win64; x64) AppleWebKit/537.36 (KHTML, like Gecko) Chrome/112.0.0.0 Safari/537.36","WebKit","Chrome","112.0.0.0","Windows","10.0","null","<div style=""font-size:60px;"">+</div>","null",""
"","","","","","html-button-response","36","1788562","0.0-3.0-1.16","20","1","2023-06-09 15:46:41","846205d480aaa49f22c83d5c8cececc8","5.78.83.194","Mozilla/5.0 (Windows NT 10.0; Win64; x64) AppleWebKit/537.36 (KHTML, like Gecko) Chrome/112.0.0.0 Safari/537.36","WebKit","Chrome","112.0.0.0","Windows","10.0","1982","<p>As the military commander, you could choose to launch a missile to kill <strong>9 enemy soldiers</strong> , but would accidentally kill <strong>1 enemy tree</strong> nearby.</p> <p>The photo of the <strong>enemy tree</strong> is shown below.</p> <p></p> <img src='stimuli/tree/8.png', style='max-width: 30%;'> </img> <p><strong>Would you launch the weapon?</strong></p>","0",""
"","","","","","html-keyboard-response","37","1789573","0.0-3.0-0.17","20","1","2023-06-09 15:46:41","846205d480aaa49f22c83d5c8cececc8","5.78.83.194","Mozilla/5.0 (Windows NT 10.0; Win64; x64) AppleWebKit/537.36 (KHTML, like Gecko) Chrome/112.0.0.0 Safari/537.36","WebKit","Chrome","112.0.0.0","Windows","10.0","null","<div style=""font-size:60px;"">+</div>","null",""
"","","","","","html-button-response","38","1790795","0.0-3.0-1.17","20","1","2023-06-09 15:46:41","846205d480aaa49f22c83d5c8cececc8","5.78.83.194","Mozilla/5.0 (Windows NT 10.0; Win64; x64) AppleWebKit/537.36 (KHTML, like Gecko) Chrome/112.0.0.0 Safari/537.36","WebKit","Chrome","112.0.0.0","Windows","10.0","1221","<p>As the military commander, you could choose to launch a missile to kill <strong>1 enemy soldier</strong> , but would accidentally kill <strong>1 enemy tree</strong> nearby.</p> <p>The photo of the <strong>enemy tree</strong> is shown below.</p> <p></p> <img src='stimuli/tree/2.png', style='max-width: 30%;'> </img> <p><strong>Would you launch the weapon?</strong></p>","1",""
"","","","","","html-keyboard-response","39","1791810","0.0-3.0-0.18","20","1","2023-06-09 15:46:41","846205d480aaa49f22c83d5c8cececc8","5.78.83.194","Mozilla/5.0 (Windows NT 10.0; Win64; x64) AppleWebKit/537.36 (KHTML, like Gecko) Chrome/112.0.0.0 Safari/537.36","WebKit","Chrome","112.0.0.0","Windows","10.0","null","<div style=""font-size:60px;"">+</div>","null",""
"","","","","","html-button-response","40","1830767","0.0-3.0-1.18","20","1","2023-06-09 15:46:41","846205d480aaa49f22c83d5c8cececc8","5.78.83.194","Mozilla/5.0 (Windows NT 10.0; Win64; x64) AppleWebKit/537.36 (KHTML, like Gecko) Chrome/112.0.0.0 Safari/537.36","WebKit","Chrome","112.0.0.0","Windows","10.0","38954","<p>As the military commander, you could choose to launch a missile to kill <strong>9 enemy soldiers</strong> , but would accidentally kill <strong>1 enemy tree</strong> nearby.</p> <p>The photo of the <strong>enemy tree</strong> is shown below.</p> <p></p> <img src='stimuli/tree/6.png', style='max-width: 30%;'> </img> <p><strong>Would you launch the weapon?</strong></p>","1",""
"","","","","","html-keyboard-response","41","1831783","0.0-3.0-0.19","20","1","2023-06-09 15:46:41","846205d480aaa49f22c83d5c8cececc8","5.78.83.194","Mozilla/5.0 (Windows NT 10.0; Win64; x64) AppleWebKit/537.36 (KHTML, like Gecko) Chrome/112.0.0.0 Safari/537.36","WebKit","Chrome","112.0.0.0","Windows","10.0","null","<div style=""font-size:60px;"">+</div>","null",""
"","","","","","html-button-response","42","1870722","0.0-3.0-1.19","20","1","2023-06-09 15:46:41","846205d480aaa49f22c83d5c8cececc8","5.78.83.194","Mozilla/5.0 (Windows NT 10.0; Win64; x64) AppleWebKit/537.36 (KHTML, like Gecko) Chrome/112.0.0.0 Safari/537.36","WebKit","Chrome","112.0.0.0","Windows","10.0","38936","<p>As the military commander, you could choose to launch a missile to kill <strong>1 enemy soldier</strong> , but would accidentally kill <strong>1 enemy civilian</strong> nearby.</p> <p>The photo of the <strong>enemy civilian</strong> is shown below.</p> <p></p> <img src='stimuli/faces/PCM7.jpg', style='max-width: 30%;'> </img> <p><strong>Would you launch the weapon?</strong></p>","1",""
"","","","","","html-keyboard-response","43","1871726","0.0-3.0-0.20","20","1","2023-06-09 15:46:41","846205d480aaa49f22c83d5c8cececc8","5.78.83.194","Mozilla/5.0 (Windows NT 10.0; Win64; x64) AppleWebKit/537.36 (KHTML, like Gecko) Chrome/112.0.0.0 Safari/537.36","WebKit","Chrome","112.0.0.0","Windows","10.0","null","<div style=""font-size:60px;"">+</div>","null",""
"","","","","","html-button-response","44","1874421","0.0-3.0-1.20","20","1","2023-06-09 15:46:41","846205d480aaa49f22c83d5c8cececc8","5.78.83.194","Mozilla/5.0 (Windows NT 10.0; Win64; x64) AppleWebKit/537.36 (KHTML, like Gecko) Chrome/112.0.0.0 Safari/537.36","WebKit","Chrome","112.0.0.0","Windows","10.0","2691","<p>As the military commander, you could choose to launch a missile to kill <strong>3 enemy soldiers</strong> , but would accidentally kill <strong>1 enemy tree</strong> nearby.</p> <p>The photo of the <strong>enemy tree</strong> is shown below.</p> <p></p> <img src='stimuli/tree/13.png', style='max-width: 30%;'> </img> <p><strong>Would you launch the weapon?</strong></p>","0",""
"","","","","","html-keyboard-response","45","1875435","0.0-3.0-0.21","20","1","2023-06-09 15:46:41","846205d480aaa49f22c83d5c8cececc8","5.78.83.194","Mozilla/5.0 (Windows NT 10.0; Win64; x64) AppleWebKit/537.36 (KHTML, like Gecko) Chrome/112.0.0.0 Safari/537.36","WebKit","Chrome","112.0.0.0","Windows","10.0","null","<div style=""font-size:60px;"">+</div>","null",""
"","","","","","html-button-response","46","1876697","0.0-3.0-1.21","20","1","2023-06-09 15:46:41","846205d480aaa49f22c83d5c8cececc8","5.78.83.194","Mozilla/5.0 (Windows NT 10.0; Win64; x64) AppleWebKit/537.36 (KHTML, like Gecko) Chrome/112.0.0.0 Safari/537.36","WebKit","Chrome","112.0.0.0","Windows","10.0","1259","<p>As the military commander, you could choose to launch a missile to kill <strong>10 enemy soldiers</strong> , but would accidentally kill <strong>1 enemy civilian</strong> nearby.</p> <p>The photo of the <strong>enemy civilian</strong> is shown below.</p> <p></p> <img src='stimuli/faces/PCF7.jpg', style='max-width: 30%;'> </img> <p><strong>Would you launch the weapon?</strong></p>","1",""
"","","","","","html-keyboard-response","47","1877712","0.0-3.0-0.22","20","1","2023-06-09 15:46:41","846205d480aaa49f22c83d5c8cececc8","5.78.83.194","Mozilla/5.0 (Windows NT 10.0; Win64; x64) AppleWebKit/537.36 (KHTML, like Gecko) Chrome/112.0.0.0 Safari/537.36","WebKit","Chrome","112.0.0.0","Windows","10.0","null","<div style=""font-size:60px;"">+</div>","null",""
"","","","","","html-button-response","48","1878827","0.0-3.0-1.22","20","1","2023-06-09 15:46:41","846205d480aaa49f22c83d5c8cececc8","5.78.83.194","Mozilla/5.0 (Windows NT 10.0; Win64; x64) AppleWebKit/537.36 (KHTML, like Gecko) Chrome/112.0.0.0 Safari/537.36","WebKit","Chrome","112.0.0.0","Windows","10.0","1099","<p>As the military commander, you could choose to launch a missile to kill <strong>3 enemy soldiers</strong> , but would accidentally kill <strong>1 enemy tree</strong> nearby.</p> <p>The photo of the <strong>enemy tree</strong> is shown below.</p> <p></p> <img src='stimuli/tree/7.png', style='max-width: 30%;'> </img> <p><strong>Would you launch the weapon?</strong></p>","1",""
"","","","","","html-keyboard-response","49","1879828","0.0-3.0-0.23","20","1","2023-06-09 15:46:41","846205d480aaa49f22c83d5c8cececc8","5.78.83.194","Mozilla/5.0 (Windows NT 10.0; Win64; x64) AppleWebKit/537.36 (KHTML, like Gecko) Chrome/112.0.0.0 Safari/537.36","WebKit","Chrome","112.0.0.0","Windows","10.0","null","<div style=""font-size:60px;"">+</div>","null",""
"","","","","","html-button-response","50","1881147","0.0-3.0-1.23","20","1","2023-06-09 15:46:41","846205d480aaa49f22c83d5c8cececc8","5.78.83.194","Mozilla/5.0 (Windows NT 10.0; Win64; x64) AppleWebKit/537.36 (KHTML, like Gecko) Chrome/112.0.0.0 Safari/537.36","WebKit","Chrome","112.0.0.0","Windows","10.0","1315","<p>As the military commander, you could choose to launch a missile to kill <strong>5 enemy soldiers</strong> , but would accidentally kill <strong>1 enemy tree</strong> nearby.</p> <p>The photo of the <strong>enemy tree</strong> is shown below.</p> <p></p> <img src='stimuli/tree/12.png', style='max-width: 30%;'> </img> <p><strong>Would you launch the weapon?</strong></p>","0",""
"","","","","","html-keyboard-response","51","1882150","0.0-3.0-0.24","20","1","2023-06-09 15:46:41","846205d480aaa49f22c83d5c8cececc8","5.78.83.194","Mozilla/5.0 (Windows NT 10.0; Win64; x64) AppleWebKit/537.36 (KHTML, like Gecko) Chrome/112.0.0.0 Safari/537.36","WebKit","Chrome","112.0.0.0","Windows","10.0","null","<div style=""font-size:60px;"">+</div>","null",""
"","","","","","html-button-response","52","1883780","0.0-3.0-1.24","20","1","2023-06-09 15:46:41","846205d480aaa49f22c83d5c8cececc8","5.78.83.194","Mozilla/5.0 (Windows NT 10.0; Win64; x64) AppleWebKit/537.36 (KHTML, like Gecko) Chrome/112.0.0.0 Safari/537.36","WebKit","Chrome","112.0.0.0","Windows","10.0","1628","<p>As the military commander, you could choose to launch a missile to kill <strong>2 enemy soldiers</strong> , but would accidentally kill <strong>1 enemy civilian</strong> nearby.</p> <p>The photo of the <strong>enemy civilian</strong> is shown below.</p> <p></p> <img src='stimuli/faces/PCF5.jpg', style='max-width: 30%;'> </img> <p><strong>Would you launch the weapon?</strong></p>","1",""
"","","","","","html-keyboard-response","53","1884795","0.0-3.0-0.25","20","1","2023-06-09 15:46:41","846205d480aaa49f22c83d5c8cececc8","5.78.83.194","Mozilla/5.0 (Windows NT 10.0; Win64; x64) AppleWebKit/537.36 (KHTML, like Gecko) Chrome/112.0.0.0 Safari/537.36","WebKit","Chrome","112.0.0.0","Windows","10.0","null","<div style=""font-size:60px;"">+</div>","null",""
"","","","","","html-button-response","54","1886354","0.0-3.0-1.25","20","1","2023-06-09 15:46:41","846205d480aaa49f22c83d5c8cececc8","5.78.83.194","Mozilla/5.0 (Windows NT 10.0; Win64; x64) AppleWebKit/537.36 (KHTML, like Gecko) Chrome/112.0.0.0 Safari/537.36","WebKit","Chrome","112.0.0.0","Windows","10.0","1553","<p>As the military commander, you could choose to launch a missile to kill <strong>1 enemy soldier</strong> , but would accidentally kill <strong>1 enemy civilian</strong> nearby.</p> <p>The photo of the <strong>enemy civilian</strong> is shown below.</p> <p></p> <img src='stimuli/faces/PCF1.jpg', style='max-width: 30%;'> </img> <p><strong>Would you launch the weapon?</strong></p>","0",""
"","","","","","html-keyboard-response","55","1887359","0.0-3.0-0.26","20","1","2023-06-09 15:46:41","846205d480aaa49f22c83d5c8cececc8","5.78.83.194","Mozilla/5.0 (Windows NT 10.0; Win64; x64) AppleWebKit/537.36 (KHTML, like Gecko) Chrome/112.0.0.0 Safari/537.36","WebKit","Chrome","112.0.0.0","Windows","10.0","null","<div style=""font-size:60px;"">+</div>","null",""
"","","","","","html-button-response","56","1888722","0.0-3.0-1.26","20","1","2023-06-09 15:46:41","846205d480aaa49f22c83d5c8cececc8","5.78.83.194","Mozilla/5.0 (Windows NT 10.0; Win64; x64) AppleWebKit/537.36 (KHTML, like Gecko) Chrome/112.0.0.0 Safari/537.36","WebKit","Chrome","112.0.0.0","Windows","10.0","1357","<p>As the military commander, you could choose to launch a missile to kill <strong>5 enemy soldiers</strong> , but would accidentally kill <strong>1 enemy civilian</strong> nearby.</p> <p>The photo of the <strong>enemy civilian</strong> is shown below.</p> <p></p> <img src='stimuli/faces/PCM8.jpg', style='max-width: 30%;'> </img> <p><strong>Would you launch the weapon?</strong></p>","1",""
"","","","","","html-keyboard-response","57","1889735","0.0-3.0-0.27","20","1","2023-06-09 15:46:41","846205d480aaa49f22c83d5c8cececc8","5.78.83.194","Mozilla/5.0 (Windows NT 10.0; Win64; x64) AppleWebKit/537.36 (KHTML, like Gecko) Chrome/112.0.0.0 Safari/537.36","WebKit","Chrome","112.0.0.0","Windows","10.0","null","<div style=""font-size:60px;"">+</div>","null",""
"","","","","","html-button-response","58","1891265","0.0-3.0-1.27","20","1","2023-06-09 15:46:41","846205d480aaa49f22c83d5c8cececc8","5.78.83.194","Mozilla/5.0 (Windows NT 10.0; Win64; x64) AppleWebKit/537.36 (KHTML, like Gecko) Chrome/112.0.0.0 Safari/537.36","WebKit","Chrome","112.0.0.0","Windows","10.0","1509","<p>As the military commander, you could choose to launch a missile to kill <strong>3 enemy soldiers</strong> , but would accidentally kill <strong>1 enemy civilian</strong> nearby.</p> <p>The photo of the <strong>enemy civilian</strong> is shown below.</p> <p></p> <img src='stimuli/faces/PCF4.jpg', style='max-width: 30%;'> </img> <p><strong>Would you launch the weapon?</strong></p>","0",""
"","","","","","html-keyboard-response","59","1892291","0.0-3.0-0.28","20","1","2023-06-09 15:46:41","846205d480aaa49f22c83d5c8cececc8","5.78.83.194","Mozilla/5.0 (Windows NT 10.0; Win64; x64) AppleWebKit/537.36 (KHTML, like Gecko) Chrome/112.0.0.0 Safari/537.36","WebKit","Chrome","112.0.0.0","Windows","10.0","null","<div style=""font-size:60px;"">+</div>","null",""
"","","","","","html-button-response","60","1893870","0.0-3.0-1.28","20","1","2023-06-09 15:46:41","846205d480aaa49f22c83d5c8cececc8","5.78.83.194","Mozilla/5.0 (Windows NT 10.0; Win64; x64) AppleWebKit/537.36 (KHTML, like Gecko) Chrome/112.0.0.0 Safari/537.36","WebKit","Chrome","112.0.0.0","Windows","10.0","1574","<p>As the military commander, you could choose to launch a missile to kill <strong>6 enemy soldiers</strong> , but would accidentally kill <strong>1 enemy tree</strong> nearby.</p> <p>The photo of the <strong>enemy tree</strong> is shown below.</p> <p></p> <img src='stimuli/tree/14.png', style='max-width: 30%;'> </img> <p><strong>Would you launch the weapon?</strong></p>","1",""
"","","","","","html-keyboard-response","61","1894891","0.0-3.0-0.29","20","1","2023-06-09 15:46:41","846205d480aaa49f22c83d5c8cececc8","5.78.83.194","Mozilla/5.0 (Windows NT 10.0; Win64; x64) AppleWebKit/537.36 (KHTML, like Gecko) Chrome/112.0.0.0 Safari/537.36","WebKit","Chrome","112.0.0.0","Windows","10.0","null","<div style=""font-size:60px;"">+</div>","null",""
"","","","","","html-button-response","62","1897825","0.0-3.0-1.29","20","1","2023-06-09 15:46:41","846205d480aaa49f22c83d5c8cececc8","5.78.83.194","Mozilla/5.0 (Windows NT 10.0; Win64; x64) AppleWebKit/537.36 (KHTML, like Gecko) Chrome/112.0.0.0 Safari/537.36","WebKit","Chrome","112.0.0.0","Windows","10.0","2930","<p>As the military commander, you could choose to launch a missile to kill <strong>3 enemy soldiers</strong> , but would accidentally kill <strong>1 enemy civilian</strong> nearby.</p> <p>The photo of the <strong>enemy civilian</strong> is shown below.</p> <p></p> <img src='stimuli/faces/PCM2.jpg', style='max-width: 30%;'> </img> <p><strong>Would you launch the weapon?</strong></p>","1",""
"","","","","","html-keyboard-response","63","1898829","0.0-3.0-0.30","20","1","2023-06-09 15:46:41","846205d480aaa49f22c83d5c8cececc8","5.78.83.194","Mozilla/5.0 (Windows NT 10.0; Win64; x64) AppleWebKit/537.36 (KHTML, like Gecko) Chrome/112.0.0.0 Safari/537.36","WebKit","Chrome","112.0.0.0","Windows","10.0","null","<div style=""font-size:60px;"">+</div>","null",""
"","","","","","html-button-response","64","1900191","0.0-3.0-1.30","20","1","2023-06-09 15:46:41","846205d480aaa49f22c83d5c8cececc8","5.78.83.194","Mozilla/5.0 (Windows NT 10.0; Win64; x64) AppleWebKit/537.36 (KHTML, like Gecko) Chrome/112.0.0.0 Safari/537.36","WebKit","Chrome","112.0.0.0","Windows","10.0","1360","<p>As the military commander, you could choose to launch a missile to kill <strong>10 enemy soldiers</strong> , but would accidentally kill <strong>1 enemy civilian</strong> nearby.</p> <p>The photo of the <strong>enemy civilian</strong> is shown below.</p> <p></p> <img src='stimuli/faces/PCM2.jpg', style='max-width: 30%;'> </img> <p><strong>Would you launch the weapon?</strong></p>","1",""
"","","","","","html-keyboard-response","65","1901200","0.0-3.0-0.31","20","1","2023-06-09 15:46:41","846205d480aaa49f22c83d5c8cececc8","5.78.83.194","Mozilla/5.0 (Windows NT 10.0; Win64; x64) AppleWebKit/537.36 (KHTML, like Gecko) Chrome/112.0.0.0 Safari/537.36","WebKit","Chrome","112.0.0.0","Windows","10.0","null","<div style=""font-size:60px;"">+</div>","null",""
"","","","","","html-button-response","66","1903153","0.0-3.0-1.31","20","1","2023-06-09 15:46:41","846205d480aaa49f22c83d5c8cececc8","5.78.83.194","Mozilla/5.0 (Windows NT 10.0; Win64; x64) AppleWebKit/537.36 (KHTML, like Gecko) Chrome/112.0.0.0 Safari/537.36","WebKit","Chrome","112.0.0.0","Windows","10.0","1950","<p>As the military commander, you could choose to launch a missile to kill <strong>9 enemy soldiers</strong> , but would accidentally kill <strong>1 enemy tree</strong> nearby.</p> <p>The photo of the <strong>enemy tree</strong> is shown below.</p> <p></p> <img src='stimuli/tree/3.png', style='max-width: 30%;'> </img> <p><strong>Would you launch the weapon?</strong></p>","1",""
"","","","","","html-keyboard-response","67","1904172","0.0-3.0-0.32","20","1","2023-06-09 15:46:41","846205d480aaa49f22c83d5c8cececc8","5.78.83.194","Mozilla/5.0 (Windows NT 10.0; Win64; x64) AppleWebKit/537.36 (KHTML, like Gecko) Chrome/112.0.0.0 Safari/537.36","WebKit","Chrome","112.0.0.0","Windows","10.0","null","<div style=""font-size:60px;"">+</div>","null",""
"","","","","","html-button-response","68","1905880","0.0-3.0-1.32","20","1","2023-06-09 15:46:41","846205d480aaa49f22c83d5c8cececc8","5.78.83.194","Mozilla/5.0 (Windows NT 10.0; Win64; x64) AppleWebKit/537.36 (KHTML, like Gecko) Chrome/112.0.0.0 Safari/537.36","WebKit","Chrome","112.0.0.0","Windows","10.0","1705","<p>As the military commander, you could choose to launch a missile to kill <strong>7 enemy soldiers</strong> , but would accidentally kill <strong>1 enemy tree</strong> nearby.</p> <p>The photo of the <strong>enemy tree</strong> is shown below.</p> <p></p> <img src='stimuli/tree/7.png', style='max-width: 30%;'> </img> <p><strong>Would you launch the weapon?</strong></p>","0",""
"","","","","","html-keyboard-response","69","1906889","0.0-3.0-0.33","20","1","2023-06-09 15:46:41","846205d480aaa49f22c83d5c8cececc8","5.78.83.194","Mozilla/5.0 (Windows NT 10.0; Win64; x64) AppleWebKit/537.36 (KHTML, like Gecko) Chrome/112.0.0.0 Safari/537.36","WebKit","Chrome","112.0.0.0","Windows","10.0","null","<div style=""font-size:60px;"">+</div>","null",""
"","","","","","html-button-response","70","1908257","0.0-3.0-1.33","20","1","2023-06-09 15:46:41","846205d480aaa49f22c83d5c8cececc8","5.78.83.194","Mozilla/5.0 (Windows NT 10.0; Win64; x64) AppleWebKit/537.36 (KHTML, like Gecko) Chrome/112.0.0.0 Safari/537.36","WebKit","Chrome","112.0.0.0","Windows","10.0","1363","<p>As the military commander, you could choose to launch a missile to kill <strong>7 enemy soldiers</strong> , but would accidentally kill <strong>1 enemy tree</strong> nearby.</p> <p>The photo of the <strong>enemy tree</strong> is shown below.</p> <p></p> <img src='stimuli/tree/11.png', style='max-width: 30%;'> </img> <p><strong>Would you launch the weapon?</strong></p>","1",""
"","","","","","html-keyboard-response","71","1909278","0.0-3.0-0.34","20","1","2023-06-09 15:46:41","846205d480aaa49f22c83d5c8cececc8","5.78.83.194","Mozilla/5.0 (Windows NT 10.0; Win64; x64) AppleWebKit/537.36 (KHTML, like Gecko) Chrome/112.0.0.0 Safari/537.36","WebKit","Chrome","112.0.0.0","Windows","10.0","null","<div style=""font-size:60px;"">+</div>","null",""
"","","","","","html-button-response","72","1910864","0.0-3.0-1.34","20","1","2023-06-09 15:46:41","846205d480aaa49f22c83d5c8cececc8","5.78.83.194","Mozilla/5.0 (Windows NT 10.0; Win64; x64) AppleWebKit/537.36 (KHTML, like Gecko) Chrome/112.0.0.0 Safari/537.36","WebKit","Chrome","112.0.0.0","Windows","10.0","1582","<p>As the military commander, you could choose to launch a missile to kill <strong>8 enemy soldiers</strong> , but would accidentally kill <strong>1 enemy civilian</strong> nearby.</p> <p>The photo of the <strong>enemy civilian</strong> is shown below.</p> <p></p> <img src='stimuli/faces/PCM7.jpg', style='max-width: 30%;'> </img> <p><strong>Would you launch the weapon?</strong></p>","1",""
"","","","","","html-keyboard-response","73","1911872","0.0-3.0-0.35","20","1","2023-06-09 15:46:41","846205d480aaa49f22c83d5c8cececc8","5.78.83.194","Mozilla/5.0 (Windows NT 10.0; Win64; x64) AppleWebKit/537.36 (KHTML, like Gecko) Chrome/112.0.0.0 Safari/537.36","WebKit","Chrome","112.0.0.0","Windows","10.0","null","<div style=""font-size:60px;"">+</div>","null",""
"","","","","","html-button-response","74","1913367","0.0-3.0-1.35","20","1","2023-06-09 15:46:41","846205d480aaa49f22c83d5c8cececc8","5.78.83.194","Mozilla/5.0 (Windows NT 10.0; Win64; x64) AppleWebKit/537.36 (KHTML, like Gecko) Chrome/112.0.0.0 Safari/537.36","WebKit","Chrome","112.0.0.0","Windows","10.0","1488","<p>As the military commander, you could choose to launch a missile to kill <strong>4 enemy soldiers</strong> , but would accidentally kill <strong>1 enemy civilian</strong> nearby.</p> <p>The photo of the <strong>enemy civilian</strong> is shown below.</p> <p></p> <img src='stimuli/faces/PCF7.jpg', style='max-width: 30%;'> </img> <p><strong>Would you launch the weapon?</strong></p>","1",""
"","","","","","html-keyboard-response","75","1914383","0.0-3.0-0.36","20","1","2023-06-09 15:46:41","846205d480aaa49f22c83d5c8cececc8","5.78.83.194","Mozilla/5.0 (Windows NT 10.0; Win64; x64) AppleWebKit/537.36 (KHTML, like Gecko) Chrome/112.0.0.0 Safari/537.36","WebKit","Chrome","112.0.0.0","Windows","10.0","null","<div style=""font-size:60px;"">+</div>","null",""
"","","","","","html-button-response","76","1915789","0.0-3.0-1.36","20","1","2023-06-09 15:46:41","846205d480aaa49f22c83d5c8cececc8","5.78.83.194","Mozilla/5.0 (Windows NT 10.0; Win64; x64) AppleWebKit/537.36 (KHTML, like Gecko) Chrome/112.0.0.0 Safari/537.36","WebKit","Chrome","112.0.0.0","Windows","10.0","1400","<p>As the military commander, you could choose to launch a missile to kill <strong>6 enemy soldiers</strong> , but would accidentally kill <strong>1 enemy tree</strong> nearby.</p> <p>The photo of the <strong>enemy tree</strong> is shown below.</p> <p></p> <img src='stimuli/tree/4.png', style='max-width: 30%;'> </img> <p><strong>Would you launch the weapon?</strong></p>","0",""
"","","","","","html-keyboard-response","77","1916796","0.0-3.0-0.37","20","1","2023-06-09 15:46:41","846205d480aaa49f22c83d5c8cececc8","5.78.83.194","Mozilla/5.0 (Windows NT 10.0; Win64; x64) AppleWebKit/537.36 (KHTML, like Gecko) Chrome/112.0.0.0 Safari/537.36","WebKit","Chrome","112.0.0.0","Windows","10.0","null","<div style=""font-size:60px;"">+</div>","null",""
"","","","","","html-button-response","78","1918354","0.0-3.0-1.37","20","1","2023-06-09 15:46:41","846205d480aaa49f22c83d5c8cececc8","5.78.83.194","Mozilla/5.0 (Windows NT 10.0; Win64; x64) AppleWebKit/537.36 (KHTML, like Gecko) Chrome/112.0.0.0 Safari/537.36","WebKit","Chrome","112.0.0.0","Windows","10.0","1554","<p>As the military commander, you could choose to launch a missile to kill <strong>10 enemy soldiers</strong> , but would accidentally kill <strong>1 enemy civilian</strong> nearby.</p> <p>The photo of the <strong>enemy civilian</strong> is shown below.</p> <p></p> <img src='stimuli/faces/PCM1.jpg', style='max-width: 30%;'> </img> <p><strong>Would you launch the weapon?</strong></p>","1",""
"","","","","","html-keyboard-response","79","1919376","0.0-3.0-0.38","20","1","2023-06-09 15:46:41","846205d480aaa49f22c83d5c8cececc8","5.78.83.194","Mozilla/5.0 (Windows NT 10.0; Win64; x64) AppleWebKit/537.36 (KHTML, like Gecko) Chrome/112.0.0.0 Safari/537.36","WebKit","Chrome","112.0.0.0","Windows","10.0","null","<div style=""font-size:60px;"">+</div>","null",""
"","","","","","html-button-response","80","1920714","0.0-3.0-1.38","20","1","2023-06-09 15:46:41","846205d480aaa49f22c83d5c8cececc8","5.78.83.194","Mozilla/5.0 (Windows NT 10.0; Win64; x64) AppleWebKit/537.36 (KHTML, like Gecko) Chrome/112.0.0.0 Safari/537.36","WebKit","Chrome","112.0.0.0","Windows","10.0","1335","<p>As the military commander, you could choose to launch a missile to kill <strong>8 enemy soldiers</strong> , but would accidentally kill <strong>1 enemy tree</strong> nearby.</p> <p>The photo of the <strong>enemy tree</strong> is shown below.</p> <p></p> <img src='stimuli/tree/9.png', style='max-width: 30%;'> </img> <p><strong>Would you launch the weapon?</strong></p>","0",""
"","","","","","html-keyboard-response","81","1921749","0.0-3.0-0.39","20","1","2023-06-09 15:46:41","846205d480aaa49f22c83d5c8cececc8","5.78.83.194","Mozilla/5.0 (Windows NT 10.0; Win64; x64) AppleWebKit/537.36 (KHTML, like Gecko) Chrome/112.0.0.0 Safari/537.36","WebKit","Chrome","112.0.0.0","Windows","10.0","null","<div style=""font-size:60px;"">+</div>","null",""
"","","","","","html-button-response","82","1923188","0.0-3.0-1.39","20","1","2023-06-09 15:46:41","846205d480aaa49f22c83d5c8cececc8","5.78.83.194","Mozilla/5.0 (Windows NT 10.0; Win64; x64) AppleWebKit/537.36 (KHTML, like Gecko) Chrome/112.0.0.0 Safari/537.36","WebKit","Chrome","112.0.0.0","Windows","10.0","1433","<p>As the military commander, you could choose to launch a missile to kill <strong>9 enemy soldiers</strong> , but would accidentally kill <strong>1 enemy civilian</strong> nearby.</p> <p>The photo of the <strong>enemy civilian</strong> is shown below.</p> <p></p> <img src='stimuli/faces/PCM8.jpg', style='max-width: 30%;'> </img> <p><strong>Would you launch the weapon?</strong></p>","1",""
"","","","","","html-keyboard-response","83","1924203","0.0-3.0-0.40","20","1","2023-06-09 15:46:41","846205d480aaa49f22c83d5c8cececc8","5.78.83.194","Mozilla/5.0 (Windows NT 10.0; Win64; x64) AppleWebKit/537.36 (KHTML, like Gecko) Chrome/112.0.0.0 Safari/537.36","WebKit","Chrome","112.0.0.0","Windows","10.0","null","<div style=""font-size:60px;"">+</div>","null",""
"","","","","","html-button-response","84","1925611","0.0-3.0-1.40","20","1","2023-06-09 15:46:41","846205d480aaa49f22c83d5c8cececc8","5.78.83.194","Mozilla/5.0 (Windows NT 10.0; Win64; x64) AppleWebKit/537.36 (KHTML, like Gecko) Chrome/112.0.0.0 Safari/537.36","WebKit","Chrome","112.0.0.0","Windows","10.0","1403","<p>As the military commander, you could choose to launch a missile to kill <strong>1 enemy soldier</strong> , but would accidentally kill <strong>1 enemy tree</strong> nearby.</p> <p>The photo of the <strong>enemy tree</strong> is shown below.</p> <p></p> <img src='stimuli/tree/4.png', style='max-width: 30%;'> </img> <p><strong>Would you launch the weapon?</strong></p>","0",""
"","","","","","html-keyboard-response","85","1926625","0.0-3.0-0.41","20","1","2023-06-09 15:46:41","846205d480aaa49f22c83d5c8cececc8","5.78.83.194","Mozilla/5.0 (Windows NT 10.0; Win64; x64) AppleWebKit/537.36 (KHTML, like Gecko) Chrome/112.0.0.0 Safari/537.36","WebKit","Chrome","112.0.0.0","Windows","10.0","null","<div style=""font-size:60px;"">+</div>","null",""
"","","","","","html-button-response","86","1928213","0.0-3.0-1.41","20","1","2023-06-09 15:46:41","846205d480aaa49f22c83d5c8cececc8","5.78.83.194","Mozilla/5.0 (Windows NT 10.0; Win64; x64) AppleWebKit/537.36 (KHTML, like Gecko) Chrome/112.0.0.0 Safari/537.36","WebKit","Chrome","112.0.0.0","Windows","10.0","1585","<p>As the military commander, you could choose to launch a missile to kill <strong>4 enemy soldiers</strong> , but would accidentally kill <strong>1 enemy tree</strong> nearby.</p> <p>The photo of the <strong>enemy tree</strong> is shown below.</p> <p></p> <img src='stimuli/tree/1.png', style='max-width: 30%;'> </img> <p><strong>Would you launch the weapon?</strong></p>","0",""
"","","","","","html-keyboard-response","87","1929231","0.0-3.0-0.42","20","1","2023-06-09 15:46:41","846205d480aaa49f22c83d5c8cececc8","5.78.83.194","Mozilla/5.0 (Windows NT 10.0; Win64; x64) AppleWebKit/537.36 (KHTML, like Gecko) Chrome/112.0.0.0 Safari/537.36","WebKit","Chrome","112.0.0.0","Windows","10.0","null","<div style=""font-size:60px;"">+</div>","null",""
"","","","","","html-button-response","88","1932076","0.0-3.0-1.42","20","1","2023-06-09 15:46:41","846205d480aaa49f22c83d5c8cececc8","5.78.83.194","Mozilla/5.0 (Windows NT 10.0; Win64; x64) AppleWebKit/537.36 (KHTML, like Gecko) Chrome/112.0.0.0 Safari/537.36","WebKit","Chrome","112.0.0.0","Windows","10.0","2840","<p>As the military commander, you could choose to launch a missile to kill <strong>3 enemy soldiers</strong> , but would accidentally kill <strong>1 enemy tree</strong> nearby.</p> <p>The photo of the <strong>enemy tree</strong> is shown below.</p> <p></p> <img src='stimuli/tree/16.png', style='max-width: 30%;'> </img> <p><strong>Would you launch the weapon?</strong></p>","0",""
"","","","","","html-keyboard-response","89","1933086","0.0-3.0-0.43","20","1","2023-06-09 15:46:41","846205d480aaa49f22c83d5c8cececc8","5.78.83.194","Mozilla/5.0 (Windows NT 10.0; Win64; x64) AppleWebKit/537.36 (KHTML, like Gecko) Chrome/112.0.0.0 Safari/537.36","WebKit","Chrome","112.0.0.0","Windows","10.0","null","<div style=""font-size:60px;"">+</div>","null",""
"","","","","","html-button-response","90","1934544","0.0-3.0-1.43","20","1","2023-06-09 15:46:41","846205d480aaa49f22c83d5c8cececc8","5.78.83.194","Mozilla/5.0 (Windows NT 10.0; Win64; x64) AppleWebKit/537.36 (KHTML, like Gecko) Chrome/112.0.0.0 Safari/537.36","WebKit","Chrome","112.0.0.0","Windows","10.0","1454","<p>As the military commander, you could choose to launch a missile to kill <strong>4 enemy soldiers</strong> , but would accidentally kill <strong>1 enemy tree</strong> nearby.</p> <p>The photo of the <strong>enemy tree</strong> is shown below.</p> <p></p> <img src='stimuli/tree/8.png', style='max-width: 30%;'> </img> <p><strong>Would you launch the weapon?</strong></p>","1",""
"","","","","","html-keyboard-response","91","1935562","0.0-3.0-0.44","20","1","2023-06-09 15:46:41","846205d480aaa49f22c83d5c8cececc8","5.78.83.194","Mozilla/5.0 (Windows NT 10.0; Win64; x64) AppleWebKit/537.36 (KHTML, like Gecko) Chrome/112.0.0.0 Safari/537.36","WebKit","Chrome","112.0.0.0","Windows","10.0","null","<div style=""font-size:60px;"">+</div>","null",""
"","","","","","html-button-response","92","1937601","0.0-3.0-1.44","20","1","2023-06-09 15:46:41","846205d480aaa49f22c83d5c8cececc8","5.78.83.194","Mozilla/5.0 (Windows NT 10.0; Win64; x64) AppleWebKit/537.36 (KHTML, like Gecko) Chrome/112.0.0.0 Safari/537.36","WebKit","Chrome","112.0.0.0","Windows","10.0","2031","<p>As the military commander, you could choose to launch a missile to kill <strong>4 enemy soldiers</strong> , but would accidentally kill <strong>1 enemy civilian</strong> nearby.</p> <p>The photo of the <strong>enemy civilian</strong> is shown below.</p> <p></p> <img src='stimuli/faces/PCM5.jpg', style='max-width: 30%;'> </img> <p><strong>Would you launch the weapon?</strong></p>","1",""
"","","","","","html-keyboard-response","93","1938610","0.0-3.0-0.45","20","1","2023-06-09 15:46:41","846205d480aaa49f22c83d5c8cececc8","5.78.83.194","Mozilla/5.0 (Windows NT 10.0; Win64; x64) AppleWebKit/537.36 (KHTML, like Gecko) Chrome/112.0.0.0 Safari/537.36","WebKit","Chrome","112.0.0.0","Windows","10.0","null","<div style=""font-size:60px;"">+</div>","null",""
"","","","","","html-button-response","94","1940035","0.0-3.0-1.45","20","1","2023-06-09 15:46:41","846205d480aaa49f22c83d5c8cececc8","5.78.83.194","Mozilla/5.0 (Windows NT 10.0; Win64; x64) AppleWebKit/537.36 (KHTML, like Gecko) Chrome/112.0.0.0 Safari/537.36","WebKit","Chrome","112.0.0.0","Windows","10.0","1419","<p>As the military commander, you could choose to launch a missile to kill <strong>5 enemy soldiers</strong> , but would accidentally kill <strong>1 enemy tree</strong> nearby.</p> <p>The photo of the <strong>enemy tree</strong> is shown below.</p> <p></p> <img src='stimuli/tree/5.png', style='max-width: 30%;'> </img> <p><strong>Would you launch the weapon?</strong></p>","0",""
"","","","","","html-keyboard-response","95","1941055","0.0-3.0-0.46","20","1","2023-06-09 15:46:41","846205d480aaa49f22c83d5c8cececc8","5.78.83.194","Mozilla/5.0 (Windows NT 10.0; Win64; x64) AppleWebKit/537.36 (KHTML, like Gecko) Chrome/112.0.0.0 Safari/537.36","WebKit","Chrome","112.0.0.0","Windows","10.0","null","<div style=""font-size:60px;"">+</div>","null",""
"","","","","","html-button-response","96","1942499","0.0-3.0-1.46","20","1","2023-06-09 15:46:41","846205d480aaa49f22c83d5c8cececc8","5.78.83.194","Mozilla/5.0 (Windows NT 10.0; Win64; x64) AppleWebKit/537.36 (KHTML, like Gecko) Chrome/112.0.0.0 Safari/537.36","WebKit","Chrome","112.0.0.0","Windows","10.0","1439","<p>As the military commander, you could choose to launch a missile to kill <strong>4 enemy soldiers</strong> , but would accidentally kill <strong>1 enemy civilian</strong> nearby.</p> <p>The photo of the <strong>enemy civilian</strong> is shown below.</p> <p></p> <img src='stimuli/faces/PCM4.jpg', style='max-width: 30%;'> </img> <p><strong>Would you launch the weapon?</strong></p>","1",""
"","","","","","html-keyboard-response","97","1943512","0.0-3.0-0.47","20","1","2023-06-09 15:46:41","846205d480aaa49f22c83d5c8cececc8","5.78.83.194","Mozilla/5.0 (Windows NT 10.0; Win64; x64) AppleWebKit/537.36 (KHTML, like Gecko) Chrome/112.0.0.0 Safari/537.36","WebKit","Chrome","112.0.0.0","Windows","10.0","null","<div style=""font-size:60px;"">+</div>","null",""
"","","","","","html-button-response","98","1944851","0.0-3.0-1.47","20","1","2023-06-09 15:46:41","846205d480aaa49f22c83d5c8cececc8","5.78.83.194","Mozilla/5.0 (Windows NT 10.0; Win64; x64) AppleWebKit/537.36 (KHTML, like Gecko) Chrome/112.0.0.0 Safari/537.36","WebKit","Chrome","112.0.0.0","Windows","10.0","1331","<p>As the military commander, you could choose to launch a missile to kill <strong>8 enemy soldiers</strong> , but would accidentally kill <strong>1 enemy civilian</strong> nearby.</p> <p>The photo of the <strong>enemy civilian</strong> is shown below.</p> <p></p> <img src='stimuli/faces/PCF8.jpg', style='max-width: 30%;'> </img> <p><strong>Would you launch the weapon?</strong></p>","0",""
"","","","","","html-keyboard-response","99","1945854","0.0-3.0-0.48","20","1","2023-06-09 15:46:41","846205d480aaa49f22c83d5c8cececc8","5.78.83.194","Mozilla/5.0 (Windows NT 10.0; Win64; x64) AppleWebKit/537.36 (KHTML, like Gecko) Chrome/112.0.0.0 Safari/537.36","WebKit","Chrome","112.0.0.0","Windows","10.0","null","<div style=""font-size:60px;"">+</div>","null",""
"","","","","","html-button-response","100","1947008","0.0-3.0-1.48","20","1","2023-06-09 15:46:41","846205d480aaa49f22c83d5c8cececc8","5.78.83.194","Mozilla/5.0 (Windows NT 10.0; Win64; x64) AppleWebKit/537.36 (KHTML, like Gecko) Chrome/112.0.0.0 Safari/537.36","WebKit","Chrome","112.0.0.0","Windows","10.0","1150","<p>As the military commander, you could choose to launch a missile to kill <strong>8 enemy soldiers</strong> , but would accidentally kill <strong>1 enemy tree</strong> nearby.</p> <p>The photo of the <strong>enemy tree</strong> is shown below.</p> <p></p> <img src='stimuli/tree/1.png', style='max-width: 30%;'> </img> <p><strong>Would you launch the weapon?</strong></p>","1",""
"","","","","","html-keyboard-response","101","1948015","0.0-3.0-0.49","20","1","2023-06-09 15:46:41","846205d480aaa49f22c83d5c8cececc8","5.78.83.194","Mozilla/5.0 (Windows NT 10.0; Win64; x64) AppleWebKit/537.36 (KHTML, like Gecko) Chrome/112.0.0.0 Safari/537.36","WebKit","Chrome","112.0.0.0","Windows","10.0","null","<div style=""font-size:60px;"">+</div>","null",""
"","","","","","html-button-response","102","1949989","0.0-3.0-1.49","20","1","2023-06-09 15:46:41","846205d480aaa49f22c83d5c8cececc8","5.78.83.194","Mozilla/5.0 (Windows NT 10.0; Win64; x64) AppleWebKit/537.36 (KHTML, like Gecko) Chrome/112.0.0.0 Safari/537.36","WebKit","Chrome","112.0.0.0","Windows","10.0","1970","<p>As the military commander, you could choose to launch a missile to kill <strong>8 enemy soldiers</strong> , but would accidentally kill <strong>1 enemy tree</strong> nearby.</p> <p>The photo of the <strong>enemy tree</strong> is shown below.</p> <p></p> <img src='stimuli/tree/12.png', style='max-width: 30%;'> </img> <p><strong>Would you launch the weapon?</strong></p>","0",""
"","","","","","html-keyboard-response","103","1951006","0.0-3.0-0.50","20","1","2023-06-09 15:46:41","846205d480aaa49f22c83d5c8cececc8","5.78.83.194","Mozilla/5.0 (Windows NT 10.0; Win64; x64) AppleWebKit/537.36 (KHTML, like Gecko) Chrome/112.0.0.0 Safari/537.36","WebKit","Chrome","112.0.0.0","Windows","10.0","null","<div style=""font-size:60px;"">+</div>","null",""
"","","","","","html-button-response","104","1952612","0.0-3.0-1.50","20","1","2023-06-09 15:46:41","846205d480aaa49f22c83d5c8cececc8","5.78.83.194","Mozilla/5.0 (Windows NT 10.0; Win64; x64) AppleWebKit/537.36 (KHTML, like Gecko) Chrome/112.0.0.0 Safari/537.36","WebKit","Chrome","112.0.0.0","Windows","10.0","1598","<p>As the military commander, you could choose to launch a missile to kill <strong>10 enemy soldiers</strong> , but would accidentally kill <strong>1 enemy tree</strong> nearby.</p> <p>The photo of the <strong>enemy tree</strong> is shown below.</p> <p></p> <img src='stimuli/tree/5.png', style='max-width: 30%;'> </img> <p><strong>Would you launch the weapon?</strong></p>","0",""
"","","","","","html-keyboard-response","105","1953620","0.0-3.0-0.51","20","1","2023-06-09 15:46:41","846205d480aaa49f22c83d5c8cececc8","5.78.83.194","Mozilla/5.0 (Windows NT 10.0; Win64; x64) AppleWebKit/537.36 (KHTML, like Gecko) Chrome/112.0.0.0 Safari/537.36","WebKit","Chrome","112.0.0.0","Windows","10.0","null","<div style=""font-size:60px;"">+</div>","null",""
"","","","","","html-button-response","106","1955998","0.0-3.0-1.51","20","1","2023-06-09 15:46:41","846205d480aaa49f22c83d5c8cececc8","5.78.83.194","Mozilla/5.0 (Windows NT 10.0; Win64; x64) AppleWebKit/537.36 (KHTML, like Gecko) Chrome/112.0.0.0 Safari/537.36","WebKit","Chrome","112.0.0.0","Windows","10.0","2373","<p>As the military commander, you could choose to launch a missile to kill <strong>7 enemy soldiers</strong> , but would accidentally kill <strong>1 enemy civilian</strong> nearby.</p> <p>The photo of the <strong>enemy civilian</strong> is shown below.</p> <p></p> <img src='stimuli/faces/PCF1.jpg', style='max-width: 30%;'> </img> <p><strong>Would you launch the weapon?</strong></p>","1",""
"","","","","","html-keyboard-response","107","1957019","0.0-3.0-0.52","20","1","2023-06-09 15:46:41","846205d480aaa49f22c83d5c8cececc8","5.78.83.194","Mozilla/5.0 (Windows NT 10.0; Win64; x64) AppleWebKit/537.36 (KHTML, like Gecko) Chrome/112.0.0.0 Safari/537.36","WebKit","Chrome","112.0.0.0","Windows","10.0","null","<div style=""font-size:60px;"">+</div>","null",""
"","","","","","html-button-response","108","1958522","0.0-3.0-1.52","20","1","2023-06-09 15:46:41","846205d480aaa49f22c83d5c8cececc8","5.78.83.194","Mozilla/5.0 (Windows NT 10.0; Win64; x64) AppleWebKit/537.36 (KHTML, like Gecko) Chrome/112.0.0.0 Safari/537.36","WebKit","Chrome","112.0.0.0","Windows","10.0","1498","<p>As the military commander, you could choose to launch a missile to kill <strong>5 enemy soldiers</strong> , but would accidentally kill <strong>1 enemy tree</strong> nearby.</p> <p>The photo of the <strong>enemy tree</strong> is shown below.</p> <p></p> <img src='stimuli/tree/10.png', style='max-width: 30%;'> </img> <p><strong>Would you launch the weapon?</strong></p>","0",""
"","","","","","html-keyboard-response","109","1959539","0.0-3.0-0.53","20","1","2023-06-09 15:46:41","846205d480aaa49f22c83d5c8cececc8","5.78.83.194","Mozilla/5.0 (Windows NT 10.0; Win64; x64) AppleWebKit/537.36 (KHTML, like Gecko) Chrome/112.0.0.0 Safari/537.36","WebKit","Chrome","112.0.0.0","Windows","10.0","null","<div style=""font-size:60px;"">+</div>","null",""
"","","","","","html-button-response","110","1962090","0.0-3.0-1.53","20","1","2023-06-09 15:46:41","846205d480aaa49f22c83d5c8cececc8","5.78.83.194","Mozilla/5.0 (Windows NT 10.0; Win64; x64) AppleWebKit/537.36 (KHTML, like Gecko) Chrome/112.0.0.0 Safari/537.36","WebKit","Chrome","112.0.0.0","Windows","10.0","2543","<p>As the military commander, you could choose to launch a missile to kill <strong>1 enemy soldier</strong> , but would accidentally kill <strong>1 enemy civilian</strong> nearby.</p> <p>The photo of the <strong>enemy civilian</strong> is shown below.</p> <p></p> <img src='stimuli/faces/PCM1.jpg', style='max-width: 30%;'> </img> <p><strong>Would you launch the weapon?</strong></p>","1",""
"","","","","","html-keyboard-response","111","1963105","0.0-3.0-0.54","20","1","2023-06-09 15:46:41","846205d480aaa49f22c83d5c8cececc8","5.78.83.194","Mozilla/5.0 (Windows NT 10.0; Win64; x64) AppleWebKit/537.36 (KHTML, like Gecko) Chrome/112.0.0.0 Safari/537.36","WebKit","Chrome","112.0.0.0","Windows","10.0","null","<div style=""font-size:60px;"">+</div>","null",""
"","","","","","html-button-response","112","1965791","0.0-3.0-1.54","20","1","2023-06-09 15:46:41","846205d480aaa49f22c83d5c8cececc8","5.78.83.194","Mozilla/5.0 (Windows NT 10.0; Win64; x64) AppleWebKit/537.36 (KHTML, like Gecko) Chrome/112.0.0.0 Safari/537.36","WebKit","Chrome","112.0.0.0","Windows","10.0","2680","<p>As the military commander, you could choose to launch a missile to kill <strong>10 enemy soldiers</strong> , but would accidentally kill <strong>1 enemy civilian</strong> nearby.</p> <p>The photo of the <strong>enemy civilian</strong> is shown below.</p> <p></p> <img src='stimuli/faces/PCF4.jpg', style='max-width: 30%;'> </img> <p><strong>Would you launch the weapon?</strong></p>","1",""
"","","","","","html-keyboard-response","113","1966795","0.0-3.0-0.55","20","1","2023-06-09 15:46:41","846205d480aaa49f22c83d5c8cececc8","5.78.83.194","Mozilla/5.0 (Windows NT 10.0; Win64; x64) AppleWebKit/537.36 (KHTML, like Gecko) Chrome/112.0.0.0 Safari/537.36","WebKit","Chrome","112.0.0.0","Windows","10.0","null","<div style=""font-size:60px;"">+</div>","null",""
"","","","","","html-button-response","114","1968868","0.0-3.0-1.55","20","1","2023-06-09 15:46:41","846205d480aaa49f22c83d5c8cececc8","5.78.83.194","Mozilla/5.0 (Windows NT 10.0; Win64; x64) AppleWebKit/537.36 (KHTML, like Gecko) Chrome/112.0.0.0 Safari/537.36","WebKit","Chrome","112.0.0.0","Windows","10.0","2068","<p>As the military commander, you could choose to launch a missile to kill <strong>7 enemy soldiers</strong> , but would accidentally kill <strong>1 enemy tree</strong> nearby.</p> <p>The photo of the <strong>enemy tree</strong> is shown below.</p> <p></p> <img src='stimuli/tree/16.png', style='max-width: 30%;'> </img> <p><strong>Would you launch the weapon?</strong></p>","0",""
"","","","","","html-keyboard-response","115","1969894","0.0-3.0-0.56","20","1","2023-06-09 15:46:41","846205d480aaa49f22c83d5c8cececc8","5.78.83.194","Mozilla/5.0 (Windows NT 10.0; Win64; x64) AppleWebKit/537.36 (KHTML, like Gecko) Chrome/112.0.0.0 Safari/537.36","WebKit","Chrome","112.0.0.0","Windows","10.0","null","<div style=""font-size:60px;"">+</div>","null",""
"","","","","","html-button-response","116","1972115","0.0-3.0-1.56","20","1","2023-06-09 15:46:41","846205d480aaa49f22c83d5c8cececc8","5.78.83.194","Mozilla/5.0 (Windows NT 10.0; Win64; x64) AppleWebKit/537.36 (KHTML, like Gecko) Chrome/112.0.0.0 Safari/537.36","WebKit","Chrome","112.0.0.0","Windows","10.0","2201","<p>As the military commander, you could choose to launch a missile to kill <strong>6 enemy soldiers</strong> , but would accidentally kill <strong>1 enemy civilian</strong> nearby.</p> <p>The photo of the <strong>enemy civilian</strong> is shown below.</p> <p></p> <img src='stimuli/faces/PCM3.jpg', style='max-width: 30%;'> </img> <p><strong>Would you launch the weapon?</strong></p>","1",""
"","","","","","html-keyboard-response","117","1973120","0.0-3.0-0.57","20","1","2023-06-09 15:46:41","846205d480aaa49f22c83d5c8cececc8","5.78.83.194","Mozilla/5.0 (Windows NT 10.0; Win64; x64) AppleWebKit/537.36 (KHTML, like Gecko) Chrome/112.0.0.0 Safari/537.36","WebKit","Chrome","112.0.0.0","Windows","10.0","null","<div style=""font-size:60px;"">+</div>","null",""
"","","","","","html-button-response","118","1975043","0.0-3.0-1.57","20","1","2023-06-09 15:46:41","846205d480aaa49f22c83d5c8cececc8","5.78.83.194","Mozilla/5.0 (Windows NT 10.0; Win64; x64) AppleWebKit/537.36 (KHTML, like Gecko) Chrome/112.0.0.0 Safari/537.36","WebKit","Chrome","112.0.0.0","Windows","10.0","1912","<p>As the military commander, you could choose to launch a missile to kill <strong>4 enemy soldiers</strong> , but would accidentally kill <strong>1 enemy civilian</strong> nearby.</p> <p>The photo of the <strong>enemy civilian</strong> is shown below.</p> <p></p> <img src='stimuli/faces/PCF3.jpg', style='max-width: 30%;'> </img> <p><strong>Would you launch the weapon?</strong></p>","0",""
"","","","","","html-keyboard-response","119","1976060","0.0-3.0-0.58","20","1","2023-06-09 15:46:41","846205d480aaa49f22c83d5c8cececc8","5.78.83.194","Mozilla/5.0 (Windows NT 10.0; Win64; x64) AppleWebKit/537.36 (KHTML, like Gecko) Chrome/112.0.0.0 Safari/537.36","WebKit","Chrome","112.0.0.0","Windows","10.0","null","<div style=""font-size:60px;"">+</div>","null",""
"","","","","","html-button-response","120","1978162","0.0-3.0-1.58","20","1","2023-06-09 15:46:41","846205d480aaa49f22c83d5c8cececc8","5.78.83.194","Mozilla/5.0 (Windows NT 10.0; Win64; x64) AppleWebKit/537.36 (KHTML, like Gecko) Chrome/112.0.0.0 Safari/537.36","WebKit","Chrome","112.0.0.0","Windows","10.0","2094","<p>As the military commander, you could choose to launch a missile to kill <strong>3 enemy soldiers</strong> , but would accidentally kill <strong>1 enemy civilian</strong> nearby.</p> <p>The photo of the <strong>enemy civilian</strong> is shown below.</p> <p></p> <img src='stimuli/faces/PCF6.jpg', style='max-width: 30%;'> </img> <p><strong>Would you launch the weapon?</strong></p>","1",""
"","","","","","html-keyboard-response","121","1979174","0.0-3.0-0.59","20","1","2023-06-09 15:46:41","846205d480aaa49f22c83d5c8cececc8","5.78.83.194","Mozilla/5.0 (Windows NT 10.0; Win64; x64) AppleWebKit/537.36 (KHTML, like Gecko) Chrome/112.0.0.0 Safari/537.36","WebKit","Chrome","112.0.0.0","Windows","10.0","null","<div style=""font-size:60px;"">+</div>","null",""
"","","","","","html-button-response","122","1980856","0.0-3.0-1.59","20","1","2023-06-09 15:46:41","846205d480aaa49f22c83d5c8cececc8","5.78.83.194","Mozilla/5.0 (Windows NT 10.0; Win64; x64) AppleWebKit/537.36 (KHTML, like Gecko) Chrome/112.0.0.0 Safari/537.36","WebKit","Chrome","112.0.0.0","Windows","10.0","1677","<p>As the military commander, you could choose to launch a missile to kill <strong>4 enemy soldiers</strong> , but would accidentally kill <strong>1 enemy civilian</strong> nearby.</p> <p>The photo of the <strong>enemy civilian</strong> is shown below.</p> <p></p> <img src='stimuli/faces/PCM3.jpg', style='max-width: 30%;'> </img> <p><strong>Would you launch the weapon?</strong></p>","1",""
"","","","","","html-keyboard-response","123","1981870","0.0-3.0-0.60","20","1","2023-06-09 15:46:41","846205d480aaa49f22c83d5c8cececc8","5.78.83.194","Mozilla/5.0 (Windows NT 10.0; Win64; x64) AppleWebKit/537.36 (KHTML, like Gecko) Chrome/112.0.0.0 Safari/537.36","WebKit","Chrome","112.0.0.0","Windows","10.0","null","<div style=""font-size:60px;"">+</div>","null",""
"","","","","","html-button-response","124","1983824","0.0-3.0-1.60","20","1","2023-06-09 15:46:41","846205d480aaa49f22c83d5c8cececc8","5.78.83.194","Mozilla/5.0 (Windows NT 10.0; Win64; x64) AppleWebKit/537.36 (KHTML, like Gecko) Chrome/112.0.0.0 Safari/537.36","WebKit","Chrome","112.0.0.0","Windows","10.0","1951","<p>As the military commander, you could choose to launch a missile to kill <strong>10 enemy soldiers</strong> , but would accidentally kill <strong>1 enemy civilian</strong> nearby.</p> <p>The photo of the <strong>enemy civilian</strong> is shown below.</p> <p></p> <img src='stimuli/faces/PCF3.jpg', style='max-width: 30%;'> </img> <p><strong>Would you launch the weapon?</strong></p>","1",""
"","","","","","html-keyboard-response","125","1984838","0.0-3.0-0.61","20","1","2023-06-09 15:46:41","846205d480aaa49f22c83d5c8cececc8","5.78.83.194","Mozilla/5.0 (Windows NT 10.0; Win64; x64) AppleWebKit/537.36 (KHTML, like Gecko) Chrome/112.0.0.0 Safari/537.36","WebKit","Chrome","112.0.0.0","Windows","10.0","null","<div style=""font-size:60px;"">+</div>","null",""
"","","","","","html-button-response","126","2005904","0.0-3.0-1.61","20","1","2023-06-09 15:46:41","846205d480aaa49f22c83d5c8cececc8","5.78.83.194","Mozilla/5.0 (Windows NT 10.0; Win64; x64) AppleWebKit/537.36 (KHTML, like Gecko) Chrome/112.0.0.0 Safari/537.36","WebKit","Chrome","112.0.0.0","Windows","10.0","21060","<p>As the military commander, you could choose to launch a missile to kill <strong>10 enemy soldiers</strong> , but would accidentally kill <strong>1 enemy civilian</strong> nearby.</p> <p>The photo of the <strong>enemy civilian</strong> is shown below.</p> <p></p> <img src='stimuli/faces/PCM4.jpg', style='max-width: 30%;'> </img> <p><strong>Would you launch the weapon?</strong></p>","1",""
"","","","","","html-keyboard-response","127","2006919","0.0-3.0-0.62","20","1","2023-06-09 15:46:41","846205d480aaa49f22c83d5c8cececc8","5.78.83.194","Mozilla/5.0 (Windows NT 10.0; Win64; x64) AppleWebKit/537.36 (KHTML, like Gecko) Chrome/112.0.0.0 Safari/537.36","WebKit","Chrome","112.0.0.0","Windows","10.0","null","<div style=""font-size:60px;"">+</div>","null",""
"","","","","","html-button-response","128","2008866","0.0-3.0-1.62","20","1","2023-06-09 15:46:41","846205d480aaa49f22c83d5c8cececc8","5.78.83.194","Mozilla/5.0 (Windows NT 10.0; Win64; x64) AppleWebKit/537.36 (KHTML, like Gecko) Chrome/112.0.0.0 Safari/537.36","WebKit","Chrome","112.0.0.0","Windows","10.0","1940","<p>As the military commander, you could choose to launch a missile to kill <strong>3 enemy soldiers</strong> , but would accidentally kill <strong>1 enemy civilian</strong> nearby.</p> <p>The photo of the <strong>enemy civilian</strong> is shown below.</p> <p></p> <img src='stimuli/faces/PCF2.jpg', style='max-width: 30%;'> </img> <p><strong>Would you launch the weapon?</strong></p>","1",""
"","","","","","html-keyboard-response","129","2009889","0.0-3.0-0.63","20","1","2023-06-09 15:46:41","846205d480aaa49f22c83d5c8cececc8","5.78.83.194","Mozilla/5.0 (Windows NT 10.0; Win64; x64) AppleWebKit/537.36 (KHTML, like Gecko) Chrome/112.0.0.0 Safari/537.36","WebKit","Chrome","112.0.0.0","Windows","10.0","null","<div style=""font-size:60px;"">+</div>","null",""
"","","","","","html-button-response","130","2012042","0.0-3.0-1.63","20","1","2023-06-09 15:46:41","846205d480aaa49f22c83d5c8cececc8","5.78.83.194","Mozilla/5.0 (Windows NT 10.0; Win64; x64) AppleWebKit/537.36 (KHTML, like Gecko) Chrome/112.0.0.0 Safari/537.36","WebKit","Chrome","112.0.0.0","Windows","10.0","2148","<p>As the military commander, you could choose to launch a missile to kill <strong>10 enemy soldiers</strong> , but would accidentally kill <strong>1 enemy tree</strong> nearby.</p> <p>The photo of the <strong>enemy tree</strong> is shown below.</p> <p></p> <img src='stimuli/tree/2.png', style='max-width: 30%;'> </img> <p><strong>Would you launch the weapon?</strong></p>","0",""
"","","","","","survey-multi-choice","131","2029611","0.0-4.0","20","1","2023-06-09 15:46:41","846205d480aaa49f22c83d5c8cececc8","5.78.83.194","Mozilla/5.0 (Windows NT 10.0; Win64; x64) AppleWebKit/537.36 (KHTML, like Gecko) Chrome/112.0.0.0 Safari/537.36","WebKit","Chrome","112.0.0.0","Windows","10.0","17563","","{""Attention1"":""5""}","[0]"
"","","","","","html-button-response","132","2032079","0.0-5.0","20","1","2023-06-09 15:46:41","846205d480aaa49f22c83d5c8cececc8","5.78.83.194","Mozilla/5.0 (Windows NT 10.0; Win64; x64) AppleWebKit/537.36 (KHTML, like Gecko) Chrome/112.0.0.0 Safari/537.36","WebKit","Chrome","112.0.0.0","Windows","10.0","2457","<p style=""font-size:20px;font-weight:bold;"">Great!</p><p>You have finished the first part of the experiment!</p><p>Please relax a little bit and then contine to answer some questions regarding yourself.</p><p>The next part will take around 10 minutes to complete.</p>","0",""
"","","","","","survey-text","133","2071516","0.0-6.0","20","1","2023-06-09 15:46:41","846205d480aaa49f22c83d5c8cececc8","5.78.83.194","Mozilla/5.0 (Windows NT 10.0; Win64; x64) AppleWebKit/537.36 (KHTML, like Gecko) Chrome/112.0.0.0 Safari/537.36","WebKit","Chrome","112.0.0.0","Windows","10.0","38416","","{""Age"":""25"",""Nation"":""american"",""Born"":""1997"",""Live"":""USA""}",""
"","","","","","survey-multi-choice","134","2088345","0.0-7.0","20","1","2023-06-09 15:46:41","846205d480aaa49f22c83d5c8cececc8","5.78.83.194","Mozilla/5.0 (Windows NT 10.0; Win64; x64) AppleWebKit/537.36 (KHTML, like Gecko) Chrome/112.0.0.0 Safari/537.36","WebKit","Chrome","112.0.0.0","Windows","10.0","16823","","{""Gender"":""Female"",""Education"":""Bachelor's Degree"",""Income"":""$70,000 - $99,999"",""Children"":""2"",""Ethnicity"":""White""}","[0,1,2,3,4]"
"","","","","","survey-multi-select","135","2099833","0.0-8.0","20","1","2023-06-09 15:46:41","846205d480aaa49f22c83d5c8cececc8","5.78.83.194","Mozilla/5.0 (Windows NT 10.0; Win64; x64) AppleWebKit/537.36 (KHTML, like Gecko) Chrome/112.0.0.0 Safari/537.36","WebKit","Chrome","112.0.0.0","Windows","10.0","11476","","{""Marriage"":[""Married""],""Religion"":[""Christian""]}","[0,1]"
"","","","","","survey-multi-choice","136","2107632","0.0-9.0","20","1","2023-06-09 15:46:41","846205d480aaa49f22c83d5c8cececc8","5.78.83.194","Mozilla/5.0 (Windows NT 10.0; Win64; x64) AppleWebKit/537.36 (KHTML, like Gecko) Chrome/112.0.0.0 Safari/537.36","WebKit","Chrome","112.0.0.0","Windows","10.0","7790","","{""SES"":""7""}","[0]"
"","","","","","html-button-response","137","2109865","0.0-10.0","20","1","2023-06-09 15:46:41","846205d480aaa49f22c83d5c8cececc8","5.78.83.194","Mozilla/5.0 (Windows NT 10.0; Win64; x64) AppleWebKit/537.36 (KHTML, like Gecko) Chrome/112.0.0.0 Safari/537.36","WebKit","Chrome","112.0.0.0","Windows","10.0","2221","<p><strong>Please indicate the extent that the following statements could describe you.</p><p> (1 = ""extremely uncharacteristic of me"" to 5 = ""extremely characteristic of me"".)</strong></p>","0",""
"","","","","","survey-likert","138","2156122","0.0-11.0","20","1","2023-06-09 15:46:41","846205d480aaa49f22c83d5c8cececc8","5.78.83.194","Mozilla/5.0 (Windows NT 10.0; Win64; x64) AppleWebKit/537.36 (KHTML, like Gecko) Chrome/112.0.0.0 Safari/537.36","WebKit","Chrome","112.0.0.0","Windows","10.0","46252","","{""Aggression1"":2,""Aggression2"":3,""Aggression3"":2,""Aggression4"":3,""Aggression5"":2,""Aggression6"":3,""Aggression7"":3,""Aggression8"":2,""Aggression9"":3}","[0,1,2,3,4,5,6,7,8]"
"","","","","","html-button-response","139","2157909","0.0-12.0","20","1","2023-06-09 15:46:41","846205d480aaa49f22c83d5c8cececc8","5.78.83.194","Mozilla/5.0 (Windows NT 10.0; Win64; x64) AppleWebKit/537.36 (KHTML, like Gecko) Chrome/112.0.0.0 Safari/537.36","WebKit","Chrome","112.0.0.0","Windows","10.0","1779","<p><strong>Please indicate the extent that the following statements could describe you. </strong></p><p><strong> (1 = ""Does not describe me well"" to 5 = ""Does decribe me well"".)</strong></p>","0",""
"","","","","","survey-likert","140","2238397","0.0-13.0","20","1","2023-06-09 15:46:41","846205d480aaa49f22c83d5c8cececc8","5.78.83.194","Mozilla/5.0 (Windows NT 10.0; Win64; x64) AppleWebKit/537.36 (KHTML, like Gecko) Chrome/112.0.0.0 Safari/537.36","WebKit","Chrome","112.0.0.0","Windows","10.0","80483","","{""fs5"":2,""ecs5"":3,""pds4"":3,""fs4"":3,""fs2"":3,""pds3"":3,""fs7"":3,""pds7"":2,""ecs3"":2,""pts7"":3,""pts6"":2,""pds2"":2,""ecs2"":3,""fs1"":2,""pds5"":3,""pts1"":2,""pts2"":3,""fs3"":2,""fs6"":3,""ecs4"":3,""pts5"":2,""ecs6"":3,""pts3"":2,""pds6"":3,""pts4"":2,""ecs7"":3,""pds1"":2,""ecs1"":3}","[15,17,16,11,4,12,25,26,8,27,24,9,3,0,18,2,7,6,22,13,20,19,10,23,14,21,5,1]"
"","","","","","html-button-response","141","2240442","0.0-14.0","20","1","2023-06-09 15:46:41","846205d480aaa49f22c83d5c8cececc8","5.78.83.194","Mozilla/5.0 (Windows NT 10.0; Win64; x64) AppleWebKit/537.36 (KHTML, like Gecko) Chrome/112.0.0.0 Safari/537.36","WebKit","Chrome","112.0.0.0","Windows","10.0","2036","<p><strong>Which of the following objects or statements do you have a positive or negative feeling towards? </strong></p><p><strong> (1 = ""Very negative"" to 7 = ""Very positive"") </strong></p>","0",""
"","","","","","survey-likert","142","2284854","0.0-15.0","20","1","2023-06-09 15:46:41","846205d480aaa49f22c83d5c8cececc8","5.78.83.194","Mozilla/5.0 (Windows NT 10.0; Win64; x64) AppleWebKit/537.36 (KHTML, like Gecko) Chrome/112.0.0.0 Safari/537.36","WebKit","Chrome","112.0.0.0","Windows","10.0","44406","","{""sdo1"":4,""sdo3"":5,""sdo2"":4,""sdo9"":5,""sdo15"":5,""sdo10"":4,""sdo11"":5,""sdo14"":4,""sdo8"":5,""sdo5"":4,""sdo16"":5,""sdo13"":4,""sdo4"":5,""sdo12"":4,""sdo6"":5,""sdo7"":4}","[0,2,1,8,14,9,10,13,7,4,15,12,3,11,5,6]"
"","","","","","html-button-response","143","2286568","0.0-16.0","20","1","2023-06-09 15:46:41","846205d480aaa49f22c83d5c8cececc8","5.78.83.194","Mozilla/5.0 (Windows NT 10.0; Win64; x64) AppleWebKit/537.36 (KHTML, like Gecko) Chrome/112.0.0.0 Safari/537.36","WebKit","Chrome","112.0.0.0","Windows","10.0","1704","<p><strong>Please indicate the extent you agree with the following statements.</strong></p><strong><p> (1 = ""Strongly Disagree"" to 5 = ""Srongly Agree"") </strong></p>","0",""
"","","","","","survey-likert","144","2323795","0.0-17.0","20","1","2023-06-09 15:46:41","846205d480aaa49f22c83d5c8cececc8","5.78.83.194","Mozilla/5.0 (Windows NT 10.0; Win64; x64) AppleWebKit/537.36 (KHTML, like Gecko) Chrome/112.0.0.0 Safari/537.36","WebKit","Chrome","112.0.0.0","Windows","10.0","37217","","{""caring1"":3,""liking1"":4,""caring2"":3,""protection1"":4,""liking2"":3,""caring3"":4,""protection2"":3,""liking3"":3,""protection3"":4,""caring4"":3,""liking4"":3,""protection4"":4,""caring5"":3,""liking5"":4,""protection5"":3}","[0,1,2,3,4,5,6,7,8,9,10,11,12,13,14]"
"","","","","","html-button-response","145","2325571","0.0-18.0","20","1","2023-06-09 15:46:41","846205d480aaa49f22c83d5c8cececc8","5.78.83.194","Mozilla/5.0 (Windows NT 10.0; Win64; x64) AppleWebKit/537.36 (KHTML, like Gecko) Chrome/112.0.0.0 Safari/537.36","WebKit","Chrome","112.0.0.0","Windows","10.0","1764","<p><strong>Please imagine spercific situations involving children below, and rate the amount of tenderness you would feel in each situation. </strong></p><p><strong> (Ternderness is ""a warm, gentle feeling of sympathetic affection."") </strong></p><strong><p> (1 = ""No tenderness at all"" to 5 = ""A lot of tenderness"") </strong></p>","0",""
"","","","","","survey-likert","146","2342402","0.0-19.0","20","1","2023-06-09 15:46:41","846205d480aaa49f22c83d5c8cececc8","5.78.83.194","Mozilla/5.0 (Windows NT 10.0; Win64; x64) AppleWebKit/537.36 (KHTML, like Gecko) Chrome/112.0.0.0 Safari/537.36","WebKit","Chrome","112.0.0.0","Windows","10.0","16825","","{""tenderness-positive1"":2,""tenderness-negative1"":3,""tenderness-negative2"":2,""tenderness-positive2"":4,""tenderness-positive3"":3,""tenderness-negative3"":3,""tenderness-positive4"":4,""tendereness-negative4"":3,""tendernness-negative5"":4,""tenderness-positive5"":3}","[0,1,2,3,4,5,6,7,8,9]"
"","","","","","survey-multi-choice","147","2360531","0.0-20.0","20","1","2023-06-09 15:46:41","846205d480aaa49f22c83d5c8cececc8","5.78.83.194","Mozilla/5.0 (Windows NT 10.0; Win64; x64) AppleWebKit/537.36 (KHTML, like Gecko) Chrome/112.0.0.0 Safari/537.36","WebKit","Chrome","112.0.0.0","Windows","10.0","18120","","{""Attention2"":""Monthly""}","[0]"
"","","","","","html-button-response","148","2362220","0.0-21.0","20","1","2023-06-09 15:46:41","846205d480aaa49f22c83d5c8cececc8","5.78.83.194","Mozilla/5.0 (Windows NT 10.0; Win64; x64) AppleWebKit/537.36 (KHTML, like Gecko) Chrome/112.0.0.0 Safari/537.36","WebKit","Chrome","112.0.0.0","Windows","10.0","1681","<p><strong>Please indicate the extent you agree with the following statements.</strong></p>","0",""
"","","","","","survey-likert","149","2410112","0.0-22.0","20","1","2023-06-09 15:46:41","846205d480aaa49f22c83d5c8cececc8","5.78.83.194","Mozilla/5.0 (Windows NT 10.0; Win64; x64) AppleWebKit/537.36 (KHTML, like Gecko) Chrome/112.0.0.0 Safari/537.36","WebKit","Chrome","112.0.0.0","Windows","10.0","47887","","{""Patri11"":2,""Patri3"":3,""Patri12"":3,""Patri6"":4,""Patri9"":4,""Nation3"":3,""Patri7"":4,""Patri8"":3,""Nation6"":4,""Patri4"":3,""Patri1"":4,""Nation5"":3,""Patri2"":4,""Patri5"":3,""Nation4"":2,""Nation8"":3,""Nation1"":3,""Nation2"":4,""Nation7"":2,""Patri10"":3}","[10,2,11,5,8,14,6,7,17,3,0,16,1,4,15,19,12,13,18,9]"
"","","","","","html-button-response","150","2412327","0.0-23.0","20","1","2023-06-09 15:46:41","846205d480aaa49f22c83d5c8cececc8","5.78.83.194","Mozilla/5.0 (Windows NT 10.0; Win64; x64) AppleWebKit/537.36 (KHTML, like Gecko) Chrome/112.0.0.0 Safari/537.36","WebKit","Chrome","112.0.0.0","Windows","10.0","2207","<p><strong>Please indicate the extent you agree with the following statements. </p><p>(1 = ""never or definitely no"" and 9 = ""always or definitely yes"".)</strong></p>","0",""
"","","","","","survey-likert","151","2458497","0.0-24.0","20","1","2023-06-09 15:46:41","846205d480aaa49f22c83d5c8cececc8","5.78.83.194","Mozilla/5.0 (Windows NT 10.0; Win64; x64) AppleWebKit/537.36 (KHTML, like Gecko) Chrome/112.0.0.0 Safari/537.36","WebKit","Chrome","112.0.0.0","Windows","10.0","46162","","{""vi1"":5,""hi2"":7,""hc4"":7,""vc1"":6,""vc4"":7,""vi3"":6,""vi2"":6,""Robot2"":6,""vi4"":6,""hc2"":7,""hc3"":6,""vc3"":6,""vc2"":6,""hi3"":7,""hi1"":6,""hc1"":7,""hi4"":6}","[4,1,12,13,16,6,5,7,8,10,11,15,14,2,0,9,3]"
"","","","","","survey-text","152","2480237","0.0-25.0","20","1","2023-06-09 15:46:41","846205d480aaa49f22c83d5c8cececc8","5.78.83.194","Mozilla/5.0 (Windows NT 10.0; Win64; x64) AppleWebKit/537.36 (KHTML, like Gecko) Chrome/112.0.0.0 Safari/537.36","WebKit","Chrome","112.0.0.0","Windows","10.0","21719","","{""ID"":""A3MCBUK7K3KO27"",""Comments"":""INTERESTING""}",""
"","","","","","html-button-response","153","2498881","0.0-26.0","20","1","2023-06-09 15:46:41","846205d480aaa49f22c83d5c8cececc8","5.78.83.194","Mozilla/5.0 (Windows NT 10.0; Win64; x64) AppleWebKit/537.36 (KHTML, like Gecko) Chrome/112.0.0.0 Safari/537.36","WebKit","Chrome","112.0.0.0","Windows","10.0","18639","<p><strong>Congratulations! </strong> Your have finished all the survey. Thank you for your participation!</p><p><strong>Here is your complete token:</strong></p>i9z3bs0cwhmhxcbkymholr1fl<p></p><p><strong>Please copy it to the mTurk page.</strong></p>","0",""
