"success","timeout","failed_images","failed_audio","failed_video","trial_type","trial_index","time_elapsed","internal_node_id","run_id","condition","recorded_at","source_code_version","ip","user_agent","device","browser","browser_version","platform","platform_version","rt","stimulus","response","question_order"
"true","false","[]","[]","[]","preload","0","463","0.0-0.0","23","1","2023-06-27 16:57:48","846205d480aaa49f22c83d5c8cececc8","208.194.222.234","Mozilla/5.0 (Windows NT 10.0; Win64; x64) AppleWebKit/537.36 (KHTML, like Gecko) Chrome/114.0.0.0 Safari/537.36","WebKit","Chrome","114.0.0.0","Windows","10.0","","","",""
"true","","","","","fullscreen","1","6204","0.0-1.0","23","1","2023-06-27 16:57:48","846205d480aaa49f22c83d5c8cececc8","208.194.222.234","Mozilla/5.0 (Windows NT 10.0; Win64; x64) AppleWebKit/537.36 (KHTML, like Gecko) Chrome/114.0.0.0 Safari/537.36","WebKit","Chrome","114.0.0.0","Windows","10.0","","","",""
"","","","","","html-button-response","2","7505","0.0-2.0","23","1","2023-06-27 16:57:48","846205d480aaa49f22c83d5c8cececc8","208.194.222.234","Mozilla/5.0 (Windows NT 10.0; Win64; x64) AppleWebKit/537.36 (KHTML, like Gecko) Chrome/114.0.0.0 Safari/537.36","WebKit","Chrome","114.0.0.0","Windows","10.0","1300","<p ><strong>Welcome to the experiment!</strong></p><p ><strong>In the first task, please imagine:</strong></p><p>Your country is involved in a military conflict with another country.</p><p>You are the commander of your army and must make decisions in the conflict.</p><p>Specifically, as the military commander, you must decide whether to launch a missile to strike enemy.</p><p>You will face a series of scenarios. Please read each scenario carefully and make a decision.</p><p>The task will take around 10 minutes to complete.</p><p><strong>Please pay your attention during the experiment.</strong></p>","0",""
"","","","","","html-keyboard-response","3","8508","0.0-3.0-0.0","23","1","2023-06-27 16:57:48","846205d480aaa49f22c83d5c8cececc8","208.194.222.234","Mozilla/5.0 (Windows NT 10.0; Win64; x64) AppleWebKit/537.36 (KHTML, like Gecko) Chrome/114.0.0.0 Safari/537.36","WebKit","Chrome","114.0.0.0","Windows","10.0","null","<div style=""font-size:60px;"">+</div>","null",""
"","","","","","html-button-response","4","9794","0.0-3.0-1.0","23","1","2023-06-27 16:57:48","846205d480aaa49f22c83d5c8cececc8","208.194.222.234","Mozilla/5.0 (Windows NT 10.0; Win64; x64) AppleWebKit/537.36 (KHTML, like Gecko) Chrome/114.0.0.0 Safari/537.36","WebKit","Chrome","114.0.0.0","Windows","10.0","1284","<p>As the military commander, you could choose to launch a missile to kill <strong>10 enemy soldiers</strong> , but would accidentally kill <strong>1 enemy civilian</strong> nearby.</p> <p>The photo of the <strong>enemy civilian</strong> is shown below.</p> <p></p> <img src='stimuli/faces/PCF7.jpg', style='max-width: 30%;'> </img> <p><strong>Would you launch the weapon?</strong></p>","0",""
"","","","","","html-keyboard-response","5","10796","0.0-3.0-0.1","23","1","2023-06-27 16:57:48","846205d480aaa49f22c83d5c8cececc8","208.194.222.234","Mozilla/5.0 (Windows NT 10.0; Win64; x64) AppleWebKit/537.36 (KHTML, like Gecko) Chrome/114.0.0.0 Safari/537.36","WebKit","Chrome","114.0.0.0","Windows","10.0","null","<div style=""font-size:60px;"">+</div>","null",""
"","","","","","html-button-response","6","11027","0.0-3.0-1.1","23","1","2023-06-27 16:57:48","846205d480aaa49f22c83d5c8cececc8","208.194.222.234","Mozilla/5.0 (Windows NT 10.0; Win64; x64) AppleWebKit/537.36 (KHTML, like Gecko) Chrome/114.0.0.0 Safari/537.36","WebKit","Chrome","114.0.0.0","Windows","10.0","228","<p>As the military commander, you could choose to launch a missile to kill <strong>3 enemy soldiers</strong> , but would accidentally kill <strong>1 enemy tree</strong> nearby.</p> <p>The photo of the <strong>enemy tree</strong> is shown below.</p> <p></p> <img src='stimuli/tree/2.png', style='max-width: 30%;'> </img> <p><strong>Would you launch the weapon?</strong></p>","0",""
"","","","","","html-keyboard-response","7","12029","0.0-3.0-0.2","23","1","2023-06-27 16:57:48","846205d480aaa49f22c83d5c8cececc8","208.194.222.234","Mozilla/5.0 (Windows NT 10.0; Win64; x64) AppleWebKit/537.36 (KHTML, like Gecko) Chrome/114.0.0.0 Safari/537.36","WebKit","Chrome","114.0.0.0","Windows","10.0","null","<div style=""font-size:60px;"">+</div>","null",""
"","","","","","html-button-response","8","12161","0.0-3.0-1.2","23","1","2023-06-27 16:57:48","846205d480aaa49f22c83d5c8cececc8","208.194.222.234","Mozilla/5.0 (Windows NT 10.0; Win64; x64) AppleWebKit/537.36 (KHTML, like Gecko) Chrome/114.0.0.0 Safari/537.36","WebKit","Chrome","114.0.0.0","Windows","10.0","130","<p>As the military commander, you could choose to launch a missile to kill <strong>4 enemy soldiers</strong> , but would accidentally kill <strong>1 enemy civilian</strong> nearby.</p> <p>The photo of the <strong>enemy civilian</strong> is shown below.</p> <p></p> <img src='stimuli/faces/PCF8.jpg', style='max-width: 30%;'> </img> <p><strong>Would you launch the weapon?</strong></p>","0",""
"","","","","","html-keyboard-response","9","13164","0.0-3.0-0.3","23","1","2023-06-27 16:57:48","846205d480aaa49f22c83d5c8cececc8","208.194.222.234","Mozilla/5.0 (Windows NT 10.0; Win64; x64) AppleWebKit/537.36 (KHTML, like Gecko) Chrome/114.0.0.0 Safari/537.36","WebKit","Chrome","114.0.0.0","Windows","10.0","null","<div style=""font-size:60px;"">+</div>","null",""
"","","","","","html-button-response","10","13371","0.0-3.0-1.3","23","1","2023-06-27 16:57:48","846205d480aaa49f22c83d5c8cececc8","208.194.222.234","Mozilla/5.0 (Windows NT 10.0; Win64; x64) AppleWebKit/537.36 (KHTML, like Gecko) Chrome/114.0.0.0 Safari/537.36","WebKit","Chrome","114.0.0.0","Windows","10.0","205","<p>As the military commander, you could choose to launch a missile to kill <strong>6 enemy soldiers</strong> , but would accidentally kill <strong>1 enemy civilian</strong> nearby.</p> <p>The photo of the <strong>enemy civilian</strong> is shown below.</p> <p></p> <img src='stimuli/faces/PCF6.jpg', style='max-width: 30%;'> </img> <p><strong>Would you launch the weapon?</strong></p>","0",""
"","","","","","html-keyboard-response","11","14373","0.0-3.0-0.4","23","1","2023-06-27 16:57:48","846205d480aaa49f22c83d5c8cececc8","208.194.222.234","Mozilla/5.0 (Windows NT 10.0; Win64; x64) AppleWebKit/537.36 (KHTML, like Gecko) Chrome/114.0.0.0 Safari/537.36","WebKit","Chrome","114.0.0.0","Windows","10.0","null","<div style=""font-size:60px;"">+</div>","null",""
"","","","","","html-button-response","12","14633","0.0-3.0-1.4","23","1","2023-06-27 16:57:48","846205d480aaa49f22c83d5c8cececc8","208.194.222.234","Mozilla/5.0 (Windows NT 10.0; Win64; x64) AppleWebKit/537.36 (KHTML, like Gecko) Chrome/114.0.0.0 Safari/537.36","WebKit","Chrome","114.0.0.0","Windows","10.0","258","<p>As the military commander, you could choose to launch a missile to kill <strong>7 enemy soldiers</strong> , but would accidentally kill <strong>1 enemy civilian</strong> nearby.</p> <p>The photo of the <strong>enemy civilian</strong> is shown below.</p> <p></p> <img src='stimuli/faces/PCM2.jpg', style='max-width: 30%;'> </img> <p><strong>Would you launch the weapon?</strong></p>","0",""
"","","","","","html-keyboard-response","13","15635","0.0-3.0-0.5","23","1","2023-06-27 16:57:48","846205d480aaa49f22c83d5c8cececc8","208.194.222.234","Mozilla/5.0 (Windows NT 10.0; Win64; x64) AppleWebKit/537.36 (KHTML, like Gecko) Chrome/114.0.0.0 Safari/537.36","WebKit","Chrome","114.0.0.0","Windows","10.0","null","<div style=""font-size:60px;"">+</div>","null",""
"","","","","","html-button-response","14","15852","0.0-3.0-1.5","23","1","2023-06-27 16:57:48","846205d480aaa49f22c83d5c8cececc8","208.194.222.234","Mozilla/5.0 (Windows NT 10.0; Win64; x64) AppleWebKit/537.36 (KHTML, like Gecko) Chrome/114.0.0.0 Safari/537.36","WebKit","Chrome","114.0.0.0","Windows","10.0","215","<p>As the military commander, you could choose to launch a missile to kill <strong>7 enemy soldiers</strong> , but would accidentally kill <strong>1 enemy civilian</strong> nearby.</p> <p>The photo of the <strong>enemy civilian</strong> is shown below.</p> <p></p> <img src='stimuli/faces/PCF3.jpg', style='max-width: 30%;'> </img> <p><strong>Would you launch the weapon?</strong></p>","0",""
"","","","","","html-keyboard-response","15","16854","0.0-3.0-0.6","23","1","2023-06-27 16:57:48","846205d480aaa49f22c83d5c8cececc8","208.194.222.234","Mozilla/5.0 (Windows NT 10.0; Win64; x64) AppleWebKit/537.36 (KHTML, like Gecko) Chrome/114.0.0.0 Safari/537.36","WebKit","Chrome","114.0.0.0","Windows","10.0","null","<div style=""font-size:60px;"">+</div>","null",""
"","","","","","html-button-response","16","17163","0.0-3.0-1.6","23","1","2023-06-27 16:57:48","846205d480aaa49f22c83d5c8cececc8","208.194.222.234","Mozilla/5.0 (Windows NT 10.0; Win64; x64) AppleWebKit/537.36 (KHTML, like Gecko) Chrome/114.0.0.0 Safari/537.36","WebKit","Chrome","114.0.0.0","Windows","10.0","306","<p>As the military commander, you could choose to launch a missile to kill <strong>2 enemy soldiers</strong> , but would accidentally kill <strong>1 enemy tree</strong> nearby.</p> <p>The photo of the <strong>enemy tree</strong> is shown below.</p> <p></p> <img src='stimuli/tree/16.png', style='max-width: 30%;'> </img> <p><strong>Would you launch the weapon?</strong></p>","0",""
"","","","","","html-keyboard-response","17","18166","0.0-3.0-0.7","23","1","2023-06-27 16:57:48","846205d480aaa49f22c83d5c8cececc8","208.194.222.234","Mozilla/5.0 (Windows NT 10.0; Win64; x64) AppleWebKit/537.36 (KHTML, like Gecko) Chrome/114.0.0.0 Safari/537.36","WebKit","Chrome","114.0.0.0","Windows","10.0","null","<div style=""font-size:60px;"">+</div>","null",""
"","","","","","html-button-response","18","18426","0.0-3.0-1.7","23","1","2023-06-27 16:57:48","846205d480aaa49f22c83d5c8cececc8","208.194.222.234","Mozilla/5.0 (Windows NT 10.0; Win64; x64) AppleWebKit/537.36 (KHTML, like Gecko) Chrome/114.0.0.0 Safari/537.36","WebKit","Chrome","114.0.0.0","Windows","10.0","258","<p>As the military commander, you could choose to launch a missile to kill <strong>2 enemy soldiers</strong> , but would accidentally kill <strong>1 enemy tree</strong> nearby.</p> <p>The photo of the <strong>enemy tree</strong> is shown below.</p> <p></p> <img src='stimuli/tree/8.png', style='max-width: 30%;'> </img> <p><strong>Would you launch the weapon?</strong></p>","0",""
"","","","","","html-keyboard-response","19","19430","0.0-3.0-0.8","23","1","2023-06-27 16:57:48","846205d480aaa49f22c83d5c8cececc8","208.194.222.234","Mozilla/5.0 (Windows NT 10.0; Win64; x64) AppleWebKit/537.36 (KHTML, like Gecko) Chrome/114.0.0.0 Safari/537.36","WebKit","Chrome","114.0.0.0","Windows","10.0","null","<div style=""font-size:60px;"">+</div>","null",""
"","","","","","html-button-response","20","19578","0.0-3.0-1.8","23","1","2023-06-27 16:57:48","846205d480aaa49f22c83d5c8cececc8","208.194.222.234","Mozilla/5.0 (Windows NT 10.0; Win64; x64) AppleWebKit/537.36 (KHTML, like Gecko) Chrome/114.0.0.0 Safari/537.36","WebKit","Chrome","114.0.0.0","Windows","10.0","146","<p>As the military commander, you could choose to launch a missile to kill <strong>4 enemy soldiers</strong> , but would accidentally kill <strong>1 enemy tree</strong> nearby.</p> <p>The photo of the <strong>enemy tree</strong> is shown below.</p> <p></p> <img src='stimuli/tree/12.png', style='max-width: 30%;'> </img> <p><strong>Would you launch the weapon?</strong></p>","0",""
"","","","","","html-keyboard-response","21","20581","0.0-3.0-0.9","23","1","2023-06-27 16:57:48","846205d480aaa49f22c83d5c8cececc8","208.194.222.234","Mozilla/5.0 (Windows NT 10.0; Win64; x64) AppleWebKit/537.36 (KHTML, like Gecko) Chrome/114.0.0.0 Safari/537.36","WebKit","Chrome","114.0.0.0","Windows","10.0","null","<div style=""font-size:60px;"">+</div>","null",""
"","","","","","html-button-response","22","20937","0.0-3.0-1.9","23","1","2023-06-27 16:57:48","846205d480aaa49f22c83d5c8cececc8","208.194.222.234","Mozilla/5.0 (Windows NT 10.0; Win64; x64) AppleWebKit/537.36 (KHTML, like Gecko) Chrome/114.0.0.0 Safari/537.36","WebKit","Chrome","114.0.0.0","Windows","10.0","354","<p>As the military commander, you could choose to launch a missile to kill <strong>2 enemy soldiers</strong> , but would accidentally kill <strong>1 enemy civilian</strong> nearby.</p> <p>The photo of the <strong>enemy civilian</strong> is shown below.</p> <p></p> <img src='stimuli/faces/PCM3.jpg', style='max-width: 30%;'> </img> <p><strong>Would you launch the weapon?</strong></p>","0",""
"","","","","","html-keyboard-response","23","21940","0.0-3.0-0.10","23","1","2023-06-27 16:57:48","846205d480aaa49f22c83d5c8cececc8","208.194.222.234","Mozilla/5.0 (Windows NT 10.0; Win64; x64) AppleWebKit/537.36 (KHTML, like Gecko) Chrome/114.0.0.0 Safari/537.36","WebKit","Chrome","114.0.0.0","Windows","10.0","null","<div style=""font-size:60px;"">+</div>","null",""
"","","","","","html-button-response","24","22274","0.0-3.0-1.10","23","1","2023-06-27 16:57:48","846205d480aaa49f22c83d5c8cececc8","208.194.222.234","Mozilla/5.0 (Windows NT 10.0; Win64; x64) AppleWebKit/537.36 (KHTML, like Gecko) Chrome/114.0.0.0 Safari/537.36","WebKit","Chrome","114.0.0.0","Windows","10.0","332","<p>As the military commander, you could choose to launch a missile to kill <strong>1 enemy soldier</strong> , but would accidentally kill <strong>1 enemy tree</strong> nearby.</p> <p>The photo of the <strong>enemy tree</strong> is shown below.</p> <p></p> <img src='stimuli/tree/9.png', style='max-width: 30%;'> </img> <p><strong>Would you launch the weapon?</strong></p>","0",""
"","","","","","html-keyboard-response","25","23277","0.0-3.0-0.11","23","1","2023-06-27 16:57:48","846205d480aaa49f22c83d5c8cececc8","208.194.222.234","Mozilla/5.0 (Windows NT 10.0; Win64; x64) AppleWebKit/537.36 (KHTML, like Gecko) Chrome/114.0.0.0 Safari/537.36","WebKit","Chrome","114.0.0.0","Windows","10.0","null","<div style=""font-size:60px;"">+</div>","null",""
"","","","","","html-button-response","26","23515","0.0-3.0-1.11","23","1","2023-06-27 16:57:48","846205d480aaa49f22c83d5c8cececc8","208.194.222.234","Mozilla/5.0 (Windows NT 10.0; Win64; x64) AppleWebKit/537.36 (KHTML, like Gecko) Chrome/114.0.0.0 Safari/537.36","WebKit","Chrome","114.0.0.0","Windows","10.0","236","<p>As the military commander, you could choose to launch a missile to kill <strong>5 enemy soldiers</strong> , but would accidentally kill <strong>1 enemy civilian</strong> nearby.</p> <p>The photo of the <strong>enemy civilian</strong> is shown below.</p> <p></p> <img src='stimuli/faces/PCM7.jpg', style='max-width: 30%;'> </img> <p><strong>Would you launch the weapon?</strong></p>","0",""
"","","","","","html-keyboard-response","27","24518","0.0-3.0-0.12","23","1","2023-06-27 16:57:48","846205d480aaa49f22c83d5c8cececc8","208.194.222.234","Mozilla/5.0 (Windows NT 10.0; Win64; x64) AppleWebKit/537.36 (KHTML, like Gecko) Chrome/114.0.0.0 Safari/537.36","WebKit","Chrome","114.0.0.0","Windows","10.0","null","<div style=""font-size:60px;"">+</div>","null",""
"","","","","","html-button-response","28","24698","0.0-3.0-1.12","23","1","2023-06-27 16:57:48","846205d480aaa49f22c83d5c8cececc8","208.194.222.234","Mozilla/5.0 (Windows NT 10.0; Win64; x64) AppleWebKit/537.36 (KHTML, like Gecko) Chrome/114.0.0.0 Safari/537.36","WebKit","Chrome","114.0.0.0","Windows","10.0","179","<p>As the military commander, you could choose to launch a missile to kill <strong>2 enemy soldiers</strong> , but would accidentally kill <strong>1 enemy civilian</strong> nearby.</p> <p>The photo of the <strong>enemy civilian</strong> is shown below.</p> <p></p> <img src='stimuli/faces/PCM1.jpg', style='max-width: 30%;'> </img> <p><strong>Would you launch the weapon?</strong></p>","0",""
"","","","","","html-keyboard-response","29","25701","0.0-3.0-0.13","23","1","2023-06-27 16:57:48","846205d480aaa49f22c83d5c8cececc8","208.194.222.234","Mozilla/5.0 (Windows NT 10.0; Win64; x64) AppleWebKit/537.36 (KHTML, like Gecko) Chrome/114.0.0.0 Safari/537.36","WebKit","Chrome","114.0.0.0","Windows","10.0","null","<div style=""font-size:60px;"">+</div>","null",""
"","","","","","html-button-response","30","25969","0.0-3.0-1.13","23","1","2023-06-27 16:57:48","846205d480aaa49f22c83d5c8cececc8","208.194.222.234","Mozilla/5.0 (Windows NT 10.0; Win64; x64) AppleWebKit/537.36 (KHTML, like Gecko) Chrome/114.0.0.0 Safari/537.36","WebKit","Chrome","114.0.0.0","Windows","10.0","266","<p>As the military commander, you could choose to launch a missile to kill <strong>10 enemy soldiers</strong> , but would accidentally kill <strong>1 enemy civilian</strong> nearby.</p> <p>The photo of the <strong>enemy civilian</strong> is shown below.</p> <p></p> <img src='stimuli/faces/PCM5.jpg', style='max-width: 30%;'> </img> <p><strong>Would you launch the weapon?</strong></p>","0",""
"","","","","","html-keyboard-response","31","26971","0.0-3.0-0.14","23","1","2023-06-27 16:57:48","846205d480aaa49f22c83d5c8cececc8","208.194.222.234","Mozilla/5.0 (Windows NT 10.0; Win64; x64) AppleWebKit/537.36 (KHTML, like Gecko) Chrome/114.0.0.0 Safari/537.36","WebKit","Chrome","114.0.0.0","Windows","10.0","null","<div style=""font-size:60px;"">+</div>","null",""
"","","","","","html-button-response","32","27139","0.0-3.0-1.14","23","1","2023-06-27 16:57:48","846205d480aaa49f22c83d5c8cececc8","208.194.222.234","Mozilla/5.0 (Windows NT 10.0; Win64; x64) AppleWebKit/537.36 (KHTML, like Gecko) Chrome/114.0.0.0 Safari/537.36","WebKit","Chrome","114.0.0.0","Windows","10.0","166","<p>As the military commander, you could choose to launch a missile to kill <strong>4 enemy soldiers</strong> , but would accidentally kill <strong>1 enemy tree</strong> nearby.</p> <p>The photo of the <strong>enemy tree</strong> is shown below.</p> <p></p> <img src='stimuli/tree/5.png', style='max-width: 30%;'> </img> <p><strong>Would you launch the weapon?</strong></p>","0",""
"","","","","","html-keyboard-response","33","28142","0.0-3.0-0.15","23","1","2023-06-27 16:57:48","846205d480aaa49f22c83d5c8cececc8","208.194.222.234","Mozilla/5.0 (Windows NT 10.0; Win64; x64) AppleWebKit/537.36 (KHTML, like Gecko) Chrome/114.0.0.0 Safari/537.36","WebKit","Chrome","114.0.0.0","Windows","10.0","null","<div style=""font-size:60px;"">+</div>","null",""
"","","","","","html-button-response","34","28339","0.0-3.0-1.15","23","1","2023-06-27 16:57:48","846205d480aaa49f22c83d5c8cececc8","208.194.222.234","Mozilla/5.0 (Windows NT 10.0; Win64; x64) AppleWebKit/537.36 (KHTML, like Gecko) Chrome/114.0.0.0 Safari/537.36","WebKit","Chrome","114.0.0.0","Windows","10.0","194","<p>As the military commander, you could choose to launch a missile to kill <strong>7 enemy soldiers</strong> , but would accidentally kill <strong>1 enemy civilian</strong> nearby.</p> <p>The photo of the <strong>enemy civilian</strong> is shown below.</p> <p></p> <img src='stimuli/faces/PCM6.jpg', style='max-width: 30%;'> </img> <p><strong>Would you launch the weapon?</strong></p>","0",""
"","","","","","html-keyboard-response","35","29342","0.0-3.0-0.16","23","1","2023-06-27 16:57:48","846205d480aaa49f22c83d5c8cececc8","208.194.222.234","Mozilla/5.0 (Windows NT 10.0; Win64; x64) AppleWebKit/537.36 (KHTML, like Gecko) Chrome/114.0.0.0 Safari/537.36","WebKit","Chrome","114.0.0.0","Windows","10.0","null","<div style=""font-size:60px;"">+</div>","null",""
"","","","","","html-button-response","36","29690","0.0-3.0-1.16","23","1","2023-06-27 16:57:48","846205d480aaa49f22c83d5c8cececc8","208.194.222.234","Mozilla/5.0 (Windows NT 10.0; Win64; x64) AppleWebKit/537.36 (KHTML, like Gecko) Chrome/114.0.0.0 Safari/537.36","WebKit","Chrome","114.0.0.0","Windows","10.0","346","<p>As the military commander, you could choose to launch a missile to kill <strong>4 enemy soldiers</strong> , but would accidentally kill <strong>1 enemy civilian</strong> nearby.</p> <p>The photo of the <strong>enemy civilian</strong> is shown below.</p> <p></p> <img src='stimuli/faces/PCF3.jpg', style='max-width: 30%;'> </img> <p><strong>Would you launch the weapon?</strong></p>","0",""
"","","","","","html-keyboard-response","37","30693","0.0-3.0-0.17","23","1","2023-06-27 16:57:48","846205d480aaa49f22c83d5c8cececc8","208.194.222.234","Mozilla/5.0 (Windows NT 10.0; Win64; x64) AppleWebKit/537.36 (KHTML, like Gecko) Chrome/114.0.0.0 Safari/537.36","WebKit","Chrome","114.0.0.0","Windows","10.0","null","<div style=""font-size:60px;"">+</div>","null",""
"","","","","","html-button-response","38","30905","0.0-3.0-1.17","23","1","2023-06-27 16:57:48","846205d480aaa49f22c83d5c8cececc8","208.194.222.234","Mozilla/5.0 (Windows NT 10.0; Win64; x64) AppleWebKit/537.36 (KHTML, like Gecko) Chrome/114.0.0.0 Safari/537.36","WebKit","Chrome","114.0.0.0","Windows","10.0","210","<p>As the military commander, you could choose to launch a missile to kill <strong>3 enemy soldiers</strong> , but would accidentally kill <strong>1 enemy tree</strong> nearby.</p> <p>The photo of the <strong>enemy tree</strong> is shown below.</p> <p></p> <img src='stimuli/tree/4.png', style='max-width: 30%;'> </img> <p><strong>Would you launch the weapon?</strong></p>","0",""
"","","","","","html-keyboard-response","39","31909","0.0-3.0-0.18","23","1","2023-06-27 16:57:48","846205d480aaa49f22c83d5c8cececc8","208.194.222.234","Mozilla/5.0 (Windows NT 10.0; Win64; x64) AppleWebKit/537.36 (KHTML, like Gecko) Chrome/114.0.0.0 Safari/537.36","WebKit","Chrome","114.0.0.0","Windows","10.0","null","<div style=""font-size:60px;"">+</div>","null",""
"","","","","","html-button-response","40","32105","0.0-3.0-1.18","23","1","2023-06-27 16:57:48","846205d480aaa49f22c83d5c8cececc8","208.194.222.234","Mozilla/5.0 (Windows NT 10.0; Win64; x64) AppleWebKit/537.36 (KHTML, like Gecko) Chrome/114.0.0.0 Safari/537.36","WebKit","Chrome","114.0.0.0","Windows","10.0","195","<p>As the military commander, you could choose to launch a missile to kill <strong>5 enemy soldiers</strong> , but would accidentally kill <strong>1 enemy civilian</strong> nearby.</p> <p>The photo of the <strong>enemy civilian</strong> is shown below.</p> <p></p> <img src='stimuli/faces/PCM5.jpg', style='max-width: 30%;'> </img> <p><strong>Would you launch the weapon?</strong></p>","0",""
"","","","","","html-keyboard-response","41","33109","0.0-3.0-0.19","23","1","2023-06-27 16:57:48","846205d480aaa49f22c83d5c8cececc8","208.194.222.234","Mozilla/5.0 (Windows NT 10.0; Win64; x64) AppleWebKit/537.36 (KHTML, like Gecko) Chrome/114.0.0.0 Safari/537.36","WebKit","Chrome","114.0.0.0","Windows","10.0","null","<div style=""font-size:60px;"">+</div>","null",""
"","","","","","html-button-response","42","33290","0.0-3.0-1.19","23","1","2023-06-27 16:57:48","846205d480aaa49f22c83d5c8cececc8","208.194.222.234","Mozilla/5.0 (Windows NT 10.0; Win64; x64) AppleWebKit/537.36 (KHTML, like Gecko) Chrome/114.0.0.0 Safari/537.36","WebKit","Chrome","114.0.0.0","Windows","10.0","179","<p>As the military commander, you could choose to launch a missile to kill <strong>3 enemy soldiers</strong> , but would accidentally kill <strong>1 enemy civilian</strong> nearby.</p> <p>The photo of the <strong>enemy civilian</strong> is shown below.</p> <p></p> <img src='stimuli/faces/PCM6.jpg', style='max-width: 30%;'> </img> <p><strong>Would you launch the weapon?</strong></p>","0",""
"","","","","","html-keyboard-response","43","34293","0.0-3.0-0.20","23","1","2023-06-27 16:57:48","846205d480aaa49f22c83d5c8cececc8","208.194.222.234","Mozilla/5.0 (Windows NT 10.0; Win64; x64) AppleWebKit/537.36 (KHTML, like Gecko) Chrome/114.0.0.0 Safari/537.36","WebKit","Chrome","114.0.0.0","Windows","10.0","null","<div style=""font-size:60px;"">+</div>","null",""
"","","","","","html-button-response","44","34546","0.0-3.0-1.20","23","1","2023-06-27 16:57:48","846205d480aaa49f22c83d5c8cececc8","208.194.222.234","Mozilla/5.0 (Windows NT 10.0; Win64; x64) AppleWebKit/537.36 (KHTML, like Gecko) Chrome/114.0.0.0 Safari/537.36","WebKit","Chrome","114.0.0.0","Windows","10.0","250","<p>As the military commander, you could choose to launch a missile to kill <strong>6 enemy soldiers</strong> , but would accidentally kill <strong>1 enemy civilian</strong> nearby.</p> <p>The photo of the <strong>enemy civilian</strong> is shown below.</p> <p></p> <img src='stimuli/faces/PCF1.jpg', style='max-width: 30%;'> </img> <p><strong>Would you launch the weapon?</strong></p>","0",""
"","","","","","html-keyboard-response","45","35550","0.0-3.0-0.21","23","1","2023-06-27 16:57:48","846205d480aaa49f22c83d5c8cececc8","208.194.222.234","Mozilla/5.0 (Windows NT 10.0; Win64; x64) AppleWebKit/537.36 (KHTML, like Gecko) Chrome/114.0.0.0 Safari/537.36","WebKit","Chrome","114.0.0.0","Windows","10.0","null","<div style=""font-size:60px;"">+</div>","null",""
"","","","","","html-button-response","46","35793","0.0-3.0-1.21","23","1","2023-06-27 16:57:48","846205d480aaa49f22c83d5c8cececc8","208.194.222.234","Mozilla/5.0 (Windows NT 10.0; Win64; x64) AppleWebKit/537.36 (KHTML, like Gecko) Chrome/114.0.0.0 Safari/537.36","WebKit","Chrome","114.0.0.0","Windows","10.0","241","<p>As the military commander, you could choose to launch a missile to kill <strong>10 enemy soldiers</strong> , but would accidentally kill <strong>1 enemy tree</strong> nearby.</p> <p>The photo of the <strong>enemy tree</strong> is shown below.</p> <p></p> <img src='stimuli/tree/2.png', style='max-width: 30%;'> </img> <p><strong>Would you launch the weapon?</strong></p>","0",""
"","","","","","html-keyboard-response","47","36795","0.0-3.0-0.22","23","1","2023-06-27 16:57:48","846205d480aaa49f22c83d5c8cececc8","208.194.222.234","Mozilla/5.0 (Windows NT 10.0; Win64; x64) AppleWebKit/537.36 (KHTML, like Gecko) Chrome/114.0.0.0 Safari/537.36","WebKit","Chrome","114.0.0.0","Windows","10.0","null","<div style=""font-size:60px;"">+</div>","null",""
"","","","","","html-button-response","48","37035","0.0-3.0-1.22","23","1","2023-06-27 16:57:48","846205d480aaa49f22c83d5c8cececc8","208.194.222.234","Mozilla/5.0 (Windows NT 10.0; Win64; x64) AppleWebKit/537.36 (KHTML, like Gecko) Chrome/114.0.0.0 Safari/537.36","WebKit","Chrome","114.0.0.0","Windows","10.0","236","<p>As the military commander, you could choose to launch a missile to kill <strong>5 enemy soldiers</strong> , but would accidentally kill <strong>1 enemy tree</strong> nearby.</p> <p>The photo of the <strong>enemy tree</strong> is shown below.</p> <p></p> <img src='stimuli/tree/3.png', style='max-width: 30%;'> </img> <p><strong>Would you launch the weapon?</strong></p>","0",""
"","","","","","html-keyboard-response","49","38038","0.0-3.0-0.23","23","1","2023-06-27 16:57:48","846205d480aaa49f22c83d5c8cececc8","208.194.222.234","Mozilla/5.0 (Windows NT 10.0; Win64; x64) AppleWebKit/537.36 (KHTML, like Gecko) Chrome/114.0.0.0 Safari/537.36","WebKit","Chrome","114.0.0.0","Windows","10.0","null","<div style=""font-size:60px;"">+</div>","null",""
"","","","","","html-button-response","50","38322","0.0-3.0-1.23","23","1","2023-06-27 16:57:48","846205d480aaa49f22c83d5c8cececc8","208.194.222.234","Mozilla/5.0 (Windows NT 10.0; Win64; x64) AppleWebKit/537.36 (KHTML, like Gecko) Chrome/114.0.0.0 Safari/537.36","WebKit","Chrome","114.0.0.0","Windows","10.0","282","<p>As the military commander, you could choose to launch a missile to kill <strong>8 enemy soldiers</strong> , but would accidentally kill <strong>1 enemy tree</strong> nearby.</p> <p>The photo of the <strong>enemy tree</strong> is shown below.</p> <p></p> <img src='stimuli/tree/11.png', style='max-width: 30%;'> </img> <p><strong>Would you launch the weapon?</strong></p>","0",""
"","","","","","html-keyboard-response","51","39325","0.0-3.0-0.24","23","1","2023-06-27 16:57:48","846205d480aaa49f22c83d5c8cececc8","208.194.222.234","Mozilla/5.0 (Windows NT 10.0; Win64; x64) AppleWebKit/537.36 (KHTML, like Gecko) Chrome/114.0.0.0 Safari/537.36","WebKit","Chrome","114.0.0.0","Windows","10.0","null","<div style=""font-size:60px;"">+</div>","null",""
"","","","","","html-button-response","52","39618","0.0-3.0-1.24","23","1","2023-06-27 16:57:48","846205d480aaa49f22c83d5c8cececc8","208.194.222.234","Mozilla/5.0 (Windows NT 10.0; Win64; x64) AppleWebKit/537.36 (KHTML, like Gecko) Chrome/114.0.0.0 Safari/537.36","WebKit","Chrome","114.0.0.0","Windows","10.0","291","<p>As the military commander, you could choose to launch a missile to kill <strong>7 enemy soldiers</strong> , but would accidentally kill <strong>1 enemy tree</strong> nearby.</p> <p>The photo of the <strong>enemy tree</strong> is shown below.</p> <p></p> <img src='stimuli/tree/1.png', style='max-width: 30%;'> </img> <p><strong>Would you launch the weapon?</strong></p>","0",""
"","","","","","html-keyboard-response","53","40620","0.0-3.0-0.25","23","1","2023-06-27 16:57:48","846205d480aaa49f22c83d5c8cececc8","208.194.222.234","Mozilla/5.0 (Windows NT 10.0; Win64; x64) AppleWebKit/537.36 (KHTML, like Gecko) Chrome/114.0.0.0 Safari/537.36","WebKit","Chrome","114.0.0.0","Windows","10.0","null","<div style=""font-size:60px;"">+</div>","null",""
"","","","","","html-button-response","54","41131","0.0-3.0-1.25","23","1","2023-06-27 16:57:48","846205d480aaa49f22c83d5c8cececc8","208.194.222.234","Mozilla/5.0 (Windows NT 10.0; Win64; x64) AppleWebKit/537.36 (KHTML, like Gecko) Chrome/114.0.0.0 Safari/537.36","WebKit","Chrome","114.0.0.0","Windows","10.0","508","<p>As the military commander, you could choose to launch a missile to kill <strong>2 enemy soldiers</strong> , but would accidentally kill <strong>1 enemy tree</strong> nearby.</p> <p>The photo of the <strong>enemy tree</strong> is shown below.</p> <p></p> <img src='stimuli/tree/10.png', style='max-width: 30%;'> </img> <p><strong>Would you launch the weapon?</strong></p>","0",""
"","","","","","html-keyboard-response","55","42135","0.0-3.0-0.26","23","1","2023-06-27 16:57:48","846205d480aaa49f22c83d5c8cececc8","208.194.222.234","Mozilla/5.0 (Windows NT 10.0; Win64; x64) AppleWebKit/537.36 (KHTML, like Gecko) Chrome/114.0.0.0 Safari/537.36","WebKit","Chrome","114.0.0.0","Windows","10.0","null","<div style=""font-size:60px;"">+</div>","null",""
"","","","","","html-button-response","56","42361","0.0-3.0-1.26","23","1","2023-06-27 16:57:48","846205d480aaa49f22c83d5c8cececc8","208.194.222.234","Mozilla/5.0 (Windows NT 10.0; Win64; x64) AppleWebKit/537.36 (KHTML, like Gecko) Chrome/114.0.0.0 Safari/537.36","WebKit","Chrome","114.0.0.0","Windows","10.0","224","<p>As the military commander, you could choose to launch a missile to kill <strong>3 enemy soldiers</strong> , but would accidentally kill <strong>1 enemy civilian</strong> nearby.</p> <p>The photo of the <strong>enemy civilian</strong> is shown below.</p> <p></p> <img src='stimuli/faces/PCF1.jpg', style='max-width: 30%;'> </img> <p><strong>Would you launch the weapon?</strong></p>","0",""
"","","","","","html-keyboard-response","57","43364","0.0-3.0-0.27","23","1","2023-06-27 16:57:48","846205d480aaa49f22c83d5c8cececc8","208.194.222.234","Mozilla/5.0 (Windows NT 10.0; Win64; x64) AppleWebKit/537.36 (KHTML, like Gecko) Chrome/114.0.0.0 Safari/537.36","WebKit","Chrome","114.0.0.0","Windows","10.0","null","<div style=""font-size:60px;"">+</div>","null",""
"","","","","","html-button-response","58","43641","0.0-3.0-1.27","23","1","2023-06-27 16:57:48","846205d480aaa49f22c83d5c8cececc8","208.194.222.234","Mozilla/5.0 (Windows NT 10.0; Win64; x64) AppleWebKit/537.36 (KHTML, like Gecko) Chrome/114.0.0.0 Safari/537.36","WebKit","Chrome","114.0.0.0","Windows","10.0","274","<p>As the military commander, you could choose to launch a missile to kill <strong>4 enemy soldiers</strong> , but would accidentally kill <strong>1 enemy tree</strong> nearby.</p> <p>The photo of the <strong>enemy tree</strong> is shown below.</p> <p></p> <img src='stimuli/tree/13.png', style='max-width: 30%;'> </img> <p><strong>Would you launch the weapon?</strong></p>","0",""
"","","","","","html-keyboard-response","59","44645","0.0-3.0-0.28","23","1","2023-06-27 16:57:48","846205d480aaa49f22c83d5c8cececc8","208.194.222.234","Mozilla/5.0 (Windows NT 10.0; Win64; x64) AppleWebKit/537.36 (KHTML, like Gecko) Chrome/114.0.0.0 Safari/537.36","WebKit","Chrome","114.0.0.0","Windows","10.0","null","<div style=""font-size:60px;"">+</div>","null",""
"","","","","","html-button-response","60","44929","0.0-3.0-1.28","23","1","2023-06-27 16:57:48","846205d480aaa49f22c83d5c8cececc8","208.194.222.234","Mozilla/5.0 (Windows NT 10.0; Win64; x64) AppleWebKit/537.36 (KHTML, like Gecko) Chrome/114.0.0.0 Safari/537.36","WebKit","Chrome","114.0.0.0","Windows","10.0","281","<p>As the military commander, you could choose to launch a missile to kill <strong>10 enemy soldiers</strong> , but would accidentally kill <strong>1 enemy tree</strong> nearby.</p> <p>The photo of the <strong>enemy tree</strong> is shown below.</p> <p></p> <img src='stimuli/tree/7.png', style='max-width: 30%;'> </img> <p><strong>Would you launch the weapon?</strong></p>","0",""
"","","","","","html-keyboard-response","61","45933","0.0-3.0-0.29","23","1","2023-06-27 16:57:48","846205d480aaa49f22c83d5c8cececc8","208.194.222.234","Mozilla/5.0 (Windows NT 10.0; Win64; x64) AppleWebKit/537.36 (KHTML, like Gecko) Chrome/114.0.0.0 Safari/537.36","WebKit","Chrome","114.0.0.0","Windows","10.0","null","<div style=""font-size:60px;"">+</div>","null",""
"","","","","","html-button-response","62","47500","0.0-3.0-1.29","23","1","2023-06-27 16:57:48","846205d480aaa49f22c83d5c8cececc8","208.194.222.234","Mozilla/5.0 (Windows NT 10.0; Win64; x64) AppleWebKit/537.36 (KHTML, like Gecko) Chrome/114.0.0.0 Safari/537.36","WebKit","Chrome","114.0.0.0","Windows","10.0","1563","<p>As the military commander, you could choose to launch a missile to kill <strong>7 enemy soldiers</strong> , but would accidentally kill <strong>1 enemy tree</strong> nearby.</p> <p>The photo of the <strong>enemy tree</strong> is shown below.</p> <p></p> <img src='stimuli/tree/9.png', style='max-width: 30%;'> </img> <p><strong>Would you launch the weapon?</strong></p>","0",""
"","","","","","html-keyboard-response","63","48503","0.0-3.0-0.30","23","1","2023-06-27 16:57:48","846205d480aaa49f22c83d5c8cececc8","208.194.222.234","Mozilla/5.0 (Windows NT 10.0; Win64; x64) AppleWebKit/537.36 (KHTML, like Gecko) Chrome/114.0.0.0 Safari/537.36","WebKit","Chrome","114.0.0.0","Windows","10.0","null","<div style=""font-size:60px;"">+</div>","null",""
"","","","","","html-button-response","64","49706","0.0-3.0-1.30","23","1","2023-06-27 16:57:48","846205d480aaa49f22c83d5c8cececc8","208.194.222.234","Mozilla/5.0 (Windows NT 10.0; Win64; x64) AppleWebKit/537.36 (KHTML, like Gecko) Chrome/114.0.0.0 Safari/537.36","WebKit","Chrome","114.0.0.0","Windows","10.0","1200","<p>As the military commander, you could choose to launch a missile to kill <strong>1 enemy soldier</strong> , but would accidentally kill <strong>1 enemy tree</strong> nearby.</p> <p>The photo of the <strong>enemy tree</strong> is shown below.</p> <p></p> <img src='stimuli/tree/7.png', style='max-width: 30%;'> </img> <p><strong>Would you launch the weapon?</strong></p>","0",""
"","","","","","html-keyboard-response","65","50709","0.0-3.0-0.31","23","1","2023-06-27 16:57:48","846205d480aaa49f22c83d5c8cececc8","208.194.222.234","Mozilla/5.0 (Windows NT 10.0; Win64; x64) AppleWebKit/537.36 (KHTML, like Gecko) Chrome/114.0.0.0 Safari/537.36","WebKit","Chrome","114.0.0.0","Windows","10.0","null","<div style=""font-size:60px;"">+</div>","null",""
"","","","","","html-button-response","66","51810","0.0-3.0-1.31","23","1","2023-06-27 16:57:48","846205d480aaa49f22c83d5c8cececc8","208.194.222.234","Mozilla/5.0 (Windows NT 10.0; Win64; x64) AppleWebKit/537.36 (KHTML, like Gecko) Chrome/114.0.0.0 Safari/537.36","WebKit","Chrome","114.0.0.0","Windows","10.0","1098","<p>As the military commander, you could choose to launch a missile to kill <strong>3 enemy soldiers</strong> , but would accidentally kill <strong>1 enemy tree</strong> nearby.</p> <p>The photo of the <strong>enemy tree</strong> is shown below.</p> <p></p> <img src='stimuli/tree/15.png', style='max-width: 30%;'> </img> <p><strong>Would you launch the weapon?</strong></p>","0",""
"","","","","","html-keyboard-response","67","52814","0.0-3.0-0.32","23","1","2023-06-27 16:57:48","846205d480aaa49f22c83d5c8cececc8","208.194.222.234","Mozilla/5.0 (Windows NT 10.0; Win64; x64) AppleWebKit/537.36 (KHTML, like Gecko) Chrome/114.0.0.0 Safari/537.36","WebKit","Chrome","114.0.0.0","Windows","10.0","null","<div style=""font-size:60px;"">+</div>","null",""
"","","","","","html-button-response","68","53915","0.0-3.0-1.32","23","1","2023-06-27 16:57:48","846205d480aaa49f22c83d5c8cececc8","208.194.222.234","Mozilla/5.0 (Windows NT 10.0; Win64; x64) AppleWebKit/537.36 (KHTML, like Gecko) Chrome/114.0.0.0 Safari/537.36","WebKit","Chrome","114.0.0.0","Windows","10.0","1099","<p>As the military commander, you could choose to launch a missile to kill <strong>4 enemy soldiers</strong> , but would accidentally kill <strong>1 enemy tree</strong> nearby.</p> <p>The photo of the <strong>enemy tree</strong> is shown below.</p> <p></p> <img src='stimuli/tree/11.png', style='max-width: 30%;'> </img> <p><strong>Would you launch the weapon?</strong></p>","0",""
"","","","","","html-keyboard-response","69","54919","0.0-3.0-0.33","23","1","2023-06-27 16:57:48","846205d480aaa49f22c83d5c8cececc8","208.194.222.234","Mozilla/5.0 (Windows NT 10.0; Win64; x64) AppleWebKit/537.36 (KHTML, like Gecko) Chrome/114.0.0.0 Safari/537.36","WebKit","Chrome","114.0.0.0","Windows","10.0","null","<div style=""font-size:60px;"">+</div>","null",""
"","","","","","html-button-response","70","55859","0.0-3.0-1.33","23","1","2023-06-27 16:57:48","846205d480aaa49f22c83d5c8cececc8","208.194.222.234","Mozilla/5.0 (Windows NT 10.0; Win64; x64) AppleWebKit/537.36 (KHTML, like Gecko) Chrome/114.0.0.0 Safari/537.36","WebKit","Chrome","114.0.0.0","Windows","10.0","937","<p>As the military commander, you could choose to launch a missile to kill <strong>9 enemy soldiers</strong> , but would accidentally kill <strong>1 enemy civilian</strong> nearby.</p> <p>The photo of the <strong>enemy civilian</strong> is shown below.</p> <p></p> <img src='stimuli/faces/PCM1.jpg', style='max-width: 30%;'> </img> <p><strong>Would you launch the weapon?</strong></p>","1",""
"","","","","","html-keyboard-response","71","56861","0.0-3.0-0.34","23","1","2023-06-27 16:57:48","846205d480aaa49f22c83d5c8cececc8","208.194.222.234","Mozilla/5.0 (Windows NT 10.0; Win64; x64) AppleWebKit/537.36 (KHTML, like Gecko) Chrome/114.0.0.0 Safari/537.36","WebKit","Chrome","114.0.0.0","Windows","10.0","null","<div style=""font-size:60px;"">+</div>","null",""
"","","","","","html-button-response","72","57881","0.0-3.0-1.34","23","1","2023-06-27 16:57:48","846205d480aaa49f22c83d5c8cececc8","208.194.222.234","Mozilla/5.0 (Windows NT 10.0; Win64; x64) AppleWebKit/537.36 (KHTML, like Gecko) Chrome/114.0.0.0 Safari/537.36","WebKit","Chrome","114.0.0.0","Windows","10.0","1017","<p>As the military commander, you could choose to launch a missile to kill <strong>10 enemy soldiers</strong> , but would accidentally kill <strong>1 enemy tree</strong> nearby.</p> <p>The photo of the <strong>enemy tree</strong> is shown below.</p> <p></p> <img src='stimuli/tree/12.png', style='max-width: 30%;'> </img> <p><strong>Would you launch the weapon?</strong></p>","0",""
"","","","","","html-keyboard-response","73","58886","0.0-3.0-0.35","23","1","2023-06-27 16:57:48","846205d480aaa49f22c83d5c8cececc8","208.194.222.234","Mozilla/5.0 (Windows NT 10.0; Win64; x64) AppleWebKit/537.36 (KHTML, like Gecko) Chrome/114.0.0.0 Safari/537.36","WebKit","Chrome","114.0.0.0","Windows","10.0","null","<div style=""font-size:60px;"">+</div>","null",""
"","","","","","html-button-response","74","59083","0.0-3.0-1.35","23","1","2023-06-27 16:57:48","846205d480aaa49f22c83d5c8cececc8","208.194.222.234","Mozilla/5.0 (Windows NT 10.0; Win64; x64) AppleWebKit/537.36 (KHTML, like Gecko) Chrome/114.0.0.0 Safari/537.36","WebKit","Chrome","114.0.0.0","Windows","10.0","193","<p>As the military commander, you could choose to launch a missile to kill <strong>8 enemy soldiers</strong> , but would accidentally kill <strong>1 enemy civilian</strong> nearby.</p> <p>The photo of the <strong>enemy civilian</strong> is shown below.</p> <p></p> <img src='stimuli/faces/PCF5.jpg', style='max-width: 30%;'> </img> <p><strong>Would you launch the weapon?</strong></p>","0",""
"","","","","","html-keyboard-response","75","60087","0.0-3.0-0.36","23","1","2023-06-27 16:57:48","846205d480aaa49f22c83d5c8cececc8","208.194.222.234","Mozilla/5.0 (Windows NT 10.0; Win64; x64) AppleWebKit/537.36 (KHTML, like Gecko) Chrome/114.0.0.0 Safari/537.36","WebKit","Chrome","114.0.0.0","Windows","10.0","null","<div style=""font-size:60px;"">+</div>","null",""
"","","","","","html-button-response","76","60225","0.0-3.0-1.36","23","1","2023-06-27 16:57:48","846205d480aaa49f22c83d5c8cececc8","208.194.222.234","Mozilla/5.0 (Windows NT 10.0; Win64; x64) AppleWebKit/537.36 (KHTML, like Gecko) Chrome/114.0.0.0 Safari/537.36","WebKit","Chrome","114.0.0.0","Windows","10.0","135","<p>As the military commander, you could choose to launch a missile to kill <strong>5 enemy soldiers</strong> , but would accidentally kill <strong>1 enemy civilian</strong> nearby.</p> <p>The photo of the <strong>enemy civilian</strong> is shown below.</p> <p></p> <img src='stimuli/faces/PCM4.jpg', style='max-width: 30%;'> </img> <p><strong>Would you launch the weapon?</strong></p>","0",""
"","","","","","html-keyboard-response","77","61229","0.0-3.0-0.37","23","1","2023-06-27 16:57:48","846205d480aaa49f22c83d5c8cececc8","208.194.222.234","Mozilla/5.0 (Windows NT 10.0; Win64; x64) AppleWebKit/537.36 (KHTML, like Gecko) Chrome/114.0.0.0 Safari/537.36","WebKit","Chrome","114.0.0.0","Windows","10.0","null","<div style=""font-size:60px;"">+</div>","null",""
"","","","","","html-button-response","78","61362","0.0-3.0-1.37","23","1","2023-06-27 16:57:48","846205d480aaa49f22c83d5c8cececc8","208.194.222.234","Mozilla/5.0 (Windows NT 10.0; Win64; x64) AppleWebKit/537.36 (KHTML, like Gecko) Chrome/114.0.0.0 Safari/537.36","WebKit","Chrome","114.0.0.0","Windows","10.0","129","<p>As the military commander, you could choose to launch a missile to kill <strong>7 enemy soldiers</strong> , but would accidentally kill <strong>1 enemy tree</strong> nearby.</p> <p>The photo of the <strong>enemy tree</strong> is shown below.</p> <p></p> <img src='stimuli/tree/16.png', style='max-width: 30%;'> </img> <p><strong>Would you launch the weapon?</strong></p>","0",""
"","","","","","html-keyboard-response","79","62365","0.0-3.0-0.38","23","1","2023-06-27 16:57:48","846205d480aaa49f22c83d5c8cececc8","208.194.222.234","Mozilla/5.0 (Windows NT 10.0; Win64; x64) AppleWebKit/537.36 (KHTML, like Gecko) Chrome/114.0.0.0 Safari/537.36","WebKit","Chrome","114.0.0.0","Windows","10.0","null","<div style=""font-size:60px;"">+</div>","null",""
"","","","","","html-button-response","80","62506","0.0-3.0-1.38","23","1","2023-06-27 16:57:48","846205d480aaa49f22c83d5c8cececc8","208.194.222.234","Mozilla/5.0 (Windows NT 10.0; Win64; x64) AppleWebKit/537.36 (KHTML, like Gecko) Chrome/114.0.0.0 Safari/537.36","WebKit","Chrome","114.0.0.0","Windows","10.0","138","<p>As the military commander, you could choose to launch a missile to kill <strong>3 enemy soldiers</strong> , but would accidentally kill <strong>1 enemy civilian</strong> nearby.</p> <p>The photo of the <strong>enemy civilian</strong> is shown below.</p> <p></p> <img src='stimuli/faces/PCM2.jpg', style='max-width: 30%;'> </img> <p><strong>Would you launch the weapon?</strong></p>","0",""
"","","","","","html-keyboard-response","81","63509","0.0-3.0-0.39","23","1","2023-06-27 16:57:48","846205d480aaa49f22c83d5c8cececc8","208.194.222.234","Mozilla/5.0 (Windows NT 10.0; Win64; x64) AppleWebKit/537.36 (KHTML, like Gecko) Chrome/114.0.0.0 Safari/537.36","WebKit","Chrome","114.0.0.0","Windows","10.0","null","<div style=""font-size:60px;"">+</div>","null",""
"","","","","","html-button-response","82","63650","0.0-3.0-1.39","23","1","2023-06-27 16:57:48","846205d480aaa49f22c83d5c8cececc8","208.194.222.234","Mozilla/5.0 (Windows NT 10.0; Win64; x64) AppleWebKit/537.36 (KHTML, like Gecko) Chrome/114.0.0.0 Safari/537.36","WebKit","Chrome","114.0.0.0","Windows","10.0","138","<p>As the military commander, you could choose to launch a missile to kill <strong>10 enemy soldiers</strong> , but would accidentally kill <strong>1 enemy tree</strong> nearby.</p> <p>The photo of the <strong>enemy tree</strong> is shown below.</p> <p></p> <img src='stimuli/tree/8.png', style='max-width: 30%;'> </img> <p><strong>Would you launch the weapon?</strong></p>","0",""
"","","","","","html-keyboard-response","83","64654","0.0-3.0-0.40","23","1","2023-06-27 16:57:48","846205d480aaa49f22c83d5c8cececc8","208.194.222.234","Mozilla/5.0 (Windows NT 10.0; Win64; x64) AppleWebKit/537.36 (KHTML, like Gecko) Chrome/114.0.0.0 Safari/537.36","WebKit","Chrome","114.0.0.0","Windows","10.0","null","<div style=""font-size:60px;"">+</div>","null",""
"","","","","","html-button-response","84","64890","0.0-3.0-1.40","23","1","2023-06-27 16:57:48","846205d480aaa49f22c83d5c8cececc8","208.194.222.234","Mozilla/5.0 (Windows NT 10.0; Win64; x64) AppleWebKit/537.36 (KHTML, like Gecko) Chrome/114.0.0.0 Safari/537.36","WebKit","Chrome","114.0.0.0","Windows","10.0","233","<p>As the military commander, you could choose to launch a missile to kill <strong>1 enemy soldier</strong> , but would accidentally kill <strong>1 enemy civilian</strong> nearby.</p> <p>The photo of the <strong>enemy civilian</strong> is shown below.</p> <p></p> <img src='stimuli/faces/PCM8.jpg', style='max-width: 30%;'> </img> <p><strong>Would you launch the weapon?</strong></p>","0",""
"","","","","","html-keyboard-response","85","65894","0.0-3.0-0.41","23","1","2023-06-27 16:57:48","846205d480aaa49f22c83d5c8cececc8","208.194.222.234","Mozilla/5.0 (Windows NT 10.0; Win64; x64) AppleWebKit/537.36 (KHTML, like Gecko) Chrome/114.0.0.0 Safari/537.36","WebKit","Chrome","114.0.0.0","Windows","10.0","null","<div style=""font-size:60px;"">+</div>","null",""
"","","","","","html-button-response","86","66356","0.0-3.0-1.41","23","1","2023-06-27 16:57:48","846205d480aaa49f22c83d5c8cececc8","208.194.222.234","Mozilla/5.0 (Windows NT 10.0; Win64; x64) AppleWebKit/537.36 (KHTML, like Gecko) Chrome/114.0.0.0 Safari/537.36","WebKit","Chrome","114.0.0.0","Windows","10.0","458","<p>As the military commander, you could choose to launch a missile to kill <strong>3 enemy soldiers</strong> , but would accidentally kill <strong>1 enemy civilian</strong> nearby.</p> <p>The photo of the <strong>enemy civilian</strong> is shown below.</p> <p></p> <img src='stimuli/faces/PCF2.jpg', style='max-width: 30%;'> </img> <p><strong>Would you launch the weapon?</strong></p>","0",""
"","","","","","html-keyboard-response","87","67360","0.0-3.0-0.42","23","1","2023-06-27 16:57:48","846205d480aaa49f22c83d5c8cececc8","208.194.222.234","Mozilla/5.0 (Windows NT 10.0; Win64; x64) AppleWebKit/537.36 (KHTML, like Gecko) Chrome/114.0.0.0 Safari/537.36","WebKit","Chrome","114.0.0.0","Windows","10.0","null","<div style=""font-size:60px;"">+</div>","null",""
"","","","","","html-button-response","88","67636","0.0-3.0-1.42","23","1","2023-06-27 16:57:48","846205d480aaa49f22c83d5c8cececc8","208.194.222.234","Mozilla/5.0 (Windows NT 10.0; Win64; x64) AppleWebKit/537.36 (KHTML, like Gecko) Chrome/114.0.0.0 Safari/537.36","WebKit","Chrome","114.0.0.0","Windows","10.0","272","<p>As the military commander, you could choose to launch a missile to kill <strong>1 enemy soldier</strong> , but would accidentally kill <strong>1 enemy civilian</strong> nearby.</p> <p>The photo of the <strong>enemy civilian</strong> is shown below.</p> <p></p> <img src='stimuli/faces/PCF6.jpg', style='max-width: 30%;'> </img> <p><strong>Would you launch the weapon?</strong></p>","0",""
"","","","","","html-keyboard-response","89","68640","0.0-3.0-0.43","23","1","2023-06-27 16:57:48","846205d480aaa49f22c83d5c8cececc8","208.194.222.234","Mozilla/5.0 (Windows NT 10.0; Win64; x64) AppleWebKit/537.36 (KHTML, like Gecko) Chrome/114.0.0.0 Safari/537.36","WebKit","Chrome","114.0.0.0","Windows","10.0","null","<div style=""font-size:60px;"">+</div>","null",""
"","","","","","html-button-response","90","68892","0.0-3.0-1.43","23","1","2023-06-27 16:57:48","846205d480aaa49f22c83d5c8cececc8","208.194.222.234","Mozilla/5.0 (Windows NT 10.0; Win64; x64) AppleWebKit/537.36 (KHTML, like Gecko) Chrome/114.0.0.0 Safari/537.36","WebKit","Chrome","114.0.0.0","Windows","10.0","248","<p>As the military commander, you could choose to launch a missile to kill <strong>5 enemy soldiers</strong> , but would accidentally kill <strong>1 enemy tree</strong> nearby.</p> <p>The photo of the <strong>enemy tree</strong> is shown below.</p> <p></p> <img src='stimuli/tree/6.png', style='max-width: 30%;'> </img> <p><strong>Would you launch the weapon?</strong></p>","0",""
"","","","","","html-keyboard-response","91","69895","0.0-3.0-0.44","23","1","2023-06-27 16:57:48","846205d480aaa49f22c83d5c8cececc8","208.194.222.234","Mozilla/5.0 (Windows NT 10.0; Win64; x64) AppleWebKit/537.36 (KHTML, like Gecko) Chrome/114.0.0.0 Safari/537.36","WebKit","Chrome","114.0.0.0","Windows","10.0","null","<div style=""font-size:60px;"">+</div>","null",""
"","","","","","html-button-response","92","70211","0.0-3.0-1.44","23","1","2023-06-27 16:57:48","846205d480aaa49f22c83d5c8cececc8","208.194.222.234","Mozilla/5.0 (Windows NT 10.0; Win64; x64) AppleWebKit/537.36 (KHTML, like Gecko) Chrome/114.0.0.0 Safari/537.36","WebKit","Chrome","114.0.0.0","Windows","10.0","312","<p>As the military commander, you could choose to launch a missile to kill <strong>7 enemy soldiers</strong> , but would accidentally kill <strong>1 enemy tree</strong> nearby.</p> <p>The photo of the <strong>enemy tree</strong> is shown below.</p> <p></p> <img src='stimuli/tree/4.png', style='max-width: 30%;'> </img> <p><strong>Would you launch the weapon?</strong></p>","0",""
"","","","","","html-keyboard-response","93","71215","0.0-3.0-0.45","23","1","2023-06-27 16:57:48","846205d480aaa49f22c83d5c8cececc8","208.194.222.234","Mozilla/5.0 (Windows NT 10.0; Win64; x64) AppleWebKit/537.36 (KHTML, like Gecko) Chrome/114.0.0.0 Safari/537.36","WebKit","Chrome","114.0.0.0","Windows","10.0","null","<div style=""font-size:60px;"">+</div>","null",""
"","","","","","html-button-response","94","71522","0.0-3.0-1.45","23","1","2023-06-27 16:57:48","846205d480aaa49f22c83d5c8cececc8","208.194.222.234","Mozilla/5.0 (Windows NT 10.0; Win64; x64) AppleWebKit/537.36 (KHTML, like Gecko) Chrome/114.0.0.0 Safari/537.36","WebKit","Chrome","114.0.0.0","Windows","10.0","304","<p>As the military commander, you could choose to launch a missile to kill <strong>8 enemy soldiers</strong> , but would accidentally kill <strong>1 enemy tree</strong> nearby.</p> <p>The photo of the <strong>enemy tree</strong> is shown below.</p> <p></p> <img src='stimuli/tree/5.png', style='max-width: 30%;'> </img> <p><strong>Would you launch the weapon?</strong></p>","0",""
"","","","","","html-keyboard-response","95","72526","0.0-3.0-0.46","23","1","2023-06-27 16:57:48","846205d480aaa49f22c83d5c8cececc8","208.194.222.234","Mozilla/5.0 (Windows NT 10.0; Win64; x64) AppleWebKit/537.36 (KHTML, like Gecko) Chrome/114.0.0.0 Safari/537.36","WebKit","Chrome","114.0.0.0","Windows","10.0","null","<div style=""font-size:60px;"">+</div>","null",""
"","","","","","html-button-response","96","72897","0.0-3.0-1.46","23","1","2023-06-27 16:57:48","846205d480aaa49f22c83d5c8cececc8","208.194.222.234","Mozilla/5.0 (Windows NT 10.0; Win64; x64) AppleWebKit/537.36 (KHTML, like Gecko) Chrome/114.0.0.0 Safari/537.36","WebKit","Chrome","114.0.0.0","Windows","10.0","367","<p>As the military commander, you could choose to launch a missile to kill <strong>6 enemy soldiers</strong> , but would accidentally kill <strong>1 enemy civilian</strong> nearby.</p> <p>The photo of the <strong>enemy civilian</strong> is shown below.</p> <p></p> <img src='stimuli/faces/PCM8.jpg', style='max-width: 30%;'> </img> <p><strong>Would you launch the weapon?</strong></p>","0",""
"","","","","","html-keyboard-response","97","73902","0.0-3.0-0.47","23","1","2023-06-27 16:57:48","846205d480aaa49f22c83d5c8cececc8","208.194.222.234","Mozilla/5.0 (Windows NT 10.0; Win64; x64) AppleWebKit/537.36 (KHTML, like Gecko) Chrome/114.0.0.0 Safari/537.36","WebKit","Chrome","114.0.0.0","Windows","10.0","null","<div style=""font-size:60px;"">+</div>","null",""
"","","","","","html-button-response","98","74155","0.0-3.0-1.47","23","1","2023-06-27 16:57:48","846205d480aaa49f22c83d5c8cececc8","208.194.222.234","Mozilla/5.0 (Windows NT 10.0; Win64; x64) AppleWebKit/537.36 (KHTML, like Gecko) Chrome/114.0.0.0 Safari/537.36","WebKit","Chrome","114.0.0.0","Windows","10.0","250","<p>As the military commander, you could choose to launch a missile to kill <strong>1 enemy soldier</strong> , but would accidentally kill <strong>1 enemy civilian</strong> nearby.</p> <p>The photo of the <strong>enemy civilian</strong> is shown below.</p> <p></p> <img src='stimuli/faces/PCF7.jpg', style='max-width: 30%;'> </img> <p><strong>Would you launch the weapon?</strong></p>","0",""
"","","","","","html-keyboard-response","99","75160","0.0-3.0-0.48","23","1","2023-06-27 16:57:48","846205d480aaa49f22c83d5c8cececc8","208.194.222.234","Mozilla/5.0 (Windows NT 10.0; Win64; x64) AppleWebKit/537.36 (KHTML, like Gecko) Chrome/114.0.0.0 Safari/537.36","WebKit","Chrome","114.0.0.0","Windows","10.0","null","<div style=""font-size:60px;"">+</div>","null",""
"","","","","","html-button-response","100","75490","0.0-3.0-1.48","23","1","2023-06-27 16:57:48","846205d480aaa49f22c83d5c8cececc8","208.194.222.234","Mozilla/5.0 (Windows NT 10.0; Win64; x64) AppleWebKit/537.36 (KHTML, like Gecko) Chrome/114.0.0.0 Safari/537.36","WebKit","Chrome","114.0.0.0","Windows","10.0","327","<p>As the military commander, you could choose to launch a missile to kill <strong>5 enemy soldiers</strong> , but would accidentally kill <strong>1 enemy civilian</strong> nearby.</p> <p>The photo of the <strong>enemy civilian</strong> is shown below.</p> <p></p> <img src='stimuli/faces/PCF4.jpg', style='max-width: 30%;'> </img> <p><strong>Would you launch the weapon?</strong></p>","0",""
"","","","","","html-keyboard-response","101","76493","0.0-3.0-0.49","23","1","2023-06-27 16:57:48","846205d480aaa49f22c83d5c8cececc8","208.194.222.234","Mozilla/5.0 (Windows NT 10.0; Win64; x64) AppleWebKit/537.36 (KHTML, like Gecko) Chrome/114.0.0.0 Safari/537.36","WebKit","Chrome","114.0.0.0","Windows","10.0","null","<div style=""font-size:60px;"">+</div>","null",""
"","","","","","html-button-response","102","76842","0.0-3.0-1.49","23","1","2023-06-27 16:57:48","846205d480aaa49f22c83d5c8cececc8","208.194.222.234","Mozilla/5.0 (Windows NT 10.0; Win64; x64) AppleWebKit/537.36 (KHTML, like Gecko) Chrome/114.0.0.0 Safari/537.36","WebKit","Chrome","114.0.0.0","Windows","10.0","345","<p>As the military commander, you could choose to launch a missile to kill <strong>8 enemy soldiers</strong> , but would accidentally kill <strong>1 enemy civilian</strong> nearby.</p> <p>The photo of the <strong>enemy civilian</strong> is shown below.</p> <p></p> <img src='stimuli/faces/PCF2.jpg', style='max-width: 30%;'> </img> <p><strong>Would you launch the weapon?</strong></p>","0",""
"","","","","","html-keyboard-response","103","77846","0.0-3.0-0.50","23","1","2023-06-27 16:57:48","846205d480aaa49f22c83d5c8cececc8","208.194.222.234","Mozilla/5.0 (Windows NT 10.0; Win64; x64) AppleWebKit/537.36 (KHTML, like Gecko) Chrome/114.0.0.0 Safari/537.36","WebKit","Chrome","114.0.0.0","Windows","10.0","null","<div style=""font-size:60px;"">+</div>","null",""
"","","","","","html-button-response","104","78083","0.0-3.0-1.50","23","1","2023-06-27 16:57:48","846205d480aaa49f22c83d5c8cececc8","208.194.222.234","Mozilla/5.0 (Windows NT 10.0; Win64; x64) AppleWebKit/537.36 (KHTML, like Gecko) Chrome/114.0.0.0 Safari/537.36","WebKit","Chrome","114.0.0.0","Windows","10.0","234","<p>As the military commander, you could choose to launch a missile to kill <strong>10 enemy soldiers</strong> , but would accidentally kill <strong>1 enemy civilian</strong> nearby.</p> <p>The photo of the <strong>enemy civilian</strong> is shown below.</p> <p></p> <img src='stimuli/faces/PCM4.jpg', style='max-width: 30%;'> </img> <p><strong>Would you launch the weapon?</strong></p>","0",""
"","","","","","html-keyboard-response","105","79087","0.0-3.0-0.51","23","1","2023-06-27 16:57:48","846205d480aaa49f22c83d5c8cececc8","208.194.222.234","Mozilla/5.0 (Windows NT 10.0; Win64; x64) AppleWebKit/537.36 (KHTML, like Gecko) Chrome/114.0.0.0 Safari/537.36","WebKit","Chrome","114.0.0.0","Windows","10.0","null","<div style=""font-size:60px;"">+</div>","null",""
"","","","","","html-button-response","106","79380","0.0-3.0-1.51","23","1","2023-06-27 16:57:48","846205d480aaa49f22c83d5c8cececc8","208.194.222.234","Mozilla/5.0 (Windows NT 10.0; Win64; x64) AppleWebKit/537.36 (KHTML, like Gecko) Chrome/114.0.0.0 Safari/537.36","WebKit","Chrome","114.0.0.0","Windows","10.0","289","<p>As the military commander, you could choose to launch a missile to kill <strong>2 enemy soldiers</strong> , but would accidentally kill <strong>1 enemy civilian</strong> nearby.</p> <p>The photo of the <strong>enemy civilian</strong> is shown below.</p> <p></p> <img src='stimuli/faces/PCF5.jpg', style='max-width: 30%;'> </img> <p><strong>Would you launch the weapon?</strong></p>","0",""
"","","","","","html-keyboard-response","107","80384","0.0-3.0-0.52","23","1","2023-06-27 16:57:48","846205d480aaa49f22c83d5c8cececc8","208.194.222.234","Mozilla/5.0 (Windows NT 10.0; Win64; x64) AppleWebKit/537.36 (KHTML, like Gecko) Chrome/114.0.0.0 Safari/537.36","WebKit","Chrome","114.0.0.0","Windows","10.0","null","<div style=""font-size:60px;"">+</div>","null",""
"","","","","","html-button-response","108","80699","0.0-3.0-1.52","23","1","2023-06-27 16:57:48","846205d480aaa49f22c83d5c8cececc8","208.194.222.234","Mozilla/5.0 (Windows NT 10.0; Win64; x64) AppleWebKit/537.36 (KHTML, like Gecko) Chrome/114.0.0.0 Safari/537.36","WebKit","Chrome","114.0.0.0","Windows","10.0","312","<p>As the military commander, you could choose to launch a missile to kill <strong>4 enemy soldiers</strong> , but would accidentally kill <strong>1 enemy tree</strong> nearby.</p> <p>The photo of the <strong>enemy tree</strong> is shown below.</p> <p></p> <img src='stimuli/tree/1.png', style='max-width: 30%;'> </img> <p><strong>Would you launch the weapon?</strong></p>","0",""
"","","","","","html-keyboard-response","109","81704","0.0-3.0-0.53","23","1","2023-06-27 16:57:48","846205d480aaa49f22c83d5c8cececc8","208.194.222.234","Mozilla/5.0 (Windows NT 10.0; Win64; x64) AppleWebKit/537.36 (KHTML, like Gecko) Chrome/114.0.0.0 Safari/537.36","WebKit","Chrome","114.0.0.0","Windows","10.0","null","<div style=""font-size:60px;"">+</div>","null",""
"","","","","","html-button-response","110","82003","0.0-3.0-1.53","23","1","2023-06-27 16:57:48","846205d480aaa49f22c83d5c8cececc8","208.194.222.234","Mozilla/5.0 (Windows NT 10.0; Win64; x64) AppleWebKit/537.36 (KHTML, like Gecko) Chrome/114.0.0.0 Safari/537.36","WebKit","Chrome","114.0.0.0","Windows","10.0","295","<p>As the military commander, you could choose to launch a missile to kill <strong>10 enemy soldiers</strong> , but would accidentally kill <strong>1 enemy tree</strong> nearby.</p> <p>The photo of the <strong>enemy tree</strong> is shown below.</p> <p></p> <img src='stimuli/tree/14.png', style='max-width: 30%;'> </img> <p><strong>Would you launch the weapon?</strong></p>","0",""
"","","","","","html-keyboard-response","111","83006","0.0-3.0-0.54","23","1","2023-06-27 16:57:48","846205d480aaa49f22c83d5c8cececc8","208.194.222.234","Mozilla/5.0 (Windows NT 10.0; Win64; x64) AppleWebKit/537.36 (KHTML, like Gecko) Chrome/114.0.0.0 Safari/537.36","WebKit","Chrome","114.0.0.0","Windows","10.0","null","<div style=""font-size:60px;"">+</div>","null",""
"","","","","","html-button-response","112","83210","0.0-3.0-1.54","23","1","2023-06-27 16:57:48","846205d480aaa49f22c83d5c8cececc8","208.194.222.234","Mozilla/5.0 (Windows NT 10.0; Win64; x64) AppleWebKit/537.36 (KHTML, like Gecko) Chrome/114.0.0.0 Safari/537.36","WebKit","Chrome","114.0.0.0","Windows","10.0","201","<p>As the military commander, you could choose to launch a missile to kill <strong>8 enemy soldiers</strong> , but would accidentally kill <strong>1 enemy civilian</strong> nearby.</p> <p>The photo of the <strong>enemy civilian</strong> is shown below.</p> <p></p> <img src='stimuli/faces/PCM7.jpg', style='max-width: 30%;'> </img> <p><strong>Would you launch the weapon?</strong></p>","0",""
"","","","","","html-keyboard-response","113","84215","0.0-3.0-0.55","23","1","2023-06-27 16:57:48","846205d480aaa49f22c83d5c8cececc8","208.194.222.234","Mozilla/5.0 (Windows NT 10.0; Win64; x64) AppleWebKit/537.36 (KHTML, like Gecko) Chrome/114.0.0.0 Safari/537.36","WebKit","Chrome","114.0.0.0","Windows","10.0","null","<div style=""font-size:60px;"">+</div>","null",""
"","","","","","html-button-response","114","84794","0.0-3.0-1.55","23","1","2023-06-27 16:57:48","846205d480aaa49f22c83d5c8cececc8","208.194.222.234","Mozilla/5.0 (Windows NT 10.0; Win64; x64) AppleWebKit/537.36 (KHTML, like Gecko) Chrome/114.0.0.0 Safari/537.36","WebKit","Chrome","114.0.0.0","Windows","10.0","576","<p>As the military commander, you could choose to launch a missile to kill <strong>6 enemy soldiers</strong> , but would accidentally kill <strong>1 enemy civilian</strong> nearby.</p> <p>The photo of the <strong>enemy civilian</strong> is shown below.</p> <p></p> <img src='stimuli/faces/PCF8.jpg', style='max-width: 30%;'> </img> <p><strong>Would you launch the weapon?</strong></p>","0",""
"","","","","","html-keyboard-response","115","85799","0.0-3.0-0.56","23","1","2023-06-27 16:57:48","846205d480aaa49f22c83d5c8cececc8","208.194.222.234","Mozilla/5.0 (Windows NT 10.0; Win64; x64) AppleWebKit/537.36 (KHTML, like Gecko) Chrome/114.0.0.0 Safari/537.36","WebKit","Chrome","114.0.0.0","Windows","10.0","null","<div style=""font-size:60px;"">+</div>","null",""
"","","","","","html-button-response","116","86242","0.0-3.0-1.56","23","1","2023-06-27 16:57:48","846205d480aaa49f22c83d5c8cececc8","208.194.222.234","Mozilla/5.0 (Windows NT 10.0; Win64; x64) AppleWebKit/537.36 (KHTML, like Gecko) Chrome/114.0.0.0 Safari/537.36","WebKit","Chrome","114.0.0.0","Windows","10.0","439","<p>As the military commander, you could choose to launch a missile to kill <strong>6 enemy soldiers</strong> , but would accidentally kill <strong>1 enemy civilian</strong> nearby.</p> <p>The photo of the <strong>enemy civilian</strong> is shown below.</p> <p></p> <img src='stimuli/faces/PCM3.jpg', style='max-width: 30%;'> </img> <p><strong>Would you launch the weapon?</strong></p>","0",""
"","","","","","html-keyboard-response","117","87247","0.0-3.0-0.57","23","1","2023-06-27 16:57:48","846205d480aaa49f22c83d5c8cececc8","208.194.222.234","Mozilla/5.0 (Windows NT 10.0; Win64; x64) AppleWebKit/537.36 (KHTML, like Gecko) Chrome/114.0.0.0 Safari/537.36","WebKit","Chrome","114.0.0.0","Windows","10.0","null","<div style=""font-size:60px;"">+</div>","null",""
"","","","","","html-button-response","118","87698","0.0-3.0-1.57","23","1","2023-06-27 16:57:48","846205d480aaa49f22c83d5c8cececc8","208.194.222.234","Mozilla/5.0 (Windows NT 10.0; Win64; x64) AppleWebKit/537.36 (KHTML, like Gecko) Chrome/114.0.0.0 Safari/537.36","WebKit","Chrome","114.0.0.0","Windows","10.0","448","<p>As the military commander, you could choose to launch a missile to kill <strong>9 enemy soldiers</strong> , but would accidentally kill <strong>1 enemy tree</strong> nearby.</p> <p>The photo of the <strong>enemy tree</strong> is shown below.</p> <p></p> <img src='stimuli/tree/3.png', style='max-width: 30%;'> </img> <p><strong>Would you launch the weapon?</strong></p>","0",""
"","","","","","html-keyboard-response","119","88701","0.0-3.0-0.58","23","1","2023-06-27 16:57:48","846205d480aaa49f22c83d5c8cececc8","208.194.222.234","Mozilla/5.0 (Windows NT 10.0; Win64; x64) AppleWebKit/537.36 (KHTML, like Gecko) Chrome/114.0.0.0 Safari/537.36","WebKit","Chrome","114.0.0.0","Windows","10.0","null","<div style=""font-size:60px;"">+</div>","null",""
"","","","","","html-button-response","120","89588","0.0-3.0-1.58","23","1","2023-06-27 16:57:48","846205d480aaa49f22c83d5c8cececc8","208.194.222.234","Mozilla/5.0 (Windows NT 10.0; Win64; x64) AppleWebKit/537.36 (KHTML, like Gecko) Chrome/114.0.0.0 Safari/537.36","WebKit","Chrome","114.0.0.0","Windows","10.0","883","<p>As the military commander, you could choose to launch a missile to kill <strong>8 enemy soldiers</strong> , but would accidentally kill <strong>1 enemy tree</strong> nearby.</p> <p>The photo of the <strong>enemy tree</strong> is shown below.</p> <p></p> <img src='stimuli/tree/6.png', style='max-width: 30%;'> </img> <p><strong>Would you launch the weapon?</strong></p>","0",""
"","","","","","html-keyboard-response","121","90594","0.0-3.0-0.59","23","1","2023-06-27 16:57:48","846205d480aaa49f22c83d5c8cececc8","208.194.222.234","Mozilla/5.0 (Windows NT 10.0; Win64; x64) AppleWebKit/537.36 (KHTML, like Gecko) Chrome/114.0.0.0 Safari/537.36","WebKit","Chrome","114.0.0.0","Windows","10.0","null","<div style=""font-size:60px;"">+</div>","null",""
"","","","","","html-button-response","122","91762","0.0-3.0-1.59","23","1","2023-06-27 16:57:48","846205d480aaa49f22c83d5c8cececc8","208.194.222.234","Mozilla/5.0 (Windows NT 10.0; Win64; x64) AppleWebKit/537.36 (KHTML, like Gecko) Chrome/114.0.0.0 Safari/537.36","WebKit","Chrome","114.0.0.0","Windows","10.0","1163","<p>As the military commander, you could choose to launch a missile to kill <strong>1 enemy soldier</strong> , but would accidentally kill <strong>1 enemy tree</strong> nearby.</p> <p>The photo of the <strong>enemy tree</strong> is shown below.</p> <p></p> <img src='stimuli/tree/14.png', style='max-width: 30%;'> </img> <p><strong>Would you launch the weapon?</strong></p>","0",""
"","","","","","html-keyboard-response","123","92768","0.0-3.0-0.60","23","1","2023-06-27 16:57:48","846205d480aaa49f22c83d5c8cececc8","208.194.222.234","Mozilla/5.0 (Windows NT 10.0; Win64; x64) AppleWebKit/537.36 (KHTML, like Gecko) Chrome/114.0.0.0 Safari/537.36","WebKit","Chrome","114.0.0.0","Windows","10.0","null","<div style=""font-size:60px;"">+</div>","null",""
"","","","","","html-button-response","124","94003","0.0-3.0-1.60","23","1","2023-06-27 16:57:48","846205d480aaa49f22c83d5c8cececc8","208.194.222.234","Mozilla/5.0 (Windows NT 10.0; Win64; x64) AppleWebKit/537.36 (KHTML, like Gecko) Chrome/114.0.0.0 Safari/537.36","WebKit","Chrome","114.0.0.0","Windows","10.0","1230","<p>As the military commander, you could choose to launch a missile to kill <strong>9 enemy soldiers</strong> , but would accidentally kill <strong>1 enemy civilian</strong> nearby.</p> <p>The photo of the <strong>enemy civilian</strong> is shown below.</p> <p></p> <img src='stimuli/faces/PCF4.jpg', style='max-width: 30%;'> </img> <p><strong>Would you launch the weapon?</strong></p>","1",""
"","","","","","html-keyboard-response","125","95007","0.0-3.0-0.61","23","1","2023-06-27 16:57:48","846205d480aaa49f22c83d5c8cececc8","208.194.222.234","Mozilla/5.0 (Windows NT 10.0; Win64; x64) AppleWebKit/537.36 (KHTML, like Gecko) Chrome/114.0.0.0 Safari/537.36","WebKit","Chrome","114.0.0.0","Windows","10.0","null","<div style=""font-size:60px;"">+</div>","null",""
"","","","","","html-button-response","126","96281","0.0-3.0-1.61","23","1","2023-06-27 16:57:48","846205d480aaa49f22c83d5c8cececc8","208.194.222.234","Mozilla/5.0 (Windows NT 10.0; Win64; x64) AppleWebKit/537.36 (KHTML, like Gecko) Chrome/114.0.0.0 Safari/537.36","WebKit","Chrome","114.0.0.0","Windows","10.0","1270","<p>As the military commander, you could choose to launch a missile to kill <strong>9 enemy soldiers</strong> , but would accidentally kill <strong>1 enemy tree</strong> nearby.</p> <p>The photo of the <strong>enemy tree</strong> is shown below.</p> <p></p> <img src='stimuli/tree/15.png', style='max-width: 30%;'> </img> <p><strong>Would you launch the weapon?</strong></p>","0",""
"","","","","","html-keyboard-response","127","97285","0.0-3.0-0.62","23","1","2023-06-27 16:57:48","846205d480aaa49f22c83d5c8cececc8","208.194.222.234","Mozilla/5.0 (Windows NT 10.0; Win64; x64) AppleWebKit/537.36 (KHTML, like Gecko) Chrome/114.0.0.0 Safari/537.36","WebKit","Chrome","114.0.0.0","Windows","10.0","null","<div style=""font-size:60px;"">+</div>","null",""
"","","","","","html-button-response","128","106268","0.0-3.0-1.62","23","1","2023-06-27 16:57:48","846205d480aaa49f22c83d5c8cececc8","208.194.222.234","Mozilla/5.0 (Windows NT 10.0; Win64; x64) AppleWebKit/537.36 (KHTML, like Gecko) Chrome/114.0.0.0 Safari/537.36","WebKit","Chrome","114.0.0.0","Windows","10.0","8977","<p>As the military commander, you could choose to launch a missile to kill <strong>6 enemy soldiers</strong> , but would accidentally kill <strong>1 enemy tree</strong> nearby.</p> <p>The photo of the <strong>enemy tree</strong> is shown below.</p> <p></p> <img src='stimuli/tree/10.png', style='max-width: 30%;'> </img> <p><strong>Would you launch the weapon?</strong></p>","0",""
"","","","","","html-keyboard-response","129","107274","0.0-3.0-0.63","23","1","2023-06-27 16:57:48","846205d480aaa49f22c83d5c8cececc8","208.194.222.234","Mozilla/5.0 (Windows NT 10.0; Win64; x64) AppleWebKit/537.36 (KHTML, like Gecko) Chrome/114.0.0.0 Safari/537.36","WebKit","Chrome","114.0.0.0","Windows","10.0","null","<div style=""font-size:60px;"">+</div>","null",""
"","","","","","html-button-response","130","116331","0.0-3.0-1.63","23","1","2023-06-27 16:57:48","846205d480aaa49f22c83d5c8cececc8","208.194.222.234","Mozilla/5.0 (Windows NT 10.0; Win64; x64) AppleWebKit/537.36 (KHTML, like Gecko) Chrome/114.0.0.0 Safari/537.36","WebKit","Chrome","114.0.0.0","Windows","10.0","9051","<p>As the military commander, you could choose to launch a missile to kill <strong>6 enemy soldiers</strong> , but would accidentally kill <strong>1 enemy tree</strong> nearby.</p> <p>The photo of the <strong>enemy tree</strong> is shown below.</p> <p></p> <img src='stimuli/tree/13.png', style='max-width: 30%;'> </img> <p><strong>Would you launch the weapon?</strong></p>","0",""
"","","","","","survey-multi-choice","131","120604","0.0-4.0","23","1","2023-06-27 16:57:48","846205d480aaa49f22c83d5c8cececc8","208.194.222.234","Mozilla/5.0 (Windows NT 10.0; Win64; x64) AppleWebKit/537.36 (KHTML, like Gecko) Chrome/114.0.0.0 Safari/537.36","WebKit","Chrome","114.0.0.0","Windows","10.0","4268","","{""Attention1"":""""}","[0]"
"","","","","","html-button-response","132","122163","0.0-5.0","23","1","2023-06-27 16:57:48","846205d480aaa49f22c83d5c8cececc8","208.194.222.234","Mozilla/5.0 (Windows NT 10.0; Win64; x64) AppleWebKit/537.36 (KHTML, like Gecko) Chrome/114.0.0.0 Safari/537.36","WebKit","Chrome","114.0.0.0","Windows","10.0","1552","<p style=""font-size:20px;font-weight:bold;"">Great!</p><p>You have finished the first part of the experiment!</p><p>Please relax a little bit and then contine to answer some questions regarding yourself.</p><p>The next part will take around 10 minutes to complete.</p>","0",""
"","","","","","survey-text","133","140501","0.0-6.0","23","1","2023-06-27 16:57:48","846205d480aaa49f22c83d5c8cececc8","208.194.222.234","Mozilla/5.0 (Windows NT 10.0; Win64; x64) AppleWebKit/537.36 (KHTML, like Gecko) Chrome/114.0.0.0 Safari/537.36","WebKit","Chrome","114.0.0.0","Windows","10.0","17330","","{""Age"":""24"",""Nation"":""WHITE"",""Born"":""US"",""Live"":""USA""}",""
"","","","","","survey-multi-choice","134","150483","0.0-7.0","23","1","2023-06-27 16:57:48","846205d480aaa49f22c83d5c8cececc8","208.194.222.234","Mozilla/5.0 (Windows NT 10.0; Win64; x64) AppleWebKit/537.36 (KHTML, like Gecko) Chrome/114.0.0.0 Safari/537.36","WebKit","Chrome","114.0.0.0","Windows","10.0","9977","","{""Gender"":""Male"",""Education"":""Bachelor's Degree"",""Income"":""$40,000 - $69,999"",""Children"":""0"",""Ethnicity"":""White""}","[0,1,2,3,4]"
"","","","","","survey-multi-select","135","156268","0.0-8.0","23","1","2023-06-27 16:57:48","846205d480aaa49f22c83d5c8cececc8","208.194.222.234","Mozilla/5.0 (Windows NT 10.0; Win64; x64) AppleWebKit/537.36 (KHTML, like Gecko) Chrome/114.0.0.0 Safari/537.36","WebKit","Chrome","114.0.0.0","Windows","10.0","5772","","{""Marriage"":[""Single""],""Religion"":[""Catholic""]}","[0,1]"
"","","","","","survey-multi-choice","136","158238","0.0-9.0","23","1","2023-06-27 16:57:48","846205d480aaa49f22c83d5c8cececc8","208.194.222.234","Mozilla/5.0 (Windows NT 10.0; Win64; x64) AppleWebKit/537.36 (KHTML, like Gecko) Chrome/114.0.0.0 Safari/537.36","WebKit","Chrome","114.0.0.0","Windows","10.0","1962","","{""SES"":""10""}","[0]"
"","","","","","html-button-response","137","160067","0.0-10.0","23","1","2023-06-27 16:57:48","846205d480aaa49f22c83d5c8cececc8","208.194.222.234","Mozilla/5.0 (Windows NT 10.0; Win64; x64) AppleWebKit/537.36 (KHTML, like Gecko) Chrome/114.0.0.0 Safari/537.36","WebKit","Chrome","114.0.0.0","Windows","10.0","1823","<p><strong>Please indicate the extent that the following statements could describe you.</p><p> (1 = ""extremely uncharacteristic of me"" to 5 = ""extremely characteristic of me"".)</strong></p>","0",""
"","","","","","survey-likert","138","165975","0.0-11.0","23","1","2023-06-27 16:57:48","846205d480aaa49f22c83d5c8cececc8","208.194.222.234","Mozilla/5.0 (Windows NT 10.0; Win64; x64) AppleWebKit/537.36 (KHTML, like Gecko) Chrome/114.0.0.0 Safari/537.36","WebKit","Chrome","114.0.0.0","Windows","10.0","5901","","{""Aggression1"":3,""Aggression2"":3,""Aggression3"":3,""Aggression4"":3,""Aggression5"":2,""Aggression6"":3,""Aggression7"":3,""Aggression8"":3,""Aggression9"":3}","[0,1,2,3,4,5,6,7,8]"
"","","","","","html-button-response","139","167395","0.0-12.0","23","1","2023-06-27 16:57:48","846205d480aaa49f22c83d5c8cececc8","208.194.222.234","Mozilla/5.0 (Windows NT 10.0; Win64; x64) AppleWebKit/537.36 (KHTML, like Gecko) Chrome/114.0.0.0 Safari/537.36","WebKit","Chrome","114.0.0.0","Windows","10.0","1411","<p><strong>Please indicate the extent that the following statements could describe you. </strong></p><p><strong> (1 = ""Does not describe me well"" to 5 = ""Does decribe me well"".)</strong></p>","0",""
"","","","","","survey-likert","140","184968","0.0-13.0","23","1","2023-06-27 16:57:48","846205d480aaa49f22c83d5c8cececc8","208.194.222.234","Mozilla/5.0 (Windows NT 10.0; Win64; x64) AppleWebKit/537.36 (KHTML, like Gecko) Chrome/114.0.0.0 Safari/537.36","WebKit","Chrome","114.0.0.0","Windows","10.0","17564","","{""pts5"":2,""pts6"":3,""ecs5"":2,""pds6"":3,""ecs4"":3,""ecs3"":2,""pds3"":3,""ecs2"":3,""ecs6"":2,""pds2"":3,""fs7"":2,""fs5"":2,""ecs1"":3,""fs6"":2,""pts7"":2,""pds5"":3,""pds1"":2,""fs3"":2,""pts1"":3,""pts2"":2,""fs1"":2,""fs2"":3,""pds4"":2,""ecs7"":2,""fs4"":3,""pts4"":2,""pts3"":2,""pds7"":3}","[20,24,17,23,13,8,12,3,19,9,25,15,1,22,27,18,5,6,2,7,0,4,16,21,11,14,10,26]"
"","","","","","html-button-response","141","186306","0.0-14.0","23","1","2023-06-27 16:57:48","846205d480aaa49f22c83d5c8cececc8","208.194.222.234","Mozilla/5.0 (Windows NT 10.0; Win64; x64) AppleWebKit/537.36 (KHTML, like Gecko) Chrome/114.0.0.0 Safari/537.36","WebKit","Chrome","114.0.0.0","Windows","10.0","1331","<p><strong>Which of the following objects or statements do you have a positive or negative feeling towards? </strong></p><p><strong> (1 = ""Very negative"" to 7 = ""Very positive"") </strong></p>","0",""
"","","","","","survey-likert","142","200439","0.0-15.0","23","1","2023-06-27 16:57:48","846205d480aaa49f22c83d5c8cececc8","208.194.222.234","Mozilla/5.0 (Windows NT 10.0; Win64; x64) AppleWebKit/537.36 (KHTML, like Gecko) Chrome/114.0.0.0 Safari/537.36","WebKit","Chrome","114.0.0.0","Windows","10.0","14125","","{""sdo8"":4,""sdo7"":5,""sdo5"":4,""sdo10"":5,""sdo11"":4,""sdo13"":5,""sdo14"":4,""sdo9"":4,""sdo1"":4,""sdo12"":5,""sdo4"":4,""sdo2"":5,""sdo6"":4,""sdo15"":4,""sdo16"":5,""sdo3"":4}","[7,6,4,9,10,12,13,8,0,11,3,1,5,14,15,2]"
"","","","","","html-button-response","143","201715","0.0-16.0","23","1","2023-06-27 16:57:48","846205d480aaa49f22c83d5c8cececc8","208.194.222.234","Mozilla/5.0 (Windows NT 10.0; Win64; x64) AppleWebKit/537.36 (KHTML, like Gecko) Chrome/114.0.0.0 Safari/537.36","WebKit","Chrome","114.0.0.0","Windows","10.0","1269","<p><strong>Please indicate the extent you agree with the following statements.</strong></p><strong><p> (1 = ""Strongly Disagree"" to 5 = ""Srongly Agree"") </strong></p>","0",""
"","","","","","survey-likert","144","211541","0.0-17.0","23","1","2023-06-27 16:57:48","846205d480aaa49f22c83d5c8cececc8","208.194.222.234","Mozilla/5.0 (Windows NT 10.0; Win64; x64) AppleWebKit/537.36 (KHTML, like Gecko) Chrome/114.0.0.0 Safari/537.36","WebKit","Chrome","114.0.0.0","Windows","10.0","9820","","{""caring1"":2,""liking1"":3,""caring2"":2,""protection1"":3,""liking2"":2,""caring3"":3,""protection2"":3,""liking3"":2,""protection3"":3,""caring4"":2,""liking4"":2,""protection4"":3,""caring5"":2,""liking5"":2,""protection5"":3}","[0,1,2,3,4,5,6,7,8,9,10,11,12,13,14]"
"","","","","","html-button-response","145","212946","0.0-18.0","23","1","2023-06-27 16:57:48","846205d480aaa49f22c83d5c8cececc8","208.194.222.234","Mozilla/5.0 (Windows NT 10.0; Win64; x64) AppleWebKit/537.36 (KHTML, like Gecko) Chrome/114.0.0.0 Safari/537.36","WebKit","Chrome","114.0.0.0","Windows","10.0","1398","<p><strong>Please imagine spercific situations involving children below, and rate the amount of tenderness you would feel in each situation. </strong></p><p><strong> (Ternderness is ""a warm, gentle feeling of sympathetic affection."") </strong></p><strong><p> (1 = ""No tenderness at all"" to 5 = ""A lot of tenderness"") </strong></p>","0",""
"","","","","","survey-likert","146","222419","0.0-19.0","23","1","2023-06-27 16:57:48","846205d480aaa49f22c83d5c8cececc8","208.194.222.234","Mozilla/5.0 (Windows NT 10.0; Win64; x64) AppleWebKit/537.36 (KHTML, like Gecko) Chrome/114.0.0.0 Safari/537.36","WebKit","Chrome","114.0.0.0","Windows","10.0","9467","","{""tenderness-positive1"":2,""tenderness-negative1"":3,""tenderness-negative2"":2,""tenderness-positive2"":3,""tenderness-positive3"":2,""tenderness-negative3"":3,""tenderness-positive4"":2,""tendereness-negative4"":2,""tendernness-negative5"":4,""tenderness-positive5"":2}","[0,1,2,3,4,5,6,7,8,9]"
"","","","","","survey-multi-choice","147","225403","0.0-20.0","23","1","2023-06-27 16:57:48","846205d480aaa49f22c83d5c8cececc8","208.194.222.234","Mozilla/5.0 (Windows NT 10.0; Win64; x64) AppleWebKit/537.36 (KHTML, like Gecko) Chrome/114.0.0.0 Safari/537.36","WebKit","Chrome","114.0.0.0","Windows","10.0","2977","","{""Attention2"":""Other""}","[0]"
"","","","","","html-button-response","148","226644","0.0-21.0","23","1","2023-06-27 16:57:48","846205d480aaa49f22c83d5c8cececc8","208.194.222.234","Mozilla/5.0 (Windows NT 10.0; Win64; x64) AppleWebKit/537.36 (KHTML, like Gecko) Chrome/114.0.0.0 Safari/537.36","WebKit","Chrome","114.0.0.0","Windows","10.0","1232","<p><strong>Please indicate the extent you agree with the following statements.</strong></p>","0",""
"","","","","","survey-likert","149","238430","0.0-22.0","23","1","2023-06-27 16:57:48","846205d480aaa49f22c83d5c8cececc8","208.194.222.234","Mozilla/5.0 (Windows NT 10.0; Win64; x64) AppleWebKit/537.36 (KHTML, like Gecko) Chrome/114.0.0.0 Safari/537.36","WebKit","Chrome","114.0.0.0","Windows","10.0","11779","","{""Nation7"":2,""Patri10"":3,""Patri2"":3,""Patri9"":2,""Patri8"":3,""Patri5"":2,""Patri6"":3,""Nation6"":4,""Patri4"":2,""Nation2"":3,""Nation5"":4,""Patri12"":1,""Nation4"":4,""Nation3"":3,""Nation1"":3,""Patri7"":2,""Patri11"":3,""Patri1"":2,""Patri3"":3,""Nation8"":3}","[18,9,1,8,7,4,5,17,3,13,16,11,15,14,12,6,10,0,2,19]"
"","","","","","html-button-response","150","239794","0.0-23.0","23","1","2023-06-27 16:57:48","846205d480aaa49f22c83d5c8cececc8","208.194.222.234","Mozilla/5.0 (Windows NT 10.0; Win64; x64) AppleWebKit/537.36 (KHTML, like Gecko) Chrome/114.0.0.0 Safari/537.36","WebKit","Chrome","114.0.0.0","Windows","10.0","1357","<p><strong>Please indicate the extent you agree with the following statements. </p><p>(1 = ""never or definitely no"" and 9 = ""always or definitely yes"".)</strong></p>","0",""
"","","","","","survey-likert","151","253399","0.0-24.0","23","1","2023-06-27 16:57:48","846205d480aaa49f22c83d5c8cececc8","208.194.222.234","Mozilla/5.0 (Windows NT 10.0; Win64; x64) AppleWebKit/537.36 (KHTML, like Gecko) Chrome/114.0.0.0 Safari/537.36","WebKit","Chrome","114.0.0.0","Windows","10.0","13593","","{""hc1"":6,""vc1"":7,""vi1"":6,""hi2"":6,""vi3"":6,""hc3"":7,""vi4"":6,""hc2"":5,""vc4"":7,""vi2"":6,""hc4"":6,""hi3"":7,""hi4"":5,""Robot2"":6,""hi1"":7,""vc3"":7,""vc2"":5}","[9,13,4,1,6,11,8,10,16,5,12,2,3,7,0,15,14]"
"","","","","","survey-text","152","274371","0.0-25.0","23","1","2023-06-27 16:57:48","846205d480aaa49f22c83d5c8cececc8","208.194.222.234","Mozilla/5.0 (Windows NT 10.0; Win64; x64) AppleWebKit/537.36 (KHTML, like Gecko) Chrome/114.0.0.0 Safari/537.36","WebKit","Chrome","114.0.0.0","Windows","10.0","20960","","{""ID"":""A2TEC1JFE61K2L"",""Comments"":""GOOD""}",""
"","","","","","html-button-response","153","308899","0.0-26.0","23","1","2023-06-27 16:57:48","846205d480aaa49f22c83d5c8cececc8","208.194.222.234","Mozilla/5.0 (Windows NT 10.0; Win64; x64) AppleWebKit/537.36 (KHTML, like Gecko) Chrome/114.0.0.0 Safari/537.36","WebKit","Chrome","114.0.0.0","Windows","10.0","34521","<p><strong>Congratulations! </strong> Your have finished all the survey. Thank you for your participation!</p><p><strong>Here is your complete token:</strong></p>vgjlp964o3hxcqec8rmt1ij9<p></p><p><strong>Please copy it to the mTurk page.</strong></p>","0",""
