"success","timeout","failed_images","failed_audio","failed_video","trial_type","trial_index","time_elapsed","internal_node_id","run_id","condition","recorded_at","source_code_version","ip","user_agent","device","browser","browser_version","platform","platform_version","rt","stimulus","response","question_order"
"true","false","[]","[]","[]","preload","0","531","0.0-0.0","29","1","2023-06-09 16:24:44","846205d480aaa49f22c83d5c8cececc8","121.91.230.31","Mozilla/5.0 (Windows NT 10.0; Win64; x64) AppleWebKit/537.36 (KHTML, like Gecko) Chrome/115.0.0.0 Safari/537.36","WebKit","Chrome","115.0.0.0","Windows","10.0","","","",""
"true","","","","","fullscreen","1","7572","0.0-1.0","29","1","2023-06-09 16:24:44","846205d480aaa49f22c83d5c8cececc8","121.91.230.31","Mozilla/5.0 (Windows NT 10.0; Win64; x64) AppleWebKit/537.36 (KHTML, like Gecko) Chrome/115.0.0.0 Safari/537.36","WebKit","Chrome","115.0.0.0","Windows","10.0","","","",""
"","","","","","html-button-response","2","12695","0.0-2.0","29","1","2023-06-09 16:24:44","846205d480aaa49f22c83d5c8cececc8","121.91.230.31","Mozilla/5.0 (Windows NT 10.0; Win64; x64) AppleWebKit/537.36 (KHTML, like Gecko) Chrome/115.0.0.0 Safari/537.36","WebKit","Chrome","115.0.0.0","Windows","10.0","5120","<p ><strong>Welcome to the experiment!</strong></p><p ><strong>In the first task, please imagine:</strong></p><p>Your country is involved in a military conflict with another country.</p><p>You are the commander of your army and must make decisions in the conflict.</p><p>Specifically, as the military commander, you must decide whether to launch a missile to strike enemy.</p><p>You will face a series of scenarios. Please read each scenario carefully and make a decision.</p><p>The task will take around 10 minutes to complete.</p><p><strong>Please pay your attention during the experiment.</strong></p>","0",""
"","","","","","html-keyboard-response","3","13696","0.0-3.0-0.0","29","1","2023-06-09 16:24:44","846205d480aaa49f22c83d5c8cececc8","121.91.230.31","Mozilla/5.0 (Windows NT 10.0; Win64; x64) AppleWebKit/537.36 (KHTML, like Gecko) Chrome/115.0.0.0 Safari/537.36","WebKit","Chrome","115.0.0.0","Windows","10.0","null","<div style=""font-size:60px;"">+</div>","null",""
"","","","","","html-button-response","4","92222","0.0-3.0-1.0","29","1","2023-06-09 16:24:44","846205d480aaa49f22c83d5c8cececc8","121.91.230.31","Mozilla/5.0 (Windows NT 10.0; Win64; x64) AppleWebKit/537.36 (KHTML, like Gecko) Chrome/115.0.0.0 Safari/537.36","WebKit","Chrome","115.0.0.0","Windows","10.0","78524","<p>As the military commander, you could choose to launch a missile to kill <strong>2 enemy soldiers</strong> , but would accidentally kill <strong>1 enemy civilian</strong> nearby.</p> <p>The photo of the <strong>enemy civilian</strong> is shown below.</p> <p></p> <img src='stimuli/faces/PCM1.jpg', style='max-width: 30%;'> </img> <p><strong>Would you launch the weapon?</strong></p>","0",""
"","","","","","html-keyboard-response","5","93230","0.0-3.0-0.1","29","1","2023-06-09 16:24:44","846205d480aaa49f22c83d5c8cececc8","121.91.230.31","Mozilla/5.0 (Windows NT 10.0; Win64; x64) AppleWebKit/537.36 (KHTML, like Gecko) Chrome/115.0.0.0 Safari/537.36","WebKit","Chrome","115.0.0.0","Windows","10.0","null","<div style=""font-size:60px;"">+</div>","null",""
"","","","","","html-button-response","6","102798","0.0-3.0-1.1","29","1","2023-06-09 16:24:44","846205d480aaa49f22c83d5c8cececc8","121.91.230.31","Mozilla/5.0 (Windows NT 10.0; Win64; x64) AppleWebKit/537.36 (KHTML, like Gecko) Chrome/115.0.0.0 Safari/537.36","WebKit","Chrome","115.0.0.0","Windows","10.0","9565","<p>As the military commander, you could choose to launch a missile to kill <strong>4 enemy soldiers</strong> , but would accidentally kill <strong>1 enemy tree</strong> nearby.</p> <p>The photo of the <strong>enemy tree</strong> is shown below.</p> <p></p> <img src='stimuli/tree/3.png', style='max-width: 30%;'> </img> <p><strong>Would you launch the weapon?</strong></p>","0",""
"","","","","","html-keyboard-response","7","103806","0.0-3.0-0.2","29","1","2023-06-09 16:24:44","846205d480aaa49f22c83d5c8cececc8","121.91.230.31","Mozilla/5.0 (Windows NT 10.0; Win64; x64) AppleWebKit/537.36 (KHTML, like Gecko) Chrome/115.0.0.0 Safari/537.36","WebKit","Chrome","115.0.0.0","Windows","10.0","null","<div style=""font-size:60px;"">+</div>","null",""
"","","","","","html-button-response","8","106079","0.0-3.0-1.2","29","1","2023-06-09 16:24:44","846205d480aaa49f22c83d5c8cececc8","121.91.230.31","Mozilla/5.0 (Windows NT 10.0; Win64; x64) AppleWebKit/537.36 (KHTML, like Gecko) Chrome/115.0.0.0 Safari/537.36","WebKit","Chrome","115.0.0.0","Windows","10.0","2270","<p>As the military commander, you could choose to launch a missile to kill <strong>4 enemy soldiers</strong> , but would accidentally kill <strong>1 enemy tree</strong> nearby.</p> <p>The photo of the <strong>enemy tree</strong> is shown below.</p> <p></p> <img src='stimuli/tree/7.png', style='max-width: 30%;'> </img> <p><strong>Would you launch the weapon?</strong></p>","0",""
"","","","","","html-keyboard-response","9","107085","0.0-3.0-0.3","29","1","2023-06-09 16:24:44","846205d480aaa49f22c83d5c8cececc8","121.91.230.31","Mozilla/5.0 (Windows NT 10.0; Win64; x64) AppleWebKit/537.36 (KHTML, like Gecko) Chrome/115.0.0.0 Safari/537.36","WebKit","Chrome","115.0.0.0","Windows","10.0","null","<div style=""font-size:60px;"">+</div>","null",""
"","","","","","html-button-response","10","109445","0.0-3.0-1.3","29","1","2023-06-09 16:24:44","846205d480aaa49f22c83d5c8cececc8","121.91.230.31","Mozilla/5.0 (Windows NT 10.0; Win64; x64) AppleWebKit/537.36 (KHTML, like Gecko) Chrome/115.0.0.0 Safari/537.36","WebKit","Chrome","115.0.0.0","Windows","10.0","2357","<p>As the military commander, you could choose to launch a missile to kill <strong>2 enemy soldiers</strong> , but would accidentally kill <strong>1 enemy civilian</strong> nearby.</p> <p>The photo of the <strong>enemy civilian</strong> is shown below.</p> <p></p> <img src='stimuli/faces/PCM2.jpg', style='max-width: 30%;'> </img> <p><strong>Would you launch the weapon?</strong></p>","0",""
"","","","","","html-keyboard-response","11","110447","0.0-3.0-0.4","29","1","2023-06-09 16:24:44","846205d480aaa49f22c83d5c8cececc8","121.91.230.31","Mozilla/5.0 (Windows NT 10.0; Win64; x64) AppleWebKit/537.36 (KHTML, like Gecko) Chrome/115.0.0.0 Safari/537.36","WebKit","Chrome","115.0.0.0","Windows","10.0","null","<div style=""font-size:60px;"">+</div>","null",""
"","","","","","html-button-response","12","112485","0.0-3.0-1.4","29","1","2023-06-09 16:24:44","846205d480aaa49f22c83d5c8cececc8","121.91.230.31","Mozilla/5.0 (Windows NT 10.0; Win64; x64) AppleWebKit/537.36 (KHTML, like Gecko) Chrome/115.0.0.0 Safari/537.36","WebKit","Chrome","115.0.0.0","Windows","10.0","2035","<p>As the military commander, you could choose to launch a missile to kill <strong>3 enemy soldiers</strong> , but would accidentally kill <strong>1 enemy civilian</strong> nearby.</p> <p>The photo of the <strong>enemy civilian</strong> is shown below.</p> <p></p> <img src='stimuli/faces/PCF8.jpg', style='max-width: 30%;'> </img> <p><strong>Would you launch the weapon?</strong></p>","0",""
"","","","","","html-keyboard-response","13","113488","0.0-3.0-0.5","29","1","2023-06-09 16:24:44","846205d480aaa49f22c83d5c8cececc8","121.91.230.31","Mozilla/5.0 (Windows NT 10.0; Win64; x64) AppleWebKit/537.36 (KHTML, like Gecko) Chrome/115.0.0.0 Safari/537.36","WebKit","Chrome","115.0.0.0","Windows","10.0","null","<div style=""font-size:60px;"">+</div>","null",""
"","","","","","html-button-response","14","116198","0.0-3.0-1.5","29","1","2023-06-09 16:24:44","846205d480aaa49f22c83d5c8cececc8","121.91.230.31","Mozilla/5.0 (Windows NT 10.0; Win64; x64) AppleWebKit/537.36 (KHTML, like Gecko) Chrome/115.0.0.0 Safari/537.36","WebKit","Chrome","115.0.0.0","Windows","10.0","2708","<p>As the military commander, you could choose to launch a missile to kill <strong>7 enemy soldiers</strong> , but would accidentally kill <strong>1 enemy tree</strong> nearby.</p> <p>The photo of the <strong>enemy tree</strong> is shown below.</p> <p></p> <img src='stimuli/tree/16.png', style='max-width: 30%;'> </img> <p><strong>Would you launch the weapon?</strong></p>","0",""
"","","","","","html-keyboard-response","15","117200","0.0-3.0-0.6","29","1","2023-06-09 16:24:44","846205d480aaa49f22c83d5c8cececc8","121.91.230.31","Mozilla/5.0 (Windows NT 10.0; Win64; x64) AppleWebKit/537.36 (KHTML, like Gecko) Chrome/115.0.0.0 Safari/537.36","WebKit","Chrome","115.0.0.0","Windows","10.0","null","<div style=""font-size:60px;"">+</div>","null",""
"","","","","","html-button-response","16","132573","0.0-3.0-1.6","29","1","2023-06-09 16:24:44","846205d480aaa49f22c83d5c8cececc8","121.91.230.31","Mozilla/5.0 (Windows NT 10.0; Win64; x64) AppleWebKit/537.36 (KHTML, like Gecko) Chrome/115.0.0.0 Safari/537.36","WebKit","Chrome","115.0.0.0","Windows","10.0","15369","<p>As the military commander, you could choose to launch a missile to kill <strong>6 enemy soldiers</strong> , but would accidentally kill <strong>1 enemy civilian</strong> nearby.</p> <p>The photo of the <strong>enemy civilian</strong> is shown below.</p> <p></p> <img src='stimuli/faces/PCF2.jpg', style='max-width: 30%;'> </img> <p><strong>Would you launch the weapon?</strong></p>","0",""
"","","","","","html-keyboard-response","17","133574","0.0-3.0-0.7","29","1","2023-06-09 16:24:44","846205d480aaa49f22c83d5c8cececc8","121.91.230.31","Mozilla/5.0 (Windows NT 10.0; Win64; x64) AppleWebKit/537.36 (KHTML, like Gecko) Chrome/115.0.0.0 Safari/537.36","WebKit","Chrome","115.0.0.0","Windows","10.0","null","<div style=""font-size:60px;"">+</div>","null",""
"","","","","","html-button-response","18","136942","0.0-3.0-1.7","29","1","2023-06-09 16:24:44","846205d480aaa49f22c83d5c8cececc8","121.91.230.31","Mozilla/5.0 (Windows NT 10.0; Win64; x64) AppleWebKit/537.36 (KHTML, like Gecko) Chrome/115.0.0.0 Safari/537.36","WebKit","Chrome","115.0.0.0","Windows","10.0","3366","<p>As the military commander, you could choose to launch a missile to kill <strong>1 enemy soldier</strong> , but would accidentally kill <strong>1 enemy civilian</strong> nearby.</p> <p>The photo of the <strong>enemy civilian</strong> is shown below.</p> <p></p> <img src='stimuli/faces/PCM4.jpg', style='max-width: 30%;'> </img> <p><strong>Would you launch the weapon?</strong></p>","0",""
"","","","","","html-keyboard-response","19","137944","0.0-3.0-0.8","29","1","2023-06-09 16:24:44","846205d480aaa49f22c83d5c8cececc8","121.91.230.31","Mozilla/5.0 (Windows NT 10.0; Win64; x64) AppleWebKit/537.36 (KHTML, like Gecko) Chrome/115.0.0.0 Safari/537.36","WebKit","Chrome","115.0.0.0","Windows","10.0","null","<div style=""font-size:60px;"">+</div>","null",""
"","","","","","html-button-response","20","267829","0.0-3.0-1.8","29","1","2023-06-09 16:24:44","846205d480aaa49f22c83d5c8cececc8","121.91.230.31","Mozilla/5.0 (Windows NT 10.0; Win64; x64) AppleWebKit/537.36 (KHTML, like Gecko) Chrome/115.0.0.0 Safari/537.36","WebKit","Chrome","115.0.0.0","Windows","10.0","129883","<p>As the military commander, you could choose to launch a missile to kill <strong>2 enemy soldiers</strong> , but would accidentally kill <strong>1 enemy tree</strong> nearby.</p> <p>The photo of the <strong>enemy tree</strong> is shown below.</p> <p></p> <img src='stimuli/tree/6.png', style='max-width: 30%;'> </img> <p><strong>Would you launch the weapon?</strong></p>","0",""
"","","","","","html-keyboard-response","21","268833","0.0-3.0-0.9","29","1","2023-06-09 16:24:44","846205d480aaa49f22c83d5c8cececc8","121.91.230.31","Mozilla/5.0 (Windows NT 10.0; Win64; x64) AppleWebKit/537.36 (KHTML, like Gecko) Chrome/115.0.0.0 Safari/537.36","WebKit","Chrome","115.0.0.0","Windows","10.0","null","<div style=""font-size:60px;"">+</div>","null",""
"","","","","","html-button-response","22","301829","0.0-3.0-1.9","29","1","2023-06-09 16:24:44","846205d480aaa49f22c83d5c8cececc8","121.91.230.31","Mozilla/5.0 (Windows NT 10.0; Win64; x64) AppleWebKit/537.36 (KHTML, like Gecko) Chrome/115.0.0.0 Safari/537.36","WebKit","Chrome","115.0.0.0","Windows","10.0","32983","<p>As the military commander, you could choose to launch a missile to kill <strong>8 enemy soldiers</strong> , but would accidentally kill <strong>1 enemy civilian</strong> nearby.</p> <p>The photo of the <strong>enemy civilian</strong> is shown below.</p> <p></p> <img src='stimuli/faces/PCF3.jpg', style='max-width: 30%;'> </img> <p><strong>Would you launch the weapon?</strong></p>","0",""
"","","","","","html-keyboard-response","23","302842","0.0-3.0-0.10","29","1","2023-06-09 16:24:44","846205d480aaa49f22c83d5c8cececc8","121.91.230.31","Mozilla/5.0 (Windows NT 10.0; Win64; x64) AppleWebKit/537.36 (KHTML, like Gecko) Chrome/115.0.0.0 Safari/537.36","WebKit","Chrome","115.0.0.0","Windows","10.0","null","<div style=""font-size:60px;"">+</div>","null",""
"","","","","","html-button-response","24","362476","0.0-3.0-1.10","29","1","2023-06-09 16:24:44","846205d480aaa49f22c83d5c8cececc8","121.91.230.31","Mozilla/5.0 (Windows NT 10.0; Win64; x64) AppleWebKit/537.36 (KHTML, like Gecko) Chrome/115.0.0.0 Safari/537.36","WebKit","Chrome","115.0.0.0","Windows","10.0","59632","<p>As the military commander, you could choose to launch a missile to kill <strong>7 enemy soldiers</strong> , but would accidentally kill <strong>1 enemy civilian</strong> nearby.</p> <p>The photo of the <strong>enemy civilian</strong> is shown below.</p> <p></p> <img src='stimuli/faces/PCF1.jpg', style='max-width: 30%;'> </img> <p><strong>Would you launch the weapon?</strong></p>","0",""
"","","","","","html-keyboard-response","25","363480","0.0-3.0-0.11","29","1","2023-06-09 16:24:44","846205d480aaa49f22c83d5c8cececc8","121.91.230.31","Mozilla/5.0 (Windows NT 10.0; Win64; x64) AppleWebKit/537.36 (KHTML, like Gecko) Chrome/115.0.0.0 Safari/537.36","WebKit","Chrome","115.0.0.0","Windows","10.0","null","<div style=""font-size:60px;"">+</div>","null",""
"","","","","","html-button-response","26","373275","0.0-3.0-1.11","29","1","2023-06-09 16:24:44","846205d480aaa49f22c83d5c8cececc8","121.91.230.31","Mozilla/5.0 (Windows NT 10.0; Win64; x64) AppleWebKit/537.36 (KHTML, like Gecko) Chrome/115.0.0.0 Safari/537.36","WebKit","Chrome","115.0.0.0","Windows","10.0","9792","<p>As the military commander, you could choose to launch a missile to kill <strong>5 enemy soldiers</strong> , but would accidentally kill <strong>1 enemy tree</strong> nearby.</p> <p>The photo of the <strong>enemy tree</strong> is shown below.</p> <p></p> <img src='stimuli/tree/2.png', style='max-width: 30%;'> </img> <p><strong>Would you launch the weapon?</strong></p>","0",""
"","","","","","html-keyboard-response","27","374277","0.0-3.0-0.12","29","1","2023-06-09 16:24:44","846205d480aaa49f22c83d5c8cececc8","121.91.230.31","Mozilla/5.0 (Windows NT 10.0; Win64; x64) AppleWebKit/537.36 (KHTML, like Gecko) Chrome/115.0.0.0 Safari/537.36","WebKit","Chrome","115.0.0.0","Windows","10.0","null","<div style=""font-size:60px;"">+</div>","null",""
"","","","","","html-button-response","28","376493","0.0-3.0-1.12","29","1","2023-06-09 16:24:44","846205d480aaa49f22c83d5c8cececc8","121.91.230.31","Mozilla/5.0 (Windows NT 10.0; Win64; x64) AppleWebKit/537.36 (KHTML, like Gecko) Chrome/115.0.0.0 Safari/537.36","WebKit","Chrome","115.0.0.0","Windows","10.0","2213","<p>As the military commander, you could choose to launch a missile to kill <strong>7 enemy soldiers</strong> , but would accidentally kill <strong>1 enemy tree</strong> nearby.</p> <p>The photo of the <strong>enemy tree</strong> is shown below.</p> <p></p> <img src='stimuli/tree/4.png', style='max-width: 30%;'> </img> <p><strong>Would you launch the weapon?</strong></p>","0",""
"","","","","","html-keyboard-response","29","377496","0.0-3.0-0.13","29","1","2023-06-09 16:24:44","846205d480aaa49f22c83d5c8cececc8","121.91.230.31","Mozilla/5.0 (Windows NT 10.0; Win64; x64) AppleWebKit/537.36 (KHTML, like Gecko) Chrome/115.0.0.0 Safari/537.36","WebKit","Chrome","115.0.0.0","Windows","10.0","null","<div style=""font-size:60px;"">+</div>","null",""
"","","","","","html-button-response","30","391445","0.0-3.0-1.13","29","1","2023-06-09 16:24:44","846205d480aaa49f22c83d5c8cececc8","121.91.230.31","Mozilla/5.0 (Windows NT 10.0; Win64; x64) AppleWebKit/537.36 (KHTML, like Gecko) Chrome/115.0.0.0 Safari/537.36","WebKit","Chrome","115.0.0.0","Windows","10.0","13944","<p>As the military commander, you could choose to launch a missile to kill <strong>1 enemy soldier</strong> , but would accidentally kill <strong>1 enemy civilian</strong> nearby.</p> <p>The photo of the <strong>enemy civilian</strong> is shown below.</p> <p></p> <img src='stimuli/faces/PCM5.jpg', style='max-width: 30%;'> </img> <p><strong>Would you launch the weapon?</strong></p>","0",""
"","","","","","html-keyboard-response","31","392458","0.0-3.0-0.14","29","1","2023-06-09 16:24:44","846205d480aaa49f22c83d5c8cececc8","121.91.230.31","Mozilla/5.0 (Windows NT 10.0; Win64; x64) AppleWebKit/537.36 (KHTML, like Gecko) Chrome/115.0.0.0 Safari/537.36","WebKit","Chrome","115.0.0.0","Windows","10.0","null","<div style=""font-size:60px;"">+</div>","null",""
"","","","","","html-button-response","32","396971","0.0-3.0-1.14","29","1","2023-06-09 16:24:44","846205d480aaa49f22c83d5c8cececc8","121.91.230.31","Mozilla/5.0 (Windows NT 10.0; Win64; x64) AppleWebKit/537.36 (KHTML, like Gecko) Chrome/115.0.0.0 Safari/537.36","WebKit","Chrome","115.0.0.0","Windows","10.0","4509","<p>As the military commander, you could choose to launch a missile to kill <strong>9 enemy soldiers</strong> , but would accidentally kill <strong>1 enemy tree</strong> nearby.</p> <p>The photo of the <strong>enemy tree</strong> is shown below.</p> <p></p> <img src='stimuli/tree/5.png', style='max-width: 30%;'> </img> <p><strong>Would you launch the weapon?</strong></p>","0",""
"","","","","","html-keyboard-response","33","397979","0.0-3.0-0.15","29","1","2023-06-09 16:24:44","846205d480aaa49f22c83d5c8cececc8","121.91.230.31","Mozilla/5.0 (Windows NT 10.0; Win64; x64) AppleWebKit/537.36 (KHTML, like Gecko) Chrome/115.0.0.0 Safari/537.36","WebKit","Chrome","115.0.0.0","Windows","10.0","null","<div style=""font-size:60px;"">+</div>","null",""
"","","","","","html-button-response","34","407338","0.0-3.0-1.15","29","1","2023-06-09 16:24:44","846205d480aaa49f22c83d5c8cececc8","121.91.230.31","Mozilla/5.0 (Windows NT 10.0; Win64; x64) AppleWebKit/537.36 (KHTML, like Gecko) Chrome/115.0.0.0 Safari/537.36","WebKit","Chrome","115.0.0.0","Windows","10.0","9355","<p>As the military commander, you could choose to launch a missile to kill <strong>3 enemy soldiers</strong> , but would accidentally kill <strong>1 enemy tree</strong> nearby.</p> <p>The photo of the <strong>enemy tree</strong> is shown below.</p> <p></p> <img src='stimuli/tree/13.png', style='max-width: 30%;'> </img> <p><strong>Would you launch the weapon?</strong></p>","0",""
"","","","","","html-keyboard-response","35","408342","0.0-3.0-0.16","29","1","2023-06-09 16:24:44","846205d480aaa49f22c83d5c8cececc8","121.91.230.31","Mozilla/5.0 (Windows NT 10.0; Win64; x64) AppleWebKit/537.36 (KHTML, like Gecko) Chrome/115.0.0.0 Safari/537.36","WebKit","Chrome","115.0.0.0","Windows","10.0","null","<div style=""font-size:60px;"">+</div>","null",""
"","","","","","html-button-response","36","410340","0.0-3.0-1.16","29","1","2023-06-09 16:24:44","846205d480aaa49f22c83d5c8cececc8","121.91.230.31","Mozilla/5.0 (Windows NT 10.0; Win64; x64) AppleWebKit/537.36 (KHTML, like Gecko) Chrome/115.0.0.0 Safari/537.36","WebKit","Chrome","115.0.0.0","Windows","10.0","1995","<p>As the military commander, you could choose to launch a missile to kill <strong>9 enemy soldiers</strong> , but would accidentally kill <strong>1 enemy civilian</strong> nearby.</p> <p>The photo of the <strong>enemy civilian</strong> is shown below.</p> <p></p> <img src='stimuli/faces/PCF6.jpg', style='max-width: 30%;'> </img> <p><strong>Would you launch the weapon?</strong></p>","0",""
"","","","","","html-keyboard-response","37","411343","0.0-3.0-0.17","29","1","2023-06-09 16:24:44","846205d480aaa49f22c83d5c8cececc8","121.91.230.31","Mozilla/5.0 (Windows NT 10.0; Win64; x64) AppleWebKit/537.36 (KHTML, like Gecko) Chrome/115.0.0.0 Safari/537.36","WebKit","Chrome","115.0.0.0","Windows","10.0","null","<div style=""font-size:60px;"">+</div>","null",""
"","","","","","html-button-response","38","413463","0.0-3.0-1.17","29","1","2023-06-09 16:24:44","846205d480aaa49f22c83d5c8cececc8","121.91.230.31","Mozilla/5.0 (Windows NT 10.0; Win64; x64) AppleWebKit/537.36 (KHTML, like Gecko) Chrome/115.0.0.0 Safari/537.36","WebKit","Chrome","115.0.0.0","Windows","10.0","2117","<p>As the military commander, you could choose to launch a missile to kill <strong>6 enemy soldiers</strong> , but would accidentally kill <strong>1 enemy tree</strong> nearby.</p> <p>The photo of the <strong>enemy tree</strong> is shown below.</p> <p></p> <img src='stimuli/tree/3.png', style='max-width: 30%;'> </img> <p><strong>Would you launch the weapon?</strong></p>","0",""
"","","","","","html-keyboard-response","39","414467","0.0-3.0-0.18","29","1","2023-06-09 16:24:44","846205d480aaa49f22c83d5c8cececc8","121.91.230.31","Mozilla/5.0 (Windows NT 10.0; Win64; x64) AppleWebKit/537.36 (KHTML, like Gecko) Chrome/115.0.0.0 Safari/537.36","WebKit","Chrome","115.0.0.0","Windows","10.0","null","<div style=""font-size:60px;"">+</div>","null",""
"","","","","","html-button-response","40","416630","0.0-3.0-1.18","29","1","2023-06-09 16:24:44","846205d480aaa49f22c83d5c8cececc8","121.91.230.31","Mozilla/5.0 (Windows NT 10.0; Win64; x64) AppleWebKit/537.36 (KHTML, like Gecko) Chrome/115.0.0.0 Safari/537.36","WebKit","Chrome","115.0.0.0","Windows","10.0","2159","<p>As the military commander, you could choose to launch a missile to kill <strong>1 enemy soldier</strong> , but would accidentally kill <strong>1 enemy tree</strong> nearby.</p> <p>The photo of the <strong>enemy tree</strong> is shown below.</p> <p></p> <img src='stimuli/tree/1.png', style='max-width: 30%;'> </img> <p><strong>Would you launch the weapon?</strong></p>","0",""
"","","","","","html-keyboard-response","41","417632","0.0-3.0-0.19","29","1","2023-06-09 16:24:44","846205d480aaa49f22c83d5c8cececc8","121.91.230.31","Mozilla/5.0 (Windows NT 10.0; Win64; x64) AppleWebKit/537.36 (KHTML, like Gecko) Chrome/115.0.0.0 Safari/537.36","WebKit","Chrome","115.0.0.0","Windows","10.0","null","<div style=""font-size:60px;"">+</div>","null",""
"","","","","","html-button-response","42","420787","0.0-3.0-1.19","29","1","2023-06-09 16:24:44","846205d480aaa49f22c83d5c8cececc8","121.91.230.31","Mozilla/5.0 (Windows NT 10.0; Win64; x64) AppleWebKit/537.36 (KHTML, like Gecko) Chrome/115.0.0.0 Safari/537.36","WebKit","Chrome","115.0.0.0","Windows","10.0","3152","<p>As the military commander, you could choose to launch a missile to kill <strong>8 enemy soldiers</strong> , but would accidentally kill <strong>1 enemy civilian</strong> nearby.</p> <p>The photo of the <strong>enemy civilian</strong> is shown below.</p> <p></p> <img src='stimuli/faces/PCM8.jpg', style='max-width: 30%;'> </img> <p><strong>Would you launch the weapon?</strong></p>","0",""
"","","","","","html-keyboard-response","43","421802","0.0-3.0-0.20","29","1","2023-06-09 16:24:44","846205d480aaa49f22c83d5c8cececc8","121.91.230.31","Mozilla/5.0 (Windows NT 10.0; Win64; x64) AppleWebKit/537.36 (KHTML, like Gecko) Chrome/115.0.0.0 Safari/537.36","WebKit","Chrome","115.0.0.0","Windows","10.0","null","<div style=""font-size:60px;"">+</div>","null",""
"","","","","","html-button-response","44","423683","0.0-3.0-1.20","29","1","2023-06-09 16:24:44","846205d480aaa49f22c83d5c8cececc8","121.91.230.31","Mozilla/5.0 (Windows NT 10.0; Win64; x64) AppleWebKit/537.36 (KHTML, like Gecko) Chrome/115.0.0.0 Safari/537.36","WebKit","Chrome","115.0.0.0","Windows","10.0","1877","<p>As the military commander, you could choose to launch a missile to kill <strong>1 enemy soldier</strong> , but would accidentally kill <strong>1 enemy civilian</strong> nearby.</p> <p>The photo of the <strong>enemy civilian</strong> is shown below.</p> <p></p> <img src='stimuli/faces/PCM6.jpg', style='max-width: 30%;'> </img> <p><strong>Would you launch the weapon?</strong></p>","0",""
"","","","","","html-keyboard-response","45","424687","0.0-3.0-0.21","29","1","2023-06-09 16:24:44","846205d480aaa49f22c83d5c8cececc8","121.91.230.31","Mozilla/5.0 (Windows NT 10.0; Win64; x64) AppleWebKit/537.36 (KHTML, like Gecko) Chrome/115.0.0.0 Safari/537.36","WebKit","Chrome","115.0.0.0","Windows","10.0","null","<div style=""font-size:60px;"">+</div>","null",""
"","","","","","html-button-response","46","426187","0.0-3.0-1.21","29","1","2023-06-09 16:24:44","846205d480aaa49f22c83d5c8cececc8","121.91.230.31","Mozilla/5.0 (Windows NT 10.0; Win64; x64) AppleWebKit/537.36 (KHTML, like Gecko) Chrome/115.0.0.0 Safari/537.36","WebKit","Chrome","115.0.0.0","Windows","10.0","1497","<p>As the military commander, you could choose to launch a missile to kill <strong>9 enemy soldiers</strong> , but would accidentally kill <strong>1 enemy civilian</strong> nearby.</p> <p>The photo of the <strong>enemy civilian</strong> is shown below.</p> <p></p> <img src='stimuli/faces/PCM5.jpg', style='max-width: 30%;'> </img> <p><strong>Would you launch the weapon?</strong></p>","0",""
"","","","","","html-keyboard-response","47","427200","0.0-3.0-0.22","29","1","2023-06-09 16:24:44","846205d480aaa49f22c83d5c8cececc8","121.91.230.31","Mozilla/5.0 (Windows NT 10.0; Win64; x64) AppleWebKit/537.36 (KHTML, like Gecko) Chrome/115.0.0.0 Safari/537.36","WebKit","Chrome","115.0.0.0","Windows","10.0","null","<div style=""font-size:60px;"">+</div>","null",""
"","","","","","html-button-response","48","439122","0.0-3.0-1.22","29","1","2023-06-09 16:24:44","846205d480aaa49f22c83d5c8cececc8","121.91.230.31","Mozilla/5.0 (Windows NT 10.0; Win64; x64) AppleWebKit/537.36 (KHTML, like Gecko) Chrome/115.0.0.0 Safari/537.36","WebKit","Chrome","115.0.0.0","Windows","10.0","11920","<p>As the military commander, you could choose to launch a missile to kill <strong>1 enemy soldier</strong> , but would accidentally kill <strong>1 enemy civilian</strong> nearby.</p> <p>The photo of the <strong>enemy civilian</strong> is shown below.</p> <p></p> <img src='stimuli/faces/PCM8.jpg', style='max-width: 30%;'> </img> <p><strong>Would you launch the weapon?</strong></p>","0",""
"","","","","","html-keyboard-response","49","440125","0.0-3.0-0.23","29","1","2023-06-09 16:24:44","846205d480aaa49f22c83d5c8cececc8","121.91.230.31","Mozilla/5.0 (Windows NT 10.0; Win64; x64) AppleWebKit/537.36 (KHTML, like Gecko) Chrome/115.0.0.0 Safari/537.36","WebKit","Chrome","115.0.0.0","Windows","10.0","null","<div style=""font-size:60px;"">+</div>","null",""
"","","","","","html-button-response","50","442147","0.0-3.0-1.23","29","1","2023-06-09 16:24:44","846205d480aaa49f22c83d5c8cececc8","121.91.230.31","Mozilla/5.0 (Windows NT 10.0; Win64; x64) AppleWebKit/537.36 (KHTML, like Gecko) Chrome/115.0.0.0 Safari/537.36","WebKit","Chrome","115.0.0.0","Windows","10.0","2019","<p>As the military commander, you could choose to launch a missile to kill <strong>9 enemy soldiers</strong> , but would accidentally kill <strong>1 enemy civilian</strong> nearby.</p> <p>The photo of the <strong>enemy civilian</strong> is shown below.</p> <p></p> <img src='stimuli/faces/PCM3.jpg', style='max-width: 30%;'> </img> <p><strong>Would you launch the weapon?</strong></p>","0",""
"","","","","","html-keyboard-response","51","443149","0.0-3.0-0.24","29","1","2023-06-09 16:24:44","846205d480aaa49f22c83d5c8cececc8","121.91.230.31","Mozilla/5.0 (Windows NT 10.0; Win64; x64) AppleWebKit/537.36 (KHTML, like Gecko) Chrome/115.0.0.0 Safari/537.36","WebKit","Chrome","115.0.0.0","Windows","10.0","null","<div style=""font-size:60px;"">+</div>","null",""
"","","","","","html-button-response","52","445346","0.0-3.0-1.24","29","1","2023-06-09 16:24:44","846205d480aaa49f22c83d5c8cececc8","121.91.230.31","Mozilla/5.0 (Windows NT 10.0; Win64; x64) AppleWebKit/537.36 (KHTML, like Gecko) Chrome/115.0.0.0 Safari/537.36","WebKit","Chrome","115.0.0.0","Windows","10.0","2195","<p>As the military commander, you could choose to launch a missile to kill <strong>4 enemy soldiers</strong> , but would accidentally kill <strong>1 enemy civilian</strong> nearby.</p> <p>The photo of the <strong>enemy civilian</strong> is shown below.</p> <p></p> <img src='stimuli/faces/PCM7.jpg', style='max-width: 30%;'> </img> <p><strong>Would you launch the weapon?</strong></p>","0",""
"","","","","","html-keyboard-response","53","446350","0.0-3.0-0.25","29","1","2023-06-09 16:24:44","846205d480aaa49f22c83d5c8cececc8","121.91.230.31","Mozilla/5.0 (Windows NT 10.0; Win64; x64) AppleWebKit/537.36 (KHTML, like Gecko) Chrome/115.0.0.0 Safari/537.36","WebKit","Chrome","115.0.0.0","Windows","10.0","null","<div style=""font-size:60px;"">+</div>","null",""
"","","","","","html-button-response","54","448237","0.0-3.0-1.25","29","1","2023-06-09 16:24:44","846205d480aaa49f22c83d5c8cececc8","121.91.230.31","Mozilla/5.0 (Windows NT 10.0; Win64; x64) AppleWebKit/537.36 (KHTML, like Gecko) Chrome/115.0.0.0 Safari/537.36","WebKit","Chrome","115.0.0.0","Windows","10.0","1884","<p>As the military commander, you could choose to launch a missile to kill <strong>1 enemy soldier</strong> , but would accidentally kill <strong>1 enemy civilian</strong> nearby.</p> <p>The photo of the <strong>enemy civilian</strong> is shown below.</p> <p></p> <img src='stimuli/faces/PCF4.jpg', style='max-width: 30%;'> </img> <p><strong>Would you launch the weapon?</strong></p>","0",""
"","","","","","html-keyboard-response","55","449250","0.0-3.0-0.26","29","1","2023-06-09 16:24:44","846205d480aaa49f22c83d5c8cececc8","121.91.230.31","Mozilla/5.0 (Windows NT 10.0; Win64; x64) AppleWebKit/537.36 (KHTML, like Gecko) Chrome/115.0.0.0 Safari/537.36","WebKit","Chrome","115.0.0.0","Windows","10.0","null","<div style=""font-size:60px;"">+</div>","null",""
"","","","","","html-button-response","56","451475","0.0-3.0-1.26","29","1","2023-06-09 16:24:44","846205d480aaa49f22c83d5c8cececc8","121.91.230.31","Mozilla/5.0 (Windows NT 10.0; Win64; x64) AppleWebKit/537.36 (KHTML, like Gecko) Chrome/115.0.0.0 Safari/537.36","WebKit","Chrome","115.0.0.0","Windows","10.0","2221","<p>As the military commander, you could choose to launch a missile to kill <strong>4 enemy soldiers</strong> , but would accidentally kill <strong>1 enemy civilian</strong> nearby.</p> <p>The photo of the <strong>enemy civilian</strong> is shown below.</p> <p></p> <img src='stimuli/faces/PCF2.jpg', style='max-width: 30%;'> </img> <p><strong>Would you launch the weapon?</strong></p>","0",""
"","","","","","html-keyboard-response","57","452479","0.0-3.0-0.27","29","1","2023-06-09 16:24:44","846205d480aaa49f22c83d5c8cececc8","121.91.230.31","Mozilla/5.0 (Windows NT 10.0; Win64; x64) AppleWebKit/537.36 (KHTML, like Gecko) Chrome/115.0.0.0 Safari/537.36","WebKit","Chrome","115.0.0.0","Windows","10.0","null","<div style=""font-size:60px;"">+</div>","null",""
"","","","","","html-button-response","58","454674","0.0-3.0-1.27","29","1","2023-06-09 16:24:44","846205d480aaa49f22c83d5c8cececc8","121.91.230.31","Mozilla/5.0 (Windows NT 10.0; Win64; x64) AppleWebKit/537.36 (KHTML, like Gecko) Chrome/115.0.0.0 Safari/537.36","WebKit","Chrome","115.0.0.0","Windows","10.0","2192","<p>As the military commander, you could choose to launch a missile to kill <strong>2 enemy soldiers</strong> , but would accidentally kill <strong>1 enemy civilian</strong> nearby.</p> <p>The photo of the <strong>enemy civilian</strong> is shown below.</p> <p></p> <img src='stimuli/faces/PCF6.jpg', style='max-width: 30%;'> </img> <p><strong>Would you launch the weapon?</strong></p>","0",""
"","","","","","html-keyboard-response","59","455676","0.0-3.0-0.28","29","1","2023-06-09 16:24:44","846205d480aaa49f22c83d5c8cececc8","121.91.230.31","Mozilla/5.0 (Windows NT 10.0; Win64; x64) AppleWebKit/537.36 (KHTML, like Gecko) Chrome/115.0.0.0 Safari/537.36","WebKit","Chrome","115.0.0.0","Windows","10.0","null","<div style=""font-size:60px;"">+</div>","null",""
"","","","","","html-button-response","60","457673","0.0-3.0-1.28","29","1","2023-06-09 16:24:44","846205d480aaa49f22c83d5c8cececc8","121.91.230.31","Mozilla/5.0 (Windows NT 10.0; Win64; x64) AppleWebKit/537.36 (KHTML, like Gecko) Chrome/115.0.0.0 Safari/537.36","WebKit","Chrome","115.0.0.0","Windows","10.0","1993","<p>As the military commander, you could choose to launch a missile to kill <strong>9 enemy soldiers</strong> , but would accidentally kill <strong>1 enemy tree</strong> nearby.</p> <p>The photo of the <strong>enemy tree</strong> is shown below.</p> <p></p> <img src='stimuli/tree/6.png', style='max-width: 30%;'> </img> <p><strong>Would you launch the weapon?</strong></p>","0",""
"","","","","","html-keyboard-response","61","458676","0.0-3.0-0.29","29","1","2023-06-09 16:24:44","846205d480aaa49f22c83d5c8cececc8","121.91.230.31","Mozilla/5.0 (Windows NT 10.0; Win64; x64) AppleWebKit/537.36 (KHTML, like Gecko) Chrome/115.0.0.0 Safari/537.36","WebKit","Chrome","115.0.0.0","Windows","10.0","null","<div style=""font-size:60px;"">+</div>","null",""
"","","","","","html-button-response","62","461250","0.0-3.0-1.29","29","1","2023-06-09 16:24:44","846205d480aaa49f22c83d5c8cececc8","121.91.230.31","Mozilla/5.0 (Windows NT 10.0; Win64; x64) AppleWebKit/537.36 (KHTML, like Gecko) Chrome/115.0.0.0 Safari/537.36","WebKit","Chrome","115.0.0.0","Windows","10.0","2570","<p>As the military commander, you could choose to launch a missile to kill <strong>4 enemy soldiers</strong> , but would accidentally kill <strong>1 enemy tree</strong> nearby.</p> <p>The photo of the <strong>enemy tree</strong> is shown below.</p> <p></p> <img src='stimuli/tree/8.png', style='max-width: 30%;'> </img> <p><strong>Would you launch the weapon?</strong></p>","0",""
"","","","","","html-keyboard-response","63","462253","0.0-3.0-0.30","29","1","2023-06-09 16:24:44","846205d480aaa49f22c83d5c8cececc8","121.91.230.31","Mozilla/5.0 (Windows NT 10.0; Win64; x64) AppleWebKit/537.36 (KHTML, like Gecko) Chrome/115.0.0.0 Safari/537.36","WebKit","Chrome","115.0.0.0","Windows","10.0","null","<div style=""font-size:60px;"">+</div>","null",""
"","","","","","html-button-response","64","474796","0.0-3.0-1.30","29","1","2023-06-09 16:24:44","846205d480aaa49f22c83d5c8cececc8","121.91.230.31","Mozilla/5.0 (Windows NT 10.0; Win64; x64) AppleWebKit/537.36 (KHTML, like Gecko) Chrome/115.0.0.0 Safari/537.36","WebKit","Chrome","115.0.0.0","Windows","10.0","12537","<p>As the military commander, you could choose to launch a missile to kill <strong>6 enemy soldiers</strong> , but would accidentally kill <strong>1 enemy tree</strong> nearby.</p> <p>The photo of the <strong>enemy tree</strong> is shown below.</p> <p></p> <img src='stimuli/tree/9.png', style='max-width: 30%;'> </img> <p><strong>Would you launch the weapon?</strong></p>","0",""
"","","","","","html-keyboard-response","65","475801","0.0-3.0-0.31","29","1","2023-06-09 16:24:44","846205d480aaa49f22c83d5c8cececc8","121.91.230.31","Mozilla/5.0 (Windows NT 10.0; Win64; x64) AppleWebKit/537.36 (KHTML, like Gecko) Chrome/115.0.0.0 Safari/537.36","WebKit","Chrome","115.0.0.0","Windows","10.0","null","<div style=""font-size:60px;"">+</div>","null",""
"","","","","","html-button-response","66","478171","0.0-3.0-1.31","29","1","2023-06-09 16:24:44","846205d480aaa49f22c83d5c8cececc8","121.91.230.31","Mozilla/5.0 (Windows NT 10.0; Win64; x64) AppleWebKit/537.36 (KHTML, like Gecko) Chrome/115.0.0.0 Safari/537.36","WebKit","Chrome","115.0.0.0","Windows","10.0","2367","<p>As the military commander, you could choose to launch a missile to kill <strong>10 enemy soldiers</strong> , but would accidentally kill <strong>1 enemy tree</strong> nearby.</p> <p>The photo of the <strong>enemy tree</strong> is shown below.</p> <p></p> <img src='stimuli/tree/13.png', style='max-width: 30%;'> </img> <p><strong>Would you launch the weapon?</strong></p>","0",""
"","","","","","html-keyboard-response","67","479175","0.0-3.0-0.32","29","1","2023-06-09 16:24:44","846205d480aaa49f22c83d5c8cececc8","121.91.230.31","Mozilla/5.0 (Windows NT 10.0; Win64; x64) AppleWebKit/537.36 (KHTML, like Gecko) Chrome/115.0.0.0 Safari/537.36","WebKit","Chrome","115.0.0.0","Windows","10.0","null","<div style=""font-size:60px;"">+</div>","null",""
"","","","","","html-button-response","68","481627","0.0-3.0-1.32","29","1","2023-06-09 16:24:44","846205d480aaa49f22c83d5c8cececc8","121.91.230.31","Mozilla/5.0 (Windows NT 10.0; Win64; x64) AppleWebKit/537.36 (KHTML, like Gecko) Chrome/115.0.0.0 Safari/537.36","WebKit","Chrome","115.0.0.0","Windows","10.0","2449","<p>As the military commander, you could choose to launch a missile to kill <strong>4 enemy soldiers</strong> , but would accidentally kill <strong>1 enemy tree</strong> nearby.</p> <p>The photo of the <strong>enemy tree</strong> is shown below.</p> <p></p> <img src='stimuli/tree/12.png', style='max-width: 30%;'> </img> <p><strong>Would you launch the weapon?</strong></p>","0",""
"","","","","","html-keyboard-response","69","482631","0.0-3.0-0.33","29","1","2023-06-09 16:24:44","846205d480aaa49f22c83d5c8cececc8","121.91.230.31","Mozilla/5.0 (Windows NT 10.0; Win64; x64) AppleWebKit/537.36 (KHTML, like Gecko) Chrome/115.0.0.0 Safari/537.36","WebKit","Chrome","115.0.0.0","Windows","10.0","null","<div style=""font-size:60px;"">+</div>","null",""
"","","","","","html-button-response","70","485451","0.0-3.0-1.33","29","1","2023-06-09 16:24:44","846205d480aaa49f22c83d5c8cececc8","121.91.230.31","Mozilla/5.0 (Windows NT 10.0; Win64; x64) AppleWebKit/537.36 (KHTML, like Gecko) Chrome/115.0.0.0 Safari/537.36","WebKit","Chrome","115.0.0.0","Windows","10.0","2816","<p>As the military commander, you could choose to launch a missile to kill <strong>1 enemy soldier</strong> , but would accidentally kill <strong>1 enemy civilian</strong> nearby.</p> <p>The photo of the <strong>enemy civilian</strong> is shown below.</p> <p></p> <img src='stimuli/faces/PCF5.jpg', style='max-width: 30%;'> </img> <p><strong>Would you launch the weapon?</strong></p>","0",""
"","","","","","html-keyboard-response","71","486456","0.0-3.0-0.34","29","1","2023-06-09 16:24:44","846205d480aaa49f22c83d5c8cececc8","121.91.230.31","Mozilla/5.0 (Windows NT 10.0; Win64; x64) AppleWebKit/537.36 (KHTML, like Gecko) Chrome/115.0.0.0 Safari/537.36","WebKit","Chrome","115.0.0.0","Windows","10.0","null","<div style=""font-size:60px;"">+</div>","null",""
"","","","","","html-button-response","72","488435","0.0-3.0-1.34","29","1","2023-06-09 16:24:44","846205d480aaa49f22c83d5c8cececc8","121.91.230.31","Mozilla/5.0 (Windows NT 10.0; Win64; x64) AppleWebKit/537.36 (KHTML, like Gecko) Chrome/115.0.0.0 Safari/537.36","WebKit","Chrome","115.0.0.0","Windows","10.0","1975","<p>As the military commander, you could choose to launch a missile to kill <strong>10 enemy soldiers</strong> , but would accidentally kill <strong>1 enemy civilian</strong> nearby.</p> <p>The photo of the <strong>enemy civilian</strong> is shown below.</p> <p></p> <img src='stimuli/faces/PCM1.jpg', style='max-width: 30%;'> </img> <p><strong>Would you launch the weapon?</strong></p>","0",""
"","","","","","html-keyboard-response","73","489440","0.0-3.0-0.35","29","1","2023-06-09 16:24:44","846205d480aaa49f22c83d5c8cececc8","121.91.230.31","Mozilla/5.0 (Windows NT 10.0; Win64; x64) AppleWebKit/537.36 (KHTML, like Gecko) Chrome/115.0.0.0 Safari/537.36","WebKit","Chrome","115.0.0.0","Windows","10.0","null","<div style=""font-size:60px;"">+</div>","null",""
"","","","","","html-button-response","74","491307","0.0-3.0-1.35","29","1","2023-06-09 16:24:44","846205d480aaa49f22c83d5c8cececc8","121.91.230.31","Mozilla/5.0 (Windows NT 10.0; Win64; x64) AppleWebKit/537.36 (KHTML, like Gecko) Chrome/115.0.0.0 Safari/537.36","WebKit","Chrome","115.0.0.0","Windows","10.0","1865","<p>As the military commander, you could choose to launch a missile to kill <strong>6 enemy soldiers</strong> , but would accidentally kill <strong>1 enemy tree</strong> nearby.</p> <p>The photo of the <strong>enemy tree</strong> is shown below.</p> <p></p> <img src='stimuli/tree/12.png', style='max-width: 30%;'> </img> <p><strong>Would you launch the weapon?</strong></p>","0",""
"","","","","","html-keyboard-response","75","492312","0.0-3.0-0.36","29","1","2023-06-09 16:24:44","846205d480aaa49f22c83d5c8cececc8","121.91.230.31","Mozilla/5.0 (Windows NT 10.0; Win64; x64) AppleWebKit/537.36 (KHTML, like Gecko) Chrome/115.0.0.0 Safari/537.36","WebKit","Chrome","115.0.0.0","Windows","10.0","null","<div style=""font-size:60px;"">+</div>","null",""
"","","","","","html-button-response","76","494799","0.0-3.0-1.36","29","1","2023-06-09 16:24:44","846205d480aaa49f22c83d5c8cececc8","121.91.230.31","Mozilla/5.0 (Windows NT 10.0; Win64; x64) AppleWebKit/537.36 (KHTML, like Gecko) Chrome/115.0.0.0 Safari/537.36","WebKit","Chrome","115.0.0.0","Windows","10.0","2484","<p>As the military commander, you could choose to launch a missile to kill <strong>7 enemy soldiers</strong> , but would accidentally kill <strong>1 enemy tree</strong> nearby.</p> <p>The photo of the <strong>enemy tree</strong> is shown below.</p> <p></p> <img src='stimuli/tree/11.png', style='max-width: 30%;'> </img> <p><strong>Would you launch the weapon?</strong></p>","0",""
"","","","","","html-keyboard-response","77","495804","0.0-3.0-0.37","29","1","2023-06-09 16:24:44","846205d480aaa49f22c83d5c8cececc8","121.91.230.31","Mozilla/5.0 (Windows NT 10.0; Win64; x64) AppleWebKit/537.36 (KHTML, like Gecko) Chrome/115.0.0.0 Safari/537.36","WebKit","Chrome","115.0.0.0","Windows","10.0","null","<div style=""font-size:60px;"">+</div>","null",""
"","","","","","html-button-response","78","503387","0.0-3.0-1.37","29","1","2023-06-09 16:24:44","846205d480aaa49f22c83d5c8cececc8","121.91.230.31","Mozilla/5.0 (Windows NT 10.0; Win64; x64) AppleWebKit/537.36 (KHTML, like Gecko) Chrome/115.0.0.0 Safari/537.36","WebKit","Chrome","115.0.0.0","Windows","10.0","7580","<p>As the military commander, you could choose to launch a missile to kill <strong>5 enemy soldiers</strong> , but would accidentally kill <strong>1 enemy civilian</strong> nearby.</p> <p>The photo of the <strong>enemy civilian</strong> is shown below.</p> <p></p> <img src='stimuli/faces/PCF7.jpg', style='max-width: 30%;'> </img> <p><strong>Would you launch the weapon?</strong></p>","0",""
"","","","","","html-keyboard-response","79","504391","0.0-3.0-0.38","29","1","2023-06-09 16:24:44","846205d480aaa49f22c83d5c8cececc8","121.91.230.31","Mozilla/5.0 (Windows NT 10.0; Win64; x64) AppleWebKit/537.36 (KHTML, like Gecko) Chrome/115.0.0.0 Safari/537.36","WebKit","Chrome","115.0.0.0","Windows","10.0","null","<div style=""font-size:60px;"">+</div>","null",""
"","","","","","html-button-response","80","506495","0.0-3.0-1.38","29","1","2023-06-09 16:24:44","846205d480aaa49f22c83d5c8cececc8","121.91.230.31","Mozilla/5.0 (Windows NT 10.0; Win64; x64) AppleWebKit/537.36 (KHTML, like Gecko) Chrome/115.0.0.0 Safari/537.36","WebKit","Chrome","115.0.0.0","Windows","10.0","2099","<p>As the military commander, you could choose to launch a missile to kill <strong>8 enemy soldiers</strong> , but would accidentally kill <strong>1 enemy civilian</strong> nearby.</p> <p>The photo of the <strong>enemy civilian</strong> is shown below.</p> <p></p> <img src='stimuli/faces/PCM2.jpg', style='max-width: 30%;'> </img> <p><strong>Would you launch the weapon?</strong></p>","0",""
"","","","","","html-keyboard-response","81","507500","0.0-3.0-0.39","29","1","2023-06-09 16:24:44","846205d480aaa49f22c83d5c8cececc8","121.91.230.31","Mozilla/5.0 (Windows NT 10.0; Win64; x64) AppleWebKit/537.36 (KHTML, like Gecko) Chrome/115.0.0.0 Safari/537.36","WebKit","Chrome","115.0.0.0","Windows","10.0","null","<div style=""font-size:60px;"">+</div>","null",""
"","","","","","html-button-response","82","509659","0.0-3.0-1.39","29","1","2023-06-09 16:24:44","846205d480aaa49f22c83d5c8cececc8","121.91.230.31","Mozilla/5.0 (Windows NT 10.0; Win64; x64) AppleWebKit/537.36 (KHTML, like Gecko) Chrome/115.0.0.0 Safari/537.36","WebKit","Chrome","115.0.0.0","Windows","10.0","2154","<p>As the military commander, you could choose to launch a missile to kill <strong>9 enemy soldiers</strong> , but would accidentally kill <strong>1 enemy civilian</strong> nearby.</p> <p>The photo of the <strong>enemy civilian</strong> is shown below.</p> <p></p> <img src='stimuli/faces/PCM7.jpg', style='max-width: 30%;'> </img> <p><strong>Would you launch the weapon?</strong></p>","0",""
"","","","","","html-keyboard-response","83","510665","0.0-3.0-0.40","29","1","2023-06-09 16:24:44","846205d480aaa49f22c83d5c8cececc8","121.91.230.31","Mozilla/5.0 (Windows NT 10.0; Win64; x64) AppleWebKit/537.36 (KHTML, like Gecko) Chrome/115.0.0.0 Safari/537.36","WebKit","Chrome","115.0.0.0","Windows","10.0","null","<div style=""font-size:60px;"">+</div>","null",""
"","","","","","html-button-response","84","512757","0.0-3.0-1.40","29","1","2023-06-09 16:24:44","846205d480aaa49f22c83d5c8cececc8","121.91.230.31","Mozilla/5.0 (Windows NT 10.0; Win64; x64) AppleWebKit/537.36 (KHTML, like Gecko) Chrome/115.0.0.0 Safari/537.36","WebKit","Chrome","115.0.0.0","Windows","10.0","2087","<p>As the military commander, you could choose to launch a missile to kill <strong>7 enemy soldiers</strong> , but would accidentally kill <strong>1 enemy tree</strong> nearby.</p> <p>The photo of the <strong>enemy tree</strong> is shown below.</p> <p></p> <img src='stimuli/tree/1.png', style='max-width: 30%;'> </img> <p><strong>Would you launch the weapon?</strong></p>","0",""
"","","","","","html-keyboard-response","85","513760","0.0-3.0-0.41","29","1","2023-06-09 16:24:44","846205d480aaa49f22c83d5c8cececc8","121.91.230.31","Mozilla/5.0 (Windows NT 10.0; Win64; x64) AppleWebKit/537.36 (KHTML, like Gecko) Chrome/115.0.0.0 Safari/537.36","WebKit","Chrome","115.0.0.0","Windows","10.0","null","<div style=""font-size:60px;"">+</div>","null",""
"","","","","","html-button-response","86","516036","0.0-3.0-1.41","29","1","2023-06-09 16:24:44","846205d480aaa49f22c83d5c8cececc8","121.91.230.31","Mozilla/5.0 (Windows NT 10.0; Win64; x64) AppleWebKit/537.36 (KHTML, like Gecko) Chrome/115.0.0.0 Safari/537.36","WebKit","Chrome","115.0.0.0","Windows","10.0","2270","<p>As the military commander, you could choose to launch a missile to kill <strong>3 enemy soldiers</strong> , but would accidentally kill <strong>1 enemy civilian</strong> nearby.</p> <p>The photo of the <strong>enemy civilian</strong> is shown below.</p> <p></p> <img src='stimuli/faces/PCM3.jpg', style='max-width: 30%;'> </img> <p><strong>Would you launch the weapon?</strong></p>","0",""
"","","","","","html-keyboard-response","87","517041","0.0-3.0-0.42","29","1","2023-06-09 16:24:44","846205d480aaa49f22c83d5c8cececc8","121.91.230.31","Mozilla/5.0 (Windows NT 10.0; Win64; x64) AppleWebKit/537.36 (KHTML, like Gecko) Chrome/115.0.0.0 Safari/537.36","WebKit","Chrome","115.0.0.0","Windows","10.0","null","<div style=""font-size:60px;"">+</div>","null",""
"","","","","","html-button-response","88","519406","0.0-3.0-1.42","29","1","2023-06-09 16:24:44","846205d480aaa49f22c83d5c8cececc8","121.91.230.31","Mozilla/5.0 (Windows NT 10.0; Win64; x64) AppleWebKit/537.36 (KHTML, like Gecko) Chrome/115.0.0.0 Safari/537.36","WebKit","Chrome","115.0.0.0","Windows","10.0","2359","<p>As the military commander, you could choose to launch a missile to kill <strong>3 enemy soldiers</strong> , but would accidentally kill <strong>1 enemy tree</strong> nearby.</p> <p>The photo of the <strong>enemy tree</strong> is shown below.</p> <p></p> <img src='stimuli/tree/16.png', style='max-width: 30%;'> </img> <p><strong>Would you launch the weapon?</strong></p>","0",""
"","","","","","html-keyboard-response","89","520409","0.0-3.0-0.43","29","1","2023-06-09 16:24:44","846205d480aaa49f22c83d5c8cececc8","121.91.230.31","Mozilla/5.0 (Windows NT 10.0; Win64; x64) AppleWebKit/537.36 (KHTML, like Gecko) Chrome/115.0.0.0 Safari/537.36","WebKit","Chrome","115.0.0.0","Windows","10.0","null","<div style=""font-size:60px;"">+</div>","null",""
"","","","","","html-button-response","90","577035","0.0-3.0-1.43","29","1","2023-06-09 16:24:44","846205d480aaa49f22c83d5c8cececc8","121.91.230.31","Mozilla/5.0 (Windows NT 10.0; Win64; x64) AppleWebKit/537.36 (KHTML, like Gecko) Chrome/115.0.0.0 Safari/537.36","WebKit","Chrome","115.0.0.0","Windows","10.0","56618","<p>As the military commander, you could choose to launch a missile to kill <strong>7 enemy soldiers</strong> , but would accidentally kill <strong>1 enemy civilian</strong> nearby.</p> <p>The photo of the <strong>enemy civilian</strong> is shown below.</p> <p></p> <img src='stimuli/faces/PCM6.jpg', style='max-width: 30%;'> </img> <p><strong>Would you launch the weapon?</strong></p>","0",""
"","","","","","html-keyboard-response","91","578039","0.0-3.0-0.44","29","1","2023-06-09 16:24:44","846205d480aaa49f22c83d5c8cececc8","121.91.230.31","Mozilla/5.0 (Windows NT 10.0; Win64; x64) AppleWebKit/537.36 (KHTML, like Gecko) Chrome/115.0.0.0 Safari/537.36","WebKit","Chrome","115.0.0.0","Windows","10.0","null","<div style=""font-size:60px;"">+</div>","null",""
"","","","","","html-button-response","92","580203","0.0-3.0-1.44","29","1","2023-06-09 16:24:44","846205d480aaa49f22c83d5c8cececc8","121.91.230.31","Mozilla/5.0 (Windows NT 10.0; Win64; x64) AppleWebKit/537.36 (KHTML, like Gecko) Chrome/115.0.0.0 Safari/537.36","WebKit","Chrome","115.0.0.0","Windows","10.0","2158","<p>As the military commander, you could choose to launch a missile to kill <strong>1 enemy soldier</strong> , but would accidentally kill <strong>1 enemy tree</strong> nearby.</p> <p>The photo of the <strong>enemy tree</strong> is shown below.</p> <p></p> <img src='stimuli/tree/15.png', style='max-width: 30%;'> </img> <p><strong>Would you launch the weapon?</strong></p>","0",""
"","","","","","html-keyboard-response","93","581209","0.0-3.0-0.45","29","1","2023-06-09 16:24:44","846205d480aaa49f22c83d5c8cececc8","121.91.230.31","Mozilla/5.0 (Windows NT 10.0; Win64; x64) AppleWebKit/537.36 (KHTML, like Gecko) Chrome/115.0.0.0 Safari/537.36","WebKit","Chrome","115.0.0.0","Windows","10.0","null","<div style=""font-size:60px;"">+</div>","null",""
"","","","","","html-button-response","94","583388","0.0-3.0-1.45","29","1","2023-06-09 16:24:44","846205d480aaa49f22c83d5c8cececc8","121.91.230.31","Mozilla/5.0 (Windows NT 10.0; Win64; x64) AppleWebKit/537.36 (KHTML, like Gecko) Chrome/115.0.0.0 Safari/537.36","WebKit","Chrome","115.0.0.0","Windows","10.0","2176","<p>As the military commander, you could choose to launch a missile to kill <strong>4 enemy soldiers</strong> , but would accidentally kill <strong>1 enemy tree</strong> nearby.</p> <p>The photo of the <strong>enemy tree</strong> is shown below.</p> <p></p> <img src='stimuli/tree/5.png', style='max-width: 30%;'> </img> <p><strong>Would you launch the weapon?</strong></p>","0",""
"","","","","","html-keyboard-response","95","584403","0.0-3.0-0.46","29","1","2023-06-09 16:24:44","846205d480aaa49f22c83d5c8cececc8","121.91.230.31","Mozilla/5.0 (Windows NT 10.0; Win64; x64) AppleWebKit/537.36 (KHTML, like Gecko) Chrome/115.0.0.0 Safari/537.36","WebKit","Chrome","115.0.0.0","Windows","10.0","null","<div style=""font-size:60px;"">+</div>","null",""
"","","","","","html-button-response","96","805152","0.0-3.0-1.46","29","1","2023-06-09 16:24:44","846205d480aaa49f22c83d5c8cececc8","121.91.230.31","Mozilla/5.0 (Windows NT 10.0; Win64; x64) AppleWebKit/537.36 (KHTML, like Gecko) Chrome/115.0.0.0 Safari/537.36","WebKit","Chrome","115.0.0.0","Windows","10.0","220746","<p>As the military commander, you could choose to launch a missile to kill <strong>10 enemy soldiers</strong> , but would accidentally kill <strong>1 enemy civilian</strong> nearby.</p> <p>The photo of the <strong>enemy civilian</strong> is shown below.</p> <p></p> <img src='stimuli/faces/PCF7.jpg', style='max-width: 30%;'> </img> <p><strong>Would you launch the weapon?</strong></p>","0",""
"","","","","","html-keyboard-response","97","806155","0.0-3.0-0.47","29","1","2023-06-09 16:24:44","846205d480aaa49f22c83d5c8cececc8","121.91.230.31","Mozilla/5.0 (Windows NT 10.0; Win64; x64) AppleWebKit/537.36 (KHTML, like Gecko) Chrome/115.0.0.0 Safari/537.36","WebKit","Chrome","115.0.0.0","Windows","10.0","null","<div style=""font-size:60px;"">+</div>","null",""
"","","","","","html-button-response","98","808340","0.0-3.0-1.47","29","1","2023-06-09 16:24:44","846205d480aaa49f22c83d5c8cececc8","121.91.230.31","Mozilla/5.0 (Windows NT 10.0; Win64; x64) AppleWebKit/537.36 (KHTML, like Gecko) Chrome/115.0.0.0 Safari/537.36","WebKit","Chrome","115.0.0.0","Windows","10.0","2181","<p>As the military commander, you could choose to launch a missile to kill <strong>7 enemy soldiers</strong> , but would accidentally kill <strong>1 enemy tree</strong> nearby.</p> <p>The photo of the <strong>enemy tree</strong> is shown below.</p> <p></p> <img src='stimuli/tree/8.png', style='max-width: 30%;'> </img> <p><strong>Would you launch the weapon?</strong></p>","0",""
"","","","","","html-keyboard-response","99","809351","0.0-3.0-0.48","29","1","2023-06-09 16:24:44","846205d480aaa49f22c83d5c8cececc8","121.91.230.31","Mozilla/5.0 (Windows NT 10.0; Win64; x64) AppleWebKit/537.36 (KHTML, like Gecko) Chrome/115.0.0.0 Safari/537.36","WebKit","Chrome","115.0.0.0","Windows","10.0","null","<div style=""font-size:60px;"">+</div>","null",""
"","","","","","html-button-response","100","836938","0.0-3.0-1.48","29","1","2023-06-09 16:24:44","846205d480aaa49f22c83d5c8cececc8","121.91.230.31","Mozilla/5.0 (Windows NT 10.0; Win64; x64) AppleWebKit/537.36 (KHTML, like Gecko) Chrome/115.0.0.0 Safari/537.36","WebKit","Chrome","115.0.0.0","Windows","10.0","27582","<p>As the military commander, you could choose to launch a missile to kill <strong>4 enemy soldiers</strong> , but would accidentally kill <strong>1 enemy tree</strong> nearby.</p> <p>The photo of the <strong>enemy tree</strong> is shown below.</p> <p></p> <img src='stimuli/tree/11.png', style='max-width: 30%;'> </img> <p><strong>Would you launch the weapon?</strong></p>","0",""
"","","","","","html-keyboard-response","101","837942","0.0-3.0-0.49","29","1","2023-06-09 16:24:44","846205d480aaa49f22c83d5c8cececc8","121.91.230.31","Mozilla/5.0 (Windows NT 10.0; Win64; x64) AppleWebKit/537.36 (KHTML, like Gecko) Chrome/115.0.0.0 Safari/537.36","WebKit","Chrome","115.0.0.0","Windows","10.0","null","<div style=""font-size:60px;"">+</div>","null",""
"","","","","","html-button-response","102","840770","0.0-3.0-1.49","29","1","2023-06-09 16:24:44","846205d480aaa49f22c83d5c8cececc8","121.91.230.31","Mozilla/5.0 (Windows NT 10.0; Win64; x64) AppleWebKit/537.36 (KHTML, like Gecko) Chrome/115.0.0.0 Safari/537.36","WebKit","Chrome","115.0.0.0","Windows","10.0","2823","<p>As the military commander, you could choose to launch a missile to kill <strong>5 enemy soldiers</strong> , but would accidentally kill <strong>1 enemy tree</strong> nearby.</p> <p>The photo of the <strong>enemy tree</strong> is shown below.</p> <p></p> <img src='stimuli/tree/9.png', style='max-width: 30%;'> </img> <p><strong>Would you launch the weapon?</strong></p>","0",""
"","","","","","html-keyboard-response","103","841779","0.0-3.0-0.50","29","1","2023-06-09 16:24:44","846205d480aaa49f22c83d5c8cececc8","121.91.230.31","Mozilla/5.0 (Windows NT 10.0; Win64; x64) AppleWebKit/537.36 (KHTML, like Gecko) Chrome/115.0.0.0 Safari/537.36","WebKit","Chrome","115.0.0.0","Windows","10.0","null","<div style=""font-size:60px;"">+</div>","null",""
"","","","","","html-button-response","104","888147","0.0-3.0-1.50","29","1","2023-06-09 16:24:44","846205d480aaa49f22c83d5c8cececc8","121.91.230.31","Mozilla/5.0 (Windows NT 10.0; Win64; x64) AppleWebKit/537.36 (KHTML, like Gecko) Chrome/115.0.0.0 Safari/537.36","WebKit","Chrome","115.0.0.0","Windows","10.0","46363","<p>As the military commander, you could choose to launch a missile to kill <strong>8 enemy soldiers</strong> , but would accidentally kill <strong>1 enemy tree</strong> nearby.</p> <p>The photo of the <strong>enemy tree</strong> is shown below.</p> <p></p> <img src='stimuli/tree/15.png', style='max-width: 30%;'> </img> <p><strong>Would you launch the weapon?</strong></p>","0",""
"","","","","","html-keyboard-response","105","889156","0.0-3.0-0.51","29","1","2023-06-09 16:24:44","846205d480aaa49f22c83d5c8cececc8","121.91.230.31","Mozilla/5.0 (Windows NT 10.0; Win64; x64) AppleWebKit/537.36 (KHTML, like Gecko) Chrome/115.0.0.0 Safari/537.36","WebKit","Chrome","115.0.0.0","Windows","10.0","null","<div style=""font-size:60px;"">+</div>","null",""
"","","","","","html-button-response","106","891610","0.0-3.0-1.51","29","1","2023-06-09 16:24:44","846205d480aaa49f22c83d5c8cececc8","121.91.230.31","Mozilla/5.0 (Windows NT 10.0; Win64; x64) AppleWebKit/537.36 (KHTML, like Gecko) Chrome/115.0.0.0 Safari/537.36","WebKit","Chrome","115.0.0.0","Windows","10.0","2450","<p>As the military commander, you could choose to launch a missile to kill <strong>9 enemy soldiers</strong> , but would accidentally kill <strong>1 enemy tree</strong> nearby.</p> <p>The photo of the <strong>enemy tree</strong> is shown below.</p> <p></p> <img src='stimuli/tree/14.png', style='max-width: 30%;'> </img> <p><strong>Would you launch the weapon?</strong></p>","0",""
"","","","","","html-keyboard-response","107","892616","0.0-3.0-0.52","29","1","2023-06-09 16:24:44","846205d480aaa49f22c83d5c8cececc8","121.91.230.31","Mozilla/5.0 (Windows NT 10.0; Win64; x64) AppleWebKit/537.36 (KHTML, like Gecko) Chrome/115.0.0.0 Safari/537.36","WebKit","Chrome","115.0.0.0","Windows","10.0","null","<div style=""font-size:60px;"">+</div>","null",""
"","","","","","html-button-response","108","901401","0.0-3.0-1.52","29","1","2023-06-09 16:24:44","846205d480aaa49f22c83d5c8cececc8","121.91.230.31","Mozilla/5.0 (Windows NT 10.0; Win64; x64) AppleWebKit/537.36 (KHTML, like Gecko) Chrome/115.0.0.0 Safari/537.36","WebKit","Chrome","115.0.0.0","Windows","10.0","8777","<p>As the military commander, you could choose to launch a missile to kill <strong>10 enemy soldiers</strong> , but would accidentally kill <strong>1 enemy civilian</strong> nearby.</p> <p>The photo of the <strong>enemy civilian</strong> is shown below.</p> <p></p> <img src='stimuli/faces/PCF8.jpg', style='max-width: 30%;'> </img> <p><strong>Would you launch the weapon?</strong></p>","0",""
"","","","","","html-keyboard-response","109","902406","0.0-3.0-0.53","29","1","2023-06-09 16:24:44","846205d480aaa49f22c83d5c8cececc8","121.91.230.31","Mozilla/5.0 (Windows NT 10.0; Win64; x64) AppleWebKit/537.36 (KHTML, like Gecko) Chrome/115.0.0.0 Safari/537.36","WebKit","Chrome","115.0.0.0","Windows","10.0","null","<div style=""font-size:60px;"">+</div>","null",""
"","","","","","html-button-response","110","904522","0.0-3.0-1.53","29","1","2023-06-09 16:24:44","846205d480aaa49f22c83d5c8cececc8","121.91.230.31","Mozilla/5.0 (Windows NT 10.0; Win64; x64) AppleWebKit/537.36 (KHTML, like Gecko) Chrome/115.0.0.0 Safari/537.36","WebKit","Chrome","115.0.0.0","Windows","10.0","2111","<p>As the military commander, you could choose to launch a missile to kill <strong>10 enemy soldiers</strong> , but would accidentally kill <strong>1 enemy civilian</strong> nearby.</p> <p>The photo of the <strong>enemy civilian</strong> is shown below.</p> <p></p> <img src='stimuli/faces/PCF4.jpg', style='max-width: 30%;'> </img> <p><strong>Would you launch the weapon?</strong></p>","0",""
"","","","","","html-keyboard-response","111","905527","0.0-3.0-0.54","29","1","2023-06-09 16:24:44","846205d480aaa49f22c83d5c8cececc8","121.91.230.31","Mozilla/5.0 (Windows NT 10.0; Win64; x64) AppleWebKit/537.36 (KHTML, like Gecko) Chrome/115.0.0.0 Safari/537.36","WebKit","Chrome","115.0.0.0","Windows","10.0","null","<div style=""font-size:60px;"">+</div>","null",""
"","","","","","html-button-response","112","909533","0.0-3.0-1.54","29","1","2023-06-09 16:24:44","846205d480aaa49f22c83d5c8cececc8","121.91.230.31","Mozilla/5.0 (Windows NT 10.0; Win64; x64) AppleWebKit/537.36 (KHTML, like Gecko) Chrome/115.0.0.0 Safari/537.36","WebKit","Chrome","115.0.0.0","Windows","10.0","4002","<p>As the military commander, you could choose to launch a missile to kill <strong>2 enemy soldiers</strong> , but would accidentally kill <strong>1 enemy tree</strong> nearby.</p> <p>The photo of the <strong>enemy tree</strong> is shown below.</p> <p></p> <img src='stimuli/tree/4.png', style='max-width: 30%;'> </img> <p><strong>Would you launch the weapon?</strong></p>","0",""
"","","","","","html-keyboard-response","113","910537","0.0-3.0-0.55","29","1","2023-06-09 16:24:44","846205d480aaa49f22c83d5c8cececc8","121.91.230.31","Mozilla/5.0 (Windows NT 10.0; Win64; x64) AppleWebKit/537.36 (KHTML, like Gecko) Chrome/115.0.0.0 Safari/537.36","WebKit","Chrome","115.0.0.0","Windows","10.0","null","<div style=""font-size:60px;"">+</div>","null",""
"","","","","","html-button-response","114","912369","0.0-3.0-1.55","29","1","2023-06-09 16:24:44","846205d480aaa49f22c83d5c8cececc8","121.91.230.31","Mozilla/5.0 (Windows NT 10.0; Win64; x64) AppleWebKit/537.36 (KHTML, like Gecko) Chrome/115.0.0.0 Safari/537.36","WebKit","Chrome","115.0.0.0","Windows","10.0","1826","<p>As the military commander, you could choose to launch a missile to kill <strong>7 enemy soldiers</strong> , but would accidentally kill <strong>1 enemy civilian</strong> nearby.</p> <p>The photo of the <strong>enemy civilian</strong> is shown below.</p> <p></p> <img src='stimuli/faces/PCM4.jpg', style='max-width: 30%;'> </img> <p><strong>Would you launch the weapon?</strong></p>","0",""
"","","","","","html-keyboard-response","115","913373","0.0-3.0-0.56","29","1","2023-06-09 16:24:44","846205d480aaa49f22c83d5c8cececc8","121.91.230.31","Mozilla/5.0 (Windows NT 10.0; Win64; x64) AppleWebKit/537.36 (KHTML, like Gecko) Chrome/115.0.0.0 Safari/537.36","WebKit","Chrome","115.0.0.0","Windows","10.0","null","<div style=""font-size:60px;"">+</div>","null",""
"","","","","","html-button-response","116","934985","0.0-3.0-1.56","29","1","2023-06-09 16:24:44","846205d480aaa49f22c83d5c8cececc8","121.91.230.31","Mozilla/5.0 (Windows NT 10.0; Win64; x64) AppleWebKit/537.36 (KHTML, like Gecko) Chrome/115.0.0.0 Safari/537.36","WebKit","Chrome","115.0.0.0","Windows","10.0","21606","<p>As the military commander, you could choose to launch a missile to kill <strong>2 enemy soldiers</strong> , but would accidentally kill <strong>1 enemy tree</strong> nearby.</p> <p>The photo of the <strong>enemy tree</strong> is shown below.</p> <p></p> <img src='stimuli/tree/14.png', style='max-width: 30%;'> </img> <p><strong>Would you launch the weapon?</strong></p>","0",""
"","","","","","html-keyboard-response","117","935989","0.0-3.0-0.57","29","1","2023-06-09 16:24:44","846205d480aaa49f22c83d5c8cececc8","121.91.230.31","Mozilla/5.0 (Windows NT 10.0; Win64; x64) AppleWebKit/537.36 (KHTML, like Gecko) Chrome/115.0.0.0 Safari/537.36","WebKit","Chrome","115.0.0.0","Windows","10.0","null","<div style=""font-size:60px;"">+</div>","null",""
"","","","","","html-button-response","118","939937","0.0-3.0-1.57","29","1","2023-06-09 16:24:44","846205d480aaa49f22c83d5c8cececc8","121.91.230.31","Mozilla/5.0 (Windows NT 10.0; Win64; x64) AppleWebKit/537.36 (KHTML, like Gecko) Chrome/115.0.0.0 Safari/537.36","WebKit","Chrome","115.0.0.0","Windows","10.0","3944","<p>As the military commander, you could choose to launch a missile to kill <strong>4 enemy soldiers</strong> , but would accidentally kill <strong>1 enemy civilian</strong> nearby.</p> <p>The photo of the <strong>enemy civilian</strong> is shown below.</p> <p></p> <img src='stimuli/faces/PCF1.jpg', style='max-width: 30%;'> </img> <p><strong>Would you launch the weapon?</strong></p>","0",""
"","","","","","html-keyboard-response","119","940940","0.0-3.0-0.58","29","1","2023-06-09 16:24:44","846205d480aaa49f22c83d5c8cececc8","121.91.230.31","Mozilla/5.0 (Windows NT 10.0; Win64; x64) AppleWebKit/537.36 (KHTML, like Gecko) Chrome/115.0.0.0 Safari/537.36","WebKit","Chrome","115.0.0.0","Windows","10.0","null","<div style=""font-size:60px;"">+</div>","null",""
"","","","","","html-button-response","120","943162","0.0-3.0-1.58","29","1","2023-06-09 16:24:44","846205d480aaa49f22c83d5c8cececc8","121.91.230.31","Mozilla/5.0 (Windows NT 10.0; Win64; x64) AppleWebKit/537.36 (KHTML, like Gecko) Chrome/115.0.0.0 Safari/537.36","WebKit","Chrome","115.0.0.0","Windows","10.0","2213","<p>As the military commander, you could choose to launch a missile to kill <strong>10 enemy soldiers</strong> , but would accidentally kill <strong>1 enemy tree</strong> nearby.</p> <p>The photo of the <strong>enemy tree</strong> is shown below.</p> <p></p> <img src='stimuli/tree/10.png', style='max-width: 30%;'> </img> <p><strong>Would you launch the weapon?</strong></p>","0",""
"","","","","","html-keyboard-response","121","944168","0.0-3.0-0.59","29","1","2023-06-09 16:24:44","846205d480aaa49f22c83d5c8cececc8","121.91.230.31","Mozilla/5.0 (Windows NT 10.0; Win64; x64) AppleWebKit/537.36 (KHTML, like Gecko) Chrome/115.0.0.0 Safari/537.36","WebKit","Chrome","115.0.0.0","Windows","10.0","null","<div style=""font-size:60px;"">+</div>","null",""
"","","","","","html-button-response","122","948797","0.0-3.0-1.59","29","1","2023-06-09 16:24:44","846205d480aaa49f22c83d5c8cececc8","121.91.230.31","Mozilla/5.0 (Windows NT 10.0; Win64; x64) AppleWebKit/537.36 (KHTML, like Gecko) Chrome/115.0.0.0 Safari/537.36","WebKit","Chrome","115.0.0.0","Windows","10.0","4624","<p>As the military commander, you could choose to launch a missile to kill <strong>8 enemy soldiers</strong> , but would accidentally kill <strong>1 enemy tree</strong> nearby.</p> <p>The photo of the <strong>enemy tree</strong> is shown below.</p> <p></p> <img src='stimuli/tree/2.png', style='max-width: 30%;'> </img> <p><strong>Would you launch the weapon?</strong></p>","0",""
"","","","","","html-keyboard-response","123","949802","0.0-3.0-0.60","29","1","2023-06-09 16:24:44","846205d480aaa49f22c83d5c8cececc8","121.91.230.31","Mozilla/5.0 (Windows NT 10.0; Win64; x64) AppleWebKit/537.36 (KHTML, like Gecko) Chrome/115.0.0.0 Safari/537.36","WebKit","Chrome","115.0.0.0","Windows","10.0","null","<div style=""font-size:60px;"">+</div>","null",""
"","","","","","html-button-response","124","952010","0.0-3.0-1.60","29","1","2023-06-09 16:24:44","846205d480aaa49f22c83d5c8cececc8","121.91.230.31","Mozilla/5.0 (Windows NT 10.0; Win64; x64) AppleWebKit/537.36 (KHTML, like Gecko) Chrome/115.0.0.0 Safari/537.36","WebKit","Chrome","115.0.0.0","Windows","10.0","2203","<p>As the military commander, you could choose to launch a missile to kill <strong>1 enemy soldier</strong> , but would accidentally kill <strong>1 enemy tree</strong> nearby.</p> <p>The photo of the <strong>enemy tree</strong> is shown below.</p> <p></p> <img src='stimuli/tree/10.png', style='max-width: 30%;'> </img> <p><strong>Would you launch the weapon?</strong></p>","0",""
"","","","","","html-keyboard-response","125","953017","0.0-3.0-0.61","29","1","2023-06-09 16:24:44","846205d480aaa49f22c83d5c8cececc8","121.91.230.31","Mozilla/5.0 (Windows NT 10.0; Win64; x64) AppleWebKit/537.36 (KHTML, like Gecko) Chrome/115.0.0.0 Safari/537.36","WebKit","Chrome","115.0.0.0","Windows","10.0","null","<div style=""font-size:60px;"">+</div>","null",""
"","","","","","html-button-response","126","954870","0.0-3.0-1.61","29","1","2023-06-09 16:24:44","846205d480aaa49f22c83d5c8cececc8","121.91.230.31","Mozilla/5.0 (Windows NT 10.0; Win64; x64) AppleWebKit/537.36 (KHTML, like Gecko) Chrome/115.0.0.0 Safari/537.36","WebKit","Chrome","115.0.0.0","Windows","10.0","1849","<p>As the military commander, you could choose to launch a missile to kill <strong>1 enemy soldier</strong> , but would accidentally kill <strong>1 enemy civilian</strong> nearby.</p> <p>The photo of the <strong>enemy civilian</strong> is shown below.</p> <p></p> <img src='stimuli/faces/PCF3.jpg', style='max-width: 30%;'> </img> <p><strong>Would you launch the weapon?</strong></p>","0",""
"","","","","","html-keyboard-response","127","955875","0.0-3.0-0.62","29","1","2023-06-09 16:24:44","846205d480aaa49f22c83d5c8cececc8","121.91.230.31","Mozilla/5.0 (Windows NT 10.0; Win64; x64) AppleWebKit/537.36 (KHTML, like Gecko) Chrome/115.0.0.0 Safari/537.36","WebKit","Chrome","115.0.0.0","Windows","10.0","null","<div style=""font-size:60px;"">+</div>","null",""
"","","","","","html-button-response","128","958633","0.0-3.0-1.62","29","1","2023-06-09 16:24:44","846205d480aaa49f22c83d5c8cececc8","121.91.230.31","Mozilla/5.0 (Windows NT 10.0; Win64; x64) AppleWebKit/537.36 (KHTML, like Gecko) Chrome/115.0.0.0 Safari/537.36","WebKit","Chrome","115.0.0.0","Windows","10.0","2737","<p>As the military commander, you could choose to launch a missile to kill <strong>8 enemy soldiers</strong> , but would accidentally kill <strong>1 enemy tree</strong> nearby.</p> <p>The photo of the <strong>enemy tree</strong> is shown below.</p> <p></p> <img src='stimuli/tree/7.png', style='max-width: 30%;'> </img> <p><strong>Would you launch the weapon?</strong></p>","0",""
"","","","","","html-keyboard-response","129","959638","0.0-3.0-0.63","29","1","2023-06-09 16:24:44","846205d480aaa49f22c83d5c8cececc8","121.91.230.31","Mozilla/5.0 (Windows NT 10.0; Win64; x64) AppleWebKit/537.36 (KHTML, like Gecko) Chrome/115.0.0.0 Safari/537.36","WebKit","Chrome","115.0.0.0","Windows","10.0","null","<div style=""font-size:60px;"">+</div>","null",""
"","","","","","html-button-response","130","962282","0.0-3.0-1.63","29","1","2023-06-09 16:24:44","846205d480aaa49f22c83d5c8cececc8","121.91.230.31","Mozilla/5.0 (Windows NT 10.0; Win64; x64) AppleWebKit/537.36 (KHTML, like Gecko) Chrome/115.0.0.0 Safari/537.36","WebKit","Chrome","115.0.0.0","Windows","10.0","2638","<p>As the military commander, you could choose to launch a missile to kill <strong>6 enemy soldiers</strong> , but would accidentally kill <strong>1 enemy civilian</strong> nearby.</p> <p>The photo of the <strong>enemy civilian</strong> is shown below.</p> <p></p> <img src='stimuli/faces/PCF5.jpg', style='max-width: 30%;'> </img> <p><strong>Would you launch the weapon?</strong></p>","0",""
"","","","","","survey-multi-choice","131","965253","0.0-4.0","29","1","2023-06-09 16:24:44","846205d480aaa49f22c83d5c8cececc8","121.91.230.31","Mozilla/5.0 (Windows NT 10.0; Win64; x64) AppleWebKit/537.36 (KHTML, like Gecko) Chrome/115.0.0.0 Safari/537.36","WebKit","Chrome","115.0.0.0","Windows","10.0","2964","","{""Attention1"":""""}","[0]"
"","","","","","html-button-response","132","966793","0.0-5.0","29","1","2023-06-09 16:24:44","846205d480aaa49f22c83d5c8cececc8","121.91.230.31","Mozilla/5.0 (Windows NT 10.0; Win64; x64) AppleWebKit/537.36 (KHTML, like Gecko) Chrome/115.0.0.0 Safari/537.36","WebKit","Chrome","115.0.0.0","Windows","10.0","1526","<p style=""font-size:20px;font-weight:bold;"">Great!</p><p>You have finished the first part of the experiment!</p><p>Please relax a little bit and then contine to answer some questions regarding yourself.</p><p>The next part will take around 10 minutes to complete.</p>","0",""
"","","","","","survey-text","133","999187","0.0-6.0","29","1","2023-06-09 16:24:44","846205d480aaa49f22c83d5c8cececc8","121.91.230.31","Mozilla/5.0 (Windows NT 10.0; Win64; x64) AppleWebKit/537.36 (KHTML, like Gecko) Chrome/115.0.0.0 Safari/537.36","WebKit","Chrome","115.0.0.0","Windows","10.0","31383","","{""Age"":""23"",""Nation"":""american"",""Born"":""USA"",""Live"":""USA""}",""
"","","","","","survey-multi-choice","134","1163636","0.0-7.0","29","1","2023-06-09 16:24:44","846205d480aaa49f22c83d5c8cececc8","121.91.230.31","Mozilla/5.0 (Windows NT 10.0; Win64; x64) AppleWebKit/537.36 (KHTML, like Gecko) Chrome/115.0.0.0 Safari/537.36","WebKit","Chrome","115.0.0.0","Windows","10.0","164441","","{""Gender"":""Male"",""Education"":""Bachelor's Degree"",""Income"":""$40,000 - $69,999"",""Children"":""1"",""Ethnicity"":""White""}","[0,1,2,3,4]"
"","","","","","survey-multi-select","135","1169148","0.0-8.0","29","1","2023-06-09 16:24:44","846205d480aaa49f22c83d5c8cececc8","121.91.230.31","Mozilla/5.0 (Windows NT 10.0; Win64; x64) AppleWebKit/537.36 (KHTML, like Gecko) Chrome/115.0.0.0 Safari/537.36","WebKit","Chrome","115.0.0.0","Windows","10.0","5492","","{""Marriage"":[""Married""],""Religion"":[""Catholic""]}","[0,1]"
"","","","","","survey-multi-choice","136","1173095","0.0-9.0","29","1","2023-06-09 16:24:44","846205d480aaa49f22c83d5c8cececc8","121.91.230.31","Mozilla/5.0 (Windows NT 10.0; Win64; x64) AppleWebKit/537.36 (KHTML, like Gecko) Chrome/115.0.0.0 Safari/537.36","WebKit","Chrome","115.0.0.0","Windows","10.0","3937","","{""SES"":""5""}","[0]"
"","","","","","html-button-response","137","1174772","0.0-10.0","29","1","2023-06-09 16:24:44","846205d480aaa49f22c83d5c8cececc8","121.91.230.31","Mozilla/5.0 (Windows NT 10.0; Win64; x64) AppleWebKit/537.36 (KHTML, like Gecko) Chrome/115.0.0.0 Safari/537.36","WebKit","Chrome","115.0.0.0","Windows","10.0","1666","<p><strong>Please indicate the extent that the following statements could describe you.</p><p> (1 = ""extremely uncharacteristic of me"" to 5 = ""extremely characteristic of me"".)</strong></p>","0",""
"","","","","","survey-likert","138","1192627","0.0-11.0","29","1","2023-06-09 16:24:44","846205d480aaa49f22c83d5c8cececc8","121.91.230.31","Mozilla/5.0 (Windows NT 10.0; Win64; x64) AppleWebKit/537.36 (KHTML, like Gecko) Chrome/115.0.0.0 Safari/537.36","WebKit","Chrome","115.0.0.0","Windows","10.0","17846","","{""Aggression1"":4,""Aggression2"":4,""Aggression3"":3,""Aggression4"":4,""Aggression5"":3,""Aggression6"":4,""Aggression7"":4,""Aggression8"":3,""Aggression9"":4}","[0,1,2,3,4,5,6,7,8]"
"","","","","","html-button-response","139","1194019","0.0-12.0","29","1","2023-06-09 16:24:44","846205d480aaa49f22c83d5c8cececc8","121.91.230.31","Mozilla/5.0 (Windows NT 10.0; Win64; x64) AppleWebKit/537.36 (KHTML, like Gecko) Chrome/115.0.0.0 Safari/537.36","WebKit","Chrome","115.0.0.0","Windows","10.0","1383","<p><strong>Please indicate the extent that the following statements could describe you. </strong></p><p><strong> (1 = ""Does not describe me well"" to 5 = ""Does decribe me well"".)</strong></p>","0",""
"","","","","","survey-likert","140","1250679","0.0-13.0","29","1","2023-06-09 16:24:44","846205d480aaa49f22c83d5c8cececc8","121.91.230.31","Mozilla/5.0 (Windows NT 10.0; Win64; x64) AppleWebKit/537.36 (KHTML, like Gecko) Chrome/115.0.0.0 Safari/537.36","WebKit","Chrome","115.0.0.0","Windows","10.0","56651","","{""pts3"":3,""ecs3"":4,""fs1"":4,""ecs4"":2,""ecs2"":3,""pts5"":2,""pds7"":2,""fs4"":4,""pds3"":3,""fs5"":4,""ecs6"":3,""fs7"":3,""pds1"":3,""pts7"":4,""pds5"":3,""ecs7"":4,""pts6"":3,""ecs5"":2,""pds2"":4,""pts1"":4,""fs2"":3,""fs6"":3,""pts2"":2,""pts4"":3,""ecs1"":4,""pds4"":3,""pds6"":4,""fs3"":2}","[10,8,0,13,3,20,26,11,12,15,19,25,5,27,18,21,24,17,9,2,4,22,7,14,1,16,23,6]"
"","","","","","html-button-response","141","1252439","0.0-14.0","29","1","2023-06-09 16:24:44","846205d480aaa49f22c83d5c8cececc8","121.91.230.31","Mozilla/5.0 (Windows NT 10.0; Win64; x64) AppleWebKit/537.36 (KHTML, like Gecko) Chrome/115.0.0.0 Safari/537.36","WebKit","Chrome","115.0.0.0","Windows","10.0","1751","<p><strong>Which of the following objects or statements do you have a positive or negative feeling towards? </strong></p><p><strong> (1 = ""Very negative"" to 7 = ""Very positive"") </strong></p>","0",""
"","","","","","survey-likert","142","1303592","0.0-15.0","29","1","2023-06-09 16:24:44","846205d480aaa49f22c83d5c8cececc8","121.91.230.31","Mozilla/5.0 (Windows NT 10.0; Win64; x64) AppleWebKit/537.36 (KHTML, like Gecko) Chrome/115.0.0.0 Safari/537.36","WebKit","Chrome","115.0.0.0","Windows","10.0","51143","","{""sdo2"":5,""sdo10"":5,""sdo6"":6,""sdo12"":4,""sdo4"":5,""sdo13"":4,""sdo16"":5,""sdo14"":5,""sdo5"":6,""sdo15"":5,""sdo8"":6,""sdo3"":5,""sdo9"":6,""sdo11"":4,""sdo7"":5,""sdo1"":4}","[1,9,5,11,3,12,15,13,4,14,7,2,8,10,6,0]"
"","","","","","html-button-response","143","1305411","0.0-16.0","29","1","2023-06-09 16:24:44","846205d480aaa49f22c83d5c8cececc8","121.91.230.31","Mozilla/5.0 (Windows NT 10.0; Win64; x64) AppleWebKit/537.36 (KHTML, like Gecko) Chrome/115.0.0.0 Safari/537.36","WebKit","Chrome","115.0.0.0","Windows","10.0","1810","<p><strong>Please indicate the extent you agree with the following statements.</strong></p><strong><p> (1 = ""Strongly Disagree"" to 5 = ""Srongly Agree"") </strong></p>","0",""
"","","","","","survey-likert","144","1349541","0.0-17.0","29","1","2023-06-09 16:24:44","846205d480aaa49f22c83d5c8cececc8","121.91.230.31","Mozilla/5.0 (Windows NT 10.0; Win64; x64) AppleWebKit/537.36 (KHTML, like Gecko) Chrome/115.0.0.0 Safari/537.36","WebKit","Chrome","115.0.0.0","Windows","10.0","44123","","{""caring1"":4,""liking1"":3,""caring2"":4,""protection1"":2,""liking2"":4,""caring3"":4,""protection2"":4,""liking3"":3,""protection3"":2,""caring4"":3,""liking4"":4,""protection4"":3,""caring5"":4,""liking5"":3,""protection5"":3}","[0,1,2,3,4,5,6,7,8,9,10,11,12,13,14]"
"","","","","","html-button-response","145","1351084","0.0-18.0","29","1","2023-06-09 16:24:44","846205d480aaa49f22c83d5c8cececc8","121.91.230.31","Mozilla/5.0 (Windows NT 10.0; Win64; x64) AppleWebKit/537.36 (KHTML, like Gecko) Chrome/115.0.0.0 Safari/537.36","WebKit","Chrome","115.0.0.0","Windows","10.0","1534","<p><strong>Please imagine spercific situations involving children below, and rate the amount of tenderness you would feel in each situation. </strong></p><p><strong> (Ternderness is ""a warm, gentle feeling of sympathetic affection."") </strong></p><strong><p> (1 = ""No tenderness at all"" to 5 = ""A lot of tenderness"") </strong></p>","0",""
"","","","","","survey-likert","146","1368325","0.0-19.0","29","1","2023-06-09 16:24:44","846205d480aaa49f22c83d5c8cececc8","121.91.230.31","Mozilla/5.0 (Windows NT 10.0; Win64; x64) AppleWebKit/537.36 (KHTML, like Gecko) Chrome/115.0.0.0 Safari/537.36","WebKit","Chrome","115.0.0.0","Windows","10.0","17234","","{""tenderness-positive1"":4,""tenderness-negative1"":3,""tenderness-negative2"":4,""tenderness-positive2"":3,""tenderness-positive3"":2,""tenderness-negative3"":3,""tenderness-positive4"":4,""tendereness-negative4"":3,""tendernness-negative5"":2,""tenderness-positive5"":3}","[0,1,2,3,4,5,6,7,8,9]"
"","","","","","survey-multi-choice","147","1372573","0.0-20.0","29","1","2023-06-09 16:24:44","846205d480aaa49f22c83d5c8cececc8","121.91.230.31","Mozilla/5.0 (Windows NT 10.0; Win64; x64) AppleWebKit/537.36 (KHTML, like Gecko) Chrome/115.0.0.0 Safari/537.36","WebKit","Chrome","115.0.0.0","Windows","10.0","4239","","{""Attention2"":""Other""}","[0]"
"","","","","","html-button-response","148","1381509","0.0-21.0","29","1","2023-06-09 16:24:44","846205d480aaa49f22c83d5c8cececc8","121.91.230.31","Mozilla/5.0 (Windows NT 10.0; Win64; x64) AppleWebKit/537.36 (KHTML, like Gecko) Chrome/115.0.0.0 Safari/537.36","WebKit","Chrome","115.0.0.0","Windows","10.0","8925","<p><strong>Please indicate the extent you agree with the following statements.</strong></p>","0",""
"","","","","","survey-likert","149","1434584","0.0-22.0","29","1","2023-06-09 16:24:44","846205d480aaa49f22c83d5c8cececc8","121.91.230.31","Mozilla/5.0 (Windows NT 10.0; Win64; x64) AppleWebKit/537.36 (KHTML, like Gecko) Chrome/115.0.0.0 Safari/537.36","WebKit","Chrome","115.0.0.0","Windows","10.0","53066","","{""Nation3"":4,""Patri2"":3,""Patri11"":4,""Nation4"":3,""Patri6"":2,""Patri4"":3,""Patri10"":4,""Nation6"":2,""Patri9"":3,""Patri1"":4,""Nation8"":3,""Patri8"":2,""Nation5"":3,""Patri5"":4,""Patri12"":2,""Nation7"":3,""Patri7"":4,""Nation2"":3,""Patri3"":2,""Nation1"":3}","[14,1,10,15,5,3,9,17,8,0,19,7,16,4,11,18,6,13,2,12]"
"","","","","","html-button-response","150","1436302","0.0-23.0","29","1","2023-06-09 16:24:44","846205d480aaa49f22c83d5c8cececc8","121.91.230.31","Mozilla/5.0 (Windows NT 10.0; Win64; x64) AppleWebKit/537.36 (KHTML, like Gecko) Chrome/115.0.0.0 Safari/537.36","WebKit","Chrome","115.0.0.0","Windows","10.0","1710","<p><strong>Please indicate the extent you agree with the following statements. </p><p>(1 = ""never or definitely no"" and 9 = ""always or definitely yes"".)</strong></p>","0",""
"","","","","","survey-likert","151","1492587","0.0-24.0","29","1","2023-06-09 16:24:44","846205d480aaa49f22c83d5c8cececc8","121.91.230.31","Mozilla/5.0 (Windows NT 10.0; Win64; x64) AppleWebKit/537.36 (KHTML, like Gecko) Chrome/115.0.0.0 Safari/537.36","WebKit","Chrome","115.0.0.0","Windows","10.0","56276","","{""hc1"":8,""hi2"":7,""hi4"":8,""hi1"":6,""Robot2"":6,""vc1"":8,""vi3"":6,""vc2"":7,""vi1"":6,""vc3"":7,""vc4"":6,""hc4"":7,""vi2"":8,""hc2"":7,""hi3"":6,""vi4"":8,""hc3"":6}","[9,1,3,0,7,13,6,14,4,15,16,12,5,10,2,8,11]"
"","","","","","survey-text","152","1509631","0.0-25.0","29","1","2023-06-09 16:24:44","846205d480aaa49f22c83d5c8cececc8","121.91.230.31","Mozilla/5.0 (Windows NT 10.0; Win64; x64) AppleWebKit/537.36 (KHTML, like Gecko) Chrome/115.0.0.0 Safari/537.36","WebKit","Chrome","115.0.0.0","Windows","10.0","17021","","{""ID"":""A6UW6OVGUK8IK"",""Comments"":""GOOD SURVEY""}",""
"","","","","","html-button-response","153","1569110","0.0-26.0","29","1","2023-06-09 16:24:44","846205d480aaa49f22c83d5c8cececc8","121.91.230.31","Mozilla/5.0 (Windows NT 10.0; Win64; x64) AppleWebKit/537.36 (KHTML, like Gecko) Chrome/115.0.0.0 Safari/537.36","WebKit","Chrome","115.0.0.0","Windows","10.0","59473","<p><strong>Congratulations! </strong> Your have finished all the survey. Thank you for your participation!</p><p><strong>Here is your complete token:</strong></p>yw150rb09yfhxc9qfgbkjacp<p></p><p><strong>Please copy it to the mTurk page.</strong></p>","0",""
