"success","timeout","failed_images","failed_audio","failed_video","trial_type","trial_index","time_elapsed","internal_node_id","run_id","condition","recorded_at","source_code_version","ip","user_agent","device","browser","browser_version","platform","platform_version","rt","stimulus","response","question_order"
"true","false","[]","[]","[]","preload","0","48361","0.0-0.0","3","1","2023-06-09 15:22:04","846205d480aaa49f22c83d5c8cececc8","89.116.158.254","Mozilla/5.0 (Macintosh; Intel Mac OS X 10_15_7) AppleWebKit/537.36 (KHTML, like Gecko) Chrome/114.0.0.0 Safari/537.36","Macintosh","Chrome","114.0.0.0","OS X","10_15_7","","","",""
"true","","","","","fullscreen","1","302804","0.0-1.0","3","1","2023-06-09 15:22:04","846205d480aaa49f22c83d5c8cececc8","89.116.158.254","Mozilla/5.0 (Macintosh; Intel Mac OS X 10_15_7) AppleWebKit/537.36 (KHTML, like Gecko) Chrome/114.0.0.0 Safari/537.36","Macintosh","Chrome","114.0.0.0","OS X","10_15_7","","","",""
"","","","","","html-button-response","2","314568","0.0-2.0","3","1","2023-06-09 15:22:04","846205d480aaa49f22c83d5c8cececc8","89.116.158.254","Mozilla/5.0 (Macintosh; Intel Mac OS X 10_15_7) AppleWebKit/537.36 (KHTML, like Gecko) Chrome/114.0.0.0 Safari/537.36","Macintosh","Chrome","114.0.0.0","OS X","10_15_7","11756","<p ><strong>Welcome to the experiment!</strong></p><p ><strong>In the first task, please imagine:</strong></p><p>Your country is involved in a military conflict with another country.</p><p>You are the commander of your army and must make decisions in the conflict.</p><p>Specifically, as the military commander, you must decide whether to launch a missile to strike enemy.</p><p>You will face a series of scenarios. Please read each scenario carefully and make a decision.</p><p>The task will take around 10 minutes to complete.</p><p><strong>Please pay your attention during the experiment.</strong></p>","0",""
"","","","","","html-keyboard-response","3","315574","0.0-3.0-0.0","3","1","2023-06-09 15:22:04","846205d480aaa49f22c83d5c8cececc8","89.116.158.254","Mozilla/5.0 (Macintosh; Intel Mac OS X 10_15_7) AppleWebKit/537.36 (KHTML, like Gecko) Chrome/114.0.0.0 Safari/537.36","Macintosh","Chrome","114.0.0.0","OS X","10_15_7","null","<div style=""font-size:60px;"">+</div>","null",""
"","","","","","html-button-response","4","335883","0.0-3.0-1.0","3","1","2023-06-09 15:22:04","846205d480aaa49f22c83d5c8cececc8","89.116.158.254","Mozilla/5.0 (Macintosh; Intel Mac OS X 10_15_7) AppleWebKit/537.36 (KHTML, like Gecko) Chrome/114.0.0.0 Safari/537.36","Macintosh","Chrome","114.0.0.0","OS X","10_15_7","20305","<p>As the military commander, you could choose to launch a missile to kill <strong>6 enemy soldiers</strong> , but would accidentally kill <strong>1 enemy civilian</strong> nearby.</p> <p>The photo of the <strong>enemy civilian</strong> is shown below.</p> <p></p> <img src='stimuli/faces/PCM3.jpg', style='max-width: 30%;'> </img> <p><strong>Would you launch the weapon?</strong></p>","0",""
"","","","","","html-keyboard-response","5","336887","0.0-3.0-0.1","3","1","2023-06-09 15:22:04","846205d480aaa49f22c83d5c8cececc8","89.116.158.254","Mozilla/5.0 (Macintosh; Intel Mac OS X 10_15_7) AppleWebKit/537.36 (KHTML, like Gecko) Chrome/114.0.0.0 Safari/537.36","Macintosh","Chrome","114.0.0.0","OS X","10_15_7","null","<div style=""font-size:60px;"">+</div>","null",""
"","","","","","html-button-response","6","516194","0.0-3.0-1.1","3","1","2023-06-09 15:22:04","846205d480aaa49f22c83d5c8cececc8","89.116.158.254","Mozilla/5.0 (Macintosh; Intel Mac OS X 10_15_7) AppleWebKit/537.36 (KHTML, like Gecko) Chrome/114.0.0.0 Safari/537.36","Macintosh","Chrome","114.0.0.0","OS X","10_15_7","179300","<p>As the military commander, you could choose to launch a missile to kill <strong>3 enemy soldiers</strong> , but would accidentally kill <strong>1 enemy tree</strong> nearby.</p> <p>The photo of the <strong>enemy tree</strong> is shown below.</p> <p></p> <img src='stimuli/tree/8.png', style='max-width: 30%;'> </img> <p><strong>Would you launch the weapon?</strong></p>","0",""
"","","","","","html-keyboard-response","7","517201","0.0-3.0-0.2","3","1","2023-06-09 15:22:04","846205d480aaa49f22c83d5c8cececc8","89.116.158.254","Mozilla/5.0 (Macintosh; Intel Mac OS X 10_15_7) AppleWebKit/537.36 (KHTML, like Gecko) Chrome/114.0.0.0 Safari/537.36","Macintosh","Chrome","114.0.0.0","OS X","10_15_7","null","<div style=""font-size:60px;"">+</div>","null",""
"","","","","","html-button-response","8","525168","0.0-3.0-1.2","3","1","2023-06-09 15:22:04","846205d480aaa49f22c83d5c8cececc8","89.116.158.254","Mozilla/5.0 (Macintosh; Intel Mac OS X 10_15_7) AppleWebKit/537.36 (KHTML, like Gecko) Chrome/114.0.0.0 Safari/537.36","Macintosh","Chrome","114.0.0.0","OS X","10_15_7","7965","<p>As the military commander, you could choose to launch a missile to kill <strong>4 enemy soldiers</strong> , but would accidentally kill <strong>1 enemy civilian</strong> nearby.</p> <p>The photo of the <strong>enemy civilian</strong> is shown below.</p> <p></p> <img src='stimuli/faces/PCF4.jpg', style='max-width: 30%;'> </img> <p><strong>Would you launch the weapon?</strong></p>","1",""
"","","","","","html-keyboard-response","9","526173","0.0-3.0-0.3","3","1","2023-06-09 15:22:04","846205d480aaa49f22c83d5c8cececc8","89.116.158.254","Mozilla/5.0 (Macintosh; Intel Mac OS X 10_15_7) AppleWebKit/537.36 (KHTML, like Gecko) Chrome/114.0.0.0 Safari/537.36","Macintosh","Chrome","114.0.0.0","OS X","10_15_7","null","<div style=""font-size:60px;"">+</div>","null",""
"","","","","","html-button-response","10","531250","0.0-3.0-1.3","3","1","2023-06-09 15:22:04","846205d480aaa49f22c83d5c8cececc8","89.116.158.254","Mozilla/5.0 (Macintosh; Intel Mac OS X 10_15_7) AppleWebKit/537.36 (KHTML, like Gecko) Chrome/114.0.0.0 Safari/537.36","Macintosh","Chrome","114.0.0.0","OS X","10_15_7","5076","<p>As the military commander, you could choose to launch a missile to kill <strong>10 enemy soldiers</strong> , but would accidentally kill <strong>1 enemy tree</strong> nearby.</p> <p>The photo of the <strong>enemy tree</strong> is shown below.</p> <p></p> <img src='stimuli/tree/11.png', style='max-width: 30%;'> </img> <p><strong>Would you launch the weapon?</strong></p>","0",""
"","","","","","html-keyboard-response","11","532262","0.0-3.0-0.4","3","1","2023-06-09 15:22:04","846205d480aaa49f22c83d5c8cececc8","89.116.158.254","Mozilla/5.0 (Macintosh; Intel Mac OS X 10_15_7) AppleWebKit/537.36 (KHTML, like Gecko) Chrome/114.0.0.0 Safari/537.36","Macintosh","Chrome","114.0.0.0","OS X","10_15_7","null","<div style=""font-size:60px;"">+</div>","null",""
"","","","","","html-button-response","12","535222","0.0-3.0-1.4","3","1","2023-06-09 15:22:04","846205d480aaa49f22c83d5c8cececc8","89.116.158.254","Mozilla/5.0 (Macintosh; Intel Mac OS X 10_15_7) AppleWebKit/537.36 (KHTML, like Gecko) Chrome/114.0.0.0 Safari/537.36","Macintosh","Chrome","114.0.0.0","OS X","10_15_7","2957","<p>As the military commander, you could choose to launch a missile to kill <strong>4 enemy soldiers</strong> , but would accidentally kill <strong>1 enemy tree</strong> nearby.</p> <p>The photo of the <strong>enemy tree</strong> is shown below.</p> <p></p> <img src='stimuli/tree/3.png', style='max-width: 30%;'> </img> <p><strong>Would you launch the weapon?</strong></p>","0",""
"","","","","","html-keyboard-response","13","536226","0.0-3.0-0.5","3","1","2023-06-09 15:22:04","846205d480aaa49f22c83d5c8cececc8","89.116.158.254","Mozilla/5.0 (Macintosh; Intel Mac OS X 10_15_7) AppleWebKit/537.36 (KHTML, like Gecko) Chrome/114.0.0.0 Safari/537.36","Macintosh","Chrome","114.0.0.0","OS X","10_15_7","null","<div style=""font-size:60px;"">+</div>","null",""
"","","","","","html-button-response","14","540358","0.0-3.0-1.5","3","1","2023-06-09 15:22:04","846205d480aaa49f22c83d5c8cececc8","89.116.158.254","Mozilla/5.0 (Macintosh; Intel Mac OS X 10_15_7) AppleWebKit/537.36 (KHTML, like Gecko) Chrome/114.0.0.0 Safari/537.36","Macintosh","Chrome","114.0.0.0","OS X","10_15_7","4130","<p>As the military commander, you could choose to launch a missile to kill <strong>6 enemy soldiers</strong> , but would accidentally kill <strong>1 enemy civilian</strong> nearby.</p> <p>The photo of the <strong>enemy civilian</strong> is shown below.</p> <p></p> <img src='stimuli/faces/PCF7.jpg', style='max-width: 30%;'> </img> <p><strong>Would you launch the weapon?</strong></p>","1",""
"","","","","","html-keyboard-response","15","541368","0.0-3.0-0.6","3","1","2023-06-09 15:22:04","846205d480aaa49f22c83d5c8cececc8","89.116.158.254","Mozilla/5.0 (Macintosh; Intel Mac OS X 10_15_7) AppleWebKit/537.36 (KHTML, like Gecko) Chrome/114.0.0.0 Safari/537.36","Macintosh","Chrome","114.0.0.0","OS X","10_15_7","null","<div style=""font-size:60px;"">+</div>","null",""
"","","","","","html-button-response","16","549031","0.0-3.0-1.6","3","1","2023-06-09 15:22:04","846205d480aaa49f22c83d5c8cececc8","89.116.158.254","Mozilla/5.0 (Macintosh; Intel Mac OS X 10_15_7) AppleWebKit/537.36 (KHTML, like Gecko) Chrome/114.0.0.0 Safari/537.36","Macintosh","Chrome","114.0.0.0","OS X","10_15_7","7662","<p>As the military commander, you could choose to launch a missile to kill <strong>10 enemy soldiers</strong> , but would accidentally kill <strong>1 enemy civilian</strong> nearby.</p> <p>The photo of the <strong>enemy civilian</strong> is shown below.</p> <p></p> <img src='stimuli/faces/PCF4.jpg', style='max-width: 30%;'> </img> <p><strong>Would you launch the weapon?</strong></p>","0",""
"","","","","","html-keyboard-response","17","550037","0.0-3.0-0.7","3","1","2023-06-09 15:22:04","846205d480aaa49f22c83d5c8cececc8","89.116.158.254","Mozilla/5.0 (Macintosh; Intel Mac OS X 10_15_7) AppleWebKit/537.36 (KHTML, like Gecko) Chrome/114.0.0.0 Safari/537.36","Macintosh","Chrome","114.0.0.0","OS X","10_15_7","null","<div style=""font-size:60px;"">+</div>","null",""
"","","","","","html-button-response","18","555619","0.0-3.0-1.7","3","1","2023-06-09 15:22:04","846205d480aaa49f22c83d5c8cececc8","89.116.158.254","Mozilla/5.0 (Macintosh; Intel Mac OS X 10_15_7) AppleWebKit/537.36 (KHTML, like Gecko) Chrome/114.0.0.0 Safari/537.36","Macintosh","Chrome","114.0.0.0","OS X","10_15_7","5581","<p>As the military commander, you could choose to launch a missile to kill <strong>9 enemy soldiers</strong> , but would accidentally kill <strong>1 enemy tree</strong> nearby.</p> <p>The photo of the <strong>enemy tree</strong> is shown below.</p> <p></p> <img src='stimuli/tree/3.png', style='max-width: 30%;'> </img> <p><strong>Would you launch the weapon?</strong></p>","0",""
"","","","","","html-keyboard-response","19","556630","0.0-3.0-0.8","3","1","2023-06-09 15:22:04","846205d480aaa49f22c83d5c8cececc8","89.116.158.254","Mozilla/5.0 (Macintosh; Intel Mac OS X 10_15_7) AppleWebKit/537.36 (KHTML, like Gecko) Chrome/114.0.0.0 Safari/537.36","Macintosh","Chrome","114.0.0.0","OS X","10_15_7","null","<div style=""font-size:60px;"">+</div>","null",""
"","","","","","html-button-response","20","560740","0.0-3.0-1.8","3","1","2023-06-09 15:22:04","846205d480aaa49f22c83d5c8cececc8","89.116.158.254","Mozilla/5.0 (Macintosh; Intel Mac OS X 10_15_7) AppleWebKit/537.36 (KHTML, like Gecko) Chrome/114.0.0.0 Safari/537.36","Macintosh","Chrome","114.0.0.0","OS X","10_15_7","4109","<p>As the military commander, you could choose to launch a missile to kill <strong>2 enemy soldiers</strong> , but would accidentally kill <strong>1 enemy tree</strong> nearby.</p> <p>The photo of the <strong>enemy tree</strong> is shown below.</p> <p></p> <img src='stimuli/tree/13.png', style='max-width: 30%;'> </img> <p><strong>Would you launch the weapon?</strong></p>","0",""
"","","","","","html-keyboard-response","21","561752","0.0-3.0-0.9","3","1","2023-06-09 15:22:04","846205d480aaa49f22c83d5c8cececc8","89.116.158.254","Mozilla/5.0 (Macintosh; Intel Mac OS X 10_15_7) AppleWebKit/537.36 (KHTML, like Gecko) Chrome/114.0.0.0 Safari/537.36","Macintosh","Chrome","114.0.0.0","OS X","10_15_7","null","<div style=""font-size:60px;"">+</div>","null",""
"","","","","","html-button-response","22","564095","0.0-3.0-1.9","3","1","2023-06-09 15:22:04","846205d480aaa49f22c83d5c8cececc8","89.116.158.254","Mozilla/5.0 (Macintosh; Intel Mac OS X 10_15_7) AppleWebKit/537.36 (KHTML, like Gecko) Chrome/114.0.0.0 Safari/537.36","Macintosh","Chrome","114.0.0.0","OS X","10_15_7","2341","<p>As the military commander, you could choose to launch a missile to kill <strong>3 enemy soldiers</strong> , but would accidentally kill <strong>1 enemy civilian</strong> nearby.</p> <p>The photo of the <strong>enemy civilian</strong> is shown below.</p> <p></p> <img src='stimuli/faces/PCF7.jpg', style='max-width: 30%;'> </img> <p><strong>Would you launch the weapon?</strong></p>","1",""
"","","","","","html-keyboard-response","23","565100","0.0-3.0-0.10","3","1","2023-06-09 15:22:04","846205d480aaa49f22c83d5c8cececc8","89.116.158.254","Mozilla/5.0 (Macintosh; Intel Mac OS X 10_15_7) AppleWebKit/537.36 (KHTML, like Gecko) Chrome/114.0.0.0 Safari/537.36","Macintosh","Chrome","114.0.0.0","OS X","10_15_7","null","<div style=""font-size:60px;"">+</div>","null",""
"","","","","","html-button-response","24","569042","0.0-3.0-1.10","3","1","2023-06-09 15:22:04","846205d480aaa49f22c83d5c8cececc8","89.116.158.254","Mozilla/5.0 (Macintosh; Intel Mac OS X 10_15_7) AppleWebKit/537.36 (KHTML, like Gecko) Chrome/114.0.0.0 Safari/537.36","Macintosh","Chrome","114.0.0.0","OS X","10_15_7","3940","<p>As the military commander, you could choose to launch a missile to kill <strong>2 enemy soldiers</strong> , but would accidentally kill <strong>1 enemy civilian</strong> nearby.</p> <p>The photo of the <strong>enemy civilian</strong> is shown below.</p> <p></p> <img src='stimuli/faces/PCM6.jpg', style='max-width: 30%;'> </img> <p><strong>Would you launch the weapon?</strong></p>","1",""
"","","","","","html-keyboard-response","25","570049","0.0-3.0-0.11","3","1","2023-06-09 15:22:04","846205d480aaa49f22c83d5c8cececc8","89.116.158.254","Mozilla/5.0 (Macintosh; Intel Mac OS X 10_15_7) AppleWebKit/537.36 (KHTML, like Gecko) Chrome/114.0.0.0 Safari/537.36","Macintosh","Chrome","114.0.0.0","OS X","10_15_7","null","<div style=""font-size:60px;"">+</div>","null",""
"","","","","","html-button-response","26","574153","0.0-3.0-1.11","3","1","2023-06-09 15:22:04","846205d480aaa49f22c83d5c8cececc8","89.116.158.254","Mozilla/5.0 (Macintosh; Intel Mac OS X 10_15_7) AppleWebKit/537.36 (KHTML, like Gecko) Chrome/114.0.0.0 Safari/537.36","Macintosh","Chrome","114.0.0.0","OS X","10_15_7","4102","<p>As the military commander, you could choose to launch a missile to kill <strong>5 enemy soldiers</strong> , but would accidentally kill <strong>1 enemy civilian</strong> nearby.</p> <p>The photo of the <strong>enemy civilian</strong> is shown below.</p> <p></p> <img src='stimuli/faces/PCF8.jpg', style='max-width: 30%;'> </img> <p><strong>Would you launch the weapon?</strong></p>","0",""
"","","","","","html-keyboard-response","27","575158","0.0-3.0-0.12","3","1","2023-06-09 15:22:04","846205d480aaa49f22c83d5c8cececc8","89.116.158.254","Mozilla/5.0 (Macintosh; Intel Mac OS X 10_15_7) AppleWebKit/537.36 (KHTML, like Gecko) Chrome/114.0.0.0 Safari/537.36","Macintosh","Chrome","114.0.0.0","OS X","10_15_7","null","<div style=""font-size:60px;"">+</div>","null",""
"","","","","","html-button-response","28","578123","0.0-3.0-1.12","3","1","2023-06-09 15:22:04","846205d480aaa49f22c83d5c8cececc8","89.116.158.254","Mozilla/5.0 (Macintosh; Intel Mac OS X 10_15_7) AppleWebKit/537.36 (KHTML, like Gecko) Chrome/114.0.0.0 Safari/537.36","Macintosh","Chrome","114.0.0.0","OS X","10_15_7","2963","<p>As the military commander, you could choose to launch a missile to kill <strong>8 enemy soldiers</strong> , but would accidentally kill <strong>1 enemy tree</strong> nearby.</p> <p>The photo of the <strong>enemy tree</strong> is shown below.</p> <p></p> <img src='stimuli/tree/5.png', style='max-width: 30%;'> </img> <p><strong>Would you launch the weapon?</strong></p>","0",""
"","","","","","html-keyboard-response","29","579136","0.0-3.0-0.13","3","1","2023-06-09 15:22:04","846205d480aaa49f22c83d5c8cececc8","89.116.158.254","Mozilla/5.0 (Macintosh; Intel Mac OS X 10_15_7) AppleWebKit/537.36 (KHTML, like Gecko) Chrome/114.0.0.0 Safari/537.36","Macintosh","Chrome","114.0.0.0","OS X","10_15_7","null","<div style=""font-size:60px;"">+</div>","null",""
"","","","","","html-button-response","30","584600","0.0-3.0-1.13","3","1","2023-06-09 15:22:04","846205d480aaa49f22c83d5c8cececc8","89.116.158.254","Mozilla/5.0 (Macintosh; Intel Mac OS X 10_15_7) AppleWebKit/537.36 (KHTML, like Gecko) Chrome/114.0.0.0 Safari/537.36","Macintosh","Chrome","114.0.0.0","OS X","10_15_7","5462","<p>As the military commander, you could choose to launch a missile to kill <strong>6 enemy soldiers</strong> , but would accidentally kill <strong>1 enemy civilian</strong> nearby.</p> <p>The photo of the <strong>enemy civilian</strong> is shown below.</p> <p></p> <img src='stimuli/faces/PCF8.jpg', style='max-width: 30%;'> </img> <p><strong>Would you launch the weapon?</strong></p>","0",""
"","","","","","html-keyboard-response","31","585605","0.0-3.0-0.14","3","1","2023-06-09 15:22:04","846205d480aaa49f22c83d5c8cececc8","89.116.158.254","Mozilla/5.0 (Macintosh; Intel Mac OS X 10_15_7) AppleWebKit/537.36 (KHTML, like Gecko) Chrome/114.0.0.0 Safari/537.36","Macintosh","Chrome","114.0.0.0","OS X","10_15_7","null","<div style=""font-size:60px;"">+</div>","null",""
"","","","","","html-button-response","32","589256","0.0-3.0-1.14","3","1","2023-06-09 15:22:04","846205d480aaa49f22c83d5c8cececc8","89.116.158.254","Mozilla/5.0 (Macintosh; Intel Mac OS X 10_15_7) AppleWebKit/537.36 (KHTML, like Gecko) Chrome/114.0.0.0 Safari/537.36","Macintosh","Chrome","114.0.0.0","OS X","10_15_7","3648","<p>As the military commander, you could choose to launch a missile to kill <strong>5 enemy soldiers</strong> , but would accidentally kill <strong>1 enemy civilian</strong> nearby.</p> <p>The photo of the <strong>enemy civilian</strong> is shown below.</p> <p></p> <img src='stimuli/faces/PCM4.jpg', style='max-width: 30%;'> </img> <p><strong>Would you launch the weapon?</strong></p>","0",""
"","","","","","html-keyboard-response","33","590264","0.0-3.0-0.15","3","1","2023-06-09 15:22:04","846205d480aaa49f22c83d5c8cececc8","89.116.158.254","Mozilla/5.0 (Macintosh; Intel Mac OS X 10_15_7) AppleWebKit/537.36 (KHTML, like Gecko) Chrome/114.0.0.0 Safari/537.36","Macintosh","Chrome","114.0.0.0","OS X","10_15_7","null","<div style=""font-size:60px;"">+</div>","null",""
"","","","","","html-button-response","34","592167","0.0-3.0-1.15","3","1","2023-06-09 15:22:04","846205d480aaa49f22c83d5c8cececc8","89.116.158.254","Mozilla/5.0 (Macintosh; Intel Mac OS X 10_15_7) AppleWebKit/537.36 (KHTML, like Gecko) Chrome/114.0.0.0 Safari/537.36","Macintosh","Chrome","114.0.0.0","OS X","10_15_7","1900","<p>As the military commander, you could choose to launch a missile to kill <strong>7 enemy soldiers</strong> , but would accidentally kill <strong>1 enemy tree</strong> nearby.</p> <p>The photo of the <strong>enemy tree</strong> is shown below.</p> <p></p> <img src='stimuli/tree/8.png', style='max-width: 30%;'> </img> <p><strong>Would you launch the weapon?</strong></p>","0",""
"","","","","","html-keyboard-response","35","593175","0.0-3.0-0.16","3","1","2023-06-09 15:22:04","846205d480aaa49f22c83d5c8cececc8","89.116.158.254","Mozilla/5.0 (Macintosh; Intel Mac OS X 10_15_7) AppleWebKit/537.36 (KHTML, like Gecko) Chrome/114.0.0.0 Safari/537.36","Macintosh","Chrome","114.0.0.0","OS X","10_15_7","null","<div style=""font-size:60px;"">+</div>","null",""
"","","","","","html-button-response","36","598156","0.0-3.0-1.16","3","1","2023-06-09 15:22:04","846205d480aaa49f22c83d5c8cececc8","89.116.158.254","Mozilla/5.0 (Macintosh; Intel Mac OS X 10_15_7) AppleWebKit/537.36 (KHTML, like Gecko) Chrome/114.0.0.0 Safari/537.36","Macintosh","Chrome","114.0.0.0","OS X","10_15_7","4979","<p>As the military commander, you could choose to launch a missile to kill <strong>10 enemy soldiers</strong> , but would accidentally kill <strong>1 enemy civilian</strong> nearby.</p> <p>The photo of the <strong>enemy civilian</strong> is shown below.</p> <p></p> <img src='stimuli/faces/PCM6.jpg', style='max-width: 30%;'> </img> <p><strong>Would you launch the weapon?</strong></p>","0",""
"","","","","","html-keyboard-response","37","599168","0.0-3.0-0.17","3","1","2023-06-09 15:22:04","846205d480aaa49f22c83d5c8cececc8","89.116.158.254","Mozilla/5.0 (Macintosh; Intel Mac OS X 10_15_7) AppleWebKit/537.36 (KHTML, like Gecko) Chrome/114.0.0.0 Safari/537.36","Macintosh","Chrome","114.0.0.0","OS X","10_15_7","null","<div style=""font-size:60px;"">+</div>","null",""
"","","","","","html-button-response","38","601031","0.0-3.0-1.17","3","1","2023-06-09 15:22:04","846205d480aaa49f22c83d5c8cececc8","89.116.158.254","Mozilla/5.0 (Macintosh; Intel Mac OS X 10_15_7) AppleWebKit/537.36 (KHTML, like Gecko) Chrome/114.0.0.0 Safari/537.36","Macintosh","Chrome","114.0.0.0","OS X","10_15_7","1860","<p>As the military commander, you could choose to launch a missile to kill <strong>10 enemy soldiers</strong> , but would accidentally kill <strong>1 enemy tree</strong> nearby.</p> <p>The photo of the <strong>enemy tree</strong> is shown below.</p> <p></p> <img src='stimuli/tree/10.png', style='max-width: 30%;'> </img> <p><strong>Would you launch the weapon?</strong></p>","0",""
"","","","","","html-keyboard-response","39","602036","0.0-3.0-0.18","3","1","2023-06-09 15:22:04","846205d480aaa49f22c83d5c8cececc8","89.116.158.254","Mozilla/5.0 (Macintosh; Intel Mac OS X 10_15_7) AppleWebKit/537.36 (KHTML, like Gecko) Chrome/114.0.0.0 Safari/537.36","Macintosh","Chrome","114.0.0.0","OS X","10_15_7","null","<div style=""font-size:60px;"">+</div>","null",""
"","","","","","html-button-response","40","605506","0.0-3.0-1.18","3","1","2023-06-09 15:22:04","846205d480aaa49f22c83d5c8cececc8","89.116.158.254","Mozilla/5.0 (Macintosh; Intel Mac OS X 10_15_7) AppleWebKit/537.36 (KHTML, like Gecko) Chrome/114.0.0.0 Safari/537.36","Macintosh","Chrome","114.0.0.0","OS X","10_15_7","3469","<p>As the military commander, you could choose to launch a missile to kill <strong>6 enemy soldiers</strong> , but would accidentally kill <strong>1 enemy civilian</strong> nearby.</p> <p>The photo of the <strong>enemy civilian</strong> is shown below.</p> <p></p> <img src='stimuli/faces/PCM5.jpg', style='max-width: 30%;'> </img> <p><strong>Would you launch the weapon?</strong></p>","0",""
"","","","","","html-keyboard-response","41","606520","0.0-3.0-0.19","3","1","2023-06-09 15:22:04","846205d480aaa49f22c83d5c8cececc8","89.116.158.254","Mozilla/5.0 (Macintosh; Intel Mac OS X 10_15_7) AppleWebKit/537.36 (KHTML, like Gecko) Chrome/114.0.0.0 Safari/537.36","Macintosh","Chrome","114.0.0.0","OS X","10_15_7","null","<div style=""font-size:60px;"">+</div>","null",""
"","","","","","html-button-response","42","609332","0.0-3.0-1.19","3","1","2023-06-09 15:22:04","846205d480aaa49f22c83d5c8cececc8","89.116.158.254","Mozilla/5.0 (Macintosh; Intel Mac OS X 10_15_7) AppleWebKit/537.36 (KHTML, like Gecko) Chrome/114.0.0.0 Safari/537.36","Macintosh","Chrome","114.0.0.0","OS X","10_15_7","2809","<p>As the military commander, you could choose to launch a missile to kill <strong>6 enemy soldiers</strong> , but would accidentally kill <strong>1 enemy tree</strong> nearby.</p> <p>The photo of the <strong>enemy tree</strong> is shown below.</p> <p></p> <img src='stimuli/tree/16.png', style='max-width: 30%;'> </img> <p><strong>Would you launch the weapon?</strong></p>","0",""
"","","","","","html-keyboard-response","43","610344","0.0-3.0-0.20","3","1","2023-06-09 15:22:04","846205d480aaa49f22c83d5c8cececc8","89.116.158.254","Mozilla/5.0 (Macintosh; Intel Mac OS X 10_15_7) AppleWebKit/537.36 (KHTML, like Gecko) Chrome/114.0.0.0 Safari/537.36","Macintosh","Chrome","114.0.0.0","OS X","10_15_7","null","<div style=""font-size:60px;"">+</div>","null",""
"","","","","","html-button-response","44","613230","0.0-3.0-1.20","3","1","2023-06-09 15:22:04","846205d480aaa49f22c83d5c8cececc8","89.116.158.254","Mozilla/5.0 (Macintosh; Intel Mac OS X 10_15_7) AppleWebKit/537.36 (KHTML, like Gecko) Chrome/114.0.0.0 Safari/537.36","Macintosh","Chrome","114.0.0.0","OS X","10_15_7","2883","<p>As the military commander, you could choose to launch a missile to kill <strong>1 enemy soldier</strong> , but would accidentally kill <strong>1 enemy civilian</strong> nearby.</p> <p>The photo of the <strong>enemy civilian</strong> is shown below.</p> <p></p> <img src='stimuli/faces/PCF5.jpg', style='max-width: 30%;'> </img> <p><strong>Would you launch the weapon?</strong></p>","1",""
"","","","","","html-keyboard-response","45","614237","0.0-3.0-0.21","3","1","2023-06-09 15:22:04","846205d480aaa49f22c83d5c8cececc8","89.116.158.254","Mozilla/5.0 (Macintosh; Intel Mac OS X 10_15_7) AppleWebKit/537.36 (KHTML, like Gecko) Chrome/114.0.0.0 Safari/537.36","Macintosh","Chrome","114.0.0.0","OS X","10_15_7","null","<div style=""font-size:60px;"">+</div>","null",""
"","","","","","html-button-response","46","616770","0.0-3.0-1.21","3","1","2023-06-09 15:22:04","846205d480aaa49f22c83d5c8cececc8","89.116.158.254","Mozilla/5.0 (Macintosh; Intel Mac OS X 10_15_7) AppleWebKit/537.36 (KHTML, like Gecko) Chrome/114.0.0.0 Safari/537.36","Macintosh","Chrome","114.0.0.0","OS X","10_15_7","2531","<p>As the military commander, you could choose to launch a missile to kill <strong>4 enemy soldiers</strong> , but would accidentally kill <strong>1 enemy civilian</strong> nearby.</p> <p>The photo of the <strong>enemy civilian</strong> is shown below.</p> <p></p> <img src='stimuli/faces/PCM7.jpg', style='max-width: 30%;'> </img> <p><strong>Would you launch the weapon?</strong></p>","1",""
"","","","","","html-keyboard-response","47","617785","0.0-3.0-0.22","3","1","2023-06-09 15:22:04","846205d480aaa49f22c83d5c8cececc8","89.116.158.254","Mozilla/5.0 (Macintosh; Intel Mac OS X 10_15_7) AppleWebKit/537.36 (KHTML, like Gecko) Chrome/114.0.0.0 Safari/537.36","Macintosh","Chrome","114.0.0.0","OS X","10_15_7","null","<div style=""font-size:60px;"">+</div>","null",""
"","","","","","html-button-response","48","620681","0.0-3.0-1.22","3","1","2023-06-09 15:22:04","846205d480aaa49f22c83d5c8cececc8","89.116.158.254","Mozilla/5.0 (Macintosh; Intel Mac OS X 10_15_7) AppleWebKit/537.36 (KHTML, like Gecko) Chrome/114.0.0.0 Safari/537.36","Macintosh","Chrome","114.0.0.0","OS X","10_15_7","2894","<p>As the military commander, you could choose to launch a missile to kill <strong>7 enemy soldiers</strong> , but would accidentally kill <strong>1 enemy civilian</strong> nearby.</p> <p>The photo of the <strong>enemy civilian</strong> is shown below.</p> <p></p> <img src='stimuli/faces/PCM8.jpg', style='max-width: 30%;'> </img> <p><strong>Would you launch the weapon?</strong></p>","0",""
"","","","","","html-keyboard-response","49","621689","0.0-3.0-0.23","3","1","2023-06-09 15:22:04","846205d480aaa49f22c83d5c8cececc8","89.116.158.254","Mozilla/5.0 (Macintosh; Intel Mac OS X 10_15_7) AppleWebKit/537.36 (KHTML, like Gecko) Chrome/114.0.0.0 Safari/537.36","Macintosh","Chrome","114.0.0.0","OS X","10_15_7","null","<div style=""font-size:60px;"">+</div>","null",""
"","","","","","html-button-response","50","625657","0.0-3.0-1.23","3","1","2023-06-09 15:22:04","846205d480aaa49f22c83d5c8cececc8","89.116.158.254","Mozilla/5.0 (Macintosh; Intel Mac OS X 10_15_7) AppleWebKit/537.36 (KHTML, like Gecko) Chrome/114.0.0.0 Safari/537.36","Macintosh","Chrome","114.0.0.0","OS X","10_15_7","3966","<p>As the military commander, you could choose to launch a missile to kill <strong>8 enemy soldiers</strong> , but would accidentally kill <strong>1 enemy civilian</strong> nearby.</p> <p>The photo of the <strong>enemy civilian</strong> is shown below.</p> <p></p> <img src='stimuli/faces/PCF2.jpg', style='max-width: 30%;'> </img> <p><strong>Would you launch the weapon?</strong></p>","0",""
"","","","","","html-keyboard-response","51","626661","0.0-3.0-0.24","3","1","2023-06-09 15:22:04","846205d480aaa49f22c83d5c8cececc8","89.116.158.254","Mozilla/5.0 (Macintosh; Intel Mac OS X 10_15_7) AppleWebKit/537.36 (KHTML, like Gecko) Chrome/114.0.0.0 Safari/537.36","Macintosh","Chrome","114.0.0.0","OS X","10_15_7","null","<div style=""font-size:60px;"">+</div>","null",""
"","","","","","html-button-response","52","864076","0.0-3.0-1.24","3","1","2023-06-09 15:22:04","846205d480aaa49f22c83d5c8cececc8","89.116.158.254","Mozilla/5.0 (Macintosh; Intel Mac OS X 10_15_7) AppleWebKit/537.36 (KHTML, like Gecko) Chrome/114.0.0.0 Safari/537.36","Macintosh","Chrome","114.0.0.0","OS X","10_15_7","237407","<p>As the military commander, you could choose to launch a missile to kill <strong>3 enemy soldiers</strong> , but would accidentally kill <strong>1 enemy civilian</strong> nearby.</p> <p>The photo of the <strong>enemy civilian</strong> is shown below.</p> <p></p> <img src='stimuli/faces/PCM3.jpg', style='max-width: 30%;'> </img> <p><strong>Would you launch the weapon?</strong></p>","1",""
"","","","","","html-keyboard-response","53","865087","0.0-3.0-0.25","3","1","2023-06-09 15:22:04","846205d480aaa49f22c83d5c8cececc8","89.116.158.254","Mozilla/5.0 (Macintosh; Intel Mac OS X 10_15_7) AppleWebKit/537.36 (KHTML, like Gecko) Chrome/114.0.0.0 Safari/537.36","Macintosh","Chrome","114.0.0.0","OS X","10_15_7","null","<div style=""font-size:60px;"">+</div>","null",""
"","","","","","html-button-response","54","868514","0.0-3.0-1.25","3","1","2023-06-09 15:22:04","846205d480aaa49f22c83d5c8cececc8","89.116.158.254","Mozilla/5.0 (Macintosh; Intel Mac OS X 10_15_7) AppleWebKit/537.36 (KHTML, like Gecko) Chrome/114.0.0.0 Safari/537.36","Macintosh","Chrome","114.0.0.0","OS X","10_15_7","3424","<p>As the military commander, you could choose to launch a missile to kill <strong>4 enemy soldiers</strong> , but would accidentally kill <strong>1 enemy civilian</strong> nearby.</p> <p>The photo of the <strong>enemy civilian</strong> is shown below.</p> <p></p> <img src='stimuli/faces/PCM2.jpg', style='max-width: 30%;'> </img> <p><strong>Would you launch the weapon?</strong></p>","1",""
"","","","","","html-keyboard-response","55","869525","0.0-3.0-0.26","3","1","2023-06-09 15:22:04","846205d480aaa49f22c83d5c8cececc8","89.116.158.254","Mozilla/5.0 (Macintosh; Intel Mac OS X 10_15_7) AppleWebKit/537.36 (KHTML, like Gecko) Chrome/114.0.0.0 Safari/537.36","Macintosh","Chrome","114.0.0.0","OS X","10_15_7","null","<div style=""font-size:60px;"">+</div>","null",""
"","","","","","html-button-response","56","871435","0.0-3.0-1.26","3","1","2023-06-09 15:22:04","846205d480aaa49f22c83d5c8cececc8","89.116.158.254","Mozilla/5.0 (Macintosh; Intel Mac OS X 10_15_7) AppleWebKit/537.36 (KHTML, like Gecko) Chrome/114.0.0.0 Safari/537.36","Macintosh","Chrome","114.0.0.0","OS X","10_15_7","1907","<p>As the military commander, you could choose to launch a missile to kill <strong>2 enemy soldiers</strong> , but would accidentally kill <strong>1 enemy tree</strong> nearby.</p> <p>The photo of the <strong>enemy tree</strong> is shown below.</p> <p></p> <img src='stimuli/tree/1.png', style='max-width: 30%;'> </img> <p><strong>Would you launch the weapon?</strong></p>","0",""
"","","","","","html-keyboard-response","57","872442","0.0-3.0-0.27","3","1","2023-06-09 15:22:04","846205d480aaa49f22c83d5c8cececc8","89.116.158.254","Mozilla/5.0 (Macintosh; Intel Mac OS X 10_15_7) AppleWebKit/537.36 (KHTML, like Gecko) Chrome/114.0.0.0 Safari/537.36","Macintosh","Chrome","114.0.0.0","OS X","10_15_7","null","<div style=""font-size:60px;"">+</div>","null",""
"","","","","","html-button-response","58","874105","0.0-3.0-1.27","3","1","2023-06-09 15:22:04","846205d480aaa49f22c83d5c8cececc8","89.116.158.254","Mozilla/5.0 (Macintosh; Intel Mac OS X 10_15_7) AppleWebKit/537.36 (KHTML, like Gecko) Chrome/114.0.0.0 Safari/537.36","Macintosh","Chrome","114.0.0.0","OS X","10_15_7","1660","<p>As the military commander, you could choose to launch a missile to kill <strong>5 enemy soldiers</strong> , but would accidentally kill <strong>1 enemy civilian</strong> nearby.</p> <p>The photo of the <strong>enemy civilian</strong> is shown below.</p> <p></p> <img src='stimuli/faces/PCM1.jpg', style='max-width: 30%;'> </img> <p><strong>Would you launch the weapon?</strong></p>","0",""
"","","","","","html-keyboard-response","59","875118","0.0-3.0-0.28","3","1","2023-06-09 15:22:04","846205d480aaa49f22c83d5c8cececc8","89.116.158.254","Mozilla/5.0 (Macintosh; Intel Mac OS X 10_15_7) AppleWebKit/537.36 (KHTML, like Gecko) Chrome/114.0.0.0 Safari/537.36","Macintosh","Chrome","114.0.0.0","OS X","10_15_7","null","<div style=""font-size:60px;"">+</div>","null",""
"","","","","","html-button-response","60","877927","0.0-3.0-1.28","3","1","2023-06-09 15:22:04","846205d480aaa49f22c83d5c8cececc8","89.116.158.254","Mozilla/5.0 (Macintosh; Intel Mac OS X 10_15_7) AppleWebKit/537.36 (KHTML, like Gecko) Chrome/114.0.0.0 Safari/537.36","Macintosh","Chrome","114.0.0.0","OS X","10_15_7","2807","<p>As the military commander, you could choose to launch a missile to kill <strong>5 enemy soldiers</strong> , but would accidentally kill <strong>1 enemy tree</strong> nearby.</p> <p>The photo of the <strong>enemy tree</strong> is shown below.</p> <p></p> <img src='stimuli/tree/9.png', style='max-width: 30%;'> </img> <p><strong>Would you launch the weapon?</strong></p>","0",""
"","","","","","html-keyboard-response","61","878932","0.0-3.0-0.29","3","1","2023-06-09 15:22:04","846205d480aaa49f22c83d5c8cececc8","89.116.158.254","Mozilla/5.0 (Macintosh; Intel Mac OS X 10_15_7) AppleWebKit/537.36 (KHTML, like Gecko) Chrome/114.0.0.0 Safari/537.36","Macintosh","Chrome","114.0.0.0","OS X","10_15_7","null","<div style=""font-size:60px;"">+</div>","null",""
"","","","","","html-button-response","62","881520","0.0-3.0-1.29","3","1","2023-06-09 15:22:04","846205d480aaa49f22c83d5c8cececc8","89.116.158.254","Mozilla/5.0 (Macintosh; Intel Mac OS X 10_15_7) AppleWebKit/537.36 (KHTML, like Gecko) Chrome/114.0.0.0 Safari/537.36","Macintosh","Chrome","114.0.0.0","OS X","10_15_7","2584","<p>As the military commander, you could choose to launch a missile to kill <strong>10 enemy soldiers</strong> , but would accidentally kill <strong>1 enemy civilian</strong> nearby.</p> <p>The photo of the <strong>enemy civilian</strong> is shown below.</p> <p></p> <img src='stimuli/faces/PCF1.jpg', style='max-width: 30%;'> </img> <p><strong>Would you launch the weapon?</strong></p>","0",""
"","","","","","html-keyboard-response","63","882536","0.0-3.0-0.30","3","1","2023-06-09 15:22:04","846205d480aaa49f22c83d5c8cececc8","89.116.158.254","Mozilla/5.0 (Macintosh; Intel Mac OS X 10_15_7) AppleWebKit/537.36 (KHTML, like Gecko) Chrome/114.0.0.0 Safari/537.36","Macintosh","Chrome","114.0.0.0","OS X","10_15_7","null","<div style=""font-size:60px;"">+</div>","null",""
"","","","","","html-button-response","64","884619","0.0-3.0-1.30","3","1","2023-06-09 15:22:04","846205d480aaa49f22c83d5c8cececc8","89.116.158.254","Mozilla/5.0 (Macintosh; Intel Mac OS X 10_15_7) AppleWebKit/537.36 (KHTML, like Gecko) Chrome/114.0.0.0 Safari/537.36","Macintosh","Chrome","114.0.0.0","OS X","10_15_7","2079","<p>As the military commander, you could choose to launch a missile to kill <strong>2 enemy soldiers</strong> , but would accidentally kill <strong>1 enemy tree</strong> nearby.</p> <p>The photo of the <strong>enemy tree</strong> is shown below.</p> <p></p> <img src='stimuli/tree/14.png', style='max-width: 30%;'> </img> <p><strong>Would you launch the weapon?</strong></p>","0",""
"","","","","","html-keyboard-response","65","885630","0.0-3.0-0.31","3","1","2023-06-09 15:22:04","846205d480aaa49f22c83d5c8cececc8","89.116.158.254","Mozilla/5.0 (Macintosh; Intel Mac OS X 10_15_7) AppleWebKit/537.36 (KHTML, like Gecko) Chrome/114.0.0.0 Safari/537.36","Macintosh","Chrome","114.0.0.0","OS X","10_15_7","null","<div style=""font-size:60px;"">+</div>","null",""
"","","","","","html-button-response","66","887543","0.0-3.0-1.31","3","1","2023-06-09 15:22:04","846205d480aaa49f22c83d5c8cececc8","89.116.158.254","Mozilla/5.0 (Macintosh; Intel Mac OS X 10_15_7) AppleWebKit/537.36 (KHTML, like Gecko) Chrome/114.0.0.0 Safari/537.36","Macintosh","Chrome","114.0.0.0","OS X","10_15_7","1911","<p>As the military commander, you could choose to launch a missile to kill <strong>2 enemy soldiers</strong> , but would accidentally kill <strong>1 enemy civilian</strong> nearby.</p> <p>The photo of the <strong>enemy civilian</strong> is shown below.</p> <p></p> <img src='stimuli/faces/PCM5.jpg', style='max-width: 30%;'> </img> <p><strong>Would you launch the weapon?</strong></p>","1",""
"","","","","","html-keyboard-response","67","888547","0.0-3.0-0.32","3","1","2023-06-09 15:22:04","846205d480aaa49f22c83d5c8cececc8","89.116.158.254","Mozilla/5.0 (Macintosh; Intel Mac OS X 10_15_7) AppleWebKit/537.36 (KHTML, like Gecko) Chrome/114.0.0.0 Safari/537.36","Macintosh","Chrome","114.0.0.0","OS X","10_15_7","null","<div style=""font-size:60px;"">+</div>","null",""
"","","","","","html-button-response","68","890696","0.0-3.0-1.32","3","1","2023-06-09 15:22:04","846205d480aaa49f22c83d5c8cececc8","89.116.158.254","Mozilla/5.0 (Macintosh; Intel Mac OS X 10_15_7) AppleWebKit/537.36 (KHTML, like Gecko) Chrome/114.0.0.0 Safari/537.36","Macintosh","Chrome","114.0.0.0","OS X","10_15_7","2146","<p>As the military commander, you could choose to launch a missile to kill <strong>6 enemy soldiers</strong> , but would accidentally kill <strong>1 enemy tree</strong> nearby.</p> <p>The photo of the <strong>enemy tree</strong> is shown below.</p> <p></p> <img src='stimuli/tree/1.png', style='max-width: 30%;'> </img> <p><strong>Would you launch the weapon?</strong></p>","0",""
"","","","","","html-keyboard-response","69","891702","0.0-3.0-0.33","3","1","2023-06-09 15:22:04","846205d480aaa49f22c83d5c8cececc8","89.116.158.254","Mozilla/5.0 (Macintosh; Intel Mac OS X 10_15_7) AppleWebKit/537.36 (KHTML, like Gecko) Chrome/114.0.0.0 Safari/537.36","Macintosh","Chrome","114.0.0.0","OS X","10_15_7","null","<div style=""font-size:60px;"">+</div>","null",""
"","","","","","html-button-response","70","894571","0.0-3.0-1.33","3","1","2023-06-09 15:22:04","846205d480aaa49f22c83d5c8cececc8","89.116.158.254","Mozilla/5.0 (Macintosh; Intel Mac OS X 10_15_7) AppleWebKit/537.36 (KHTML, like Gecko) Chrome/114.0.0.0 Safari/537.36","Macintosh","Chrome","114.0.0.0","OS X","10_15_7","2865","<p>As the military commander, you could choose to launch a missile to kill <strong>7 enemy soldiers</strong> , but would accidentally kill <strong>1 enemy tree</strong> nearby.</p> <p>The photo of the <strong>enemy tree</strong> is shown below.</p> <p></p> <img src='stimuli/tree/9.png', style='max-width: 30%;'> </img> <p><strong>Would you launch the weapon?</strong></p>","0",""
"","","","","","html-keyboard-response","71","895584","0.0-3.0-0.34","3","1","2023-06-09 15:22:04","846205d480aaa49f22c83d5c8cececc8","89.116.158.254","Mozilla/5.0 (Macintosh; Intel Mac OS X 10_15_7) AppleWebKit/537.36 (KHTML, like Gecko) Chrome/114.0.0.0 Safari/537.36","Macintosh","Chrome","114.0.0.0","OS X","10_15_7","null","<div style=""font-size:60px;"">+</div>","null",""
"","","","","","html-button-response","72","898009","0.0-3.0-1.34","3","1","2023-06-09 15:22:04","846205d480aaa49f22c83d5c8cececc8","89.116.158.254","Mozilla/5.0 (Macintosh; Intel Mac OS X 10_15_7) AppleWebKit/537.36 (KHTML, like Gecko) Chrome/114.0.0.0 Safari/537.36","Macintosh","Chrome","114.0.0.0","OS X","10_15_7","2422","<p>As the military commander, you could choose to launch a missile to kill <strong>4 enemy soldiers</strong> , but would accidentally kill <strong>1 enemy tree</strong> nearby.</p> <p>The photo of the <strong>enemy tree</strong> is shown below.</p> <p></p> <img src='stimuli/tree/5.png', style='max-width: 30%;'> </img> <p><strong>Would you launch the weapon?</strong></p>","0",""
"","","","","","html-keyboard-response","73","899024","0.0-3.0-0.35","3","1","2023-06-09 15:22:04","846205d480aaa49f22c83d5c8cececc8","89.116.158.254","Mozilla/5.0 (Macintosh; Intel Mac OS X 10_15_7) AppleWebKit/537.36 (KHTML, like Gecko) Chrome/114.0.0.0 Safari/537.36","Macintosh","Chrome","114.0.0.0","OS X","10_15_7","null","<div style=""font-size:60px;"">+</div>","null",""
"","","","","","html-button-response","74","901277","0.0-3.0-1.35","3","1","2023-06-09 15:22:04","846205d480aaa49f22c83d5c8cececc8","89.116.158.254","Mozilla/5.0 (Macintosh; Intel Mac OS X 10_15_7) AppleWebKit/537.36 (KHTML, like Gecko) Chrome/114.0.0.0 Safari/537.36","Macintosh","Chrome","114.0.0.0","OS X","10_15_7","2251","<p>As the military commander, you could choose to launch a missile to kill <strong>2 enemy soldiers</strong> , but would accidentally kill <strong>1 enemy civilian</strong> nearby.</p> <p>The photo of the <strong>enemy civilian</strong> is shown below.</p> <p></p> <img src='stimuli/faces/PCM8.jpg', style='max-width: 30%;'> </img> <p><strong>Would you launch the weapon?</strong></p>","1",""
"","","","","","html-keyboard-response","75","902285","0.0-3.0-0.36","3","1","2023-06-09 15:22:04","846205d480aaa49f22c83d5c8cececc8","89.116.158.254","Mozilla/5.0 (Macintosh; Intel Mac OS X 10_15_7) AppleWebKit/537.36 (KHTML, like Gecko) Chrome/114.0.0.0 Safari/537.36","Macintosh","Chrome","114.0.0.0","OS X","10_15_7","null","<div style=""font-size:60px;"">+</div>","null",""
"","","","","","html-button-response","76","1031218","0.0-3.0-1.36","3","1","2023-06-09 15:22:04","846205d480aaa49f22c83d5c8cececc8","89.116.158.254","Mozilla/5.0 (Macintosh; Intel Mac OS X 10_15_7) AppleWebKit/537.36 (KHTML, like Gecko) Chrome/114.0.0.0 Safari/537.36","Macintosh","Chrome","114.0.0.0","OS X","10_15_7","128927","<p>As the military commander, you could choose to launch a missile to kill <strong>5 enemy soldiers</strong> , but would accidentally kill <strong>1 enemy tree</strong> nearby.</p> <p>The photo of the <strong>enemy tree</strong> is shown below.</p> <p></p> <img src='stimuli/tree/16.png', style='max-width: 30%;'> </img> <p><strong>Would you launch the weapon?</strong></p>","0",""
"","","","","","html-keyboard-response","77","1032224","0.0-3.0-0.37","3","1","2023-06-09 15:22:04","846205d480aaa49f22c83d5c8cececc8","89.116.158.254","Mozilla/5.0 (Macintosh; Intel Mac OS X 10_15_7) AppleWebKit/537.36 (KHTML, like Gecko) Chrome/114.0.0.0 Safari/537.36","Macintosh","Chrome","114.0.0.0","OS X","10_15_7","null","<div style=""font-size:60px;"">+</div>","null",""
"","","","","","html-button-response","78","1033792","0.0-3.0-1.37","3","1","2023-06-09 15:22:04","846205d480aaa49f22c83d5c8cececc8","89.116.158.254","Mozilla/5.0 (Macintosh; Intel Mac OS X 10_15_7) AppleWebKit/537.36 (KHTML, like Gecko) Chrome/114.0.0.0 Safari/537.36","Macintosh","Chrome","114.0.0.0","OS X","10_15_7","1565","<p>As the military commander, you could choose to launch a missile to kill <strong>9 enemy soldiers</strong> , but would accidentally kill <strong>1 enemy tree</strong> nearby.</p> <p>The photo of the <strong>enemy tree</strong> is shown below.</p> <p></p> <img src='stimuli/tree/4.png', style='max-width: 30%;'> </img> <p><strong>Would you launch the weapon?</strong></p>","0",""
"","","","","","html-keyboard-response","79","1034800","0.0-3.0-0.38","3","1","2023-06-09 15:22:04","846205d480aaa49f22c83d5c8cececc8","89.116.158.254","Mozilla/5.0 (Macintosh; Intel Mac OS X 10_15_7) AppleWebKit/537.36 (KHTML, like Gecko) Chrome/114.0.0.0 Safari/537.36","Macintosh","Chrome","114.0.0.0","OS X","10_15_7","null","<div style=""font-size:60px;"">+</div>","null",""
"","","","","","html-button-response","80","1036151","0.0-3.0-1.38","3","1","2023-06-09 15:22:04","846205d480aaa49f22c83d5c8cececc8","89.116.158.254","Mozilla/5.0 (Macintosh; Intel Mac OS X 10_15_7) AppleWebKit/537.36 (KHTML, like Gecko) Chrome/114.0.0.0 Safari/537.36","Macintosh","Chrome","114.0.0.0","OS X","10_15_7","1347","<p>As the military commander, you could choose to launch a missile to kill <strong>7 enemy soldiers</strong> , but would accidentally kill <strong>1 enemy tree</strong> nearby.</p> <p>The photo of the <strong>enemy tree</strong> is shown below.</p> <p></p> <img src='stimuli/tree/6.png', style='max-width: 30%;'> </img> <p><strong>Would you launch the weapon?</strong></p>","0",""
"","","","","","html-keyboard-response","81","1037158","0.0-3.0-0.39","3","1","2023-06-09 15:22:04","846205d480aaa49f22c83d5c8cececc8","89.116.158.254","Mozilla/5.0 (Macintosh; Intel Mac OS X 10_15_7) AppleWebKit/537.36 (KHTML, like Gecko) Chrome/114.0.0.0 Safari/537.36","Macintosh","Chrome","114.0.0.0","OS X","10_15_7","null","<div style=""font-size:60px;"">+</div>","null",""
"","","","","","html-button-response","82","1038591","0.0-3.0-1.39","3","1","2023-06-09 15:22:04","846205d480aaa49f22c83d5c8cececc8","89.116.158.254","Mozilla/5.0 (Macintosh; Intel Mac OS X 10_15_7) AppleWebKit/537.36 (KHTML, like Gecko) Chrome/114.0.0.0 Safari/537.36","Macintosh","Chrome","114.0.0.0","OS X","10_15_7","1429","<p>As the military commander, you could choose to launch a missile to kill <strong>5 enemy soldiers</strong> , but would accidentally kill <strong>1 enemy tree</strong> nearby.</p> <p>The photo of the <strong>enemy tree</strong> is shown below.</p> <p></p> <img src='stimuli/tree/12.png', style='max-width: 30%;'> </img> <p><strong>Would you launch the weapon?</strong></p>","0",""
"","","","","","html-keyboard-response","83","1039603","0.0-3.0-0.40","3","1","2023-06-09 15:22:04","846205d480aaa49f22c83d5c8cececc8","89.116.158.254","Mozilla/5.0 (Macintosh; Intel Mac OS X 10_15_7) AppleWebKit/537.36 (KHTML, like Gecko) Chrome/114.0.0.0 Safari/537.36","Macintosh","Chrome","114.0.0.0","OS X","10_15_7","null","<div style=""font-size:60px;"">+</div>","null",""
"","","","","","html-button-response","84","1041193","0.0-3.0-1.40","3","1","2023-06-09 15:22:04","846205d480aaa49f22c83d5c8cececc8","89.116.158.254","Mozilla/5.0 (Macintosh; Intel Mac OS X 10_15_7) AppleWebKit/537.36 (KHTML, like Gecko) Chrome/114.0.0.0 Safari/537.36","Macintosh","Chrome","114.0.0.0","OS X","10_15_7","1586","<p>As the military commander, you could choose to launch a missile to kill <strong>6 enemy soldiers</strong> , but would accidentally kill <strong>1 enemy tree</strong> nearby.</p> <p>The photo of the <strong>enemy tree</strong> is shown below.</p> <p></p> <img src='stimuli/tree/14.png', style='max-width: 30%;'> </img> <p><strong>Would you launch the weapon?</strong></p>","0",""
"","","","","","html-keyboard-response","85","1042201","0.0-3.0-0.41","3","1","2023-06-09 15:22:04","846205d480aaa49f22c83d5c8cececc8","89.116.158.254","Mozilla/5.0 (Macintosh; Intel Mac OS X 10_15_7) AppleWebKit/537.36 (KHTML, like Gecko) Chrome/114.0.0.0 Safari/537.36","Macintosh","Chrome","114.0.0.0","OS X","10_15_7","null","<div style=""font-size:60px;"">+</div>","null",""
"","","","","","html-button-response","86","1043284","0.0-3.0-1.41","3","1","2023-06-09 15:22:04","846205d480aaa49f22c83d5c8cececc8","89.116.158.254","Mozilla/5.0 (Macintosh; Intel Mac OS X 10_15_7) AppleWebKit/537.36 (KHTML, like Gecko) Chrome/114.0.0.0 Safari/537.36","Macintosh","Chrome","114.0.0.0","OS X","10_15_7","1080","<p>As the military commander, you could choose to launch a missile to kill <strong>4 enemy soldiers</strong> , but would accidentally kill <strong>1 enemy tree</strong> nearby.</p> <p>The photo of the <strong>enemy tree</strong> is shown below.</p> <p></p> <img src='stimuli/tree/10.png', style='max-width: 30%;'> </img> <p><strong>Would you launch the weapon?</strong></p>","0",""
"","","","","","html-keyboard-response","87","1044298","0.0-3.0-0.42","3","1","2023-06-09 15:22:04","846205d480aaa49f22c83d5c8cececc8","89.116.158.254","Mozilla/5.0 (Macintosh; Intel Mac OS X 10_15_7) AppleWebKit/537.36 (KHTML, like Gecko) Chrome/114.0.0.0 Safari/537.36","Macintosh","Chrome","114.0.0.0","OS X","10_15_7","null","<div style=""font-size:60px;"">+</div>","null",""
"","","","","","html-button-response","88","1045817","0.0-3.0-1.42","3","1","2023-06-09 15:22:04","846205d480aaa49f22c83d5c8cececc8","89.116.158.254","Mozilla/5.0 (Macintosh; Intel Mac OS X 10_15_7) AppleWebKit/537.36 (KHTML, like Gecko) Chrome/114.0.0.0 Safari/537.36","Macintosh","Chrome","114.0.0.0","OS X","10_15_7","1515","<p>As the military commander, you could choose to launch a missile to kill <strong>1 enemy soldier</strong> , but would accidentally kill <strong>1 enemy civilian</strong> nearby.</p> <p>The photo of the <strong>enemy civilian</strong> is shown below.</p> <p></p> <img src='stimuli/faces/PCF1.jpg', style='max-width: 30%;'> </img> <p><strong>Would you launch the weapon?</strong></p>","1",""
"","","","","","html-keyboard-response","89","1046825","0.0-3.0-0.43","3","1","2023-06-09 15:22:04","846205d480aaa49f22c83d5c8cececc8","89.116.158.254","Mozilla/5.0 (Macintosh; Intel Mac OS X 10_15_7) AppleWebKit/537.36 (KHTML, like Gecko) Chrome/114.0.0.0 Safari/537.36","Macintosh","Chrome","114.0.0.0","OS X","10_15_7","null","<div style=""font-size:60px;"">+</div>","null",""
"","","","","","html-button-response","90","1048890","0.0-3.0-1.43","3","1","2023-06-09 15:22:04","846205d480aaa49f22c83d5c8cececc8","89.116.158.254","Mozilla/5.0 (Macintosh; Intel Mac OS X 10_15_7) AppleWebKit/537.36 (KHTML, like Gecko) Chrome/114.0.0.0 Safari/537.36","Macintosh","Chrome","114.0.0.0","OS X","10_15_7","2063","<p>As the military commander, you could choose to launch a missile to kill <strong>4 enemy soldiers</strong> , but would accidentally kill <strong>1 enemy civilian</strong> nearby.</p> <p>The photo of the <strong>enemy civilian</strong> is shown below.</p> <p></p> <img src='stimuli/faces/PCF2.jpg', style='max-width: 30%;'> </img> <p><strong>Would you launch the weapon?</strong></p>","1",""
"","","","","","html-keyboard-response","91","1049896","0.0-3.0-0.44","3","1","2023-06-09 15:22:04","846205d480aaa49f22c83d5c8cececc8","89.116.158.254","Mozilla/5.0 (Macintosh; Intel Mac OS X 10_15_7) AppleWebKit/537.36 (KHTML, like Gecko) Chrome/114.0.0.0 Safari/537.36","Macintosh","Chrome","114.0.0.0","OS X","10_15_7","null","<div style=""font-size:60px;"">+</div>","null",""
"","","","","","html-button-response","92","1051684","0.0-3.0-1.44","3","1","2023-06-09 15:22:04","846205d480aaa49f22c83d5c8cececc8","89.116.158.254","Mozilla/5.0 (Macintosh; Intel Mac OS X 10_15_7) AppleWebKit/537.36 (KHTML, like Gecko) Chrome/114.0.0.0 Safari/537.36","Macintosh","Chrome","114.0.0.0","OS X","10_15_7","1786","<p>As the military commander, you could choose to launch a missile to kill <strong>3 enemy soldiers</strong> , but would accidentally kill <strong>1 enemy tree</strong> nearby.</p> <p>The photo of the <strong>enemy tree</strong> is shown below.</p> <p></p> <img src='stimuli/tree/7.png', style='max-width: 30%;'> </img> <p><strong>Would you launch the weapon?</strong></p>","0",""
"","","","","","html-keyboard-response","93","1052699","0.0-3.0-0.45","3","1","2023-06-09 15:22:04","846205d480aaa49f22c83d5c8cececc8","89.116.158.254","Mozilla/5.0 (Macintosh; Intel Mac OS X 10_15_7) AppleWebKit/537.36 (KHTML, like Gecko) Chrome/114.0.0.0 Safari/537.36","Macintosh","Chrome","114.0.0.0","OS X","10_15_7","null","<div style=""font-size:60px;"">+</div>","null",""
"","","","","","html-button-response","94","1054333","0.0-3.0-1.45","3","1","2023-06-09 15:22:04","846205d480aaa49f22c83d5c8cececc8","89.116.158.254","Mozilla/5.0 (Macintosh; Intel Mac OS X 10_15_7) AppleWebKit/537.36 (KHTML, like Gecko) Chrome/114.0.0.0 Safari/537.36","Macintosh","Chrome","114.0.0.0","OS X","10_15_7","1631","<p>As the military commander, you could choose to launch a missile to kill <strong>7 enemy soldiers</strong> , but would accidentally kill <strong>1 enemy civilian</strong> nearby.</p> <p>The photo of the <strong>enemy civilian</strong> is shown below.</p> <p></p> <img src='stimuli/faces/PCF6.jpg', style='max-width: 30%;'> </img> <p><strong>Would you launch the weapon?</strong></p>","0",""
"","","","","","html-keyboard-response","95","1055342","0.0-3.0-0.46","3","1","2023-06-09 15:22:04","846205d480aaa49f22c83d5c8cececc8","89.116.158.254","Mozilla/5.0 (Macintosh; Intel Mac OS X 10_15_7) AppleWebKit/537.36 (KHTML, like Gecko) Chrome/114.0.0.0 Safari/537.36","Macintosh","Chrome","114.0.0.0","OS X","10_15_7","null","<div style=""font-size:60px;"">+</div>","null",""
"","","","","","html-button-response","96","1099641","0.0-3.0-1.46","3","1","2023-06-09 15:22:04","846205d480aaa49f22c83d5c8cececc8","89.116.158.254","Mozilla/5.0 (Macintosh; Intel Mac OS X 10_15_7) AppleWebKit/537.36 (KHTML, like Gecko) Chrome/114.0.0.0 Safari/537.36","Macintosh","Chrome","114.0.0.0","OS X","10_15_7","44295","<p>As the military commander, you could choose to launch a missile to kill <strong>6 enemy soldiers</strong> , but would accidentally kill <strong>1 enemy tree</strong> nearby.</p> <p>The photo of the <strong>enemy tree</strong> is shown below.</p> <p></p> <img src='stimuli/tree/13.png', style='max-width: 30%;'> </img> <p><strong>Would you launch the weapon?</strong></p>","0",""
"","","","","","html-keyboard-response","97","1100649","0.0-3.0-0.47","3","1","2023-06-09 15:22:04","846205d480aaa49f22c83d5c8cececc8","89.116.158.254","Mozilla/5.0 (Macintosh; Intel Mac OS X 10_15_7) AppleWebKit/537.36 (KHTML, like Gecko) Chrome/114.0.0.0 Safari/537.36","Macintosh","Chrome","114.0.0.0","OS X","10_15_7","null","<div style=""font-size:60px;"">+</div>","null",""
"","","","","","html-button-response","98","1102350","0.0-3.0-1.47","3","1","2023-06-09 15:22:04","846205d480aaa49f22c83d5c8cececc8","89.116.158.254","Mozilla/5.0 (Macintosh; Intel Mac OS X 10_15_7) AppleWebKit/537.36 (KHTML, like Gecko) Chrome/114.0.0.0 Safari/537.36","Macintosh","Chrome","114.0.0.0","OS X","10_15_7","1697","<p>As the military commander, you could choose to launch a missile to kill <strong>7 enemy soldiers</strong> , but would accidentally kill <strong>1 enemy civilian</strong> nearby.</p> <p>The photo of the <strong>enemy civilian</strong> is shown below.</p> <p></p> <img src='stimuli/faces/PCF3.jpg', style='max-width: 30%;'> </img> <p><strong>Would you launch the weapon?</strong></p>","0",""
"","","","","","html-keyboard-response","99","1103363","0.0-3.0-0.48","3","1","2023-06-09 15:22:04","846205d480aaa49f22c83d5c8cececc8","89.116.158.254","Mozilla/5.0 (Macintosh; Intel Mac OS X 10_15_7) AppleWebKit/537.36 (KHTML, like Gecko) Chrome/114.0.0.0 Safari/537.36","Macintosh","Chrome","114.0.0.0","OS X","10_15_7","null","<div style=""font-size:60px;"">+</div>","null",""
"","","","","","html-button-response","100","1105556","0.0-3.0-1.48","3","1","2023-06-09 15:22:04","846205d480aaa49f22c83d5c8cececc8","89.116.158.254","Mozilla/5.0 (Macintosh; Intel Mac OS X 10_15_7) AppleWebKit/537.36 (KHTML, like Gecko) Chrome/114.0.0.0 Safari/537.36","Macintosh","Chrome","114.0.0.0","OS X","10_15_7","2190","<p>As the military commander, you could choose to launch a missile to kill <strong>3 enemy soldiers</strong> , but would accidentally kill <strong>1 enemy tree</strong> nearby.</p> <p>The photo of the <strong>enemy tree</strong> is shown below.</p> <p></p> <img src='stimuli/tree/2.png', style='max-width: 30%;'> </img> <p><strong>Would you launch the weapon?</strong></p>","0",""
"","","","","","html-keyboard-response","101","1106562","0.0-3.0-0.49","3","1","2023-06-09 15:22:04","846205d480aaa49f22c83d5c8cececc8","89.116.158.254","Mozilla/5.0 (Macintosh; Intel Mac OS X 10_15_7) AppleWebKit/537.36 (KHTML, like Gecko) Chrome/114.0.0.0 Safari/537.36","Macintosh","Chrome","114.0.0.0","OS X","10_15_7","null","<div style=""font-size:60px;"">+</div>","null",""
"","","","","","html-button-response","102","1107495","0.0-3.0-1.49","3","1","2023-06-09 15:22:04","846205d480aaa49f22c83d5c8cececc8","89.116.158.254","Mozilla/5.0 (Macintosh; Intel Mac OS X 10_15_7) AppleWebKit/537.36 (KHTML, like Gecko) Chrome/114.0.0.0 Safari/537.36","Macintosh","Chrome","114.0.0.0","OS X","10_15_7","931","<p>As the military commander, you could choose to launch a missile to kill <strong>5 enemy soldiers</strong> , but would accidentally kill <strong>1 enemy tree</strong> nearby.</p> <p>The photo of the <strong>enemy tree</strong> is shown below.</p> <p></p> <img src='stimuli/tree/6.png', style='max-width: 30%;'> </img> <p><strong>Would you launch the weapon?</strong></p>","0",""
"","","","","","html-keyboard-response","103","1108507","0.0-3.0-0.50","3","1","2023-06-09 15:22:04","846205d480aaa49f22c83d5c8cececc8","89.116.158.254","Mozilla/5.0 (Macintosh; Intel Mac OS X 10_15_7) AppleWebKit/537.36 (KHTML, like Gecko) Chrome/114.0.0.0 Safari/537.36","Macintosh","Chrome","114.0.0.0","OS X","10_15_7","null","<div style=""font-size:60px;"">+</div>","null",""
"","","","","","html-button-response","104","1110066","0.0-3.0-1.50","3","1","2023-06-09 15:22:04","846205d480aaa49f22c83d5c8cececc8","89.116.158.254","Mozilla/5.0 (Macintosh; Intel Mac OS X 10_15_7) AppleWebKit/537.36 (KHTML, like Gecko) Chrome/114.0.0.0 Safari/537.36","Macintosh","Chrome","114.0.0.0","OS X","10_15_7","1556","<p>As the military commander, you could choose to launch a missile to kill <strong>10 enemy soldiers</strong> , but would accidentally kill <strong>1 enemy civilian</strong> nearby.</p> <p>The photo of the <strong>enemy civilian</strong> is shown below.</p> <p></p> <img src='stimuli/faces/PCM7.jpg', style='max-width: 30%;'> </img> <p><strong>Would you launch the weapon?</strong></p>","0",""
"","","","","","html-keyboard-response","105","1111072","0.0-3.0-0.51","3","1","2023-06-09 15:22:04","846205d480aaa49f22c83d5c8cececc8","89.116.158.254","Mozilla/5.0 (Macintosh; Intel Mac OS X 10_15_7) AppleWebKit/537.36 (KHTML, like Gecko) Chrome/114.0.0.0 Safari/537.36","Macintosh","Chrome","114.0.0.0","OS X","10_15_7","null","<div style=""font-size:60px;"">+</div>","null",""
"","","","","","html-button-response","106","1113038","0.0-3.0-1.51","3","1","2023-06-09 15:22:04","846205d480aaa49f22c83d5c8cececc8","89.116.158.254","Mozilla/5.0 (Macintosh; Intel Mac OS X 10_15_7) AppleWebKit/537.36 (KHTML, like Gecko) Chrome/114.0.0.0 Safari/537.36","Macintosh","Chrome","114.0.0.0","OS X","10_15_7","1963","<p>As the military commander, you could choose to launch a missile to kill <strong>9 enemy soldiers</strong> , but would accidentally kill <strong>1 enemy tree</strong> nearby.</p> <p>The photo of the <strong>enemy tree</strong> is shown below.</p> <p></p> <img src='stimuli/tree/15.png', style='max-width: 30%;'> </img> <p><strong>Would you launch the weapon?</strong></p>","0",""
"","","","","","html-keyboard-response","107","1114052","0.0-3.0-0.52","3","1","2023-06-09 15:22:04","846205d480aaa49f22c83d5c8cececc8","89.116.158.254","Mozilla/5.0 (Macintosh; Intel Mac OS X 10_15_7) AppleWebKit/537.36 (KHTML, like Gecko) Chrome/114.0.0.0 Safari/537.36","Macintosh","Chrome","114.0.0.0","OS X","10_15_7","null","<div style=""font-size:60px;"">+</div>","null",""
"","","","","","html-button-response","108","1115810","0.0-3.0-1.52","3","1","2023-06-09 15:22:04","846205d480aaa49f22c83d5c8cececc8","89.116.158.254","Mozilla/5.0 (Macintosh; Intel Mac OS X 10_15_7) AppleWebKit/537.36 (KHTML, like Gecko) Chrome/114.0.0.0 Safari/537.36","Macintosh","Chrome","114.0.0.0","OS X","10_15_7","1755","<p>As the military commander, you could choose to launch a missile to kill <strong>9 enemy soldiers</strong> , but would accidentally kill <strong>1 enemy civilian</strong> nearby.</p> <p>The photo of the <strong>enemy civilian</strong> is shown below.</p> <p></p> <img src='stimuli/faces/PCM2.jpg', style='max-width: 30%;'> </img> <p><strong>Would you launch the weapon?</strong></p>","0",""
"","","","","","html-keyboard-response","109","1116816","0.0-3.0-0.53","3","1","2023-06-09 15:22:04","846205d480aaa49f22c83d5c8cececc8","89.116.158.254","Mozilla/5.0 (Macintosh; Intel Mac OS X 10_15_7) AppleWebKit/537.36 (KHTML, like Gecko) Chrome/114.0.0.0 Safari/537.36","Macintosh","Chrome","114.0.0.0","OS X","10_15_7","null","<div style=""font-size:60px;"">+</div>","null",""
"","","","","","html-button-response","110","1118231","0.0-3.0-1.53","3","1","2023-06-09 15:22:04","846205d480aaa49f22c83d5c8cececc8","89.116.158.254","Mozilla/5.0 (Macintosh; Intel Mac OS X 10_15_7) AppleWebKit/537.36 (KHTML, like Gecko) Chrome/114.0.0.0 Safari/537.36","Macintosh","Chrome","114.0.0.0","OS X","10_15_7","1410","<p>As the military commander, you could choose to launch a missile to kill <strong>7 enemy soldiers</strong> , but would accidentally kill <strong>1 enemy tree</strong> nearby.</p> <p>The photo of the <strong>enemy tree</strong> is shown below.</p> <p></p> <img src='stimuli/tree/12.png', style='max-width: 30%;'> </img> <p><strong>Would you launch the weapon?</strong></p>","0",""
"","","","","","html-keyboard-response","111","1119244","0.0-3.0-0.54","3","1","2023-06-09 15:22:04","846205d480aaa49f22c83d5c8cececc8","89.116.158.254","Mozilla/5.0 (Macintosh; Intel Mac OS X 10_15_7) AppleWebKit/537.36 (KHTML, like Gecko) Chrome/114.0.0.0 Safari/537.36","Macintosh","Chrome","114.0.0.0","OS X","10_15_7","null","<div style=""font-size:60px;"">+</div>","null",""
"","","","","","html-button-response","112","1121557","0.0-3.0-1.54","3","1","2023-06-09 15:22:04","846205d480aaa49f22c83d5c8cececc8","89.116.158.254","Mozilla/5.0 (Macintosh; Intel Mac OS X 10_15_7) AppleWebKit/537.36 (KHTML, like Gecko) Chrome/114.0.0.0 Safari/537.36","Macintosh","Chrome","114.0.0.0","OS X","10_15_7","2309","<p>As the military commander, you could choose to launch a missile to kill <strong>2 enemy soldiers</strong> , but would accidentally kill <strong>1 enemy civilian</strong> nearby.</p> <p>The photo of the <strong>enemy civilian</strong> is shown below.</p> <p></p> <img src='stimuli/faces/PCF3.jpg', style='max-width: 30%;'> </img> <p><strong>Would you launch the weapon?</strong></p>","1",""
"","","","","","html-keyboard-response","113","1122564","0.0-3.0-0.55","3","1","2023-06-09 15:22:04","846205d480aaa49f22c83d5c8cececc8","89.116.158.254","Mozilla/5.0 (Macintosh; Intel Mac OS X 10_15_7) AppleWebKit/537.36 (KHTML, like Gecko) Chrome/114.0.0.0 Safari/537.36","Macintosh","Chrome","114.0.0.0","OS X","10_15_7","null","<div style=""font-size:60px;"">+</div>","null",""
"","","","","","html-button-response","114","1123609","0.0-3.0-1.55","3","1","2023-06-09 15:22:04","846205d480aaa49f22c83d5c8cececc8","89.116.158.254","Mozilla/5.0 (Macintosh; Intel Mac OS X 10_15_7) AppleWebKit/537.36 (KHTML, like Gecko) Chrome/114.0.0.0 Safari/537.36","Macintosh","Chrome","114.0.0.0","OS X","10_15_7","1042","<p>As the military commander, you could choose to launch a missile to kill <strong>10 enemy soldiers</strong> , but would accidentally kill <strong>1 enemy tree</strong> nearby.</p> <p>The photo of the <strong>enemy tree</strong> is shown below.</p> <p></p> <img src='stimuli/tree/7.png', style='max-width: 30%;'> </img> <p><strong>Would you launch the weapon?</strong></p>","0",""
"","","","","","html-keyboard-response","115","1124621","0.0-3.0-0.56","3","1","2023-06-09 15:22:04","846205d480aaa49f22c83d5c8cececc8","89.116.158.254","Mozilla/5.0 (Macintosh; Intel Mac OS X 10_15_7) AppleWebKit/537.36 (KHTML, like Gecko) Chrome/114.0.0.0 Safari/537.36","Macintosh","Chrome","114.0.0.0","OS X","10_15_7","null","<div style=""font-size:60px;"">+</div>","null",""
"","","","","","html-button-response","116","1126118","0.0-3.0-1.56","3","1","2023-06-09 15:22:04","846205d480aaa49f22c83d5c8cececc8","89.116.158.254","Mozilla/5.0 (Macintosh; Intel Mac OS X 10_15_7) AppleWebKit/537.36 (KHTML, like Gecko) Chrome/114.0.0.0 Safari/537.36","Macintosh","Chrome","114.0.0.0","OS X","10_15_7","1492","<p>As the military commander, you could choose to launch a missile to kill <strong>3 enemy soldiers</strong> , but would accidentally kill <strong>1 enemy tree</strong> nearby.</p> <p>The photo of the <strong>enemy tree</strong> is shown below.</p> <p></p> <img src='stimuli/tree/11.png', style='max-width: 30%;'> </img> <p><strong>Would you launch the weapon?</strong></p>","0",""
"","","","","","html-keyboard-response","117","1127127","0.0-3.0-0.57","3","1","2023-06-09 15:22:04","846205d480aaa49f22c83d5c8cececc8","89.116.158.254","Mozilla/5.0 (Macintosh; Intel Mac OS X 10_15_7) AppleWebKit/537.36 (KHTML, like Gecko) Chrome/114.0.0.0 Safari/537.36","Macintosh","Chrome","114.0.0.0","OS X","10_15_7","null","<div style=""font-size:60px;"">+</div>","null",""
"","","","","","html-button-response","118","1130272","0.0-3.0-1.57","3","1","2023-06-09 15:22:04","846205d480aaa49f22c83d5c8cececc8","89.116.158.254","Mozilla/5.0 (Macintosh; Intel Mac OS X 10_15_7) AppleWebKit/537.36 (KHTML, like Gecko) Chrome/114.0.0.0 Safari/537.36","Macintosh","Chrome","114.0.0.0","OS X","10_15_7","3142","<p>As the military commander, you could choose to launch a missile to kill <strong>10 enemy soldiers</strong> , but would accidentally kill <strong>1 enemy tree</strong> nearby.</p> <p>The photo of the <strong>enemy tree</strong> is shown below.</p> <p></p> <img src='stimuli/tree/2.png', style='max-width: 30%;'> </img> <p><strong>Would you launch the weapon?</strong></p>","0",""
"","","","","","html-keyboard-response","119","1131281","0.0-3.0-0.58","3","1","2023-06-09 15:22:04","846205d480aaa49f22c83d5c8cececc8","89.116.158.254","Mozilla/5.0 (Macintosh; Intel Mac OS X 10_15_7) AppleWebKit/537.36 (KHTML, like Gecko) Chrome/114.0.0.0 Safari/537.36","Macintosh","Chrome","114.0.0.0","OS X","10_15_7","null","<div style=""font-size:60px;"">+</div>","null",""
"","","","","","html-button-response","120","1132529","0.0-3.0-1.58","3","1","2023-06-09 15:22:04","846205d480aaa49f22c83d5c8cececc8","89.116.158.254","Mozilla/5.0 (Macintosh; Intel Mac OS X 10_15_7) AppleWebKit/537.36 (KHTML, like Gecko) Chrome/114.0.0.0 Safari/537.36","Macintosh","Chrome","114.0.0.0","OS X","10_15_7","1245","<p>As the military commander, you could choose to launch a missile to kill <strong>10 enemy soldiers</strong> , but would accidentally kill <strong>1 enemy civilian</strong> nearby.</p> <p>The photo of the <strong>enemy civilian</strong> is shown below.</p> <p></p> <img src='stimuli/faces/PCM4.jpg', style='max-width: 30%;'> </img> <p><strong>Would you launch the weapon?</strong></p>","0",""
"","","","","","html-keyboard-response","121","1133538","0.0-3.0-0.59","3","1","2023-06-09 15:22:04","846205d480aaa49f22c83d5c8cececc8","89.116.158.254","Mozilla/5.0 (Macintosh; Intel Mac OS X 10_15_7) AppleWebKit/537.36 (KHTML, like Gecko) Chrome/114.0.0.0 Safari/537.36","Macintosh","Chrome","114.0.0.0","OS X","10_15_7","null","<div style=""font-size:60px;"">+</div>","null",""
"","","","","","html-button-response","122","1135329","0.0-3.0-1.59","3","1","2023-06-09 15:22:04","846205d480aaa49f22c83d5c8cececc8","89.116.158.254","Mozilla/5.0 (Macintosh; Intel Mac OS X 10_15_7) AppleWebKit/537.36 (KHTML, like Gecko) Chrome/114.0.0.0 Safari/537.36","Macintosh","Chrome","114.0.0.0","OS X","10_15_7","1789","<p>As the military commander, you could choose to launch a missile to kill <strong>1 enemy soldier</strong> , but would accidentally kill <strong>1 enemy civilian</strong> nearby.</p> <p>The photo of the <strong>enemy civilian</strong> is shown below.</p> <p></p> <img src='stimuli/faces/PCF6.jpg', style='max-width: 30%;'> </img> <p><strong>Would you launch the weapon?</strong></p>","1",""
"","","","","","html-keyboard-response","123","1136338","0.0-3.0-0.60","3","1","2023-06-09 15:22:04","846205d480aaa49f22c83d5c8cececc8","89.116.158.254","Mozilla/5.0 (Macintosh; Intel Mac OS X 10_15_7) AppleWebKit/537.36 (KHTML, like Gecko) Chrome/114.0.0.0 Safari/537.36","Macintosh","Chrome","114.0.0.0","OS X","10_15_7","null","<div style=""font-size:60px;"">+</div>","null",""
"","","","","","html-button-response","124","1254734","0.0-3.0-1.60","3","1","2023-06-09 15:22:04","846205d480aaa49f22c83d5c8cececc8","89.116.158.254","Mozilla/5.0 (Macintosh; Intel Mac OS X 10_15_7) AppleWebKit/537.36 (KHTML, like Gecko) Chrome/114.0.0.0 Safari/537.36","Macintosh","Chrome","114.0.0.0","OS X","10_15_7","118389","<p>As the military commander, you could choose to launch a missile to kill <strong>7 enemy soldiers</strong> , but would accidentally kill <strong>1 enemy civilian</strong> nearby.</p> <p>The photo of the <strong>enemy civilian</strong> is shown below.</p> <p></p> <img src='stimuli/faces/PCM1.jpg', style='max-width: 30%;'> </img> <p><strong>Would you launch the weapon?</strong></p>","0",""
"","","","","","html-keyboard-response","125","1255740","0.0-3.0-0.61","3","1","2023-06-09 15:22:04","846205d480aaa49f22c83d5c8cececc8","89.116.158.254","Mozilla/5.0 (Macintosh; Intel Mac OS X 10_15_7) AppleWebKit/537.36 (KHTML, like Gecko) Chrome/114.0.0.0 Safari/537.36","Macintosh","Chrome","114.0.0.0","OS X","10_15_7","null","<div style=""font-size:60px;"">+</div>","null",""
"","","","","","html-button-response","126","1257389","0.0-3.0-1.61","3","1","2023-06-09 15:22:04","846205d480aaa49f22c83d5c8cececc8","89.116.158.254","Mozilla/5.0 (Macintosh; Intel Mac OS X 10_15_7) AppleWebKit/537.36 (KHTML, like Gecko) Chrome/114.0.0.0 Safari/537.36","Macintosh","Chrome","114.0.0.0","OS X","10_15_7","1645","<p>As the military commander, you could choose to launch a missile to kill <strong>2 enemy soldiers</strong> , but would accidentally kill <strong>1 enemy tree</strong> nearby.</p> <p>The photo of the <strong>enemy tree</strong> is shown below.</p> <p></p> <img src='stimuli/tree/4.png', style='max-width: 30%;'> </img> <p><strong>Would you launch the weapon?</strong></p>","0",""
"","","","","","html-keyboard-response","127","1258397","0.0-3.0-0.62","3","1","2023-06-09 15:22:04","846205d480aaa49f22c83d5c8cececc8","89.116.158.254","Mozilla/5.0 (Macintosh; Intel Mac OS X 10_15_7) AppleWebKit/537.36 (KHTML, like Gecko) Chrome/114.0.0.0 Safari/537.36","Macintosh","Chrome","114.0.0.0","OS X","10_15_7","null","<div style=""font-size:60px;"">+</div>","null",""
"","","","","","html-button-response","128","1262136","0.0-3.0-1.62","3","1","2023-06-09 15:22:04","846205d480aaa49f22c83d5c8cececc8","89.116.158.254","Mozilla/5.0 (Macintosh; Intel Mac OS X 10_15_7) AppleWebKit/537.36 (KHTML, like Gecko) Chrome/114.0.0.0 Safari/537.36","Macintosh","Chrome","114.0.0.0","OS X","10_15_7","3735","<p>As the military commander, you could choose to launch a missile to kill <strong>8 enemy soldiers</strong> , but would accidentally kill <strong>1 enemy civilian</strong> nearby.</p> <p>The photo of the <strong>enemy civilian</strong> is shown below.</p> <p></p> <img src='stimuli/faces/PCF5.jpg', style='max-width: 30%;'> </img> <p><strong>Would you launch the weapon?</strong></p>","0",""
"","","","","","html-keyboard-response","129","1263147","0.0-3.0-0.63","3","1","2023-06-09 15:22:04","846205d480aaa49f22c83d5c8cececc8","89.116.158.254","Mozilla/5.0 (Macintosh; Intel Mac OS X 10_15_7) AppleWebKit/537.36 (KHTML, like Gecko) Chrome/114.0.0.0 Safari/537.36","Macintosh","Chrome","114.0.0.0","OS X","10_15_7","null","<div style=""font-size:60px;"">+</div>","null",""
"","","","","","html-button-response","130","1265690","0.0-3.0-1.63","3","1","2023-06-09 15:22:04","846205d480aaa49f22c83d5c8cececc8","89.116.158.254","Mozilla/5.0 (Macintosh; Intel Mac OS X 10_15_7) AppleWebKit/537.36 (KHTML, like Gecko) Chrome/114.0.0.0 Safari/537.36","Macintosh","Chrome","114.0.0.0","OS X","10_15_7","2538","<p>As the military commander, you could choose to launch a missile to kill <strong>1 enemy soldier</strong> , but would accidentally kill <strong>1 enemy tree</strong> nearby.</p> <p>The photo of the <strong>enemy tree</strong> is shown below.</p> <p></p> <img src='stimuli/tree/15.png', style='max-width: 30%;'> </img> <p><strong>Would you launch the weapon?</strong></p>","0",""
"","","","","","survey-multi-choice","131","1295299","0.0-4.0","3","1","2023-06-09 15:22:04","846205d480aaa49f22c83d5c8cececc8","89.116.158.254","Mozilla/5.0 (Macintosh; Intel Mac OS X 10_15_7) AppleWebKit/537.36 (KHTML, like Gecko) Chrome/114.0.0.0 Safari/537.36","Macintosh","Chrome","114.0.0.0","OS X","10_15_7","29604","","{""Attention1"":""""}","[0]"
"","","","","","html-button-response","132","1300574","0.0-5.0","3","1","2023-06-09 15:22:04","846205d480aaa49f22c83d5c8cececc8","89.116.158.254","Mozilla/5.0 (Macintosh; Intel Mac OS X 10_15_7) AppleWebKit/537.36 (KHTML, like Gecko) Chrome/114.0.0.0 Safari/537.36","Macintosh","Chrome","114.0.0.0","OS X","10_15_7","5270","<p style=""font-size:20px;font-weight:bold;"">Great!</p><p>You have finished the first part of the experiment!</p><p>Please relax a little bit and then contine to answer some questions regarding yourself.</p><p>The next part will take around 10 minutes to complete.</p>","0",""
"","","","","","survey-text","133","1330215","0.0-6.0","3","1","2023-06-09 15:22:04","846205d480aaa49f22c83d5c8cececc8","89.116.158.254","Mozilla/5.0 (Macintosh; Intel Mac OS X 10_15_7) AppleWebKit/537.36 (KHTML, like Gecko) Chrome/114.0.0.0 Safari/537.36","Macintosh","Chrome","114.0.0.0","OS X","10_15_7","28627","","{""Age"":""24"",""Nation"":""American"",""Born"":""United States of America"",""Live"":""United States of America""}",""
"","","","","","survey-multi-choice","134","1349273","0.0-7.0","3","1","2023-06-09 15:22:04","846205d480aaa49f22c83d5c8cececc8","89.116.158.254","Mozilla/5.0 (Macintosh; Intel Mac OS X 10_15_7) AppleWebKit/537.36 (KHTML, like Gecko) Chrome/114.0.0.0 Safari/537.36","Macintosh","Chrome","114.0.0.0","OS X","10_15_7","19053","","{""Gender"":""Male"",""Education"":""Bachelor's Degree"",""Income"":""$70,000 - $99,999"",""Children"":""0"",""Ethnicity"":""Black or African American""}","[0,1,2,3,4]"
"","","","","","survey-multi-select","135","1359485","0.0-8.0","3","1","2023-06-09 15:22:04","846205d480aaa49f22c83d5c8cececc8","89.116.158.254","Mozilla/5.0 (Macintosh; Intel Mac OS X 10_15_7) AppleWebKit/537.36 (KHTML, like Gecko) Chrome/114.0.0.0 Safari/537.36","Macintosh","Chrome","114.0.0.0","OS X","10_15_7","10195","","{""Marriage"":[""Single""],""Religion"":[""Christian""]}","[0,1]"
"","","","","","survey-multi-choice","136","1426877","0.0-9.0","3","1","2023-06-09 15:22:04","846205d480aaa49f22c83d5c8cececc8","89.116.158.254","Mozilla/5.0 (Macintosh; Intel Mac OS X 10_15_7) AppleWebKit/537.36 (KHTML, like Gecko) Chrome/114.0.0.0 Safari/537.36","Macintosh","Chrome","114.0.0.0","OS X","10_15_7","67385","","{""SES"":""4""}","[0]"
"","","","","","html-button-response","137","1430860","0.0-10.0","3","1","2023-06-09 15:22:04","846205d480aaa49f22c83d5c8cececc8","89.116.158.254","Mozilla/5.0 (Macintosh; Intel Mac OS X 10_15_7) AppleWebKit/537.36 (KHTML, like Gecko) Chrome/114.0.0.0 Safari/537.36","Macintosh","Chrome","114.0.0.0","OS X","10_15_7","3977","<p><strong>Please indicate the extent that the following statements could describe you.</p><p> (1 = ""extremely uncharacteristic of me"" to 5 = ""extremely characteristic of me"".)</strong></p>","0",""
"","","","","","survey-likert","138","1480090","0.0-11.0","3","1","2023-06-09 15:22:04","846205d480aaa49f22c83d5c8cececc8","89.116.158.254","Mozilla/5.0 (Macintosh; Intel Mac OS X 10_15_7) AppleWebKit/537.36 (KHTML, like Gecko) Chrome/114.0.0.0 Safari/537.36","Macintosh","Chrome","114.0.0.0","OS X","10_15_7","49224","","{""Aggression1"":0,""Aggression2"":0,""Aggression3"":2,""Aggression4"":0,""Aggression5"":2,""Aggression6"":0,""Aggression7"":3,""Aggression8"":0,""Aggression9"":0}","[0,1,2,3,4,5,6,7,8]"
"","","","","","html-button-response","139","1482674","0.0-12.0","3","1","2023-06-09 15:22:04","846205d480aaa49f22c83d5c8cececc8","89.116.158.254","Mozilla/5.0 (Macintosh; Intel Mac OS X 10_15_7) AppleWebKit/537.36 (KHTML, like Gecko) Chrome/114.0.0.0 Safari/537.36","Macintosh","Chrome","114.0.0.0","OS X","10_15_7","2578","<p><strong>Please indicate the extent that the following statements could describe you. </strong></p><p><strong> (1 = ""Does not describe me well"" to 5 = ""Does decribe me well"".)</strong></p>","0",""
"","","","","","survey-likert","140","1736185","0.0-13.0","3","1","2023-06-09 15:22:04","846205d480aaa49f22c83d5c8cececc8","89.116.158.254","Mozilla/5.0 (Macintosh; Intel Mac OS X 10_15_7) AppleWebKit/537.36 (KHTML, like Gecko) Chrome/114.0.0.0 Safari/537.36","Macintosh","Chrome","114.0.0.0","OS X","10_15_7","253500","","{""fs4"":0,""pts2"":3,""pds6"":1,""pts4"":1,""fs5"":3,""pds2"":1,""pts1"":1,""pds1"":1,""ecs1"":3,""pds5"":3,""fs7"":3,""pds3"":3,""ecs4"":1,""pts7"":3,""ecs3"":3,""ecs2"":1,""ecs7"":3,""fs1"":1,""fs6"":3,""pds7"":1,""fs3"":1,""pts3"":3,""fs2"":3,""ecs5"":3,""pts6"":3,""ecs6"":3,""pts5"":3,""pds4"":1}","[11,7,23,14,15,9,2,5,1,18,25,12,13,27,8,3,21,0,22,26,6,10,4,17,24,19,20,16]"
"","","","","","html-button-response","141","1738480","0.0-14.0","3","1","2023-06-09 15:22:04","846205d480aaa49f22c83d5c8cececc8","89.116.158.254","Mozilla/5.0 (Macintosh; Intel Mac OS X 10_15_7) AppleWebKit/537.36 (KHTML, like Gecko) Chrome/114.0.0.0 Safari/537.36","Macintosh","Chrome","114.0.0.0","OS X","10_15_7","2289","<p><strong>Which of the following objects or statements do you have a positive or negative feeling towards? </strong></p><p><strong> (1 = ""Very negative"" to 7 = ""Very positive"") </strong></p>","0",""
"","","","","","survey-likert","142","1844852","0.0-15.0","3","1","2023-06-09 15:22:04","846205d480aaa49f22c83d5c8cececc8","89.116.158.254","Mozilla/5.0 (Macintosh; Intel Mac OS X 10_15_7) AppleWebKit/537.36 (KHTML, like Gecko) Chrome/114.0.0.0 Safari/537.36","Macintosh","Chrome","114.0.0.0","OS X","10_15_7","106364","","{""sdo15"":5,""sdo1"":0,""sdo5"":0,""sdo16"":6,""sdo9"":6,""sdo10"":6,""sdo12"":6,""sdo6"":0,""sdo13"":6,""sdo14"":6,""sdo4"":0,""sdo3"":0,""sdo2"":0,""sdo7"":0,""sdo8"":0,""sdo11"":6}","[14,0,4,15,8,9,11,5,12,13,3,2,1,6,7,10]"
"","","","","","html-button-response","143","1847268","0.0-16.0","3","1","2023-06-09 15:22:04","846205d480aaa49f22c83d5c8cececc8","89.116.158.254","Mozilla/5.0 (Macintosh; Intel Mac OS X 10_15_7) AppleWebKit/537.36 (KHTML, like Gecko) Chrome/114.0.0.0 Safari/537.36","Macintosh","Chrome","114.0.0.0","OS X","10_15_7","2411","<p><strong>Please indicate the extent you agree with the following statements.</strong></p><strong><p> (1 = ""Strongly Disagree"" to 5 = ""Srongly Agree"") </strong></p>","0",""
"","","","","","survey-likert","144","1911177","0.0-17.0","3","1","2023-06-09 15:22:04","846205d480aaa49f22c83d5c8cececc8","89.116.158.254","Mozilla/5.0 (Macintosh; Intel Mac OS X 10_15_7) AppleWebKit/537.36 (KHTML, like Gecko) Chrome/114.0.0.0 Safari/537.36","Macintosh","Chrome","114.0.0.0","OS X","10_15_7","63902","","{""caring1"":4,""liking1"":0,""caring2"":4,""protection1"":4,""liking2"":0,""caring3"":4,""protection2"":4,""liking3"":0,""protection3"":4,""caring4"":4,""liking4"":0,""protection4"":4,""caring5"":4,""liking5"":2,""protection5"":3}","[0,1,2,3,4,5,6,7,8,9,10,11,12,13,14]"
"","","","","","html-button-response","145","1913617","0.0-18.0","3","1","2023-06-09 15:22:04","846205d480aaa49f22c83d5c8cececc8","89.116.158.254","Mozilla/5.0 (Macintosh; Intel Mac OS X 10_15_7) AppleWebKit/537.36 (KHTML, like Gecko) Chrome/114.0.0.0 Safari/537.36","Macintosh","Chrome","114.0.0.0","OS X","10_15_7","2435","<p><strong>Please imagine spercific situations involving children below, and rate the amount of tenderness you would feel in each situation. </strong></p><p><strong> (Ternderness is ""a warm, gentle feeling of sympathetic affection."") </strong></p><strong><p> (1 = ""No tenderness at all"" to 5 = ""A lot of tenderness"") </strong></p>","0",""
"","","","","","survey-likert","146","2002060","0.0-19.0","3","1","2023-06-09 15:22:04","846205d480aaa49f22c83d5c8cececc8","89.116.158.254","Mozilla/5.0 (Macintosh; Intel Mac OS X 10_15_7) AppleWebKit/537.36 (KHTML, like Gecko) Chrome/114.0.0.0 Safari/537.36","Macintosh","Chrome","114.0.0.0","OS X","10_15_7","88436","","{""tenderness-positive1"":4,""tenderness-negative1"":0,""tenderness-negative2"":1,""tenderness-positive2"":4,""tenderness-positive3"":4,""tenderness-negative3"":3,""tenderness-positive4"":4,""tendereness-negative4"":1,""tendernness-negative5"":1,""tenderness-positive5"":3}","[0,1,2,3,4,5,6,7,8,9]"
"","","","","","survey-multi-choice","147","2020613","0.0-20.0","3","1","2023-06-09 15:22:04","846205d480aaa49f22c83d5c8cececc8","89.116.158.254","Mozilla/5.0 (Macintosh; Intel Mac OS X 10_15_7) AppleWebKit/537.36 (KHTML, like Gecko) Chrome/114.0.0.0 Safari/537.36","Macintosh","Chrome","114.0.0.0","OS X","10_15_7","18547","","{""Attention2"":""Other""}","[0]"
"","","","","","html-button-response","148","2026662","0.0-21.0","3","1","2023-06-09 15:22:04","846205d480aaa49f22c83d5c8cececc8","89.116.158.254","Mozilla/5.0 (Macintosh; Intel Mac OS X 10_15_7) AppleWebKit/537.36 (KHTML, like Gecko) Chrome/114.0.0.0 Safari/537.36","Macintosh","Chrome","114.0.0.0","OS X","10_15_7","6043","<p><strong>Please indicate the extent you agree with the following statements.</strong></p>","0",""
"","","","","","survey-likert","149","2207290","0.0-22.0","3","1","2023-06-09 15:22:04","846205d480aaa49f22c83d5c8cececc8","89.116.158.254","Mozilla/5.0 (Macintosh; Intel Mac OS X 10_15_7) AppleWebKit/537.36 (KHTML, like Gecko) Chrome/114.0.0.0 Safari/537.36","Macintosh","Chrome","114.0.0.0","OS X","10_15_7","180618","","{""Patri10"":0,""Nation7"":4,""Patri8"":4,""Patri5"":4,""Nation2"":4,""Patri12"":3,""Nation6"":3,""Nation3"":4,""Nation5"":2,""Patri6"":0,""Patri3"":3,""Patri9"":3,""Nation4"":3,""Patri2"":3,""Patri11"":0,""Patri1"":4,""Patri7"":4,""Nation8"":0,""Patri4"":4,""Nation1"":4}","[9,18,7,4,13,11,17,14,16,5,2,8,15,1,10,0,6,19,3,12]"
"","","","","","html-button-response","150","2209046","0.0-23.0","3","1","2023-06-09 15:22:04","846205d480aaa49f22c83d5c8cececc8","89.116.158.254","Mozilla/5.0 (Macintosh; Intel Mac OS X 10_15_7) AppleWebKit/537.36 (KHTML, like Gecko) Chrome/114.0.0.0 Safari/537.36","Macintosh","Chrome","114.0.0.0","OS X","10_15_7","1751","<p><strong>Please indicate the extent you agree with the following statements. </p><p>(1 = ""never or definitely no"" and 9 = ""always or definitely yes"".)</strong></p>","0",""
"","","","","","survey-likert","151","2354213","0.0-24.0","3","1","2023-06-09 15:22:04","846205d480aaa49f22c83d5c8cececc8","89.116.158.254","Mozilla/5.0 (Macintosh; Intel Mac OS X 10_15_7) AppleWebKit/537.36 (KHTML, like Gecko) Chrome/114.0.0.0 Safari/537.36","Macintosh","Chrome","114.0.0.0","OS X","10_15_7","145157","","{""hi1"":6,""hc3"":7,""vc1"":8,""vc2"":7,""hc2"":6,""hi3"":6,""hc1"":7,""vi4"":2,""hi4"":6,""vi3"":7,""hc4"":6,""hi2"":5,""vc3"":6,""vi2"":7,""vc4"":7,""vi1"":8,""Robot2"":6}","[0,11,13,14,10,2,9,8,3,6,12,1,15,5,16,4,7]"
"","","","","","survey-text","152","2370020","0.0-25.0","3","1","2023-06-09 15:22:04","846205d480aaa49f22c83d5c8cececc8","89.116.158.254","Mozilla/5.0 (Macintosh; Intel Mac OS X 10_15_7) AppleWebKit/537.36 (KHTML, like Gecko) Chrome/114.0.0.0 Safari/537.36","Macintosh","Chrome","114.0.0.0","OS X","10_15_7","15788","","{""ID"":""A2T1OFT6T845KR"",""Comments"":""""}",""
"","","","","","html-button-response","153","2418910","0.0-26.0","3","1","2023-06-09 15:22:04","846205d480aaa49f22c83d5c8cececc8","89.116.158.254","Mozilla/5.0 (Macintosh; Intel Mac OS X 10_15_7) AppleWebKit/537.36 (KHTML, like Gecko) Chrome/114.0.0.0 Safari/537.36","Macintosh","Chrome","114.0.0.0","OS X","10_15_7","48885","<p><strong>Congratulations! </strong> Your have finished all the survey. Thank you for your participation!</p><p><strong>Here is your complete token:</strong></p>dy5vzvgr7vjhxcb201j0dyl2<p></p><p><strong>Please copy it to the mTurk page.</strong></p>","0",""
