"success","timeout","failed_images","failed_audio","failed_video","trial_type","trial_index","time_elapsed","internal_node_id","run_id","condition","recorded_at","source_code_version","ip","user_agent","device","browser","browser_version","platform","platform_version","rt","stimulus","response","question_order"
"true","false","[]","[]","[]","preload","0","500","0.0-0.0","31","1","2023-06-09 16:39:19","846205d480aaa49f22c83d5c8cececc8","121.91.230.36","Mozilla/5.0 (Windows NT 10.0; Win64; x64) AppleWebKit/537.36 (KHTML, like Gecko) Chrome/116.0.0.0 Safari/537.36","WebKit","Chrome","116.0.0.0","Windows","10.0","","","",""
"true","","","","","fullscreen","1","3375","0.0-1.0","31","1","2023-06-09 16:39:19","846205d480aaa49f22c83d5c8cececc8","121.91.230.36","Mozilla/5.0 (Windows NT 10.0; Win64; x64) AppleWebKit/537.36 (KHTML, like Gecko) Chrome/116.0.0.0 Safari/537.36","WebKit","Chrome","116.0.0.0","Windows","10.0","","","",""
"","","","","","html-button-response","2","20500","0.0-2.0","31","1","2023-06-09 16:39:19","846205d480aaa49f22c83d5c8cececc8","121.91.230.36","Mozilla/5.0 (Windows NT 10.0; Win64; x64) AppleWebKit/537.36 (KHTML, like Gecko) Chrome/116.0.0.0 Safari/537.36","WebKit","Chrome","116.0.0.0","Windows","10.0","17123","<p ><strong>Welcome to the experiment!</strong></p><p ><strong>In the first task, please imagine:</strong></p><p>Your country is involved in a military conflict with another country.</p><p>You are the commander of your army and must make decisions in the conflict.</p><p>Specifically, as the military commander, you must decide whether to launch a missile to strike enemy.</p><p>You will face a series of scenarios. Please read each scenario carefully and make a decision.</p><p>The task will take around 10 minutes to complete.</p><p><strong>Please pay your attention during the experiment.</strong></p>","0",""
"","","","","","html-keyboard-response","3","21503","0.0-3.0-0.0","31","1","2023-06-09 16:39:19","846205d480aaa49f22c83d5c8cececc8","121.91.230.36","Mozilla/5.0 (Windows NT 10.0; Win64; x64) AppleWebKit/537.36 (KHTML, like Gecko) Chrome/116.0.0.0 Safari/537.36","WebKit","Chrome","116.0.0.0","Windows","10.0","null","<div style=""font-size:60px;"">+</div>","null",""
"","","","","","html-button-response","4","669124","0.0-3.0-1.0","31","1","2023-06-09 16:39:19","846205d480aaa49f22c83d5c8cececc8","121.91.230.36","Mozilla/5.0 (Windows NT 10.0; Win64; x64) AppleWebKit/537.36 (KHTML, like Gecko) Chrome/116.0.0.0 Safari/537.36","WebKit","Chrome","116.0.0.0","Windows","10.0","647618","<p>As the military commander, you could choose to launch a missile to kill <strong>7 enemy soldiers</strong> , but would accidentally kill <strong>1 enemy tree</strong> nearby.</p> <p>The photo of the <strong>enemy tree</strong> is shown below.</p> <p></p> <img src='stimuli/tree/4.png', style='max-width: 30%;'> </img> <p><strong>Would you launch the weapon?</strong></p>","0",""
"","","","","","html-keyboard-response","5","670133","0.0-3.0-0.1","31","1","2023-06-09 16:39:19","846205d480aaa49f22c83d5c8cececc8","121.91.230.36","Mozilla/5.0 (Windows NT 10.0; Win64; x64) AppleWebKit/537.36 (KHTML, like Gecko) Chrome/116.0.0.0 Safari/537.36","WebKit","Chrome","116.0.0.0","Windows","10.0","null","<div style=""font-size:60px;"">+</div>","null",""
"","","","","","html-button-response","6","671320","0.0-3.0-1.1","31","1","2023-06-09 16:39:19","846205d480aaa49f22c83d5c8cececc8","121.91.230.36","Mozilla/5.0 (Windows NT 10.0; Win64; x64) AppleWebKit/537.36 (KHTML, like Gecko) Chrome/116.0.0.0 Safari/537.36","WebKit","Chrome","116.0.0.0","Windows","10.0","1185","<p>As the military commander, you could choose to launch a missile to kill <strong>3 enemy soldiers</strong> , but would accidentally kill <strong>1 enemy civilian</strong> nearby.</p> <p>The photo of the <strong>enemy civilian</strong> is shown below.</p> <p></p> <img src='stimuli/faces/PCF1.jpg', style='max-width: 30%;'> </img> <p><strong>Would you launch the weapon?</strong></p>","0",""
"","","","","","html-keyboard-response","7","672335","0.0-3.0-0.2","31","1","2023-06-09 16:39:19","846205d480aaa49f22c83d5c8cececc8","121.91.230.36","Mozilla/5.0 (Windows NT 10.0; Win64; x64) AppleWebKit/537.36 (KHTML, like Gecko) Chrome/116.0.0.0 Safari/537.36","WebKit","Chrome","116.0.0.0","Windows","10.0","null","<div style=""font-size:60px;"">+</div>","null",""
"","","","","","html-button-response","8","673275","0.0-3.0-1.2","31","1","2023-06-09 16:39:19","846205d480aaa49f22c83d5c8cececc8","121.91.230.36","Mozilla/5.0 (Windows NT 10.0; Win64; x64) AppleWebKit/537.36 (KHTML, like Gecko) Chrome/116.0.0.0 Safari/537.36","WebKit","Chrome","116.0.0.0","Windows","10.0","937","<p>As the military commander, you could choose to launch a missile to kill <strong>3 enemy soldiers</strong> , but would accidentally kill <strong>1 enemy civilian</strong> nearby.</p> <p>The photo of the <strong>enemy civilian</strong> is shown below.</p> <p></p> <img src='stimuli/faces/PCF4.jpg', style='max-width: 30%;'> </img> <p><strong>Would you launch the weapon?</strong></p>","0",""
"","","","","","html-keyboard-response","9","674289","0.0-3.0-0.3","31","1","2023-06-09 16:39:19","846205d480aaa49f22c83d5c8cececc8","121.91.230.36","Mozilla/5.0 (Windows NT 10.0; Win64; x64) AppleWebKit/537.36 (KHTML, like Gecko) Chrome/116.0.0.0 Safari/537.36","WebKit","Chrome","116.0.0.0","Windows","10.0","null","<div style=""font-size:60px;"">+</div>","null",""
"","","","","","html-button-response","10","807291","0.0-3.0-1.3","31","1","2023-06-09 16:39:19","846205d480aaa49f22c83d5c8cececc8","121.91.230.36","Mozilla/5.0 (Windows NT 10.0; Win64; x64) AppleWebKit/537.36 (KHTML, like Gecko) Chrome/116.0.0.0 Safari/537.36","WebKit","Chrome","116.0.0.0","Windows","10.0","132998","<p>As the military commander, you could choose to launch a missile to kill <strong>7 enemy soldiers</strong> , but would accidentally kill <strong>1 enemy civilian</strong> nearby.</p> <p>The photo of the <strong>enemy civilian</strong> is shown below.</p> <p></p> <img src='stimuli/faces/PCM7.jpg', style='max-width: 30%;'> </img> <p><strong>Would you launch the weapon?</strong></p>","0",""
"","","","","","html-keyboard-response","11","808303","0.0-3.0-0.4","31","1","2023-06-09 16:39:19","846205d480aaa49f22c83d5c8cececc8","121.91.230.36","Mozilla/5.0 (Windows NT 10.0; Win64; x64) AppleWebKit/537.36 (KHTML, like Gecko) Chrome/116.0.0.0 Safari/537.36","WebKit","Chrome","116.0.0.0","Windows","10.0","null","<div style=""font-size:60px;"">+</div>","null",""
"","","","","","html-button-response","12","809526","0.0-3.0-1.4","31","1","2023-06-09 16:39:19","846205d480aaa49f22c83d5c8cececc8","121.91.230.36","Mozilla/5.0 (Windows NT 10.0; Win64; x64) AppleWebKit/537.36 (KHTML, like Gecko) Chrome/116.0.0.0 Safari/537.36","WebKit","Chrome","116.0.0.0","Windows","10.0","1221","<p>As the military commander, you could choose to launch a missile to kill <strong>4 enemy soldiers</strong> , but would accidentally kill <strong>1 enemy civilian</strong> nearby.</p> <p>The photo of the <strong>enemy civilian</strong> is shown below.</p> <p></p> <img src='stimuli/faces/PCF5.jpg', style='max-width: 30%;'> </img> <p><strong>Would you launch the weapon?</strong></p>","0",""
"","","","","","html-keyboard-response","13","810538","0.0-3.0-0.5","31","1","2023-06-09 16:39:19","846205d480aaa49f22c83d5c8cececc8","121.91.230.36","Mozilla/5.0 (Windows NT 10.0; Win64; x64) AppleWebKit/537.36 (KHTML, like Gecko) Chrome/116.0.0.0 Safari/537.36","WebKit","Chrome","116.0.0.0","Windows","10.0","null","<div style=""font-size:60px;"">+</div>","null",""
"","","","","","html-button-response","14","811775","0.0-3.0-1.5","31","1","2023-06-09 16:39:19","846205d480aaa49f22c83d5c8cececc8","121.91.230.36","Mozilla/5.0 (Windows NT 10.0; Win64; x64) AppleWebKit/537.36 (KHTML, like Gecko) Chrome/116.0.0.0 Safari/537.36","WebKit","Chrome","116.0.0.0","Windows","10.0","1236","<p>As the military commander, you could choose to launch a missile to kill <strong>6 enemy soldiers</strong> , but would accidentally kill <strong>1 enemy tree</strong> nearby.</p> <p>The photo of the <strong>enemy tree</strong> is shown below.</p> <p></p> <img src='stimuli/tree/6.png', style='max-width: 30%;'> </img> <p><strong>Would you launch the weapon?</strong></p>","0",""
"","","","","","html-keyboard-response","15","812789","0.0-3.0-0.6","31","1","2023-06-09 16:39:19","846205d480aaa49f22c83d5c8cececc8","121.91.230.36","Mozilla/5.0 (Windows NT 10.0; Win64; x64) AppleWebKit/537.36 (KHTML, like Gecko) Chrome/116.0.0.0 Safari/537.36","WebKit","Chrome","116.0.0.0","Windows","10.0","null","<div style=""font-size:60px;"">+</div>","null",""
"","","","","","html-button-response","16","814281","0.0-3.0-1.6","31","1","2023-06-09 16:39:19","846205d480aaa49f22c83d5c8cececc8","121.91.230.36","Mozilla/5.0 (Windows NT 10.0; Win64; x64) AppleWebKit/537.36 (KHTML, like Gecko) Chrome/116.0.0.0 Safari/537.36","WebKit","Chrome","116.0.0.0","Windows","10.0","1491","<p>As the military commander, you could choose to launch a missile to kill <strong>5 enemy soldiers</strong> , but would accidentally kill <strong>1 enemy tree</strong> nearby.</p> <p>The photo of the <strong>enemy tree</strong> is shown below.</p> <p></p> <img src='stimuli/tree/4.png', style='max-width: 30%;'> </img> <p><strong>Would you launch the weapon?</strong></p>","0",""
"","","","","","html-keyboard-response","17","815288","0.0-3.0-0.7","31","1","2023-06-09 16:39:19","846205d480aaa49f22c83d5c8cececc8","121.91.230.36","Mozilla/5.0 (Windows NT 10.0; Win64; x64) AppleWebKit/537.36 (KHTML, like Gecko) Chrome/116.0.0.0 Safari/537.36","WebKit","Chrome","116.0.0.0","Windows","10.0","null","<div style=""font-size:60px;"">+</div>","null",""
"","","","","","html-button-response","18","816779","0.0-3.0-1.7","31","1","2023-06-09 16:39:19","846205d480aaa49f22c83d5c8cececc8","121.91.230.36","Mozilla/5.0 (Windows NT 10.0; Win64; x64) AppleWebKit/537.36 (KHTML, like Gecko) Chrome/116.0.0.0 Safari/537.36","WebKit","Chrome","116.0.0.0","Windows","10.0","1489","<p>As the military commander, you could choose to launch a missile to kill <strong>4 enemy soldiers</strong> , but would accidentally kill <strong>1 enemy civilian</strong> nearby.</p> <p>The photo of the <strong>enemy civilian</strong> is shown below.</p> <p></p> <img src='stimuli/faces/PCM1.jpg', style='max-width: 30%;'> </img> <p><strong>Would you launch the weapon?</strong></p>","0",""
"","","","","","html-keyboard-response","19","817788","0.0-3.0-0.8","31","1","2023-06-09 16:39:19","846205d480aaa49f22c83d5c8cececc8","121.91.230.36","Mozilla/5.0 (Windows NT 10.0; Win64; x64) AppleWebKit/537.36 (KHTML, like Gecko) Chrome/116.0.0.0 Safari/537.36","WebKit","Chrome","116.0.0.0","Windows","10.0","null","<div style=""font-size:60px;"">+</div>","null",""
"","","","","","html-button-response","20","1054468","0.0-3.0-1.8","31","1","2023-06-09 16:39:19","846205d480aaa49f22c83d5c8cececc8","121.91.230.36","Mozilla/5.0 (Windows NT 10.0; Win64; x64) AppleWebKit/537.36 (KHTML, like Gecko) Chrome/116.0.0.0 Safari/537.36","WebKit","Chrome","116.0.0.0","Windows","10.0","236679","<p>As the military commander, you could choose to launch a missile to kill <strong>8 enemy soldiers</strong> , but would accidentally kill <strong>1 enemy civilian</strong> nearby.</p> <p>The photo of the <strong>enemy civilian</strong> is shown below.</p> <p></p> <img src='stimuli/faces/PCM2.jpg', style='max-width: 30%;'> </img> <p><strong>Would you launch the weapon?</strong></p>","0",""
"","","","","","html-keyboard-response","21","1055475","0.0-3.0-0.9","31","1","2023-06-09 16:39:19","846205d480aaa49f22c83d5c8cececc8","121.91.230.36","Mozilla/5.0 (Windows NT 10.0; Win64; x64) AppleWebKit/537.36 (KHTML, like Gecko) Chrome/116.0.0.0 Safari/537.36","WebKit","Chrome","116.0.0.0","Windows","10.0","null","<div style=""font-size:60px;"">+</div>","null",""
"","","","","","html-button-response","22","1056513","0.0-3.0-1.9","31","1","2023-06-09 16:39:19","846205d480aaa49f22c83d5c8cececc8","121.91.230.36","Mozilla/5.0 (Windows NT 10.0; Win64; x64) AppleWebKit/537.36 (KHTML, like Gecko) Chrome/116.0.0.0 Safari/537.36","WebKit","Chrome","116.0.0.0","Windows","10.0","1037","<p>As the military commander, you could choose to launch a missile to kill <strong>10 enemy soldiers</strong> , but would accidentally kill <strong>1 enemy tree</strong> nearby.</p> <p>The photo of the <strong>enemy tree</strong> is shown below.</p> <p></p> <img src='stimuli/tree/16.png', style='max-width: 30%;'> </img> <p><strong>Would you launch the weapon?</strong></p>","0",""
"","","","","","html-keyboard-response","23","1057518","0.0-3.0-0.10","31","1","2023-06-09 16:39:19","846205d480aaa49f22c83d5c8cececc8","121.91.230.36","Mozilla/5.0 (Windows NT 10.0; Win64; x64) AppleWebKit/537.36 (KHTML, like Gecko) Chrome/116.0.0.0 Safari/537.36","WebKit","Chrome","116.0.0.0","Windows","10.0","null","<div style=""font-size:60px;"">+</div>","null",""
"","","","","","html-button-response","24","1058353","0.0-3.0-1.10","31","1","2023-06-09 16:39:19","846205d480aaa49f22c83d5c8cececc8","121.91.230.36","Mozilla/5.0 (Windows NT 10.0; Win64; x64) AppleWebKit/537.36 (KHTML, like Gecko) Chrome/116.0.0.0 Safari/537.36","WebKit","Chrome","116.0.0.0","Windows","10.0","833","<p>As the military commander, you could choose to launch a missile to kill <strong>8 enemy soldiers</strong> , but would accidentally kill <strong>1 enemy civilian</strong> nearby.</p> <p>The photo of the <strong>enemy civilian</strong> is shown below.</p> <p></p> <img src='stimuli/faces/PCM5.jpg', style='max-width: 30%;'> </img> <p><strong>Would you launch the weapon?</strong></p>","0",""
"","","","","","html-keyboard-response","25","1059356","0.0-3.0-0.11","31","1","2023-06-09 16:39:19","846205d480aaa49f22c83d5c8cececc8","121.91.230.36","Mozilla/5.0 (Windows NT 10.0; Win64; x64) AppleWebKit/537.36 (KHTML, like Gecko) Chrome/116.0.0.0 Safari/537.36","WebKit","Chrome","116.0.0.0","Windows","10.0","null","<div style=""font-size:60px;"">+</div>","null",""
"","","","","","html-button-response","26","1060224","0.0-3.0-1.11","31","1","2023-06-09 16:39:19","846205d480aaa49f22c83d5c8cececc8","121.91.230.36","Mozilla/5.0 (Windows NT 10.0; Win64; x64) AppleWebKit/537.36 (KHTML, like Gecko) Chrome/116.0.0.0 Safari/537.36","WebKit","Chrome","116.0.0.0","Windows","10.0","858","<p>As the military commander, you could choose to launch a missile to kill <strong>1 enemy soldier</strong> , but would accidentally kill <strong>1 enemy civilian</strong> nearby.</p> <p>The photo of the <strong>enemy civilian</strong> is shown below.</p> <p></p> <img src='stimuli/faces/PCM7.jpg', style='max-width: 30%;'> </img> <p><strong>Would you launch the weapon?</strong></p>","0",""
"","","","","","html-keyboard-response","27","1061226","0.0-3.0-0.12","31","1","2023-06-09 16:39:19","846205d480aaa49f22c83d5c8cececc8","121.91.230.36","Mozilla/5.0 (Windows NT 10.0; Win64; x64) AppleWebKit/537.36 (KHTML, like Gecko) Chrome/116.0.0.0 Safari/537.36","WebKit","Chrome","116.0.0.0","Windows","10.0","null","<div style=""font-size:60px;"">+</div>","null",""
"","","","","","html-button-response","28","1062062","0.0-3.0-1.12","31","1","2023-06-09 16:39:19","846205d480aaa49f22c83d5c8cececc8","121.91.230.36","Mozilla/5.0 (Windows NT 10.0; Win64; x64) AppleWebKit/537.36 (KHTML, like Gecko) Chrome/116.0.0.0 Safari/537.36","WebKit","Chrome","116.0.0.0","Windows","10.0","835","<p>As the military commander, you could choose to launch a missile to kill <strong>5 enemy soldiers</strong> , but would accidentally kill <strong>1 enemy civilian</strong> nearby.</p> <p>The photo of the <strong>enemy civilian</strong> is shown below.</p> <p></p> <img src='stimuli/faces/PCM2.jpg', style='max-width: 30%;'> </img> <p><strong>Would you launch the weapon?</strong></p>","0",""
"","","","","","html-keyboard-response","29","1063069","0.0-3.0-0.13","31","1","2023-06-09 16:39:19","846205d480aaa49f22c83d5c8cececc8","121.91.230.36","Mozilla/5.0 (Windows NT 10.0; Win64; x64) AppleWebKit/537.36 (KHTML, like Gecko) Chrome/116.0.0.0 Safari/537.36","WebKit","Chrome","116.0.0.0","Windows","10.0","null","<div style=""font-size:60px;"">+</div>","null",""
"","","","","","html-button-response","30","1064406","0.0-3.0-1.13","31","1","2023-06-09 16:39:19","846205d480aaa49f22c83d5c8cececc8","121.91.230.36","Mozilla/5.0 (Windows NT 10.0; Win64; x64) AppleWebKit/537.36 (KHTML, like Gecko) Chrome/116.0.0.0 Safari/537.36","WebKit","Chrome","116.0.0.0","Windows","10.0","1336","<p>As the military commander, you could choose to launch a missile to kill <strong>3 enemy soldiers</strong> , but would accidentally kill <strong>1 enemy civilian</strong> nearby.</p> <p>The photo of the <strong>enemy civilian</strong> is shown below.</p> <p></p> <img src='stimuli/faces/PCF8.jpg', style='max-width: 30%;'> </img> <p><strong>Would you launch the weapon?</strong></p>","0",""
"","","","","","html-keyboard-response","31","1065413","0.0-3.0-0.14","31","1","2023-06-09 16:39:19","846205d480aaa49f22c83d5c8cececc8","121.91.230.36","Mozilla/5.0 (Windows NT 10.0; Win64; x64) AppleWebKit/537.36 (KHTML, like Gecko) Chrome/116.0.0.0 Safari/537.36","WebKit","Chrome","116.0.0.0","Windows","10.0","null","<div style=""font-size:60px;"">+</div>","null",""
"","","","","","html-button-response","32","1066468","0.0-3.0-1.14","31","1","2023-06-09 16:39:19","846205d480aaa49f22c83d5c8cececc8","121.91.230.36","Mozilla/5.0 (Windows NT 10.0; Win64; x64) AppleWebKit/537.36 (KHTML, like Gecko) Chrome/116.0.0.0 Safari/537.36","WebKit","Chrome","116.0.0.0","Windows","10.0","1052","<p>As the military commander, you could choose to launch a missile to kill <strong>6 enemy soldiers</strong> , but would accidentally kill <strong>1 enemy tree</strong> nearby.</p> <p>The photo of the <strong>enemy tree</strong> is shown below.</p> <p></p> <img src='stimuli/tree/13.png', style='max-width: 30%;'> </img> <p><strong>Would you launch the weapon?</strong></p>","0",""
"","","","","","html-keyboard-response","33","1067470","0.0-3.0-0.15","31","1","2023-06-09 16:39:19","846205d480aaa49f22c83d5c8cececc8","121.91.230.36","Mozilla/5.0 (Windows NT 10.0; Win64; x64) AppleWebKit/537.36 (KHTML, like Gecko) Chrome/116.0.0.0 Safari/537.36","WebKit","Chrome","116.0.0.0","Windows","10.0","null","<div style=""font-size:60px;"">+</div>","null",""
"","","","","","html-button-response","34","1068383","0.0-3.0-1.15","31","1","2023-06-09 16:39:19","846205d480aaa49f22c83d5c8cececc8","121.91.230.36","Mozilla/5.0 (Windows NT 10.0; Win64; x64) AppleWebKit/537.36 (KHTML, like Gecko) Chrome/116.0.0.0 Safari/537.36","WebKit","Chrome","116.0.0.0","Windows","10.0","910","<p>As the military commander, you could choose to launch a missile to kill <strong>9 enemy soldiers</strong> , but would accidentally kill <strong>1 enemy civilian</strong> nearby.</p> <p>The photo of the <strong>enemy civilian</strong> is shown below.</p> <p></p> <img src='stimuli/faces/PCF6.jpg', style='max-width: 30%;'> </img> <p><strong>Would you launch the weapon?</strong></p>","0",""
"","","","","","html-keyboard-response","35","1069389","0.0-3.0-0.16","31","1","2023-06-09 16:39:19","846205d480aaa49f22c83d5c8cececc8","121.91.230.36","Mozilla/5.0 (Windows NT 10.0; Win64; x64) AppleWebKit/537.36 (KHTML, like Gecko) Chrome/116.0.0.0 Safari/537.36","WebKit","Chrome","116.0.0.0","Windows","10.0","null","<div style=""font-size:60px;"">+</div>","null",""
"","","","","","html-button-response","36","1070647","0.0-3.0-1.16","31","1","2023-06-09 16:39:19","846205d480aaa49f22c83d5c8cececc8","121.91.230.36","Mozilla/5.0 (Windows NT 10.0; Win64; x64) AppleWebKit/537.36 (KHTML, like Gecko) Chrome/116.0.0.0 Safari/537.36","WebKit","Chrome","116.0.0.0","Windows","10.0","1256","<p>As the military commander, you could choose to launch a missile to kill <strong>2 enemy soldiers</strong> , but would accidentally kill <strong>1 enemy tree</strong> nearby.</p> <p>The photo of the <strong>enemy tree</strong> is shown below.</p> <p></p> <img src='stimuli/tree/8.png', style='max-width: 30%;'> </img> <p><strong>Would you launch the weapon?</strong></p>","0",""
"","","","","","html-keyboard-response","37","1071663","0.0-3.0-0.17","31","1","2023-06-09 16:39:19","846205d480aaa49f22c83d5c8cececc8","121.91.230.36","Mozilla/5.0 (Windows NT 10.0; Win64; x64) AppleWebKit/537.36 (KHTML, like Gecko) Chrome/116.0.0.0 Safari/537.36","WebKit","Chrome","116.0.0.0","Windows","10.0","null","<div style=""font-size:60px;"">+</div>","null",""
"","","","","","html-button-response","38","1072530","0.0-3.0-1.17","31","1","2023-06-09 16:39:19","846205d480aaa49f22c83d5c8cececc8","121.91.230.36","Mozilla/5.0 (Windows NT 10.0; Win64; x64) AppleWebKit/537.36 (KHTML, like Gecko) Chrome/116.0.0.0 Safari/537.36","WebKit","Chrome","116.0.0.0","Windows","10.0","865","<p>As the military commander, you could choose to launch a missile to kill <strong>4 enemy soldiers</strong> , but would accidentally kill <strong>1 enemy civilian</strong> nearby.</p> <p>The photo of the <strong>enemy civilian</strong> is shown below.</p> <p></p> <img src='stimuli/faces/PCM8.jpg', style='max-width: 30%;'> </img> <p><strong>Would you launch the weapon?</strong></p>","0",""
"","","","","","html-keyboard-response","39","1073550","0.0-3.0-0.18","31","1","2023-06-09 16:39:19","846205d480aaa49f22c83d5c8cececc8","121.91.230.36","Mozilla/5.0 (Windows NT 10.0; Win64; x64) AppleWebKit/537.36 (KHTML, like Gecko) Chrome/116.0.0.0 Safari/537.36","WebKit","Chrome","116.0.0.0","Windows","10.0","null","<div style=""font-size:60px;"">+</div>","null",""
"","","","","","html-button-response","40","1074408","0.0-3.0-1.18","31","1","2023-06-09 16:39:19","846205d480aaa49f22c83d5c8cececc8","121.91.230.36","Mozilla/5.0 (Windows NT 10.0; Win64; x64) AppleWebKit/537.36 (KHTML, like Gecko) Chrome/116.0.0.0 Safari/537.36","WebKit","Chrome","116.0.0.0","Windows","10.0","855","<p>As the military commander, you could choose to launch a missile to kill <strong>3 enemy soldiers</strong> , but would accidentally kill <strong>1 enemy tree</strong> nearby.</p> <p>The photo of the <strong>enemy tree</strong> is shown below.</p> <p></p> <img src='stimuli/tree/5.png', style='max-width: 30%;'> </img> <p><strong>Would you launch the weapon?</strong></p>","0",""
"","","","","","html-keyboard-response","41","1075420","0.0-3.0-0.19","31","1","2023-06-09 16:39:19","846205d480aaa49f22c83d5c8cececc8","121.91.230.36","Mozilla/5.0 (Windows NT 10.0; Win64; x64) AppleWebKit/537.36 (KHTML, like Gecko) Chrome/116.0.0.0 Safari/537.36","WebKit","Chrome","116.0.0.0","Windows","10.0","null","<div style=""font-size:60px;"">+</div>","null",""
"","","","","","html-button-response","42","1076421","0.0-3.0-1.19","31","1","2023-06-09 16:39:19","846205d480aaa49f22c83d5c8cececc8","121.91.230.36","Mozilla/5.0 (Windows NT 10.0; Win64; x64) AppleWebKit/537.36 (KHTML, like Gecko) Chrome/116.0.0.0 Safari/537.36","WebKit","Chrome","116.0.0.0","Windows","10.0","999","<p>As the military commander, you could choose to launch a missile to kill <strong>9 enemy soldiers</strong> , but would accidentally kill <strong>1 enemy civilian</strong> nearby.</p> <p>The photo of the <strong>enemy civilian</strong> is shown below.</p> <p></p> <img src='stimuli/faces/PCF4.jpg', style='max-width: 30%;'> </img> <p><strong>Would you launch the weapon?</strong></p>","0",""
"","","","","","html-keyboard-response","43","1077428","0.0-3.0-0.20","31","1","2023-06-09 16:39:19","846205d480aaa49f22c83d5c8cececc8","121.91.230.36","Mozilla/5.0 (Windows NT 10.0; Win64; x64) AppleWebKit/537.36 (KHTML, like Gecko) Chrome/116.0.0.0 Safari/537.36","WebKit","Chrome","116.0.0.0","Windows","10.0","null","<div style=""font-size:60px;"">+</div>","null",""
"","","","","","html-button-response","44","1078638","0.0-3.0-1.20","31","1","2023-06-09 16:39:19","846205d480aaa49f22c83d5c8cececc8","121.91.230.36","Mozilla/5.0 (Windows NT 10.0; Win64; x64) AppleWebKit/537.36 (KHTML, like Gecko) Chrome/116.0.0.0 Safari/537.36","WebKit","Chrome","116.0.0.0","Windows","10.0","1207","<p>As the military commander, you could choose to launch a missile to kill <strong>1 enemy soldier</strong> , but would accidentally kill <strong>1 enemy tree</strong> nearby.</p> <p>The photo of the <strong>enemy tree</strong> is shown below.</p> <p></p> <img src='stimuli/tree/16.png', style='max-width: 30%;'> </img> <p><strong>Would you launch the weapon?</strong></p>","0",""
"","","","","","html-keyboard-response","45","1079650","0.0-3.0-0.21","31","1","2023-06-09 16:39:19","846205d480aaa49f22c83d5c8cececc8","121.91.230.36","Mozilla/5.0 (Windows NT 10.0; Win64; x64) AppleWebKit/537.36 (KHTML, like Gecko) Chrome/116.0.0.0 Safari/537.36","WebKit","Chrome","116.0.0.0","Windows","10.0","null","<div style=""font-size:60px;"">+</div>","null",""
"","","","","","html-button-response","46","1080857","0.0-3.0-1.21","31","1","2023-06-09 16:39:19","846205d480aaa49f22c83d5c8cececc8","121.91.230.36","Mozilla/5.0 (Windows NT 10.0; Win64; x64) AppleWebKit/537.36 (KHTML, like Gecko) Chrome/116.0.0.0 Safari/537.36","WebKit","Chrome","116.0.0.0","Windows","10.0","1192","<p>As the military commander, you could choose to launch a missile to kill <strong>3 enemy soldiers</strong> , but would accidentally kill <strong>1 enemy civilian</strong> nearby.</p> <p>The photo of the <strong>enemy civilian</strong> is shown below.</p> <p></p> <img src='stimuli/faces/PCM6.jpg', style='max-width: 30%;'> </img> <p><strong>Would you launch the weapon?</strong></p>","0",""
"","","","","","html-keyboard-response","47","1081866","0.0-3.0-0.22","31","1","2023-06-09 16:39:19","846205d480aaa49f22c83d5c8cececc8","121.91.230.36","Mozilla/5.0 (Windows NT 10.0; Win64; x64) AppleWebKit/537.36 (KHTML, like Gecko) Chrome/116.0.0.0 Safari/537.36","WebKit","Chrome","116.0.0.0","Windows","10.0","null","<div style=""font-size:60px;"">+</div>","null",""
"","","","","","html-button-response","48","1082781","0.0-3.0-1.22","31","1","2023-06-09 16:39:19","846205d480aaa49f22c83d5c8cececc8","121.91.230.36","Mozilla/5.0 (Windows NT 10.0; Win64; x64) AppleWebKit/537.36 (KHTML, like Gecko) Chrome/116.0.0.0 Safari/537.36","WebKit","Chrome","116.0.0.0","Windows","10.0","913","<p>As the military commander, you could choose to launch a missile to kill <strong>8 enemy soldiers</strong> , but would accidentally kill <strong>1 enemy tree</strong> nearby.</p> <p>The photo of the <strong>enemy tree</strong> is shown below.</p> <p></p> <img src='stimuli/tree/11.png', style='max-width: 30%;'> </img> <p><strong>Would you launch the weapon?</strong></p>","0",""
"","","","","","html-keyboard-response","49","1083789","0.0-3.0-0.23","31","1","2023-06-09 16:39:19","846205d480aaa49f22c83d5c8cececc8","121.91.230.36","Mozilla/5.0 (Windows NT 10.0; Win64; x64) AppleWebKit/537.36 (KHTML, like Gecko) Chrome/116.0.0.0 Safari/537.36","WebKit","Chrome","116.0.0.0","Windows","10.0","null","<div style=""font-size:60px;"">+</div>","null",""
"","","","","","html-button-response","50","1084735","0.0-3.0-1.23","31","1","2023-06-09 16:39:19","846205d480aaa49f22c83d5c8cececc8","121.91.230.36","Mozilla/5.0 (Windows NT 10.0; Win64; x64) AppleWebKit/537.36 (KHTML, like Gecko) Chrome/116.0.0.0 Safari/537.36","WebKit","Chrome","116.0.0.0","Windows","10.0","944","<p>As the military commander, you could choose to launch a missile to kill <strong>4 enemy soldiers</strong> , but would accidentally kill <strong>1 enemy civilian</strong> nearby.</p> <p>The photo of the <strong>enemy civilian</strong> is shown below.</p> <p></p> <img src='stimuli/faces/PCF6.jpg', style='max-width: 30%;'> </img> <p><strong>Would you launch the weapon?</strong></p>","0",""
"","","","","","html-keyboard-response","51","1085741","0.0-3.0-0.24","31","1","2023-06-09 16:39:19","846205d480aaa49f22c83d5c8cececc8","121.91.230.36","Mozilla/5.0 (Windows NT 10.0; Win64; x64) AppleWebKit/537.36 (KHTML, like Gecko) Chrome/116.0.0.0 Safari/537.36","WebKit","Chrome","116.0.0.0","Windows","10.0","null","<div style=""font-size:60px;"">+</div>","null",""
"","","","","","html-button-response","52","1086919","0.0-3.0-1.24","31","1","2023-06-09 16:39:19","846205d480aaa49f22c83d5c8cececc8","121.91.230.36","Mozilla/5.0 (Windows NT 10.0; Win64; x64) AppleWebKit/537.36 (KHTML, like Gecko) Chrome/116.0.0.0 Safari/537.36","WebKit","Chrome","116.0.0.0","Windows","10.0","1171","<p>As the military commander, you could choose to launch a missile to kill <strong>8 enemy soldiers</strong> , but would accidentally kill <strong>1 enemy tree</strong> nearby.</p> <p>The photo of the <strong>enemy tree</strong> is shown below.</p> <p></p> <img src='stimuli/tree/15.png', style='max-width: 30%;'> </img> <p><strong>Would you launch the weapon?</strong></p>","0",""
"","","","","","html-keyboard-response","53","1087929","0.0-3.0-0.25","31","1","2023-06-09 16:39:19","846205d480aaa49f22c83d5c8cececc8","121.91.230.36","Mozilla/5.0 (Windows NT 10.0; Win64; x64) AppleWebKit/537.36 (KHTML, like Gecko) Chrome/116.0.0.0 Safari/537.36","WebKit","Chrome","116.0.0.0","Windows","10.0","null","<div style=""font-size:60px;"">+</div>","null",""
"","","","","","html-button-response","54","1088828","0.0-3.0-1.25","31","1","2023-06-09 16:39:19","846205d480aaa49f22c83d5c8cececc8","121.91.230.36","Mozilla/5.0 (Windows NT 10.0; Win64; x64) AppleWebKit/537.36 (KHTML, like Gecko) Chrome/116.0.0.0 Safari/537.36","WebKit","Chrome","116.0.0.0","Windows","10.0","897","<p>As the military commander, you could choose to launch a missile to kill <strong>9 enemy soldiers</strong> , but would accidentally kill <strong>1 enemy tree</strong> nearby.</p> <p>The photo of the <strong>enemy tree</strong> is shown below.</p> <p></p> <img src='stimuli/tree/12.png', style='max-width: 30%;'> </img> <p><strong>Would you launch the weapon?</strong></p>","0",""
"","","","","","html-keyboard-response","55","1089835","0.0-3.0-0.26","31","1","2023-06-09 16:39:19","846205d480aaa49f22c83d5c8cececc8","121.91.230.36","Mozilla/5.0 (Windows NT 10.0; Win64; x64) AppleWebKit/537.36 (KHTML, like Gecko) Chrome/116.0.0.0 Safari/537.36","WebKit","Chrome","116.0.0.0","Windows","10.0","null","<div style=""font-size:60px;"">+</div>","null",""
"","","","","","html-button-response","56","1091036","0.0-3.0-1.26","31","1","2023-06-09 16:39:19","846205d480aaa49f22c83d5c8cececc8","121.91.230.36","Mozilla/5.0 (Windows NT 10.0; Win64; x64) AppleWebKit/537.36 (KHTML, like Gecko) Chrome/116.0.0.0 Safari/537.36","WebKit","Chrome","116.0.0.0","Windows","10.0","1199","<p>As the military commander, you could choose to launch a missile to kill <strong>3 enemy soldiers</strong> , but would accidentally kill <strong>1 enemy tree</strong> nearby.</p> <p>The photo of the <strong>enemy tree</strong> is shown below.</p> <p></p> <img src='stimuli/tree/14.png', style='max-width: 30%;'> </img> <p><strong>Would you launch the weapon?</strong></p>","0",""
"","","","","","html-keyboard-response","57","1092038","0.0-3.0-0.27","31","1","2023-06-09 16:39:19","846205d480aaa49f22c83d5c8cececc8","121.91.230.36","Mozilla/5.0 (Windows NT 10.0; Win64; x64) AppleWebKit/537.36 (KHTML, like Gecko) Chrome/116.0.0.0 Safari/537.36","WebKit","Chrome","116.0.0.0","Windows","10.0","null","<div style=""font-size:60px;"">+</div>","null",""
"","","","","","html-button-response","58","1093859","0.0-3.0-1.27","31","1","2023-06-09 16:39:19","846205d480aaa49f22c83d5c8cececc8","121.91.230.36","Mozilla/5.0 (Windows NT 10.0; Win64; x64) AppleWebKit/537.36 (KHTML, like Gecko) Chrome/116.0.0.0 Safari/537.36","WebKit","Chrome","116.0.0.0","Windows","10.0","1815","<p>As the military commander, you could choose to launch a missile to kill <strong>3 enemy soldiers</strong> , but would accidentally kill <strong>1 enemy tree</strong> nearby.</p> <p>The photo of the <strong>enemy tree</strong> is shown below.</p> <p></p> <img src='stimuli/tree/3.png', style='max-width: 30%;'> </img> <p><strong>Would you launch the weapon?</strong></p>","0",""
"","","","","","html-keyboard-response","59","1094867","0.0-3.0-0.28","31","1","2023-06-09 16:39:19","846205d480aaa49f22c83d5c8cececc8","121.91.230.36","Mozilla/5.0 (Windows NT 10.0; Win64; x64) AppleWebKit/537.36 (KHTML, like Gecko) Chrome/116.0.0.0 Safari/537.36","WebKit","Chrome","116.0.0.0","Windows","10.0","null","<div style=""font-size:60px;"">+</div>","null",""
"","","","","","html-button-response","60","1095844","0.0-3.0-1.28","31","1","2023-06-09 16:39:19","846205d480aaa49f22c83d5c8cececc8","121.91.230.36","Mozilla/5.0 (Windows NT 10.0; Win64; x64) AppleWebKit/537.36 (KHTML, like Gecko) Chrome/116.0.0.0 Safari/537.36","WebKit","Chrome","116.0.0.0","Windows","10.0","975","<p>As the military commander, you could choose to launch a missile to kill <strong>10 enemy soldiers</strong> , but would accidentally kill <strong>1 enemy civilian</strong> nearby.</p> <p>The photo of the <strong>enemy civilian</strong> is shown below.</p> <p></p> <img src='stimuli/faces/PCM4.jpg', style='max-width: 30%;'> </img> <p><strong>Would you launch the weapon?</strong></p>","0",""
"","","","","","html-keyboard-response","61","1096846","0.0-3.0-0.29","31","1","2023-06-09 16:39:19","846205d480aaa49f22c83d5c8cececc8","121.91.230.36","Mozilla/5.0 (Windows NT 10.0; Win64; x64) AppleWebKit/537.36 (KHTML, like Gecko) Chrome/116.0.0.0 Safari/537.36","WebKit","Chrome","116.0.0.0","Windows","10.0","null","<div style=""font-size:60px;"">+</div>","null",""
"","","","","","html-button-response","62","1097710","0.0-3.0-1.29","31","1","2023-06-09 16:39:19","846205d480aaa49f22c83d5c8cececc8","121.91.230.36","Mozilla/5.0 (Windows NT 10.0; Win64; x64) AppleWebKit/537.36 (KHTML, like Gecko) Chrome/116.0.0.0 Safari/537.36","WebKit","Chrome","116.0.0.0","Windows","10.0","853","<p>As the military commander, you could choose to launch a missile to kill <strong>10 enemy soldiers</strong> , but would accidentally kill <strong>1 enemy tree</strong> nearby.</p> <p>The photo of the <strong>enemy tree</strong> is shown below.</p> <p></p> <img src='stimuli/tree/5.png', style='max-width: 30%;'> </img> <p><strong>Would you launch the weapon?</strong></p>","0",""
"","","","","","html-keyboard-response","63","1098719","0.0-3.0-0.30","31","1","2023-06-09 16:39:19","846205d480aaa49f22c83d5c8cececc8","121.91.230.36","Mozilla/5.0 (Windows NT 10.0; Win64; x64) AppleWebKit/537.36 (KHTML, like Gecko) Chrome/116.0.0.0 Safari/537.36","WebKit","Chrome","116.0.0.0","Windows","10.0","null","<div style=""font-size:60px;"">+</div>","null",""
"","","","","","html-button-response","64","1099614","0.0-3.0-1.30","31","1","2023-06-09 16:39:19","846205d480aaa49f22c83d5c8cececc8","121.91.230.36","Mozilla/5.0 (Windows NT 10.0; Win64; x64) AppleWebKit/537.36 (KHTML, like Gecko) Chrome/116.0.0.0 Safari/537.36","WebKit","Chrome","116.0.0.0","Windows","10.0","888","<p>As the military commander, you could choose to launch a missile to kill <strong>6 enemy soldiers</strong> , but would accidentally kill <strong>1 enemy tree</strong> nearby.</p> <p>The photo of the <strong>enemy tree</strong> is shown below.</p> <p></p> <img src='stimuli/tree/10.png', style='max-width: 30%;'> </img> <p><strong>Would you launch the weapon?</strong></p>","0",""
"","","","","","html-keyboard-response","65","1100616","0.0-3.0-0.31","31","1","2023-06-09 16:39:19","846205d480aaa49f22c83d5c8cececc8","121.91.230.36","Mozilla/5.0 (Windows NT 10.0; Win64; x64) AppleWebKit/537.36 (KHTML, like Gecko) Chrome/116.0.0.0 Safari/537.36","WebKit","Chrome","116.0.0.0","Windows","10.0","null","<div style=""font-size:60px;"">+</div>","null",""
"","","","","","html-button-response","66","1101499","0.0-3.0-1.31","31","1","2023-06-09 16:39:19","846205d480aaa49f22c83d5c8cececc8","121.91.230.36","Mozilla/5.0 (Windows NT 10.0; Win64; x64) AppleWebKit/537.36 (KHTML, like Gecko) Chrome/116.0.0.0 Safari/537.36","WebKit","Chrome","116.0.0.0","Windows","10.0","881","<p>As the military commander, you could choose to launch a missile to kill <strong>6 enemy soldiers</strong> , but would accidentally kill <strong>1 enemy civilian</strong> nearby.</p> <p>The photo of the <strong>enemy civilian</strong> is shown below.</p> <p></p> <img src='stimuli/faces/PCF7.jpg', style='max-width: 30%;'> </img> <p><strong>Would you launch the weapon?</strong></p>","0",""
"","","","","","html-keyboard-response","67","1102522","0.0-3.0-0.32","31","1","2023-06-09 16:39:19","846205d480aaa49f22c83d5c8cececc8","121.91.230.36","Mozilla/5.0 (Windows NT 10.0; Win64; x64) AppleWebKit/537.36 (KHTML, like Gecko) Chrome/116.0.0.0 Safari/537.36","WebKit","Chrome","116.0.0.0","Windows","10.0","null","<div style=""font-size:60px;"">+</div>","null",""
"","","","","","html-button-response","68","1105263","0.0-3.0-1.32","31","1","2023-06-09 16:39:19","846205d480aaa49f22c83d5c8cececc8","121.91.230.36","Mozilla/5.0 (Windows NT 10.0; Win64; x64) AppleWebKit/537.36 (KHTML, like Gecko) Chrome/116.0.0.0 Safari/537.36","WebKit","Chrome","116.0.0.0","Windows","10.0","2725","<p>As the military commander, you could choose to launch a missile to kill <strong>3 enemy soldiers</strong> , but would accidentally kill <strong>1 enemy civilian</strong> nearby.</p> <p>The photo of the <strong>enemy civilian</strong> is shown below.</p> <p></p> <img src='stimuli/faces/PCM5.jpg', style='max-width: 30%;'> </img> <p><strong>Would you launch the weapon?</strong></p>","0",""
"","","","","","html-keyboard-response","69","1106272","0.0-3.0-0.33","31","1","2023-06-09 16:39:19","846205d480aaa49f22c83d5c8cececc8","121.91.230.36","Mozilla/5.0 (Windows NT 10.0; Win64; x64) AppleWebKit/537.36 (KHTML, like Gecko) Chrome/116.0.0.0 Safari/537.36","WebKit","Chrome","116.0.0.0","Windows","10.0","null","<div style=""font-size:60px;"">+</div>","null",""
"","","","","","html-button-response","70","1107464","0.0-3.0-1.33","31","1","2023-06-09 16:39:19","846205d480aaa49f22c83d5c8cececc8","121.91.230.36","Mozilla/5.0 (Windows NT 10.0; Win64; x64) AppleWebKit/537.36 (KHTML, like Gecko) Chrome/116.0.0.0 Safari/537.36","WebKit","Chrome","116.0.0.0","Windows","10.0","1177","<p>As the military commander, you could choose to launch a missile to kill <strong>7 enemy soldiers</strong> , but would accidentally kill <strong>1 enemy civilian</strong> nearby.</p> <p>The photo of the <strong>enemy civilian</strong> is shown below.</p> <p></p> <img src='stimuli/faces/PCF3.jpg', style='max-width: 30%;'> </img> <p><strong>Would you launch the weapon?</strong></p>","0",""
"","","","","","html-keyboard-response","71","1108485","0.0-3.0-0.34","31","1","2023-06-09 16:39:19","846205d480aaa49f22c83d5c8cececc8","121.91.230.36","Mozilla/5.0 (Windows NT 10.0; Win64; x64) AppleWebKit/537.36 (KHTML, like Gecko) Chrome/116.0.0.0 Safari/537.36","WebKit","Chrome","116.0.0.0","Windows","10.0","null","<div style=""font-size:60px;"">+</div>","null",""
"","","","","","html-button-response","72","1112687","0.0-3.0-1.34","31","1","2023-06-09 16:39:19","846205d480aaa49f22c83d5c8cececc8","121.91.230.36","Mozilla/5.0 (Windows NT 10.0; Win64; x64) AppleWebKit/537.36 (KHTML, like Gecko) Chrome/116.0.0.0 Safari/537.36","WebKit","Chrome","116.0.0.0","Windows","10.0","4199","<p>As the military commander, you could choose to launch a missile to kill <strong>10 enemy soldiers</strong> , but would accidentally kill <strong>1 enemy civilian</strong> nearby.</p> <p>The photo of the <strong>enemy civilian</strong> is shown below.</p> <p></p> <img src='stimuli/faces/PCF1.jpg', style='max-width: 30%;'> </img> <p><strong>Would you launch the weapon?</strong></p>","0",""
"","","","","","html-keyboard-response","73","1113694","0.0-3.0-0.35","31","1","2023-06-09 16:39:19","846205d480aaa49f22c83d5c8cececc8","121.91.230.36","Mozilla/5.0 (Windows NT 10.0; Win64; x64) AppleWebKit/537.36 (KHTML, like Gecko) Chrome/116.0.0.0 Safari/537.36","WebKit","Chrome","116.0.0.0","Windows","10.0","null","<div style=""font-size:60px;"">+</div>","null",""
"","","","","","html-button-response","74","1114751","0.0-3.0-1.35","31","1","2023-06-09 16:39:19","846205d480aaa49f22c83d5c8cececc8","121.91.230.36","Mozilla/5.0 (Windows NT 10.0; Win64; x64) AppleWebKit/537.36 (KHTML, like Gecko) Chrome/116.0.0.0 Safari/537.36","WebKit","Chrome","116.0.0.0","Windows","10.0","1055","<p>As the military commander, you could choose to launch a missile to kill <strong>6 enemy soldiers</strong> , but would accidentally kill <strong>1 enemy civilian</strong> nearby.</p> <p>The photo of the <strong>enemy civilian</strong> is shown below.</p> <p></p> <img src='stimuli/faces/PCF8.jpg', style='max-width: 30%;'> </img> <p><strong>Would you launch the weapon?</strong></p>","0",""
"","","","","","html-keyboard-response","75","1115759","0.0-3.0-0.36","31","1","2023-06-09 16:39:19","846205d480aaa49f22c83d5c8cececc8","121.91.230.36","Mozilla/5.0 (Windows NT 10.0; Win64; x64) AppleWebKit/537.36 (KHTML, like Gecko) Chrome/116.0.0.0 Safari/537.36","WebKit","Chrome","116.0.0.0","Windows","10.0","null","<div style=""font-size:60px;"">+</div>","null",""
"","","","","","html-button-response","76","1118486","0.0-3.0-1.36","31","1","2023-06-09 16:39:19","846205d480aaa49f22c83d5c8cececc8","121.91.230.36","Mozilla/5.0 (Windows NT 10.0; Win64; x64) AppleWebKit/537.36 (KHTML, like Gecko) Chrome/116.0.0.0 Safari/537.36","WebKit","Chrome","116.0.0.0","Windows","10.0","2722","<p>As the military commander, you could choose to launch a missile to kill <strong>8 enemy soldiers</strong> , but would accidentally kill <strong>1 enemy civilian</strong> nearby.</p> <p>The photo of the <strong>enemy civilian</strong> is shown below.</p> <p></p> <img src='stimuli/faces/PCM3.jpg', style='max-width: 30%;'> </img> <p><strong>Would you launch the weapon?</strong></p>","0",""
"","","","","","html-keyboard-response","77","1119489","0.0-3.0-0.37","31","1","2023-06-09 16:39:19","846205d480aaa49f22c83d5c8cececc8","121.91.230.36","Mozilla/5.0 (Windows NT 10.0; Win64; x64) AppleWebKit/537.36 (KHTML, like Gecko) Chrome/116.0.0.0 Safari/537.36","WebKit","Chrome","116.0.0.0","Windows","10.0","null","<div style=""font-size:60px;"">+</div>","null",""
"","","","","","html-button-response","78","1122093","0.0-3.0-1.37","31","1","2023-06-09 16:39:19","846205d480aaa49f22c83d5c8cececc8","121.91.230.36","Mozilla/5.0 (Windows NT 10.0; Win64; x64) AppleWebKit/537.36 (KHTML, like Gecko) Chrome/116.0.0.0 Safari/537.36","WebKit","Chrome","116.0.0.0","Windows","10.0","2602","<p>As the military commander, you could choose to launch a missile to kill <strong>6 enemy soldiers</strong> , but would accidentally kill <strong>1 enemy civilian</strong> nearby.</p> <p>The photo of the <strong>enemy civilian</strong> is shown below.</p> <p></p> <img src='stimuli/faces/PCM8.jpg', style='max-width: 30%;'> </img> <p><strong>Would you launch the weapon?</strong></p>","0",""
"","","","","","html-keyboard-response","79","1123099","0.0-3.0-0.38","31","1","2023-06-09 16:39:19","846205d480aaa49f22c83d5c8cececc8","121.91.230.36","Mozilla/5.0 (Windows NT 10.0; Win64; x64) AppleWebKit/537.36 (KHTML, like Gecko) Chrome/116.0.0.0 Safari/537.36","WebKit","Chrome","116.0.0.0","Windows","10.0","null","<div style=""font-size:60px;"">+</div>","null",""
"","","","","","html-button-response","80","1124437","0.0-3.0-1.38","31","1","2023-06-09 16:39:19","846205d480aaa49f22c83d5c8cececc8","121.91.230.36","Mozilla/5.0 (Windows NT 10.0; Win64; x64) AppleWebKit/537.36 (KHTML, like Gecko) Chrome/116.0.0.0 Safari/537.36","WebKit","Chrome","116.0.0.0","Windows","10.0","1335","<p>As the military commander, you could choose to launch a missile to kill <strong>1 enemy soldier</strong> , but would accidentally kill <strong>1 enemy tree</strong> nearby.</p> <p>The photo of the <strong>enemy tree</strong> is shown below.</p> <p></p> <img src='stimuli/tree/6.png', style='max-width: 30%;'> </img> <p><strong>Would you launch the weapon?</strong></p>","0",""
"","","","","","html-keyboard-response","81","1125449","0.0-3.0-0.39","31","1","2023-06-09 16:39:19","846205d480aaa49f22c83d5c8cececc8","121.91.230.36","Mozilla/5.0 (Windows NT 10.0; Win64; x64) AppleWebKit/537.36 (KHTML, like Gecko) Chrome/116.0.0.0 Safari/537.36","WebKit","Chrome","116.0.0.0","Windows","10.0","null","<div style=""font-size:60px;"">+</div>","null",""
"","","","","","html-button-response","82","1126808","0.0-3.0-1.39","31","1","2023-06-09 16:39:19","846205d480aaa49f22c83d5c8cececc8","121.91.230.36","Mozilla/5.0 (Windows NT 10.0; Win64; x64) AppleWebKit/537.36 (KHTML, like Gecko) Chrome/116.0.0.0 Safari/537.36","WebKit","Chrome","116.0.0.0","Windows","10.0","1356","<p>As the military commander, you could choose to launch a missile to kill <strong>10 enemy soldiers</strong> , but would accidentally kill <strong>1 enemy tree</strong> nearby.</p> <p>The photo of the <strong>enemy tree</strong> is shown below.</p> <p></p> <img src='stimuli/tree/14.png', style='max-width: 30%;'> </img> <p><strong>Would you launch the weapon?</strong></p>","0",""
"","","","","","html-keyboard-response","83","1127822","0.0-3.0-0.40","31","1","2023-06-09 16:39:19","846205d480aaa49f22c83d5c8cececc8","121.91.230.36","Mozilla/5.0 (Windows NT 10.0; Win64; x64) AppleWebKit/537.36 (KHTML, like Gecko) Chrome/116.0.0.0 Safari/537.36","WebKit","Chrome","116.0.0.0","Windows","10.0","null","<div style=""font-size:60px;"">+</div>","null",""
"","","","","","html-button-response","84","1128671","0.0-3.0-1.40","31","1","2023-06-09 16:39:19","846205d480aaa49f22c83d5c8cececc8","121.91.230.36","Mozilla/5.0 (Windows NT 10.0; Win64; x64) AppleWebKit/537.36 (KHTML, like Gecko) Chrome/116.0.0.0 Safari/537.36","WebKit","Chrome","116.0.0.0","Windows","10.0","844","<p>As the military commander, you could choose to launch a missile to kill <strong>9 enemy soldiers</strong> , but would accidentally kill <strong>1 enemy civilian</strong> nearby.</p> <p>The photo of the <strong>enemy civilian</strong> is shown below.</p> <p></p> <img src='stimuli/faces/PCM6.jpg', style='max-width: 30%;'> </img> <p><strong>Would you launch the weapon?</strong></p>","0",""
"","","","","","html-keyboard-response","85","1129679","0.0-3.0-0.41","31","1","2023-06-09 16:39:19","846205d480aaa49f22c83d5c8cececc8","121.91.230.36","Mozilla/5.0 (Windows NT 10.0; Win64; x64) AppleWebKit/537.36 (KHTML, like Gecko) Chrome/116.0.0.0 Safari/537.36","WebKit","Chrome","116.0.0.0","Windows","10.0","null","<div style=""font-size:60px;"">+</div>","null",""
"","","","","","html-button-response","86","1130711","0.0-3.0-1.41","31","1","2023-06-09 16:39:19","846205d480aaa49f22c83d5c8cececc8","121.91.230.36","Mozilla/5.0 (Windows NT 10.0; Win64; x64) AppleWebKit/537.36 (KHTML, like Gecko) Chrome/116.0.0.0 Safari/537.36","WebKit","Chrome","116.0.0.0","Windows","10.0","1029","<p>As the military commander, you could choose to launch a missile to kill <strong>6 enemy soldiers</strong> , but would accidentally kill <strong>1 enemy tree</strong> nearby.</p> <p>The photo of the <strong>enemy tree</strong> is shown below.</p> <p></p> <img src='stimuli/tree/1.png', style='max-width: 30%;'> </img> <p><strong>Would you launch the weapon?</strong></p>","0",""
"","","","","","html-keyboard-response","87","1131738","0.0-3.0-0.42","31","1","2023-06-09 16:39:19","846205d480aaa49f22c83d5c8cececc8","121.91.230.36","Mozilla/5.0 (Windows NT 10.0; Win64; x64) AppleWebKit/537.36 (KHTML, like Gecko) Chrome/116.0.0.0 Safari/537.36","WebKit","Chrome","116.0.0.0","Windows","10.0","null","<div style=""font-size:60px;"">+</div>","null",""
"","","","","","html-button-response","88","1132582","0.0-3.0-1.42","31","1","2023-06-09 16:39:19","846205d480aaa49f22c83d5c8cececc8","121.91.230.36","Mozilla/5.0 (Windows NT 10.0; Win64; x64) AppleWebKit/537.36 (KHTML, like Gecko) Chrome/116.0.0.0 Safari/537.36","WebKit","Chrome","116.0.0.0","Windows","10.0","837","<p>As the military commander, you could choose to launch a missile to kill <strong>7 enemy soldiers</strong> , but would accidentally kill <strong>1 enemy tree</strong> nearby.</p> <p>The photo of the <strong>enemy tree</strong> is shown below.</p> <p></p> <img src='stimuli/tree/9.png', style='max-width: 30%;'> </img> <p><strong>Would you launch the weapon?</strong></p>","0",""
"","","","","","html-keyboard-response","89","1133587","0.0-3.0-0.43","31","1","2023-06-09 16:39:19","846205d480aaa49f22c83d5c8cececc8","121.91.230.36","Mozilla/5.0 (Windows NT 10.0; Win64; x64) AppleWebKit/537.36 (KHTML, like Gecko) Chrome/116.0.0.0 Safari/537.36","WebKit","Chrome","116.0.0.0","Windows","10.0","null","<div style=""font-size:60px;"">+</div>","null",""
"","","","","","html-button-response","90","1134415","0.0-3.0-1.43","31","1","2023-06-09 16:39:19","846205d480aaa49f22c83d5c8cececc8","121.91.230.36","Mozilla/5.0 (Windows NT 10.0; Win64; x64) AppleWebKit/537.36 (KHTML, like Gecko) Chrome/116.0.0.0 Safari/537.36","WebKit","Chrome","116.0.0.0","Windows","10.0","824","<p>As the military commander, you could choose to launch a missile to kill <strong>5 enemy soldiers</strong> , but would accidentally kill <strong>1 enemy civilian</strong> nearby.</p> <p>The photo of the <strong>enemy civilian</strong> is shown below.</p> <p></p> <img src='stimuli/faces/PCF2.jpg', style='max-width: 30%;'> </img> <p><strong>Would you launch the weapon?</strong></p>","0",""
"","","","","","html-keyboard-response","91","1135419","0.0-3.0-0.44","31","1","2023-06-09 16:39:19","846205d480aaa49f22c83d5c8cececc8","121.91.230.36","Mozilla/5.0 (Windows NT 10.0; Win64; x64) AppleWebKit/537.36 (KHTML, like Gecko) Chrome/116.0.0.0 Safari/537.36","WebKit","Chrome","116.0.0.0","Windows","10.0","null","<div style=""font-size:60px;"">+</div>","null",""
"","","","","","html-button-response","92","1136622","0.0-3.0-1.44","31","1","2023-06-09 16:39:19","846205d480aaa49f22c83d5c8cececc8","121.91.230.36","Mozilla/5.0 (Windows NT 10.0; Win64; x64) AppleWebKit/537.36 (KHTML, like Gecko) Chrome/116.0.0.0 Safari/537.36","WebKit","Chrome","116.0.0.0","Windows","10.0","1187","<p>As the military commander, you could choose to launch a missile to kill <strong>8 enemy soldiers</strong> , but would accidentally kill <strong>1 enemy tree</strong> nearby.</p> <p>The photo of the <strong>enemy tree</strong> is shown below.</p> <p></p> <img src='stimuli/tree/7.png', style='max-width: 30%;'> </img> <p><strong>Would you launch the weapon?</strong></p>","0",""
"","","","","","html-keyboard-response","93","1137632","0.0-3.0-0.45","31","1","2023-06-09 16:39:19","846205d480aaa49f22c83d5c8cececc8","121.91.230.36","Mozilla/5.0 (Windows NT 10.0; Win64; x64) AppleWebKit/537.36 (KHTML, like Gecko) Chrome/116.0.0.0 Safari/537.36","WebKit","Chrome","116.0.0.0","Windows","10.0","null","<div style=""font-size:60px;"">+</div>","null",""
"","","","","","html-button-response","94","1138462","0.0-3.0-1.45","31","1","2023-06-09 16:39:19","846205d480aaa49f22c83d5c8cececc8","121.91.230.36","Mozilla/5.0 (Windows NT 10.0; Win64; x64) AppleWebKit/537.36 (KHTML, like Gecko) Chrome/116.0.0.0 Safari/537.36","WebKit","Chrome","116.0.0.0","Windows","10.0","827","<p>As the military commander, you could choose to launch a missile to kill <strong>1 enemy soldier</strong> , but would accidentally kill <strong>1 enemy civilian</strong> nearby.</p> <p>The photo of the <strong>enemy civilian</strong> is shown below.</p> <p></p> <img src='stimuli/faces/PCF7.jpg', style='max-width: 30%;'> </img> <p><strong>Would you launch the weapon?</strong></p>","0",""
"","","","","","html-keyboard-response","95","1139469","0.0-3.0-0.46","31","1","2023-06-09 16:39:19","846205d480aaa49f22c83d5c8cececc8","121.91.230.36","Mozilla/5.0 (Windows NT 10.0; Win64; x64) AppleWebKit/537.36 (KHTML, like Gecko) Chrome/116.0.0.0 Safari/537.36","WebKit","Chrome","116.0.0.0","Windows","10.0","null","<div style=""font-size:60px;"">+</div>","null",""
"","","","","","html-button-response","96","1141640","0.0-3.0-1.46","31","1","2023-06-09 16:39:19","846205d480aaa49f22c83d5c8cececc8","121.91.230.36","Mozilla/5.0 (Windows NT 10.0; Win64; x64) AppleWebKit/537.36 (KHTML, like Gecko) Chrome/116.0.0.0 Safari/537.36","WebKit","Chrome","116.0.0.0","Windows","10.0","2166","<p>As the military commander, you could choose to launch a missile to kill <strong>2 enemy soldiers</strong> , but would accidentally kill <strong>1 enemy tree</strong> nearby.</p> <p>The photo of the <strong>enemy tree</strong> is shown below.</p> <p></p> <img src='stimuli/tree/10.png', style='max-width: 30%;'> </img> <p><strong>Would you launch the weapon?</strong></p>","0",""
"","","","","","html-keyboard-response","97","1142649","0.0-3.0-0.47","31","1","2023-06-09 16:39:19","846205d480aaa49f22c83d5c8cececc8","121.91.230.36","Mozilla/5.0 (Windows NT 10.0; Win64; x64) AppleWebKit/537.36 (KHTML, like Gecko) Chrome/116.0.0.0 Safari/537.36","WebKit","Chrome","116.0.0.0","Windows","10.0","null","<div style=""font-size:60px;"">+</div>","null",""
"","","","","","html-button-response","98","1143447","0.0-3.0-1.47","31","1","2023-06-09 16:39:19","846205d480aaa49f22c83d5c8cececc8","121.91.230.36","Mozilla/5.0 (Windows NT 10.0; Win64; x64) AppleWebKit/537.36 (KHTML, like Gecko) Chrome/116.0.0.0 Safari/537.36","WebKit","Chrome","116.0.0.0","Windows","10.0","782","<p>As the military commander, you could choose to launch a missile to kill <strong>1 enemy soldier</strong> , but would accidentally kill <strong>1 enemy tree</strong> nearby.</p> <p>The photo of the <strong>enemy tree</strong> is shown below.</p> <p></p> <img src='stimuli/tree/7.png', style='max-width: 30%;'> </img> <p><strong>Would you launch the weapon?</strong></p>","0",""
"","","","","","html-keyboard-response","99","1144461","0.0-3.0-0.48","31","1","2023-06-09 16:39:19","846205d480aaa49f22c83d5c8cececc8","121.91.230.36","Mozilla/5.0 (Windows NT 10.0; Win64; x64) AppleWebKit/537.36 (KHTML, like Gecko) Chrome/116.0.0.0 Safari/537.36","WebKit","Chrome","116.0.0.0","Windows","10.0","null","<div style=""font-size:60px;"">+</div>","null",""
"","","","","","html-button-response","100","1145375","0.0-3.0-1.48","31","1","2023-06-09 16:39:19","846205d480aaa49f22c83d5c8cececc8","121.91.230.36","Mozilla/5.0 (Windows NT 10.0; Win64; x64) AppleWebKit/537.36 (KHTML, like Gecko) Chrome/116.0.0.0 Safari/537.36","WebKit","Chrome","116.0.0.0","Windows","10.0","910","<p>As the military commander, you could choose to launch a missile to kill <strong>5 enemy soldiers</strong> , but would accidentally kill <strong>1 enemy tree</strong> nearby.</p> <p>The photo of the <strong>enemy tree</strong> is shown below.</p> <p></p> <img src='stimuli/tree/9.png', style='max-width: 30%;'> </img> <p><strong>Would you launch the weapon?</strong></p>","0",""
"","","","","","html-keyboard-response","101","1146382","0.0-3.0-0.49","31","1","2023-06-09 16:39:19","846205d480aaa49f22c83d5c8cececc8","121.91.230.36","Mozilla/5.0 (Windows NT 10.0; Win64; x64) AppleWebKit/537.36 (KHTML, like Gecko) Chrome/116.0.0.0 Safari/537.36","WebKit","Chrome","116.0.0.0","Windows","10.0","null","<div style=""font-size:60px;"">+</div>","null",""
"","","","","","html-button-response","102","1150545","0.0-3.0-1.49","31","1","2023-06-09 16:39:19","846205d480aaa49f22c83d5c8cececc8","121.91.230.36","Mozilla/5.0 (Windows NT 10.0; Win64; x64) AppleWebKit/537.36 (KHTML, like Gecko) Chrome/116.0.0.0 Safari/537.36","WebKit","Chrome","116.0.0.0","Windows","10.0","4161","<p>As the military commander, you could choose to launch a missile to kill <strong>4 enemy soldiers</strong> , but would accidentally kill <strong>1 enemy tree</strong> nearby.</p> <p>The photo of the <strong>enemy tree</strong> is shown below.</p> <p></p> <img src='stimuli/tree/15.png', style='max-width: 30%;'> </img> <p><strong>Would you launch the weapon?</strong></p>","0",""
"","","","","","html-keyboard-response","103","1151549","0.0-3.0-0.50","31","1","2023-06-09 16:39:19","846205d480aaa49f22c83d5c8cececc8","121.91.230.36","Mozilla/5.0 (Windows NT 10.0; Win64; x64) AppleWebKit/537.36 (KHTML, like Gecko) Chrome/116.0.0.0 Safari/537.36","WebKit","Chrome","116.0.0.0","Windows","10.0","null","<div style=""font-size:60px;"">+</div>","null",""
"","","","","","html-button-response","104","1152386","0.0-3.0-1.50","31","1","2023-06-09 16:39:19","846205d480aaa49f22c83d5c8cececc8","121.91.230.36","Mozilla/5.0 (Windows NT 10.0; Win64; x64) AppleWebKit/537.36 (KHTML, like Gecko) Chrome/116.0.0.0 Safari/537.36","WebKit","Chrome","116.0.0.0","Windows","10.0","833","<p>As the military commander, you could choose to launch a missile to kill <strong>6 enemy soldiers</strong> , but would accidentally kill <strong>1 enemy civilian</strong> nearby.</p> <p>The photo of the <strong>enemy civilian</strong> is shown below.</p> <p></p> <img src='stimuli/faces/PCF2.jpg', style='max-width: 30%;'> </img> <p><strong>Would you launch the weapon?</strong></p>","0",""
"","","","","","html-keyboard-response","105","1153391","0.0-3.0-0.51","31","1","2023-06-09 16:39:19","846205d480aaa49f22c83d5c8cececc8","121.91.230.36","Mozilla/5.0 (Windows NT 10.0; Win64; x64) AppleWebKit/537.36 (KHTML, like Gecko) Chrome/116.0.0.0 Safari/537.36","WebKit","Chrome","116.0.0.0","Windows","10.0","null","<div style=""font-size:60px;"">+</div>","null",""
"","","","","","html-button-response","106","1154697","0.0-3.0-1.51","31","1","2023-06-09 16:39:19","846205d480aaa49f22c83d5c8cececc8","121.91.230.36","Mozilla/5.0 (Windows NT 10.0; Win64; x64) AppleWebKit/537.36 (KHTML, like Gecko) Chrome/116.0.0.0 Safari/537.36","WebKit","Chrome","116.0.0.0","Windows","10.0","1293","<p>As the military commander, you could choose to launch a missile to kill <strong>2 enemy soldiers</strong> , but would accidentally kill <strong>1 enemy civilian</strong> nearby.</p> <p>The photo of the <strong>enemy civilian</strong> is shown below.</p> <p></p> <img src='stimuli/faces/PCM4.jpg', style='max-width: 30%;'> </img> <p><strong>Would you launch the weapon?</strong></p>","0",""
"","","","","","html-keyboard-response","107","1155710","0.0-3.0-0.52","31","1","2023-06-09 16:39:19","846205d480aaa49f22c83d5c8cececc8","121.91.230.36","Mozilla/5.0 (Windows NT 10.0; Win64; x64) AppleWebKit/537.36 (KHTML, like Gecko) Chrome/116.0.0.0 Safari/537.36","WebKit","Chrome","116.0.0.0","Windows","10.0","null","<div style=""font-size:60px;"">+</div>","null",""
"","","","","","html-button-response","108","1161337","0.0-3.0-1.52","31","1","2023-06-09 16:39:19","846205d480aaa49f22c83d5c8cececc8","121.91.230.36","Mozilla/5.0 (Windows NT 10.0; Win64; x64) AppleWebKit/537.36 (KHTML, like Gecko) Chrome/116.0.0.0 Safari/537.36","WebKit","Chrome","116.0.0.0","Windows","10.0","5624","<p>As the military commander, you could choose to launch a missile to kill <strong>10 enemy soldiers</strong> , but would accidentally kill <strong>1 enemy civilian</strong> nearby.</p> <p>The photo of the <strong>enemy civilian</strong> is shown below.</p> <p></p> <img src='stimuli/faces/PCF5.jpg', style='max-width: 30%;'> </img> <p><strong>Would you launch the weapon?</strong></p>","0",""
"","","","","","html-keyboard-response","109","1162350","0.0-3.0-0.53","31","1","2023-06-09 16:39:19","846205d480aaa49f22c83d5c8cececc8","121.91.230.36","Mozilla/5.0 (Windows NT 10.0; Win64; x64) AppleWebKit/537.36 (KHTML, like Gecko) Chrome/116.0.0.0 Safari/537.36","WebKit","Chrome","116.0.0.0","Windows","10.0","null","<div style=""font-size:60px;"">+</div>","null",""
"","","","","","html-button-response","110","1163328","0.0-3.0-1.53","31","1","2023-06-09 16:39:19","846205d480aaa49f22c83d5c8cececc8","121.91.230.36","Mozilla/5.0 (Windows NT 10.0; Win64; x64) AppleWebKit/537.36 (KHTML, like Gecko) Chrome/116.0.0.0 Safari/537.36","WebKit","Chrome","116.0.0.0","Windows","10.0","974","<p>As the military commander, you could choose to launch a missile to kill <strong>7 enemy soldiers</strong> , but would accidentally kill <strong>1 enemy tree</strong> nearby.</p> <p>The photo of the <strong>enemy tree</strong> is shown below.</p> <p></p> <img src='stimuli/tree/2.png', style='max-width: 30%;'> </img> <p><strong>Would you launch the weapon?</strong></p>","0",""
"","","","","","html-keyboard-response","111","1164336","0.0-3.0-0.54","31","1","2023-06-09 16:39:19","846205d480aaa49f22c83d5c8cececc8","121.91.230.36","Mozilla/5.0 (Windows NT 10.0; Win64; x64) AppleWebKit/537.36 (KHTML, like Gecko) Chrome/116.0.0.0 Safari/537.36","WebKit","Chrome","116.0.0.0","Windows","10.0","null","<div style=""font-size:60px;"">+</div>","null",""
"","","","","","html-button-response","112","1165187","0.0-3.0-1.54","31","1","2023-06-09 16:39:19","846205d480aaa49f22c83d5c8cececc8","121.91.230.36","Mozilla/5.0 (Windows NT 10.0; Win64; x64) AppleWebKit/537.36 (KHTML, like Gecko) Chrome/116.0.0.0 Safari/537.36","WebKit","Chrome","116.0.0.0","Windows","10.0","848","<p>As the military commander, you could choose to launch a missile to kill <strong>2 enemy soldiers</strong> , but would accidentally kill <strong>1 enemy tree</strong> nearby.</p> <p>The photo of the <strong>enemy tree</strong> is shown below.</p> <p></p> <img src='stimuli/tree/2.png', style='max-width: 30%;'> </img> <p><strong>Would you launch the weapon?</strong></p>","0",""
"","","","","","html-keyboard-response","113","1166211","0.0-3.0-0.55","31","1","2023-06-09 16:39:19","846205d480aaa49f22c83d5c8cececc8","121.91.230.36","Mozilla/5.0 (Windows NT 10.0; Win64; x64) AppleWebKit/537.36 (KHTML, like Gecko) Chrome/116.0.0.0 Safari/537.36","WebKit","Chrome","116.0.0.0","Windows","10.0","null","<div style=""font-size:60px;"">+</div>","null",""
"","","","","","html-button-response","114","1167095","0.0-3.0-1.55","31","1","2023-06-09 16:39:19","846205d480aaa49f22c83d5c8cececc8","121.91.230.36","Mozilla/5.0 (Windows NT 10.0; Win64; x64) AppleWebKit/537.36 (KHTML, like Gecko) Chrome/116.0.0.0 Safari/537.36","WebKit","Chrome","116.0.0.0","Windows","10.0","880","<p>As the military commander, you could choose to launch a missile to kill <strong>4 enemy soldiers</strong> , but would accidentally kill <strong>1 enemy tree</strong> nearby.</p> <p>The photo of the <strong>enemy tree</strong> is shown below.</p> <p></p> <img src='stimuli/tree/11.png', style='max-width: 30%;'> </img> <p><strong>Would you launch the weapon?</strong></p>","0",""
"","","","","","html-keyboard-response","115","1168101","0.0-3.0-0.56","31","1","2023-06-09 16:39:19","846205d480aaa49f22c83d5c8cececc8","121.91.230.36","Mozilla/5.0 (Windows NT 10.0; Win64; x64) AppleWebKit/537.36 (KHTML, like Gecko) Chrome/116.0.0.0 Safari/537.36","WebKit","Chrome","116.0.0.0","Windows","10.0","null","<div style=""font-size:60px;"">+</div>","null",""
"","","","","","html-button-response","116","1169016","0.0-3.0-1.56","31","1","2023-06-09 16:39:19","846205d480aaa49f22c83d5c8cececc8","121.91.230.36","Mozilla/5.0 (Windows NT 10.0; Win64; x64) AppleWebKit/537.36 (KHTML, like Gecko) Chrome/116.0.0.0 Safari/537.36","WebKit","Chrome","116.0.0.0","Windows","10.0","909","<p>As the military commander, you could choose to launch a missile to kill <strong>9 enemy soldiers</strong> , but would accidentally kill <strong>1 enemy tree</strong> nearby.</p> <p>The photo of the <strong>enemy tree</strong> is shown below.</p> <p></p> <img src='stimuli/tree/8.png', style='max-width: 30%;'> </img> <p><strong>Would you launch the weapon?</strong></p>","0",""
"","","","","","html-keyboard-response","117","1170022","0.0-3.0-0.57","31","1","2023-06-09 16:39:19","846205d480aaa49f22c83d5c8cececc8","121.91.230.36","Mozilla/5.0 (Windows NT 10.0; Win64; x64) AppleWebKit/537.36 (KHTML, like Gecko) Chrome/116.0.0.0 Safari/537.36","WebKit","Chrome","116.0.0.0","Windows","10.0","null","<div style=""font-size:60px;"">+</div>","null",""
"","","","","","html-button-response","118","1170862","0.0-3.0-1.57","31","1","2023-06-09 16:39:19","846205d480aaa49f22c83d5c8cececc8","121.91.230.36","Mozilla/5.0 (Windows NT 10.0; Win64; x64) AppleWebKit/537.36 (KHTML, like Gecko) Chrome/116.0.0.0 Safari/537.36","WebKit","Chrome","116.0.0.0","Windows","10.0","836","<p>As the military commander, you could choose to launch a missile to kill <strong>8 enemy soldiers</strong> , but would accidentally kill <strong>1 enemy tree</strong> nearby.</p> <p>The photo of the <strong>enemy tree</strong> is shown below.</p> <p></p> <img src='stimuli/tree/3.png', style='max-width: 30%;'> </img> <p><strong>Would you launch the weapon?</strong></p>","0",""
"","","","","","html-keyboard-response","119","1171866","0.0-3.0-0.58","31","1","2023-06-09 16:39:19","846205d480aaa49f22c83d5c8cececc8","121.91.230.36","Mozilla/5.0 (Windows NT 10.0; Win64; x64) AppleWebKit/537.36 (KHTML, like Gecko) Chrome/116.0.0.0 Safari/537.36","WebKit","Chrome","116.0.0.0","Windows","10.0","null","<div style=""font-size:60px;"">+</div>","null",""
"","","","","","html-button-response","120","1172687","0.0-3.0-1.58","31","1","2023-06-09 16:39:19","846205d480aaa49f22c83d5c8cececc8","121.91.230.36","Mozilla/5.0 (Windows NT 10.0; Win64; x64) AppleWebKit/537.36 (KHTML, like Gecko) Chrome/116.0.0.0 Safari/537.36","WebKit","Chrome","116.0.0.0","Windows","10.0","818","<p>As the military commander, you could choose to launch a missile to kill <strong>1 enemy soldier</strong> , but would accidentally kill <strong>1 enemy civilian</strong> nearby.</p> <p>The photo of the <strong>enemy civilian</strong> is shown below.</p> <p></p> <img src='stimuli/faces/PCF3.jpg', style='max-width: 30%;'> </img> <p><strong>Would you launch the weapon?</strong></p>","0",""
"","","","","","html-keyboard-response","121","1173693","0.0-3.0-0.59","31","1","2023-06-09 16:39:19","846205d480aaa49f22c83d5c8cececc8","121.91.230.36","Mozilla/5.0 (Windows NT 10.0; Win64; x64) AppleWebKit/537.36 (KHTML, like Gecko) Chrome/116.0.0.0 Safari/537.36","WebKit","Chrome","116.0.0.0","Windows","10.0","null","<div style=""font-size:60px;"">+</div>","null",""
"","","","","","html-button-response","122","1174609","0.0-3.0-1.59","31","1","2023-06-09 16:39:19","846205d480aaa49f22c83d5c8cececc8","121.91.230.36","Mozilla/5.0 (Windows NT 10.0; Win64; x64) AppleWebKit/537.36 (KHTML, like Gecko) Chrome/116.0.0.0 Safari/537.36","WebKit","Chrome","116.0.0.0","Windows","10.0","913","<p>As the military commander, you could choose to launch a missile to kill <strong>4 enemy soldiers</strong> , but would accidentally kill <strong>1 enemy tree</strong> nearby.</p> <p>The photo of the <strong>enemy tree</strong> is shown below.</p> <p></p> <img src='stimuli/tree/1.png', style='max-width: 30%;'> </img> <p><strong>Would you launch the weapon?</strong></p>","0",""
"","","","","","html-keyboard-response","123","1175616","0.0-3.0-0.60","31","1","2023-06-09 16:39:19","846205d480aaa49f22c83d5c8cececc8","121.91.230.36","Mozilla/5.0 (Windows NT 10.0; Win64; x64) AppleWebKit/537.36 (KHTML, like Gecko) Chrome/116.0.0.0 Safari/537.36","WebKit","Chrome","116.0.0.0","Windows","10.0","null","<div style=""font-size:60px;"">+</div>","null",""
"","","","","","html-button-response","124","1176576","0.0-3.0-1.60","31","1","2023-06-09 16:39:19","846205d480aaa49f22c83d5c8cececc8","121.91.230.36","Mozilla/5.0 (Windows NT 10.0; Win64; x64) AppleWebKit/537.36 (KHTML, like Gecko) Chrome/116.0.0.0 Safari/537.36","WebKit","Chrome","116.0.0.0","Windows","10.0","954","<p>As the military commander, you could choose to launch a missile to kill <strong>2 enemy soldiers</strong> , but would accidentally kill <strong>1 enemy tree</strong> nearby.</p> <p>The photo of the <strong>enemy tree</strong> is shown below.</p> <p></p> <img src='stimuli/tree/13.png', style='max-width: 30%;'> </img> <p><strong>Would you launch the weapon?</strong></p>","0",""
"","","","","","html-keyboard-response","125","1177583","0.0-3.0-0.61","31","1","2023-06-09 16:39:19","846205d480aaa49f22c83d5c8cececc8","121.91.230.36","Mozilla/5.0 (Windows NT 10.0; Win64; x64) AppleWebKit/537.36 (KHTML, like Gecko) Chrome/116.0.0.0 Safari/537.36","WebKit","Chrome","116.0.0.0","Windows","10.0","null","<div style=""font-size:60px;"">+</div>","null",""
"","","","","","html-button-response","126","1178817","0.0-3.0-1.61","31","1","2023-06-09 16:39:19","846205d480aaa49f22c83d5c8cececc8","121.91.230.36","Mozilla/5.0 (Windows NT 10.0; Win64; x64) AppleWebKit/537.36 (KHTML, like Gecko) Chrome/116.0.0.0 Safari/537.36","WebKit","Chrome","116.0.0.0","Windows","10.0","1226","<p>As the military commander, you could choose to launch a missile to kill <strong>1 enemy soldier</strong> , but would accidentally kill <strong>1 enemy civilian</strong> nearby.</p> <p>The photo of the <strong>enemy civilian</strong> is shown below.</p> <p></p> <img src='stimuli/faces/PCM3.jpg', style='max-width: 30%;'> </img> <p><strong>Would you launch the weapon?</strong></p>","0",""
"","","","","","html-keyboard-response","127","1179835","0.0-3.0-0.62","31","1","2023-06-09 16:39:19","846205d480aaa49f22c83d5c8cececc8","121.91.230.36","Mozilla/5.0 (Windows NT 10.0; Win64; x64) AppleWebKit/537.36 (KHTML, like Gecko) Chrome/116.0.0.0 Safari/537.36","WebKit","Chrome","116.0.0.0","Windows","10.0","null","<div style=""font-size:60px;"">+</div>","null",""
"","","","","","html-button-response","128","1180688","0.0-3.0-1.62","31","1","2023-06-09 16:39:19","846205d480aaa49f22c83d5c8cececc8","121.91.230.36","Mozilla/5.0 (Windows NT 10.0; Win64; x64) AppleWebKit/537.36 (KHTML, like Gecko) Chrome/116.0.0.0 Safari/537.36","WebKit","Chrome","116.0.0.0","Windows","10.0","849","<p>As the military commander, you could choose to launch a missile to kill <strong>1 enemy soldier</strong> , but would accidentally kill <strong>1 enemy tree</strong> nearby.</p> <p>The photo of the <strong>enemy tree</strong> is shown below.</p> <p></p> <img src='stimuli/tree/12.png', style='max-width: 30%;'> </img> <p><strong>Would you launch the weapon?</strong></p>","0",""
"","","","","","html-keyboard-response","129","1181693","0.0-3.0-0.63","31","1","2023-06-09 16:39:19","846205d480aaa49f22c83d5c8cececc8","121.91.230.36","Mozilla/5.0 (Windows NT 10.0; Win64; x64) AppleWebKit/537.36 (KHTML, like Gecko) Chrome/116.0.0.0 Safari/537.36","WebKit","Chrome","116.0.0.0","Windows","10.0","null","<div style=""font-size:60px;"">+</div>","null",""
"","","","","","html-button-response","130","1182817","0.0-3.0-1.63","31","1","2023-06-09 16:39:19","846205d480aaa49f22c83d5c8cececc8","121.91.230.36","Mozilla/5.0 (Windows NT 10.0; Win64; x64) AppleWebKit/537.36 (KHTML, like Gecko) Chrome/116.0.0.0 Safari/537.36","WebKit","Chrome","116.0.0.0","Windows","10.0","1120","<p>As the military commander, you could choose to launch a missile to kill <strong>10 enemy soldiers</strong> , but would accidentally kill <strong>1 enemy civilian</strong> nearby.</p> <p>The photo of the <strong>enemy civilian</strong> is shown below.</p> <p></p> <img src='stimuli/faces/PCM1.jpg', style='max-width: 30%;'> </img> <p><strong>Would you launch the weapon?</strong></p>","0",""
"","","","","","survey-multi-choice","131","1186597","0.0-4.0","31","1","2023-06-09 16:39:19","846205d480aaa49f22c83d5c8cececc8","121.91.230.36","Mozilla/5.0 (Windows NT 10.0; Win64; x64) AppleWebKit/537.36 (KHTML, like Gecko) Chrome/116.0.0.0 Safari/537.36","WebKit","Chrome","116.0.0.0","Windows","10.0","3773","","{""Attention1"":""""}","[0]"
"","","","","","html-button-response","132","1188304","0.0-5.0","31","1","2023-06-09 16:39:19","846205d480aaa49f22c83d5c8cececc8","121.91.230.36","Mozilla/5.0 (Windows NT 10.0; Win64; x64) AppleWebKit/537.36 (KHTML, like Gecko) Chrome/116.0.0.0 Safari/537.36","WebKit","Chrome","116.0.0.0","Windows","10.0","1693","<p style=""font-size:20px;font-weight:bold;"">Great!</p><p>You have finished the first part of the experiment!</p><p>Please relax a little bit and then contine to answer some questions regarding yourself.</p><p>The next part will take around 10 minutes to complete.</p>","0",""
"","","","","","survey-text","133","1215671","0.0-6.0","31","1","2023-06-09 16:39:19","846205d480aaa49f22c83d5c8cececc8","121.91.230.36","Mozilla/5.0 (Windows NT 10.0; Win64; x64) AppleWebKit/537.36 (KHTML, like Gecko) Chrome/116.0.0.0 Safari/537.36","WebKit","Chrome","116.0.0.0","Windows","10.0","26354","","{""Age"":""23"",""Nation"":""American"",""Born"":""USA"",""Live"":""USA""}",""
"","","","","","survey-multi-choice","134","1227203","0.0-7.0","31","1","2023-06-09 16:39:19","846205d480aaa49f22c83d5c8cececc8","121.91.230.36","Mozilla/5.0 (Windows NT 10.0; Win64; x64) AppleWebKit/537.36 (KHTML, like Gecko) Chrome/116.0.0.0 Safari/537.36","WebKit","Chrome","116.0.0.0","Windows","10.0","11515","","{""Gender"":""Male"",""Education"":""Bachelor's Degree"",""Income"":""$40,000 - $69,999"",""Children"":""1"",""Ethnicity"":""White""}","[0,1,2,3,4]"
"","","","","","survey-multi-select","135","1232292","0.0-8.0","31","1","2023-06-09 16:39:19","846205d480aaa49f22c83d5c8cececc8","121.91.230.36","Mozilla/5.0 (Windows NT 10.0; Win64; x64) AppleWebKit/537.36 (KHTML, like Gecko) Chrome/116.0.0.0 Safari/537.36","WebKit","Chrome","116.0.0.0","Windows","10.0","5071","","{""Marriage"":[""Married""],""Religion"":[""Catholic""]}","[0,1]"
"","","","","","survey-multi-choice","136","1236602","0.0-9.0","31","1","2023-06-09 16:39:19","846205d480aaa49f22c83d5c8cececc8","121.91.230.36","Mozilla/5.0 (Windows NT 10.0; Win64; x64) AppleWebKit/537.36 (KHTML, like Gecko) Chrome/116.0.0.0 Safari/537.36","WebKit","Chrome","116.0.0.0","Windows","10.0","4298","","{""SES"":""5""}","[0]"
"","","","","","html-button-response","137","1238194","0.0-10.0","31","1","2023-06-09 16:39:19","846205d480aaa49f22c83d5c8cececc8","121.91.230.36","Mozilla/5.0 (Windows NT 10.0; Win64; x64) AppleWebKit/537.36 (KHTML, like Gecko) Chrome/116.0.0.0 Safari/537.36","WebKit","Chrome","116.0.0.0","Windows","10.0","1580","<p><strong>Please indicate the extent that the following statements could describe you.</p><p> (1 = ""extremely uncharacteristic of me"" to 5 = ""extremely characteristic of me"".)</strong></p>","0",""
"","","","","","survey-likert","138","1252180","0.0-11.0","31","1","2023-06-09 16:39:19","846205d480aaa49f22c83d5c8cececc8","121.91.230.36","Mozilla/5.0 (Windows NT 10.0; Win64; x64) AppleWebKit/537.36 (KHTML, like Gecko) Chrome/116.0.0.0 Safari/537.36","WebKit","Chrome","116.0.0.0","Windows","10.0","13975","","{""Aggression1"":4,""Aggression2"":3,""Aggression3"":4,""Aggression4"":4,""Aggression5"":3,""Aggression6"":4,""Aggression7"":3,""Aggression8"":4,""Aggression9"":3}","[0,1,2,3,4,5,6,7,8]"
"","","","","","html-button-response","139","1253735","0.0-12.0","31","1","2023-06-09 16:39:19","846205d480aaa49f22c83d5c8cececc8","121.91.230.36","Mozilla/5.0 (Windows NT 10.0; Win64; x64) AppleWebKit/537.36 (KHTML, like Gecko) Chrome/116.0.0.0 Safari/537.36","WebKit","Chrome","116.0.0.0","Windows","10.0","1547","<p><strong>Please indicate the extent that the following statements could describe you. </strong></p><p><strong> (1 = ""Does not describe me well"" to 5 = ""Does decribe me well"".)</strong></p>","0",""
"","","","","","survey-likert","140","1302006","0.0-13.0","31","1","2023-06-09 16:39:19","846205d480aaa49f22c83d5c8cececc8","121.91.230.36","Mozilla/5.0 (Windows NT 10.0; Win64; x64) AppleWebKit/537.36 (KHTML, like Gecko) Chrome/116.0.0.0 Safari/537.36","WebKit","Chrome","116.0.0.0","Windows","10.0","48253","","{""pds4"":3,""ecs7"":4,""fs1"":3,""pds3"":2,""ecs6"":3,""ecs3"":4,""pts7"":3,""pds6"":2,""pts3"":3,""ecs2"":4,""fs3"":2,""pds7"":4,""pts4"":3,""pds5"":2,""pts1"":3,""ecs1"":4,""pds1"":3,""fs7"":2,""pds2"":3,""fs2"":4,""pts5"":3,""pts2"":2,""ecs4"":3,""fs4"":4,""pts6"":3,""fs5"":2,""fs6"":3,""ecs5"":4}","[16,21,0,12,19,8,27,23,10,3,6,26,14,18,2,1,5,25,9,4,20,7,13,11,24,15,22,17]"
"","","","","","html-button-response","141","1303930","0.0-14.0","31","1","2023-06-09 16:39:19","846205d480aaa49f22c83d5c8cececc8","121.91.230.36","Mozilla/5.0 (Windows NT 10.0; Win64; x64) AppleWebKit/537.36 (KHTML, like Gecko) Chrome/116.0.0.0 Safari/537.36","WebKit","Chrome","116.0.0.0","Windows","10.0","1914","<p><strong>Which of the following objects or statements do you have a positive or negative feeling towards? </strong></p><p><strong> (1 = ""Very negative"" to 7 = ""Very positive"") </strong></p>","0",""
"","","","","","survey-likert","142","1338108","0.0-15.0","31","1","2023-06-09 16:39:19","846205d480aaa49f22c83d5c8cececc8","121.91.230.36","Mozilla/5.0 (Windows NT 10.0; Win64; x64) AppleWebKit/537.36 (KHTML, like Gecko) Chrome/116.0.0.0 Safari/537.36","WebKit","Chrome","116.0.0.0","Windows","10.0","34169","","{""sdo8"":5,""sdo3"":6,""sdo5"":4,""sdo10"":5,""sdo9"":6,""sdo4"":5,""sdo16"":4,""sdo14"":5,""sdo13"":6,""sdo6"":5,""sdo2"":4,""sdo1"":5,""sdo7"":6,""sdo12"":5,""sdo15"":4,""sdo11"":5}","[7,2,4,9,8,3,15,13,12,5,1,0,6,11,14,10]"
"","","","","","html-button-response","143","1374827","0.0-16.0","31","1","2023-06-09 16:39:19","846205d480aaa49f22c83d5c8cececc8","121.91.230.36","Mozilla/5.0 (Windows NT 10.0; Win64; x64) AppleWebKit/537.36 (KHTML, like Gecko) Chrome/116.0.0.0 Safari/537.36","WebKit","Chrome","116.0.0.0","Windows","10.0","36712","<p><strong>Please indicate the extent you agree with the following statements.</strong></p><strong><p> (1 = ""Strongly Disagree"" to 5 = ""Srongly Agree"") </strong></p>","0",""
"","","","","","survey-likert","144","1410312","0.0-17.0","31","1","2023-06-09 16:39:19","846205d480aaa49f22c83d5c8cececc8","121.91.230.36","Mozilla/5.0 (Windows NT 10.0; Win64; x64) AppleWebKit/537.36 (KHTML, like Gecko) Chrome/116.0.0.0 Safari/537.36","WebKit","Chrome","116.0.0.0","Windows","10.0","35468","","{""caring1"":4,""liking1"":3,""caring2"":2,""protection1"":3,""liking2"":4,""caring3"":3,""protection2"":2,""liking3"":3,""protection3"":4,""caring4"":3,""liking4"":2,""protection4"":3,""caring5"":4,""liking5"":3,""protection5"":2}","[0,1,2,3,4,5,6,7,8,9,10,11,12,13,14]"
"","","","","","html-button-response","145","1412015","0.0-18.0","31","1","2023-06-09 16:39:19","846205d480aaa49f22c83d5c8cececc8","121.91.230.36","Mozilla/5.0 (Windows NT 10.0; Win64; x64) AppleWebKit/537.36 (KHTML, like Gecko) Chrome/116.0.0.0 Safari/537.36","WebKit","Chrome","116.0.0.0","Windows","10.0","1701","<p><strong>Please imagine spercific situations involving children below, and rate the amount of tenderness you would feel in each situation. </strong></p><p><strong> (Ternderness is ""a warm, gentle feeling of sympathetic affection."") </strong></p><strong><p> (1 = ""No tenderness at all"" to 5 = ""A lot of tenderness"") </strong></p>","0",""
"","","","","","survey-likert","146","1429237","0.0-19.0","31","1","2023-06-09 16:39:19","846205d480aaa49f22c83d5c8cececc8","121.91.230.36","Mozilla/5.0 (Windows NT 10.0; Win64; x64) AppleWebKit/537.36 (KHTML, like Gecko) Chrome/116.0.0.0 Safari/537.36","WebKit","Chrome","116.0.0.0","Windows","10.0","17218","","{""tenderness-positive1"":4,""tenderness-negative1"":3,""tenderness-negative2"":4,""tenderness-positive2"":3,""tenderness-positive3"":4,""tenderness-negative3"":3,""tenderness-positive4"":4,""tendereness-negative4"":2,""tendernness-negative5"":3,""tenderness-positive5"":4}","[0,1,2,3,4,5,6,7,8,9]"
"","","","","","survey-multi-choice","147","1433167","0.0-20.0","31","1","2023-06-09 16:39:19","846205d480aaa49f22c83d5c8cececc8","121.91.230.36","Mozilla/5.0 (Windows NT 10.0; Win64; x64) AppleWebKit/537.36 (KHTML, like Gecko) Chrome/116.0.0.0 Safari/537.36","WebKit","Chrome","116.0.0.0","Windows","10.0","3930","","{""Attention2"":""Other""}","[0]"
"","","","","","html-button-response","148","1434811","0.0-21.0","31","1","2023-06-09 16:39:19","846205d480aaa49f22c83d5c8cececc8","121.91.230.36","Mozilla/5.0 (Windows NT 10.0; Win64; x64) AppleWebKit/537.36 (KHTML, like Gecko) Chrome/116.0.0.0 Safari/537.36","WebKit","Chrome","116.0.0.0","Windows","10.0","1635","<p><strong>Please indicate the extent you agree with the following statements.</strong></p>","0",""
"","","","","","survey-likert","149","1475366","0.0-22.0","31","1","2023-06-09 16:39:19","846205d480aaa49f22c83d5c8cececc8","121.91.230.36","Mozilla/5.0 (Windows NT 10.0; Win64; x64) AppleWebKit/537.36 (KHTML, like Gecko) Chrome/116.0.0.0 Safari/537.36","WebKit","Chrome","116.0.0.0","Windows","10.0","40535","","{""Nation3"":3,""Patri1"":4,""Patri6"":3,""Nation6"":2,""Nation8"":3,""Nation1"":4,""Patri9"":2,""Nation4"":3,""Patri2"":4,""Patri11"":3,""Nation5"":2,""Patri4"":3,""Patri5"":4,""Nation2"":3,""Nation7"":2,""Patri7"":3,""Patri10"":4,""Patri8"":3,""Patri3"":2,""Patri12"":3}","[14,0,5,17,19,12,8,15,1,10,16,3,4,13,18,6,9,7,2,11]"
"","","","","","html-button-response","150","1477490","0.0-23.0","31","1","2023-06-09 16:39:19","846205d480aaa49f22c83d5c8cececc8","121.91.230.36","Mozilla/5.0 (Windows NT 10.0; Win64; x64) AppleWebKit/537.36 (KHTML, like Gecko) Chrome/116.0.0.0 Safari/537.36","WebKit","Chrome","116.0.0.0","Windows","10.0","2114","<p><strong>Please indicate the extent you agree with the following statements. </p><p>(1 = ""never or definitely no"" and 9 = ""always or definitely yes"".)</strong></p>","0",""
"","","","","","survey-likert","151","1511392","0.0-24.0","31","1","2023-06-09 16:39:19","846205d480aaa49f22c83d5c8cececc8","121.91.230.36","Mozilla/5.0 (Windows NT 10.0; Win64; x64) AppleWebKit/537.36 (KHTML, like Gecko) Chrome/116.0.0.0 Safari/537.36","WebKit","Chrome","116.0.0.0","Windows","10.0","33902","","{""vi4"":8,""vi1"":6,""hi3"":8,""vc4"":7,""hi2"":6,""Robot2"":6,""hc4"":7,""hi1"":6,""hc1"":7,""vc1"":6,""vc3"":7,""hc3"":6,""hc2"":8,""vi3"":7,""vc2"":5,""vi2"":6,""hi4"":7}","[8,4,2,16,1,7,12,0,9,13,15,11,10,6,14,5,3]"
"","","","","","survey-text","152","1528844","0.0-25.0","31","1","2023-06-09 16:39:19","846205d480aaa49f22c83d5c8cececc8","121.91.230.36","Mozilla/5.0 (Windows NT 10.0; Win64; x64) AppleWebKit/537.36 (KHTML, like Gecko) Chrome/116.0.0.0 Safari/537.36","WebKit","Chrome","116.0.0.0","Windows","10.0","17425","","{""ID"":""A3N843LIEJMFT8"",""Comments"":""GOOD SURVEY""}",""
"","","","","","html-button-response","153","1543991","0.0-26.0","31","1","2023-06-09 16:39:19","846205d480aaa49f22c83d5c8cececc8","121.91.230.36","Mozilla/5.0 (Windows NT 10.0; Win64; x64) AppleWebKit/537.36 (KHTML, like Gecko) Chrome/116.0.0.0 Safari/537.36","WebKit","Chrome","116.0.0.0","Windows","10.0","15142","<p><strong>Congratulations! </strong> Your have finished all the survey. Thank you for your participation!</p><p><strong>Here is your complete token:</strong></p>q7tgydl88xhxcwc2udf8ef1<p></p><p><strong>Please copy it to the mTurk page.</strong></p>","0",""
