"success","timeout","failed_images","failed_audio","failed_video","trial_type","trial_index","time_elapsed","internal_node_id","run_id","condition","recorded_at","source_code_version","ip","user_agent","device","browser","browser_version","platform","platform_version","rt","stimulus","response","question_order"
"true","false","[]","[]","[]","preload","0","1705","0.0-0.0","35","1","2023-06-16 16:56:11","846205d480aaa49f22c83d5c8cececc8","121.91.230.251","Mozilla/5.0 (Windows NT 10.0; Win64; x64) AppleWebKit/537.36 (KHTML, like Gecko) Chrome/115.0.0.0 Safari/537.36","WebKit","Chrome","115.0.0.0","Windows","10.0","","","",""
"true","","","","","fullscreen","1","25416","0.0-1.0","35","1","2023-06-16 16:56:11","846205d480aaa49f22c83d5c8cececc8","121.91.230.251","Mozilla/5.0 (Windows NT 10.0; Win64; x64) AppleWebKit/537.36 (KHTML, like Gecko) Chrome/115.0.0.0 Safari/537.36","WebKit","Chrome","115.0.0.0","Windows","10.0","","","",""
"","","","","","html-button-response","2","27808","0.0-2.0","35","1","2023-06-16 16:56:11","846205d480aaa49f22c83d5c8cececc8","121.91.230.251","Mozilla/5.0 (Windows NT 10.0; Win64; x64) AppleWebKit/537.36 (KHTML, like Gecko) Chrome/115.0.0.0 Safari/537.36","WebKit","Chrome","115.0.0.0","Windows","10.0","2389","<p ><strong>Welcome to the experiment!</strong></p><p ><strong>In the first task, please imagine:</strong></p><p>Your country is involved in a military conflict with another country.</p><p>You are the commander of your army and must make decisions in the conflict.</p><p>Specifically, as the military commander, you must decide whether to launch a missile to strike enemy.</p><p>You will face a series of scenarios. Please read each scenario carefully and make a decision.</p><p>The task will take around 10 minutes to complete.</p><p><strong>Please pay your attention during the experiment.</strong></p>","0",""
"","","","","","html-keyboard-response","3","28811","0.0-3.0-0.0","35","1","2023-06-16 16:56:11","846205d480aaa49f22c83d5c8cececc8","121.91.230.251","Mozilla/5.0 (Windows NT 10.0; Win64; x64) AppleWebKit/537.36 (KHTML, like Gecko) Chrome/115.0.0.0 Safari/537.36","WebKit","Chrome","115.0.0.0","Windows","10.0","null","<div style=""font-size:60px;"">+</div>","null",""
"","","","","","html-button-response","4","31505","0.0-3.0-1.0","35","1","2023-06-16 16:56:11","846205d480aaa49f22c83d5c8cececc8","121.91.230.251","Mozilla/5.0 (Windows NT 10.0; Win64; x64) AppleWebKit/537.36 (KHTML, like Gecko) Chrome/115.0.0.0 Safari/537.36","WebKit","Chrome","115.0.0.0","Windows","10.0","2690","<p>As the military commander, you could choose to launch a missile to kill <strong>7 enemy soldiers</strong> , but would accidentally kill <strong>1 enemy tree</strong> nearby.</p> <p>The photo of the <strong>enemy tree</strong> is shown below.</p> <p></p> <img src='stimuli/tree/1.png', style='max-width: 30%;'> </img> <p><strong>Would you launch the weapon?</strong></p>","0",""
"","","","","","html-keyboard-response","5","32507","0.0-3.0-0.1","35","1","2023-06-16 16:56:11","846205d480aaa49f22c83d5c8cececc8","121.91.230.251","Mozilla/5.0 (Windows NT 10.0; Win64; x64) AppleWebKit/537.36 (KHTML, like Gecko) Chrome/115.0.0.0 Safari/537.36","WebKit","Chrome","115.0.0.0","Windows","10.0","null","<div style=""font-size:60px;"">+</div>","null",""
"","","","","","html-button-response","6","33362","0.0-3.0-1.1","35","1","2023-06-16 16:56:11","846205d480aaa49f22c83d5c8cececc8","121.91.230.251","Mozilla/5.0 (Windows NT 10.0; Win64; x64) AppleWebKit/537.36 (KHTML, like Gecko) Chrome/115.0.0.0 Safari/537.36","WebKit","Chrome","115.0.0.0","Windows","10.0","852","<p>As the military commander, you could choose to launch a missile to kill <strong>3 enemy soldiers</strong> , but would accidentally kill <strong>1 enemy civilian</strong> nearby.</p> <p>The photo of the <strong>enemy civilian</strong> is shown below.</p> <p></p> <img src='stimuli/faces/PCF2.jpg', style='max-width: 30%;'> </img> <p><strong>Would you launch the weapon?</strong></p>","0",""
"","","","","","html-keyboard-response","7","34365","0.0-3.0-0.2","35","1","2023-06-16 16:56:11","846205d480aaa49f22c83d5c8cececc8","121.91.230.251","Mozilla/5.0 (Windows NT 10.0; Win64; x64) AppleWebKit/537.36 (KHTML, like Gecko) Chrome/115.0.0.0 Safari/537.36","WebKit","Chrome","115.0.0.0","Windows","10.0","null","<div style=""font-size:60px;"">+</div>","null",""
"","","","","","html-button-response","8","35097","0.0-3.0-1.2","35","1","2023-06-16 16:56:11","846205d480aaa49f22c83d5c8cececc8","121.91.230.251","Mozilla/5.0 (Windows NT 10.0; Win64; x64) AppleWebKit/537.36 (KHTML, like Gecko) Chrome/115.0.0.0 Safari/537.36","WebKit","Chrome","115.0.0.0","Windows","10.0","729","<p>As the military commander, you could choose to launch a missile to kill <strong>3 enemy soldiers</strong> , but would accidentally kill <strong>1 enemy tree</strong> nearby.</p> <p>The photo of the <strong>enemy tree</strong> is shown below.</p> <p></p> <img src='stimuli/tree/14.png', style='max-width: 30%;'> </img> <p><strong>Would you launch the weapon?</strong></p>","0",""
"","","","","","html-keyboard-response","9","36100","0.0-3.0-0.3","35","1","2023-06-16 16:56:11","846205d480aaa49f22c83d5c8cececc8","121.91.230.251","Mozilla/5.0 (Windows NT 10.0; Win64; x64) AppleWebKit/537.36 (KHTML, like Gecko) Chrome/115.0.0.0 Safari/537.36","WebKit","Chrome","115.0.0.0","Windows","10.0","null","<div style=""font-size:60px;"">+</div>","null",""
"","","","","","html-button-response","10","37305","0.0-3.0-1.3","35","1","2023-06-16 16:56:11","846205d480aaa49f22c83d5c8cececc8","121.91.230.251","Mozilla/5.0 (Windows NT 10.0; Win64; x64) AppleWebKit/537.36 (KHTML, like Gecko) Chrome/115.0.0.0 Safari/537.36","WebKit","Chrome","115.0.0.0","Windows","10.0","1202","<p>As the military commander, you could choose to launch a missile to kill <strong>5 enemy soldiers</strong> , but would accidentally kill <strong>1 enemy tree</strong> nearby.</p> <p>The photo of the <strong>enemy tree</strong> is shown below.</p> <p></p> <img src='stimuli/tree/1.png', style='max-width: 30%;'> </img> <p><strong>Would you launch the weapon?</strong></p>","0",""
"","","","","","html-keyboard-response","11","38308","0.0-3.0-0.4","35","1","2023-06-16 16:56:11","846205d480aaa49f22c83d5c8cececc8","121.91.230.251","Mozilla/5.0 (Windows NT 10.0; Win64; x64) AppleWebKit/537.36 (KHTML, like Gecko) Chrome/115.0.0.0 Safari/537.36","WebKit","Chrome","115.0.0.0","Windows","10.0","null","<div style=""font-size:60px;"">+</div>","null",""
"","","","","","html-button-response","12","39122","0.0-3.0-1.4","35","1","2023-06-16 16:56:11","846205d480aaa49f22c83d5c8cececc8","121.91.230.251","Mozilla/5.0 (Windows NT 10.0; Win64; x64) AppleWebKit/537.36 (KHTML, like Gecko) Chrome/115.0.0.0 Safari/537.36","WebKit","Chrome","115.0.0.0","Windows","10.0","811","<p>As the military commander, you could choose to launch a missile to kill <strong>3 enemy soldiers</strong> , but would accidentally kill <strong>1 enemy civilian</strong> nearby.</p> <p>The photo of the <strong>enemy civilian</strong> is shown below.</p> <p></p> <img src='stimuli/faces/PCF7.jpg', style='max-width: 30%;'> </img> <p><strong>Would you launch the weapon?</strong></p>","0",""
"","","","","","html-keyboard-response","13","40125","0.0-3.0-0.5","35","1","2023-06-16 16:56:11","846205d480aaa49f22c83d5c8cececc8","121.91.230.251","Mozilla/5.0 (Windows NT 10.0; Win64; x64) AppleWebKit/537.36 (KHTML, like Gecko) Chrome/115.0.0.0 Safari/537.36","WebKit","Chrome","115.0.0.0","Windows","10.0","null","<div style=""font-size:60px;"">+</div>","null",""
"","","","","","html-button-response","14","41064","0.0-3.0-1.5","35","1","2023-06-16 16:56:11","846205d480aaa49f22c83d5c8cececc8","121.91.230.251","Mozilla/5.0 (Windows NT 10.0; Win64; x64) AppleWebKit/537.36 (KHTML, like Gecko) Chrome/115.0.0.0 Safari/537.36","WebKit","Chrome","115.0.0.0","Windows","10.0","937","<p>As the military commander, you could choose to launch a missile to kill <strong>5 enemy soldiers</strong> , but would accidentally kill <strong>1 enemy tree</strong> nearby.</p> <p>The photo of the <strong>enemy tree</strong> is shown below.</p> <p></p> <img src='stimuli/tree/11.png', style='max-width: 30%;'> </img> <p><strong>Would you launch the weapon?</strong></p>","0",""
"","","","","","html-keyboard-response","15","42067","0.0-3.0-0.6","35","1","2023-06-16 16:56:11","846205d480aaa49f22c83d5c8cececc8","121.91.230.251","Mozilla/5.0 (Windows NT 10.0; Win64; x64) AppleWebKit/537.36 (KHTML, like Gecko) Chrome/115.0.0.0 Safari/537.36","WebKit","Chrome","115.0.0.0","Windows","10.0","null","<div style=""font-size:60px;"">+</div>","null",""
"","","","","","html-button-response","16","43034","0.0-3.0-1.6","35","1","2023-06-16 16:56:11","846205d480aaa49f22c83d5c8cececc8","121.91.230.251","Mozilla/5.0 (Windows NT 10.0; Win64; x64) AppleWebKit/537.36 (KHTML, like Gecko) Chrome/115.0.0.0 Safari/537.36","WebKit","Chrome","115.0.0.0","Windows","10.0","964","<p>As the military commander, you could choose to launch a missile to kill <strong>4 enemy soldiers</strong> , but would accidentally kill <strong>1 enemy civilian</strong> nearby.</p> <p>The photo of the <strong>enemy civilian</strong> is shown below.</p> <p></p> <img src='stimuli/faces/PCF4.jpg', style='max-width: 30%;'> </img> <p><strong>Would you launch the weapon?</strong></p>","0",""
"","","","","","html-keyboard-response","17","44038","0.0-3.0-0.7","35","1","2023-06-16 16:56:11","846205d480aaa49f22c83d5c8cececc8","121.91.230.251","Mozilla/5.0 (Windows NT 10.0; Win64; x64) AppleWebKit/537.36 (KHTML, like Gecko) Chrome/115.0.0.0 Safari/537.36","WebKit","Chrome","115.0.0.0","Windows","10.0","null","<div style=""font-size:60px;"">+</div>","null",""
"","","","","","html-button-response","18","44745","0.0-3.0-1.7","35","1","2023-06-16 16:56:11","846205d480aaa49f22c83d5c8cececc8","121.91.230.251","Mozilla/5.0 (Windows NT 10.0; Win64; x64) AppleWebKit/537.36 (KHTML, like Gecko) Chrome/115.0.0.0 Safari/537.36","WebKit","Chrome","115.0.0.0","Windows","10.0","704","<p>As the military commander, you could choose to launch a missile to kill <strong>7 enemy soldiers</strong> , but would accidentally kill <strong>1 enemy tree</strong> nearby.</p> <p>The photo of the <strong>enemy tree</strong> is shown below.</p> <p></p> <img src='stimuli/tree/10.png', style='max-width: 30%;'> </img> <p><strong>Would you launch the weapon?</strong></p>","0",""
"","","","","","html-keyboard-response","19","45749","0.0-3.0-0.8","35","1","2023-06-16 16:56:11","846205d480aaa49f22c83d5c8cececc8","121.91.230.251","Mozilla/5.0 (Windows NT 10.0; Win64; x64) AppleWebKit/537.36 (KHTML, like Gecko) Chrome/115.0.0.0 Safari/537.36","WebKit","Chrome","115.0.0.0","Windows","10.0","null","<div style=""font-size:60px;"">+</div>","null",""
"","","","","","html-button-response","20","47513","0.0-3.0-1.8","35","1","2023-06-16 16:56:11","846205d480aaa49f22c83d5c8cececc8","121.91.230.251","Mozilla/5.0 (Windows NT 10.0; Win64; x64) AppleWebKit/537.36 (KHTML, like Gecko) Chrome/115.0.0.0 Safari/537.36","WebKit","Chrome","115.0.0.0","Windows","10.0","1762","<p>As the military commander, you could choose to launch a missile to kill <strong>2 enemy soldiers</strong> , but would accidentally kill <strong>1 enemy tree</strong> nearby.</p> <p>The photo of the <strong>enemy tree</strong> is shown below.</p> <p></p> <img src='stimuli/tree/16.png', style='max-width: 30%;'> </img> <p><strong>Would you launch the weapon?</strong></p>","0",""
"","","","","","html-keyboard-response","21","48517","0.0-3.0-0.9","35","1","2023-06-16 16:56:11","846205d480aaa49f22c83d5c8cececc8","121.91.230.251","Mozilla/5.0 (Windows NT 10.0; Win64; x64) AppleWebKit/537.36 (KHTML, like Gecko) Chrome/115.0.0.0 Safari/537.36","WebKit","Chrome","115.0.0.0","Windows","10.0","null","<div style=""font-size:60px;"">+</div>","null",""
"","","","","","html-button-response","22","50585","0.0-3.0-1.9","35","1","2023-06-16 16:56:11","846205d480aaa49f22c83d5c8cececc8","121.91.230.251","Mozilla/5.0 (Windows NT 10.0; Win64; x64) AppleWebKit/537.36 (KHTML, like Gecko) Chrome/115.0.0.0 Safari/537.36","WebKit","Chrome","115.0.0.0","Windows","10.0","2064","<p>As the military commander, you could choose to launch a missile to kill <strong>8 enemy soldiers</strong> , but would accidentally kill <strong>1 enemy civilian</strong> nearby.</p> <p>The photo of the <strong>enemy civilian</strong> is shown below.</p> <p></p> <img src='stimuli/faces/PCF3.jpg', style='max-width: 30%;'> </img> <p><strong>Would you launch the weapon?</strong></p>","0",""
"","","","","","html-keyboard-response","23","51589","0.0-3.0-0.10","35","1","2023-06-16 16:56:11","846205d480aaa49f22c83d5c8cececc8","121.91.230.251","Mozilla/5.0 (Windows NT 10.0; Win64; x64) AppleWebKit/537.36 (KHTML, like Gecko) Chrome/115.0.0.0 Safari/537.36","WebKit","Chrome","115.0.0.0","Windows","10.0","null","<div style=""font-size:60px;"">+</div>","null",""
"","","","","","html-button-response","24","52449","0.0-3.0-1.10","35","1","2023-06-16 16:56:11","846205d480aaa49f22c83d5c8cececc8","121.91.230.251","Mozilla/5.0 (Windows NT 10.0; Win64; x64) AppleWebKit/537.36 (KHTML, like Gecko) Chrome/115.0.0.0 Safari/537.36","WebKit","Chrome","115.0.0.0","Windows","10.0","858","<p>As the military commander, you could choose to launch a missile to kill <strong>1 enemy soldier</strong> , but would accidentally kill <strong>1 enemy civilian</strong> nearby.</p> <p>The photo of the <strong>enemy civilian</strong> is shown below.</p> <p></p> <img src='stimuli/faces/PCF3.jpg', style='max-width: 30%;'> </img> <p><strong>Would you launch the weapon?</strong></p>","0",""
"","","","","","html-keyboard-response","25","53453","0.0-3.0-0.11","35","1","2023-06-16 16:56:11","846205d480aaa49f22c83d5c8cececc8","121.91.230.251","Mozilla/5.0 (Windows NT 10.0; Win64; x64) AppleWebKit/537.36 (KHTML, like Gecko) Chrome/115.0.0.0 Safari/537.36","WebKit","Chrome","115.0.0.0","Windows","10.0","null","<div style=""font-size:60px;"">+</div>","null",""
"","","","","","html-button-response","26","56938","0.0-3.0-1.11","35","1","2023-06-16 16:56:11","846205d480aaa49f22c83d5c8cececc8","121.91.230.251","Mozilla/5.0 (Windows NT 10.0; Win64; x64) AppleWebKit/537.36 (KHTML, like Gecko) Chrome/115.0.0.0 Safari/537.36","WebKit","Chrome","115.0.0.0","Windows","10.0","3482","<p>As the military commander, you could choose to launch a missile to kill <strong>8 enemy soldiers</strong> , but would accidentally kill <strong>1 enemy civilian</strong> nearby.</p> <p>The photo of the <strong>enemy civilian</strong> is shown below.</p> <p></p> <img src='stimuli/faces/PCM5.jpg', style='max-width: 30%;'> </img> <p><strong>Would you launch the weapon?</strong></p>","0",""
"","","","","","html-keyboard-response","27","57941","0.0-3.0-0.12","35","1","2023-06-16 16:56:11","846205d480aaa49f22c83d5c8cececc8","121.91.230.251","Mozilla/5.0 (Windows NT 10.0; Win64; x64) AppleWebKit/537.36 (KHTML, like Gecko) Chrome/115.0.0.0 Safari/537.36","WebKit","Chrome","115.0.0.0","Windows","10.0","null","<div style=""font-size:60px;"">+</div>","null",""
"","","","","","html-button-response","28","61445","0.0-3.0-1.12","35","1","2023-06-16 16:56:11","846205d480aaa49f22c83d5c8cececc8","121.91.230.251","Mozilla/5.0 (Windows NT 10.0; Win64; x64) AppleWebKit/537.36 (KHTML, like Gecko) Chrome/115.0.0.0 Safari/537.36","WebKit","Chrome","115.0.0.0","Windows","10.0","3501","<p>As the military commander, you could choose to launch a missile to kill <strong>3 enemy soldiers</strong> , but would accidentally kill <strong>1 enemy civilian</strong> nearby.</p> <p>The photo of the <strong>enemy civilian</strong> is shown below.</p> <p></p> <img src='stimuli/faces/PCM3.jpg', style='max-width: 30%;'> </img> <p><strong>Would you launch the weapon?</strong></p>","0",""
"","","","","","html-keyboard-response","29","62450","0.0-3.0-0.13","35","1","2023-06-16 16:56:11","846205d480aaa49f22c83d5c8cececc8","121.91.230.251","Mozilla/5.0 (Windows NT 10.0; Win64; x64) AppleWebKit/537.36 (KHTML, like Gecko) Chrome/115.0.0.0 Safari/537.36","WebKit","Chrome","115.0.0.0","Windows","10.0","null","<div style=""font-size:60px;"">+</div>","null",""
"","","","","","html-button-response","30","63337","0.0-3.0-1.13","35","1","2023-06-16 16:56:11","846205d480aaa49f22c83d5c8cececc8","121.91.230.251","Mozilla/5.0 (Windows NT 10.0; Win64; x64) AppleWebKit/537.36 (KHTML, like Gecko) Chrome/115.0.0.0 Safari/537.36","WebKit","Chrome","115.0.0.0","Windows","10.0","882","<p>As the military commander, you could choose to launch a missile to kill <strong>5 enemy soldiers</strong> , but would accidentally kill <strong>1 enemy civilian</strong> nearby.</p> <p>The photo of the <strong>enemy civilian</strong> is shown below.</p> <p></p> <img src='stimuli/faces/PCF5.jpg', style='max-width: 30%;'> </img> <p><strong>Would you launch the weapon?</strong></p>","0",""
"","","","","","html-keyboard-response","31","64341","0.0-3.0-0.14","35","1","2023-06-16 16:56:11","846205d480aaa49f22c83d5c8cececc8","121.91.230.251","Mozilla/5.0 (Windows NT 10.0; Win64; x64) AppleWebKit/537.36 (KHTML, like Gecko) Chrome/115.0.0.0 Safari/537.36","WebKit","Chrome","115.0.0.0","Windows","10.0","null","<div style=""font-size:60px;"">+</div>","null",""
"","","","","","html-button-response","32","65985","0.0-3.0-1.14","35","1","2023-06-16 16:56:11","846205d480aaa49f22c83d5c8cececc8","121.91.230.251","Mozilla/5.0 (Windows NT 10.0; Win64; x64) AppleWebKit/537.36 (KHTML, like Gecko) Chrome/115.0.0.0 Safari/537.36","WebKit","Chrome","115.0.0.0","Windows","10.0","1641","<p>As the military commander, you could choose to launch a missile to kill <strong>5 enemy soldiers</strong> , but would accidentally kill <strong>1 enemy tree</strong> nearby.</p> <p>The photo of the <strong>enemy tree</strong> is shown below.</p> <p></p> <img src='stimuli/tree/12.png', style='max-width: 30%;'> </img> <p><strong>Would you launch the weapon?</strong></p>","0",""
"","","","","","html-keyboard-response","33","66989","0.0-3.0-0.15","35","1","2023-06-16 16:56:11","846205d480aaa49f22c83d5c8cececc8","121.91.230.251","Mozilla/5.0 (Windows NT 10.0; Win64; x64) AppleWebKit/537.36 (KHTML, like Gecko) Chrome/115.0.0.0 Safari/537.36","WebKit","Chrome","115.0.0.0","Windows","10.0","null","<div style=""font-size:60px;"">+</div>","null",""
"","","","","","html-button-response","34","67817","0.0-3.0-1.15","35","1","2023-06-16 16:56:11","846205d480aaa49f22c83d5c8cececc8","121.91.230.251","Mozilla/5.0 (Windows NT 10.0; Win64; x64) AppleWebKit/537.36 (KHTML, like Gecko) Chrome/115.0.0.0 Safari/537.36","WebKit","Chrome","115.0.0.0","Windows","10.0","825","<p>As the military commander, you could choose to launch a missile to kill <strong>4 enemy soldiers</strong> , but would accidentally kill <strong>1 enemy tree</strong> nearby.</p> <p>The photo of the <strong>enemy tree</strong> is shown below.</p> <p></p> <img src='stimuli/tree/5.png', style='max-width: 30%;'> </img> <p><strong>Would you launch the weapon?</strong></p>","0",""
"","","","","","html-keyboard-response","35","68821","0.0-3.0-0.16","35","1","2023-06-16 16:56:11","846205d480aaa49f22c83d5c8cececc8","121.91.230.251","Mozilla/5.0 (Windows NT 10.0; Win64; x64) AppleWebKit/537.36 (KHTML, like Gecko) Chrome/115.0.0.0 Safari/537.36","WebKit","Chrome","115.0.0.0","Windows","10.0","null","<div style=""font-size:60px;"">+</div>","null",""
"","","","","","html-button-response","36","69513","0.0-3.0-1.16","35","1","2023-06-16 16:56:11","846205d480aaa49f22c83d5c8cececc8","121.91.230.251","Mozilla/5.0 (Windows NT 10.0; Win64; x64) AppleWebKit/537.36 (KHTML, like Gecko) Chrome/115.0.0.0 Safari/537.36","WebKit","Chrome","115.0.0.0","Windows","10.0","688","<p>As the military commander, you could choose to launch a missile to kill <strong>10 enemy soldiers</strong> , but would accidentally kill <strong>1 enemy civilian</strong> nearby.</p> <p>The photo of the <strong>enemy civilian</strong> is shown below.</p> <p></p> <img src='stimuli/faces/PCF1.jpg', style='max-width: 30%;'> </img> <p><strong>Would you launch the weapon?</strong></p>","0",""
"","","","","","html-keyboard-response","37","70517","0.0-3.0-0.17","35","1","2023-06-16 16:56:11","846205d480aaa49f22c83d5c8cececc8","121.91.230.251","Mozilla/5.0 (Windows NT 10.0; Win64; x64) AppleWebKit/537.36 (KHTML, like Gecko) Chrome/115.0.0.0 Safari/537.36","WebKit","Chrome","115.0.0.0","Windows","10.0","null","<div style=""font-size:60px;"">+</div>","null",""
"","","","","","html-button-response","38","71617","0.0-3.0-1.17","35","1","2023-06-16 16:56:11","846205d480aaa49f22c83d5c8cececc8","121.91.230.251","Mozilla/5.0 (Windows NT 10.0; Win64; x64) AppleWebKit/537.36 (KHTML, like Gecko) Chrome/115.0.0.0 Safari/537.36","WebKit","Chrome","115.0.0.0","Windows","10.0","1097","<p>As the military commander, you could choose to launch a missile to kill <strong>10 enemy soldiers</strong> , but would accidentally kill <strong>1 enemy tree</strong> nearby.</p> <p>The photo of the <strong>enemy tree</strong> is shown below.</p> <p></p> <img src='stimuli/tree/6.png', style='max-width: 30%;'> </img> <p><strong>Would you launch the weapon?</strong></p>","0",""
"","","","","","html-keyboard-response","39","72622","0.0-3.0-0.18","35","1","2023-06-16 16:56:11","846205d480aaa49f22c83d5c8cececc8","121.91.230.251","Mozilla/5.0 (Windows NT 10.0; Win64; x64) AppleWebKit/537.36 (KHTML, like Gecko) Chrome/115.0.0.0 Safari/537.36","WebKit","Chrome","115.0.0.0","Windows","10.0","null","<div style=""font-size:60px;"">+</div>","null",""
"","","","","","html-button-response","40","73593","0.0-3.0-1.18","35","1","2023-06-16 16:56:11","846205d480aaa49f22c83d5c8cececc8","121.91.230.251","Mozilla/5.0 (Windows NT 10.0; Win64; x64) AppleWebKit/537.36 (KHTML, like Gecko) Chrome/115.0.0.0 Safari/537.36","WebKit","Chrome","115.0.0.0","Windows","10.0","968","<p>As the military commander, you could choose to launch a missile to kill <strong>3 enemy soldiers</strong> , but would accidentally kill <strong>1 enemy civilian</strong> nearby.</p> <p>The photo of the <strong>enemy civilian</strong> is shown below.</p> <p></p> <img src='stimuli/faces/PCF6.jpg', style='max-width: 30%;'> </img> <p><strong>Would you launch the weapon?</strong></p>","0",""
"","","","","","html-keyboard-response","41","74596","0.0-3.0-0.19","35","1","2023-06-16 16:56:11","846205d480aaa49f22c83d5c8cececc8","121.91.230.251","Mozilla/5.0 (Windows NT 10.0; Win64; x64) AppleWebKit/537.36 (KHTML, like Gecko) Chrome/115.0.0.0 Safari/537.36","WebKit","Chrome","115.0.0.0","Windows","10.0","null","<div style=""font-size:60px;"">+</div>","null",""
"","","","","","html-button-response","42","75457","0.0-3.0-1.19","35","1","2023-06-16 16:56:11","846205d480aaa49f22c83d5c8cececc8","121.91.230.251","Mozilla/5.0 (Windows NT 10.0; Win64; x64) AppleWebKit/537.36 (KHTML, like Gecko) Chrome/115.0.0.0 Safari/537.36","WebKit","Chrome","115.0.0.0","Windows","10.0","858","<p>As the military commander, you could choose to launch a missile to kill <strong>7 enemy soldiers</strong> , but would accidentally kill <strong>1 enemy civilian</strong> nearby.</p> <p>The photo of the <strong>enemy civilian</strong> is shown below.</p> <p></p> <img src='stimuli/faces/PCM4.jpg', style='max-width: 30%;'> </img> <p><strong>Would you launch the weapon?</strong></p>","0",""
"","","","","","html-keyboard-response","43","76461","0.0-3.0-0.20","35","1","2023-06-16 16:56:11","846205d480aaa49f22c83d5c8cececc8","121.91.230.251","Mozilla/5.0 (Windows NT 10.0; Win64; x64) AppleWebKit/537.36 (KHTML, like Gecko) Chrome/115.0.0.0 Safari/537.36","WebKit","Chrome","115.0.0.0","Windows","10.0","null","<div style=""font-size:60px;"">+</div>","null",""
"","","","","","html-button-response","44","77400","0.0-3.0-1.20","35","1","2023-06-16 16:56:11","846205d480aaa49f22c83d5c8cececc8","121.91.230.251","Mozilla/5.0 (Windows NT 10.0; Win64; x64) AppleWebKit/537.36 (KHTML, like Gecko) Chrome/115.0.0.0 Safari/537.36","WebKit","Chrome","115.0.0.0","Windows","10.0","936","<p>As the military commander, you could choose to launch a missile to kill <strong>9 enemy soldiers</strong> , but would accidentally kill <strong>1 enemy civilian</strong> nearby.</p> <p>The photo of the <strong>enemy civilian</strong> is shown below.</p> <p></p> <img src='stimuli/faces/PCF4.jpg', style='max-width: 30%;'> </img> <p><strong>Would you launch the weapon?</strong></p>","0",""
"","","","","","html-keyboard-response","45","78403","0.0-3.0-0.21","35","1","2023-06-16 16:56:11","846205d480aaa49f22c83d5c8cececc8","121.91.230.251","Mozilla/5.0 (Windows NT 10.0; Win64; x64) AppleWebKit/537.36 (KHTML, like Gecko) Chrome/115.0.0.0 Safari/537.36","WebKit","Chrome","115.0.0.0","Windows","10.0","null","<div style=""font-size:60px;"">+</div>","null",""
"","","","","","html-button-response","46","78978","0.0-3.0-1.21","35","1","2023-06-16 16:56:11","846205d480aaa49f22c83d5c8cececc8","121.91.230.251","Mozilla/5.0 (Windows NT 10.0; Win64; x64) AppleWebKit/537.36 (KHTML, like Gecko) Chrome/115.0.0.0 Safari/537.36","WebKit","Chrome","115.0.0.0","Windows","10.0","571","<p>As the military commander, you could choose to launch a missile to kill <strong>10 enemy soldiers</strong> , but would accidentally kill <strong>1 enemy tree</strong> nearby.</p> <p>The photo of the <strong>enemy tree</strong> is shown below.</p> <p></p> <img src='stimuli/tree/7.png', style='max-width: 30%;'> </img> <p><strong>Would you launch the weapon?</strong></p>","0",""
"","","","","","html-keyboard-response","47","79982","0.0-3.0-0.22","35","1","2023-06-16 16:56:11","846205d480aaa49f22c83d5c8cececc8","121.91.230.251","Mozilla/5.0 (Windows NT 10.0; Win64; x64) AppleWebKit/537.36 (KHTML, like Gecko) Chrome/115.0.0.0 Safari/537.36","WebKit","Chrome","115.0.0.0","Windows","10.0","null","<div style=""font-size:60px;"">+</div>","null",""
"","","","","","html-button-response","48","80825","0.0-3.0-1.22","35","1","2023-06-16 16:56:11","846205d480aaa49f22c83d5c8cececc8","121.91.230.251","Mozilla/5.0 (Windows NT 10.0; Win64; x64) AppleWebKit/537.36 (KHTML, like Gecko) Chrome/115.0.0.0 Safari/537.36","WebKit","Chrome","115.0.0.0","Windows","10.0","840","<p>As the military commander, you could choose to launch a missile to kill <strong>9 enemy soldiers</strong> , but would accidentally kill <strong>1 enemy civilian</strong> nearby.</p> <p>The photo of the <strong>enemy civilian</strong> is shown below.</p> <p></p> <img src='stimuli/faces/PCM3.jpg', style='max-width: 30%;'> </img> <p><strong>Would you launch the weapon?</strong></p>","0",""
"","","","","","html-keyboard-response","49","81830","0.0-3.0-0.23","35","1","2023-06-16 16:56:11","846205d480aaa49f22c83d5c8cececc8","121.91.230.251","Mozilla/5.0 (Windows NT 10.0; Win64; x64) AppleWebKit/537.36 (KHTML, like Gecko) Chrome/115.0.0.0 Safari/537.36","WebKit","Chrome","115.0.0.0","Windows","10.0","null","<div style=""font-size:60px;"">+</div>","null",""
"","","","","","html-button-response","50","82725","0.0-3.0-1.23","35","1","2023-06-16 16:56:11","846205d480aaa49f22c83d5c8cececc8","121.91.230.251","Mozilla/5.0 (Windows NT 10.0; Win64; x64) AppleWebKit/537.36 (KHTML, like Gecko) Chrome/115.0.0.0 Safari/537.36","WebKit","Chrome","115.0.0.0","Windows","10.0","887","<p>As the military commander, you could choose to launch a missile to kill <strong>6 enemy soldiers</strong> , but would accidentally kill <strong>1 enemy tree</strong> nearby.</p> <p>The photo of the <strong>enemy tree</strong> is shown below.</p> <p></p> <img src='stimuli/tree/9.png', style='max-width: 30%;'> </img> <p><strong>Would you launch the weapon?</strong></p>","0",""
"","","","","","html-keyboard-response","51","83729","0.0-3.0-0.24","35","1","2023-06-16 16:56:11","846205d480aaa49f22c83d5c8cececc8","121.91.230.251","Mozilla/5.0 (Windows NT 10.0; Win64; x64) AppleWebKit/537.36 (KHTML, like Gecko) Chrome/115.0.0.0 Safari/537.36","WebKit","Chrome","115.0.0.0","Windows","10.0","null","<div style=""font-size:60px;"">+</div>","null",""
"","","","","","html-button-response","52","90681","0.0-3.0-1.24","35","1","2023-06-16 16:56:11","846205d480aaa49f22c83d5c8cececc8","121.91.230.251","Mozilla/5.0 (Windows NT 10.0; Win64; x64) AppleWebKit/537.36 (KHTML, like Gecko) Chrome/115.0.0.0 Safari/537.36","WebKit","Chrome","115.0.0.0","Windows","10.0","6948","<p>As the military commander, you could choose to launch a missile to kill <strong>3 enemy soldiers</strong> , but would accidentally kill <strong>1 enemy tree</strong> nearby.</p> <p>The photo of the <strong>enemy tree</strong> is shown below.</p> <p></p> <img src='stimuli/tree/15.png', style='max-width: 30%;'> </img> <p><strong>Would you launch the weapon?</strong></p>","0",""
"","","","","","html-keyboard-response","53","91686","0.0-3.0-0.25","35","1","2023-06-16 16:56:11","846205d480aaa49f22c83d5c8cececc8","121.91.230.251","Mozilla/5.0 (Windows NT 10.0; Win64; x64) AppleWebKit/537.36 (KHTML, like Gecko) Chrome/115.0.0.0 Safari/537.36","WebKit","Chrome","115.0.0.0","Windows","10.0","null","<div style=""font-size:60px;"">+</div>","null",""
"","","","","","html-button-response","54","93529","0.0-3.0-1.25","35","1","2023-06-16 16:56:11","846205d480aaa49f22c83d5c8cececc8","121.91.230.251","Mozilla/5.0 (Windows NT 10.0; Win64; x64) AppleWebKit/537.36 (KHTML, like Gecko) Chrome/115.0.0.0 Safari/537.36","WebKit","Chrome","115.0.0.0","Windows","10.0","1839","<p>As the military commander, you could choose to launch a missile to kill <strong>3 enemy soldiers</strong> , but would accidentally kill <strong>1 enemy tree</strong> nearby.</p> <p>The photo of the <strong>enemy tree</strong> is shown below.</p> <p></p> <img src='stimuli/tree/8.png', style='max-width: 30%;'> </img> <p><strong>Would you launch the weapon?</strong></p>","0",""
"","","","","","html-keyboard-response","55","94535","0.0-3.0-0.26","35","1","2023-06-16 16:56:11","846205d480aaa49f22c83d5c8cececc8","121.91.230.251","Mozilla/5.0 (Windows NT 10.0; Win64; x64) AppleWebKit/537.36 (KHTML, like Gecko) Chrome/115.0.0.0 Safari/537.36","WebKit","Chrome","115.0.0.0","Windows","10.0","null","<div style=""font-size:60px;"">+</div>","null",""
"","","","","","html-button-response","56","96290","0.0-3.0-1.26","35","1","2023-06-16 16:56:11","846205d480aaa49f22c83d5c8cececc8","121.91.230.251","Mozilla/5.0 (Windows NT 10.0; Win64; x64) AppleWebKit/537.36 (KHTML, like Gecko) Chrome/115.0.0.0 Safari/537.36","WebKit","Chrome","115.0.0.0","Windows","10.0","1751","<p>As the military commander, you could choose to launch a missile to kill <strong>2 enemy soldiers</strong> , but would accidentally kill <strong>1 enemy civilian</strong> nearby.</p> <p>The photo of the <strong>enemy civilian</strong> is shown below.</p> <p></p> <img src='stimuli/faces/PCM8.jpg', style='max-width: 30%;'> </img> <p><strong>Would you launch the weapon?</strong></p>","0",""
"","","","","","html-keyboard-response","57","97297","0.0-3.0-0.27","35","1","2023-06-16 16:56:11","846205d480aaa49f22c83d5c8cececc8","121.91.230.251","Mozilla/5.0 (Windows NT 10.0; Win64; x64) AppleWebKit/537.36 (KHTML, like Gecko) Chrome/115.0.0.0 Safari/537.36","WebKit","Chrome","115.0.0.0","Windows","10.0","null","<div style=""font-size:60px;"">+</div>","null",""
"","","","","","html-button-response","58","102449","0.0-3.0-1.27","35","1","2023-06-16 16:56:11","846205d480aaa49f22c83d5c8cececc8","121.91.230.251","Mozilla/5.0 (Windows NT 10.0; Win64; x64) AppleWebKit/537.36 (KHTML, like Gecko) Chrome/115.0.0.0 Safari/537.36","WebKit","Chrome","115.0.0.0","Windows","10.0","5149","<p>As the military commander, you could choose to launch a missile to kill <strong>5 enemy soldiers</strong> , but would accidentally kill <strong>1 enemy tree</strong> nearby.</p> <p>The photo of the <strong>enemy tree</strong> is shown below.</p> <p></p> <img src='stimuli/tree/10.png', style='max-width: 30%;'> </img> <p><strong>Would you launch the weapon?</strong></p>","0",""
"","","","","","html-keyboard-response","59","103454","0.0-3.0-0.28","35","1","2023-06-16 16:56:11","846205d480aaa49f22c83d5c8cececc8","121.91.230.251","Mozilla/5.0 (Windows NT 10.0; Win64; x64) AppleWebKit/537.36 (KHTML, like Gecko) Chrome/115.0.0.0 Safari/537.36","WebKit","Chrome","115.0.0.0","Windows","10.0","null","<div style=""font-size:60px;"">+</div>","null",""
"","","","","","html-button-response","60","105346","0.0-3.0-1.28","35","1","2023-06-16 16:56:11","846205d480aaa49f22c83d5c8cececc8","121.91.230.251","Mozilla/5.0 (Windows NT 10.0; Win64; x64) AppleWebKit/537.36 (KHTML, like Gecko) Chrome/115.0.0.0 Safari/537.36","WebKit","Chrome","115.0.0.0","Windows","10.0","1886","<p>As the military commander, you could choose to launch a missile to kill <strong>7 enemy soldiers</strong> , but would accidentally kill <strong>1 enemy tree</strong> nearby.</p> <p>The photo of the <strong>enemy tree</strong> is shown below.</p> <p></p> <img src='stimuli/tree/8.png', style='max-width: 30%;'> </img> <p><strong>Would you launch the weapon?</strong></p>","0",""
"","","","","","html-keyboard-response","61","106351","0.0-3.0-0.29","35","1","2023-06-16 16:56:11","846205d480aaa49f22c83d5c8cececc8","121.91.230.251","Mozilla/5.0 (Windows NT 10.0; Win64; x64) AppleWebKit/537.36 (KHTML, like Gecko) Chrome/115.0.0.0 Safari/537.36","WebKit","Chrome","115.0.0.0","Windows","10.0","null","<div style=""font-size:60px;"">+</div>","null",""
"","","","","","html-button-response","62","107218","0.0-3.0-1.29","35","1","2023-06-16 16:56:11","846205d480aaa49f22c83d5c8cececc8","121.91.230.251","Mozilla/5.0 (Windows NT 10.0; Win64; x64) AppleWebKit/537.36 (KHTML, like Gecko) Chrome/115.0.0.0 Safari/537.36","WebKit","Chrome","115.0.0.0","Windows","10.0","860","<p>As the military commander, you could choose to launch a missile to kill <strong>5 enemy soldiers</strong> , but would accidentally kill <strong>1 enemy civilian</strong> nearby.</p> <p>The photo of the <strong>enemy civilian</strong> is shown below.</p> <p></p> <img src='stimuli/faces/PCF8.jpg', style='max-width: 30%;'> </img> <p><strong>Would you launch the weapon?</strong></p>","0",""
"","","","","","html-keyboard-response","63","108223","0.0-3.0-0.30","35","1","2023-06-16 16:56:11","846205d480aaa49f22c83d5c8cececc8","121.91.230.251","Mozilla/5.0 (Windows NT 10.0; Win64; x64) AppleWebKit/537.36 (KHTML, like Gecko) Chrome/115.0.0.0 Safari/537.36","WebKit","Chrome","115.0.0.0","Windows","10.0","null","<div style=""font-size:60px;"">+</div>","null",""
"","","","","","html-button-response","64","109073","0.0-3.0-1.30","35","1","2023-06-16 16:56:11","846205d480aaa49f22c83d5c8cececc8","121.91.230.251","Mozilla/5.0 (Windows NT 10.0; Win64; x64) AppleWebKit/537.36 (KHTML, like Gecko) Chrome/115.0.0.0 Safari/537.36","WebKit","Chrome","115.0.0.0","Windows","10.0","846","<p>As the military commander, you could choose to launch a missile to kill <strong>6 enemy soldiers</strong> , but would accidentally kill <strong>1 enemy civilian</strong> nearby.</p> <p>The photo of the <strong>enemy civilian</strong> is shown below.</p> <p></p> <img src='stimuli/faces/PCM2.jpg', style='max-width: 30%;'> </img> <p><strong>Would you launch the weapon?</strong></p>","0",""
"","","","","","html-keyboard-response","65","110093","0.0-3.0-0.31","35","1","2023-06-16 16:56:11","846205d480aaa49f22c83d5c8cececc8","121.91.230.251","Mozilla/5.0 (Windows NT 10.0; Win64; x64) AppleWebKit/537.36 (KHTML, like Gecko) Chrome/115.0.0.0 Safari/537.36","WebKit","Chrome","115.0.0.0","Windows","10.0","null","<div style=""font-size:60px;"">+</div>","null",""
"","","","","","html-button-response","66","110954","0.0-3.0-1.31","35","1","2023-06-16 16:56:11","846205d480aaa49f22c83d5c8cececc8","121.91.230.251","Mozilla/5.0 (Windows NT 10.0; Win64; x64) AppleWebKit/537.36 (KHTML, like Gecko) Chrome/115.0.0.0 Safari/537.36","WebKit","Chrome","115.0.0.0","Windows","10.0","857","<p>As the military commander, you could choose to launch a missile to kill <strong>8 enemy soldiers</strong> , but would accidentally kill <strong>1 enemy tree</strong> nearby.</p> <p>The photo of the <strong>enemy tree</strong> is shown below.</p> <p></p> <img src='stimuli/tree/14.png', style='max-width: 30%;'> </img> <p><strong>Would you launch the weapon?</strong></p>","0",""
"","","","","","html-keyboard-response","67","111958","0.0-3.0-0.32","35","1","2023-06-16 16:56:11","846205d480aaa49f22c83d5c8cececc8","121.91.230.251","Mozilla/5.0 (Windows NT 10.0; Win64; x64) AppleWebKit/537.36 (KHTML, like Gecko) Chrome/115.0.0.0 Safari/537.36","WebKit","Chrome","115.0.0.0","Windows","10.0","null","<div style=""font-size:60px;"">+</div>","null",""
"","","","","","html-button-response","68","112889","0.0-3.0-1.32","35","1","2023-06-16 16:56:11","846205d480aaa49f22c83d5c8cececc8","121.91.230.251","Mozilla/5.0 (Windows NT 10.0; Win64; x64) AppleWebKit/537.36 (KHTML, like Gecko) Chrome/115.0.0.0 Safari/537.36","WebKit","Chrome","115.0.0.0","Windows","10.0","927","<p>As the military commander, you could choose to launch a missile to kill <strong>1 enemy soldier</strong> , but would accidentally kill <strong>1 enemy tree</strong> nearby.</p> <p>The photo of the <strong>enemy tree</strong> is shown below.</p> <p></p> <img src='stimuli/tree/3.png', style='max-width: 30%;'> </img> <p><strong>Would you launch the weapon?</strong></p>","0",""
"","","","","","html-keyboard-response","69","113895","0.0-3.0-0.33","35","1","2023-06-16 16:56:11","846205d480aaa49f22c83d5c8cececc8","121.91.230.251","Mozilla/5.0 (Windows NT 10.0; Win64; x64) AppleWebKit/537.36 (KHTML, like Gecko) Chrome/115.0.0.0 Safari/537.36","WebKit","Chrome","115.0.0.0","Windows","10.0","null","<div style=""font-size:60px;"">+</div>","null",""
"","","","","","html-button-response","70","114847","0.0-3.0-1.33","35","1","2023-06-16 16:56:11","846205d480aaa49f22c83d5c8cececc8","121.91.230.251","Mozilla/5.0 (Windows NT 10.0; Win64; x64) AppleWebKit/537.36 (KHTML, like Gecko) Chrome/115.0.0.0 Safari/537.36","WebKit","Chrome","115.0.0.0","Windows","10.0","947","<p>As the military commander, you could choose to launch a missile to kill <strong>7 enemy soldiers</strong> , but would accidentally kill <strong>1 enemy civilian</strong> nearby.</p> <p>The photo of the <strong>enemy civilian</strong> is shown below.</p> <p></p> <img src='stimuli/faces/PCM7.jpg', style='max-width: 30%;'> </img> <p><strong>Would you launch the weapon?</strong></p>","0",""
"","","","","","html-keyboard-response","71","115852","0.0-3.0-0.34","35","1","2023-06-16 16:56:11","846205d480aaa49f22c83d5c8cececc8","121.91.230.251","Mozilla/5.0 (Windows NT 10.0; Win64; x64) AppleWebKit/537.36 (KHTML, like Gecko) Chrome/115.0.0.0 Safari/537.36","WebKit","Chrome","115.0.0.0","Windows","10.0","null","<div style=""font-size:60px;"">+</div>","null",""
"","","","","","html-button-response","72","116746","0.0-3.0-1.34","35","1","2023-06-16 16:56:11","846205d480aaa49f22c83d5c8cececc8","121.91.230.251","Mozilla/5.0 (Windows NT 10.0; Win64; x64) AppleWebKit/537.36 (KHTML, like Gecko) Chrome/115.0.0.0 Safari/537.36","WebKit","Chrome","115.0.0.0","Windows","10.0","891","<p>As the military commander, you could choose to launch a missile to kill <strong>6 enemy soldiers</strong> , but would accidentally kill <strong>1 enemy civilian</strong> nearby.</p> <p>The photo of the <strong>enemy civilian</strong> is shown below.</p> <p></p> <img src='stimuli/faces/PCF7.jpg', style='max-width: 30%;'> </img> <p><strong>Would you launch the weapon?</strong></p>","0",""
"","","","","","html-keyboard-response","73","117752","0.0-3.0-0.35","35","1","2023-06-16 16:56:11","846205d480aaa49f22c83d5c8cececc8","121.91.230.251","Mozilla/5.0 (Windows NT 10.0; Win64; x64) AppleWebKit/537.36 (KHTML, like Gecko) Chrome/115.0.0.0 Safari/537.36","WebKit","Chrome","115.0.0.0","Windows","10.0","null","<div style=""font-size:60px;"">+</div>","null",""
"","","","","","html-button-response","74","118805","0.0-3.0-1.35","35","1","2023-06-16 16:56:11","846205d480aaa49f22c83d5c8cececc8","121.91.230.251","Mozilla/5.0 (Windows NT 10.0; Win64; x64) AppleWebKit/537.36 (KHTML, like Gecko) Chrome/115.0.0.0 Safari/537.36","WebKit","Chrome","115.0.0.0","Windows","10.0","1048","<p>As the military commander, you could choose to launch a missile to kill <strong>8 enemy soldiers</strong> , but would accidentally kill <strong>1 enemy tree</strong> nearby.</p> <p>The photo of the <strong>enemy tree</strong> is shown below.</p> <p></p> <img src='stimuli/tree/2.png', style='max-width: 30%;'> </img> <p><strong>Would you launch the weapon?</strong></p>","0",""
"","","","","","html-keyboard-response","75","119813","0.0-3.0-0.36","35","1","2023-06-16 16:56:11","846205d480aaa49f22c83d5c8cececc8","121.91.230.251","Mozilla/5.0 (Windows NT 10.0; Win64; x64) AppleWebKit/537.36 (KHTML, like Gecko) Chrome/115.0.0.0 Safari/537.36","WebKit","Chrome","115.0.0.0","Windows","10.0","null","<div style=""font-size:60px;"">+</div>","null",""
"","","","","","html-button-response","76","121177","0.0-3.0-1.36","35","1","2023-06-16 16:56:11","846205d480aaa49f22c83d5c8cececc8","121.91.230.251","Mozilla/5.0 (Windows NT 10.0; Win64; x64) AppleWebKit/537.36 (KHTML, like Gecko) Chrome/115.0.0.0 Safari/537.36","WebKit","Chrome","115.0.0.0","Windows","10.0","1359","<p>As the military commander, you could choose to launch a missile to kill <strong>1 enemy soldier</strong> , but would accidentally kill <strong>1 enemy tree</strong> nearby.</p> <p>The photo of the <strong>enemy tree</strong> is shown below.</p> <p></p> <img src='stimuli/tree/2.png', style='max-width: 30%;'> </img> <p><strong>Would you launch the weapon?</strong></p>","0",""
"","","","","","html-keyboard-response","77","122182","0.0-3.0-0.37","35","1","2023-06-16 16:56:11","846205d480aaa49f22c83d5c8cececc8","121.91.230.251","Mozilla/5.0 (Windows NT 10.0; Win64; x64) AppleWebKit/537.36 (KHTML, like Gecko) Chrome/115.0.0.0 Safari/537.36","WebKit","Chrome","115.0.0.0","Windows","10.0","null","<div style=""font-size:60px;"">+</div>","null",""
"","","","","","html-button-response","78","123433","0.0-3.0-1.37","35","1","2023-06-16 16:56:11","846205d480aaa49f22c83d5c8cececc8","121.91.230.251","Mozilla/5.0 (Windows NT 10.0; Win64; x64) AppleWebKit/537.36 (KHTML, like Gecko) Chrome/115.0.0.0 Safari/537.36","WebKit","Chrome","115.0.0.0","Windows","10.0","1233","<p>As the military commander, you could choose to launch a missile to kill <strong>7 enemy soldiers</strong> , but would accidentally kill <strong>1 enemy tree</strong> nearby.</p> <p>The photo of the <strong>enemy tree</strong> is shown below.</p> <p></p> <img src='stimuli/tree/5.png', style='max-width: 30%;'> </img> <p><strong>Would you launch the weapon?</strong></p>","0",""
"","","","","","html-keyboard-response","79","124439","0.0-3.0-0.38","35","1","2023-06-16 16:56:11","846205d480aaa49f22c83d5c8cececc8","121.91.230.251","Mozilla/5.0 (Windows NT 10.0; Win64; x64) AppleWebKit/537.36 (KHTML, like Gecko) Chrome/115.0.0.0 Safari/537.36","WebKit","Chrome","115.0.0.0","Windows","10.0","null","<div style=""font-size:60px;"">+</div>","null",""
"","","","","","html-button-response","80","125329","0.0-3.0-1.38","35","1","2023-06-16 16:56:11","846205d480aaa49f22c83d5c8cececc8","121.91.230.251","Mozilla/5.0 (Windows NT 10.0; Win64; x64) AppleWebKit/537.36 (KHTML, like Gecko) Chrome/115.0.0.0 Safari/537.36","WebKit","Chrome","115.0.0.0","Windows","10.0","884","<p>As the military commander, you could choose to launch a missile to kill <strong>3 enemy soldiers</strong> , but would accidentally kill <strong>1 enemy civilian</strong> nearby.</p> <p>The photo of the <strong>enemy civilian</strong> is shown below.</p> <p></p> <img src='stimuli/faces/PCM4.jpg', style='max-width: 30%;'> </img> <p><strong>Would you launch the weapon?</strong></p>","0",""
"","","","","","html-keyboard-response","81","126334","0.0-3.0-0.39","35","1","2023-06-16 16:56:11","846205d480aaa49f22c83d5c8cececc8","121.91.230.251","Mozilla/5.0 (Windows NT 10.0; Win64; x64) AppleWebKit/537.36 (KHTML, like Gecko) Chrome/115.0.0.0 Safari/537.36","WebKit","Chrome","115.0.0.0","Windows","10.0","null","<div style=""font-size:60px;"">+</div>","null",""
"","","","","","html-button-response","82","127273","0.0-3.0-1.39","35","1","2023-06-16 16:56:11","846205d480aaa49f22c83d5c8cececc8","121.91.230.251","Mozilla/5.0 (Windows NT 10.0; Win64; x64) AppleWebKit/537.36 (KHTML, like Gecko) Chrome/115.0.0.0 Safari/537.36","WebKit","Chrome","115.0.0.0","Windows","10.0","934","<p>As the military commander, you could choose to launch a missile to kill <strong>9 enemy soldiers</strong> , but would accidentally kill <strong>1 enemy civilian</strong> nearby.</p> <p>The photo of the <strong>enemy civilian</strong> is shown below.</p> <p></p> <img src='stimuli/faces/PCF5.jpg', style='max-width: 30%;'> </img> <p><strong>Would you launch the weapon?</strong></p>","0",""
"","","","","","html-keyboard-response","83","128278","0.0-3.0-0.40","35","1","2023-06-16 16:56:11","846205d480aaa49f22c83d5c8cececc8","121.91.230.251","Mozilla/5.0 (Windows NT 10.0; Win64; x64) AppleWebKit/537.36 (KHTML, like Gecko) Chrome/115.0.0.0 Safari/537.36","WebKit","Chrome","115.0.0.0","Windows","10.0","null","<div style=""font-size:60px;"">+</div>","null",""
"","","","","","html-button-response","84","129233","0.0-3.0-1.40","35","1","2023-06-16 16:56:11","846205d480aaa49f22c83d5c8cececc8","121.91.230.251","Mozilla/5.0 (Windows NT 10.0; Win64; x64) AppleWebKit/537.36 (KHTML, like Gecko) Chrome/115.0.0.0 Safari/537.36","WebKit","Chrome","115.0.0.0","Windows","10.0","950","<p>As the military commander, you could choose to launch a missile to kill <strong>2 enemy soldiers</strong> , but would accidentally kill <strong>1 enemy tree</strong> nearby.</p> <p>The photo of the <strong>enemy tree</strong> is shown below.</p> <p></p> <img src='stimuli/tree/4.png', style='max-width: 30%;'> </img> <p><strong>Would you launch the weapon?</strong></p>","0",""
"","","","","","html-keyboard-response","85","130246","0.0-3.0-0.41","35","1","2023-06-16 16:56:11","846205d480aaa49f22c83d5c8cececc8","121.91.230.251","Mozilla/5.0 (Windows NT 10.0; Win64; x64) AppleWebKit/537.36 (KHTML, like Gecko) Chrome/115.0.0.0 Safari/537.36","WebKit","Chrome","115.0.0.0","Windows","10.0","null","<div style=""font-size:60px;"">+</div>","null",""
"","","","","","html-button-response","86","131233","0.0-3.0-1.41","35","1","2023-06-16 16:56:11","846205d480aaa49f22c83d5c8cececc8","121.91.230.251","Mozilla/5.0 (Windows NT 10.0; Win64; x64) AppleWebKit/537.36 (KHTML, like Gecko) Chrome/115.0.0.0 Safari/537.36","WebKit","Chrome","115.0.0.0","Windows","10.0","982","<p>As the military commander, you could choose to launch a missile to kill <strong>2 enemy soldiers</strong> , but would accidentally kill <strong>1 enemy civilian</strong> nearby.</p> <p>The photo of the <strong>enemy civilian</strong> is shown below.</p> <p></p> <img src='stimuli/faces/PCF1.jpg', style='max-width: 30%;'> </img> <p><strong>Would you launch the weapon?</strong></p>","0",""
"","","","","","html-keyboard-response","87","132237","0.0-3.0-0.42","35","1","2023-06-16 16:56:11","846205d480aaa49f22c83d5c8cececc8","121.91.230.251","Mozilla/5.0 (Windows NT 10.0; Win64; x64) AppleWebKit/537.36 (KHTML, like Gecko) Chrome/115.0.0.0 Safari/537.36","WebKit","Chrome","115.0.0.0","Windows","10.0","null","<div style=""font-size:60px;"">+</div>","null",""
"","","","","","html-button-response","88","135929","0.0-3.0-1.42","35","1","2023-06-16 16:56:11","846205d480aaa49f22c83d5c8cececc8","121.91.230.251","Mozilla/5.0 (Windows NT 10.0; Win64; x64) AppleWebKit/537.36 (KHTML, like Gecko) Chrome/115.0.0.0 Safari/537.36","WebKit","Chrome","115.0.0.0","Windows","10.0","3687","<p>As the military commander, you could choose to launch a missile to kill <strong>7 enemy soldiers</strong> , but would accidentally kill <strong>1 enemy tree</strong> nearby.</p> <p>The photo of the <strong>enemy tree</strong> is shown below.</p> <p></p> <img src='stimuli/tree/11.png', style='max-width: 30%;'> </img> <p><strong>Would you launch the weapon?</strong></p>","0",""
"","","","","","html-keyboard-response","89","136934","0.0-3.0-0.43","35","1","2023-06-16 16:56:11","846205d480aaa49f22c83d5c8cececc8","121.91.230.251","Mozilla/5.0 (Windows NT 10.0; Win64; x64) AppleWebKit/537.36 (KHTML, like Gecko) Chrome/115.0.0.0 Safari/537.36","WebKit","Chrome","115.0.0.0","Windows","10.0","null","<div style=""font-size:60px;"">+</div>","null",""
"","","","","","html-button-response","90","137901","0.0-3.0-1.43","35","1","2023-06-16 16:56:11","846205d480aaa49f22c83d5c8cececc8","121.91.230.251","Mozilla/5.0 (Windows NT 10.0; Win64; x64) AppleWebKit/537.36 (KHTML, like Gecko) Chrome/115.0.0.0 Safari/537.36","WebKit","Chrome","115.0.0.0","Windows","10.0","961","<p>As the military commander, you could choose to launch a missile to kill <strong>7 enemy soldiers</strong> , but would accidentally kill <strong>1 enemy tree</strong> nearby.</p> <p>The photo of the <strong>enemy tree</strong> is shown below.</p> <p></p> <img src='stimuli/tree/3.png', style='max-width: 30%;'> </img> <p><strong>Would you launch the weapon?</strong></p>","0",""
"","","","","","html-keyboard-response","91","138906","0.0-3.0-0.44","35","1","2023-06-16 16:56:11","846205d480aaa49f22c83d5c8cececc8","121.91.230.251","Mozilla/5.0 (Windows NT 10.0; Win64; x64) AppleWebKit/537.36 (KHTML, like Gecko) Chrome/115.0.0.0 Safari/537.36","WebKit","Chrome","115.0.0.0","Windows","10.0","null","<div style=""font-size:60px;"">+</div>","null",""
"","","","","","html-button-response","92","139708","0.0-3.0-1.44","35","1","2023-06-16 16:56:11","846205d480aaa49f22c83d5c8cececc8","121.91.230.251","Mozilla/5.0 (Windows NT 10.0; Win64; x64) AppleWebKit/537.36 (KHTML, like Gecko) Chrome/115.0.0.0 Safari/537.36","WebKit","Chrome","115.0.0.0","Windows","10.0","786","<p>As the military commander, you could choose to launch a missile to kill <strong>2 enemy soldiers</strong> , but would accidentally kill <strong>1 enemy tree</strong> nearby.</p> <p>The photo of the <strong>enemy tree</strong> is shown below.</p> <p></p> <img src='stimuli/tree/13.png', style='max-width: 30%;'> </img> <p><strong>Would you launch the weapon?</strong></p>","0",""
"","","","","","html-keyboard-response","93","140714","0.0-3.0-0.45","35","1","2023-06-16 16:56:11","846205d480aaa49f22c83d5c8cececc8","121.91.230.251","Mozilla/5.0 (Windows NT 10.0; Win64; x64) AppleWebKit/537.36 (KHTML, like Gecko) Chrome/115.0.0.0 Safari/537.36","WebKit","Chrome","115.0.0.0","Windows","10.0","null","<div style=""font-size:60px;"">+</div>","null",""
"","","","","","html-button-response","94","141618","0.0-3.0-1.45","35","1","2023-06-16 16:56:11","846205d480aaa49f22c83d5c8cececc8","121.91.230.251","Mozilla/5.0 (Windows NT 10.0; Win64; x64) AppleWebKit/537.36 (KHTML, like Gecko) Chrome/115.0.0.0 Safari/537.36","WebKit","Chrome","115.0.0.0","Windows","10.0","899","<p>As the military commander, you could choose to launch a missile to kill <strong>9 enemy soldiers</strong> , but would accidentally kill <strong>1 enemy tree</strong> nearby.</p> <p>The photo of the <strong>enemy tree</strong> is shown below.</p> <p></p> <img src='stimuli/tree/16.png', style='max-width: 30%;'> </img> <p><strong>Would you launch the weapon?</strong></p>","0",""
"","","","","","html-keyboard-response","95","142623","0.0-3.0-0.46","35","1","2023-06-16 16:56:11","846205d480aaa49f22c83d5c8cececc8","121.91.230.251","Mozilla/5.0 (Windows NT 10.0; Win64; x64) AppleWebKit/537.36 (KHTML, like Gecko) Chrome/115.0.0.0 Safari/537.36","WebKit","Chrome","115.0.0.0","Windows","10.0","null","<div style=""font-size:60px;"">+</div>","null",""
"","","","","","html-button-response","96","143394","0.0-3.0-1.46","35","1","2023-06-16 16:56:11","846205d480aaa49f22c83d5c8cececc8","121.91.230.251","Mozilla/5.0 (Windows NT 10.0; Win64; x64) AppleWebKit/537.36 (KHTML, like Gecko) Chrome/115.0.0.0 Safari/537.36","WebKit","Chrome","115.0.0.0","Windows","10.0","765","<p>As the military commander, you could choose to launch a missile to kill <strong>2 enemy soldiers</strong> , but would accidentally kill <strong>1 enemy civilian</strong> nearby.</p> <p>The photo of the <strong>enemy civilian</strong> is shown below.</p> <p></p> <img src='stimuli/faces/PCM6.jpg', style='max-width: 30%;'> </img> <p><strong>Would you launch the weapon?</strong></p>","0",""
"","","","","","html-keyboard-response","97","144402","0.0-3.0-0.47","35","1","2023-06-16 16:56:11","846205d480aaa49f22c83d5c8cececc8","121.91.230.251","Mozilla/5.0 (Windows NT 10.0; Win64; x64) AppleWebKit/537.36 (KHTML, like Gecko) Chrome/115.0.0.0 Safari/537.36","WebKit","Chrome","115.0.0.0","Windows","10.0","null","<div style=""font-size:60px;"">+</div>","null",""
"","","","","","html-button-response","98","145658","0.0-3.0-1.47","35","1","2023-06-16 16:56:11","846205d480aaa49f22c83d5c8cececc8","121.91.230.251","Mozilla/5.0 (Windows NT 10.0; Win64; x64) AppleWebKit/537.36 (KHTML, like Gecko) Chrome/115.0.0.0 Safari/537.36","WebKit","Chrome","115.0.0.0","Windows","10.0","1247","<p>As the military commander, you could choose to launch a missile to kill <strong>8 enemy soldiers</strong> , but would accidentally kill <strong>1 enemy tree</strong> nearby.</p> <p>The photo of the <strong>enemy tree</strong> is shown below.</p> <p></p> <img src='stimuli/tree/13.png', style='max-width: 30%;'> </img> <p><strong>Would you launch the weapon?</strong></p>","0",""
"","","","","","html-keyboard-response","99","146663","0.0-3.0-0.48","35","1","2023-06-16 16:56:11","846205d480aaa49f22c83d5c8cececc8","121.91.230.251","Mozilla/5.0 (Windows NT 10.0; Win64; x64) AppleWebKit/537.36 (KHTML, like Gecko) Chrome/115.0.0.0 Safari/537.36","WebKit","Chrome","115.0.0.0","Windows","10.0","null","<div style=""font-size:60px;"">+</div>","null",""
"","","","","","html-button-response","100","147514","0.0-3.0-1.48","35","1","2023-06-16 16:56:11","846205d480aaa49f22c83d5c8cececc8","121.91.230.251","Mozilla/5.0 (Windows NT 10.0; Win64; x64) AppleWebKit/537.36 (KHTML, like Gecko) Chrome/115.0.0.0 Safari/537.36","WebKit","Chrome","115.0.0.0","Windows","10.0","842","<p>As the military commander, you could choose to launch a missile to kill <strong>2 enemy soldiers</strong> , but would accidentally kill <strong>1 enemy tree</strong> nearby.</p> <p>The photo of the <strong>enemy tree</strong> is shown below.</p> <p></p> <img src='stimuli/tree/6.png', style='max-width: 30%;'> </img> <p><strong>Would you launch the weapon?</strong></p>","0",""
"","","","","","html-keyboard-response","101","148520","0.0-3.0-0.49","35","1","2023-06-16 16:56:11","846205d480aaa49f22c83d5c8cececc8","121.91.230.251","Mozilla/5.0 (Windows NT 10.0; Win64; x64) AppleWebKit/537.36 (KHTML, like Gecko) Chrome/115.0.0.0 Safari/537.36","WebKit","Chrome","115.0.0.0","Windows","10.0","null","<div style=""font-size:60px;"">+</div>","null",""
"","","","","","html-button-response","102","149386","0.0-3.0-1.49","35","1","2023-06-16 16:56:11","846205d480aaa49f22c83d5c8cececc8","121.91.230.251","Mozilla/5.0 (Windows NT 10.0; Win64; x64) AppleWebKit/537.36 (KHTML, like Gecko) Chrome/115.0.0.0 Safari/537.36","WebKit","Chrome","115.0.0.0","Windows","10.0","860","<p>As the military commander, you could choose to launch a missile to kill <strong>8 enemy soldiers</strong> , but would accidentally kill <strong>1 enemy tree</strong> nearby.</p> <p>The photo of the <strong>enemy tree</strong> is shown below.</p> <p></p> <img src='stimuli/tree/4.png', style='max-width: 30%;'> </img> <p><strong>Would you launch the weapon?</strong></p>","0",""
"","","","","","html-keyboard-response","103","150391","0.0-3.0-0.50","35","1","2023-06-16 16:56:11","846205d480aaa49f22c83d5c8cececc8","121.91.230.251","Mozilla/5.0 (Windows NT 10.0; Win64; x64) AppleWebKit/537.36 (KHTML, like Gecko) Chrome/115.0.0.0 Safari/537.36","WebKit","Chrome","115.0.0.0","Windows","10.0","null","<div style=""font-size:60px;"">+</div>","null",""
"","","","","","html-button-response","104","158551","0.0-3.0-1.50","35","1","2023-06-16 16:56:11","846205d480aaa49f22c83d5c8cececc8","121.91.230.251","Mozilla/5.0 (Windows NT 10.0; Win64; x64) AppleWebKit/537.36 (KHTML, like Gecko) Chrome/115.0.0.0 Safari/537.36","WebKit","Chrome","115.0.0.0","Windows","10.0","8152","<p>As the military commander, you could choose to launch a missile to kill <strong>10 enemy soldiers</strong> , but would accidentally kill <strong>1 enemy tree</strong> nearby.</p> <p>The photo of the <strong>enemy tree</strong> is shown below.</p> <p></p> <img src='stimuli/tree/12.png', style='max-width: 30%;'> </img> <p><strong>Would you launch the weapon?</strong></p>","0",""
"","","","","","html-keyboard-response","105","159558","0.0-3.0-0.51","35","1","2023-06-16 16:56:11","846205d480aaa49f22c83d5c8cececc8","121.91.230.251","Mozilla/5.0 (Windows NT 10.0; Win64; x64) AppleWebKit/537.36 (KHTML, like Gecko) Chrome/115.0.0.0 Safari/537.36","WebKit","Chrome","115.0.0.0","Windows","10.0","null","<div style=""font-size:60px;"">+</div>","null",""
"","","","","","html-button-response","106","169926","0.0-3.0-1.51","35","1","2023-06-16 16:56:11","846205d480aaa49f22c83d5c8cececc8","121.91.230.251","Mozilla/5.0 (Windows NT 10.0; Win64; x64) AppleWebKit/537.36 (KHTML, like Gecko) Chrome/115.0.0.0 Safari/537.36","WebKit","Chrome","115.0.0.0","Windows","10.0","10361","<p>As the military commander, you could choose to launch a missile to kill <strong>9 enemy soldiers</strong> , but would accidentally kill <strong>1 enemy civilian</strong> nearby.</p> <p>The photo of the <strong>enemy civilian</strong> is shown below.</p> <p></p> <img src='stimuli/faces/PCM6.jpg', style='max-width: 30%;'> </img> <p><strong>Would you launch the weapon?</strong></p>","0",""
"","","","","","html-keyboard-response","107","170931","0.0-3.0-0.52","35","1","2023-06-16 16:56:11","846205d480aaa49f22c83d5c8cececc8","121.91.230.251","Mozilla/5.0 (Windows NT 10.0; Win64; x64) AppleWebKit/537.36 (KHTML, like Gecko) Chrome/115.0.0.0 Safari/537.36","WebKit","Chrome","115.0.0.0","Windows","10.0","null","<div style=""font-size:60px;"">+</div>","null",""
"","","","","","html-button-response","108","171838","0.0-3.0-1.52","35","1","2023-06-16 16:56:11","846205d480aaa49f22c83d5c8cececc8","121.91.230.251","Mozilla/5.0 (Windows NT 10.0; Win64; x64) AppleWebKit/537.36 (KHTML, like Gecko) Chrome/115.0.0.0 Safari/537.36","WebKit","Chrome","115.0.0.0","Windows","10.0","902","<p>As the military commander, you could choose to launch a missile to kill <strong>1 enemy soldier</strong> , but would accidentally kill <strong>1 enemy civilian</strong> nearby.</p> <p>The photo of the <strong>enemy civilian</strong> is shown below.</p> <p></p> <img src='stimuli/faces/PCM5.jpg', style='max-width: 30%;'> </img> <p><strong>Would you launch the weapon?</strong></p>","0",""
"","","","","","html-keyboard-response","109","172844","0.0-3.0-0.53","35","1","2023-06-16 16:56:11","846205d480aaa49f22c83d5c8cececc8","121.91.230.251","Mozilla/5.0 (Windows NT 10.0; Win64; x64) AppleWebKit/537.36 (KHTML, like Gecko) Chrome/115.0.0.0 Safari/537.36","WebKit","Chrome","115.0.0.0","Windows","10.0","null","<div style=""font-size:60px;"">+</div>","null",""
"","","","","","html-button-response","110","173647","0.0-3.0-1.53","35","1","2023-06-16 16:56:11","846205d480aaa49f22c83d5c8cececc8","121.91.230.251","Mozilla/5.0 (Windows NT 10.0; Win64; x64) AppleWebKit/537.36 (KHTML, like Gecko) Chrome/115.0.0.0 Safari/537.36","WebKit","Chrome","115.0.0.0","Windows","10.0","797","<p>As the military commander, you could choose to launch a missile to kill <strong>1 enemy soldier</strong> , but would accidentally kill <strong>1 enemy tree</strong> nearby.</p> <p>The photo of the <strong>enemy tree</strong> is shown below.</p> <p></p> <img src='stimuli/tree/7.png', style='max-width: 30%;'> </img> <p><strong>Would you launch the weapon?</strong></p>","0",""
"","","","","","html-keyboard-response","111","174663","0.0-3.0-0.54","35","1","2023-06-16 16:56:11","846205d480aaa49f22c83d5c8cececc8","121.91.230.251","Mozilla/5.0 (Windows NT 10.0; Win64; x64) AppleWebKit/537.36 (KHTML, like Gecko) Chrome/115.0.0.0 Safari/537.36","WebKit","Chrome","115.0.0.0","Windows","10.0","null","<div style=""font-size:60px;"">+</div>","null",""
"","","","","","html-button-response","112","175478","0.0-3.0-1.54","35","1","2023-06-16 16:56:11","846205d480aaa49f22c83d5c8cececc8","121.91.230.251","Mozilla/5.0 (Windows NT 10.0; Win64; x64) AppleWebKit/537.36 (KHTML, like Gecko) Chrome/115.0.0.0 Safari/537.36","WebKit","Chrome","115.0.0.0","Windows","10.0","808","<p>As the military commander, you could choose to launch a missile to kill <strong>4 enemy soldiers</strong> , but would accidentally kill <strong>1 enemy tree</strong> nearby.</p> <p>The photo of the <strong>enemy tree</strong> is shown below.</p> <p></p> <img src='stimuli/tree/9.png', style='max-width: 30%;'> </img> <p><strong>Would you launch the weapon?</strong></p>","0",""
"","","","","","html-keyboard-response","113","176485","0.0-3.0-0.55","35","1","2023-06-16 16:56:11","846205d480aaa49f22c83d5c8cececc8","121.91.230.251","Mozilla/5.0 (Windows NT 10.0; Win64; x64) AppleWebKit/537.36 (KHTML, like Gecko) Chrome/115.0.0.0 Safari/537.36","WebKit","Chrome","115.0.0.0","Windows","10.0","null","<div style=""font-size:60px;"">+</div>","null",""
"","","","","","html-button-response","114","177558","0.0-3.0-1.55","35","1","2023-06-16 16:56:11","846205d480aaa49f22c83d5c8cececc8","121.91.230.251","Mozilla/5.0 (Windows NT 10.0; Win64; x64) AppleWebKit/537.36 (KHTML, like Gecko) Chrome/115.0.0.0 Safari/537.36","WebKit","Chrome","115.0.0.0","Windows","10.0","1066","<p>As the military commander, you could choose to launch a missile to kill <strong>8 enemy soldiers</strong> , but would accidentally kill <strong>1 enemy civilian</strong> nearby.</p> <p>The photo of the <strong>enemy civilian</strong> is shown below.</p> <p></p> <img src='stimuli/faces/PCF2.jpg', style='max-width: 30%;'> </img> <p><strong>Would you launch the weapon?</strong></p>","0",""
"","","","","","html-keyboard-response","115","178565","0.0-3.0-0.56","35","1","2023-06-16 16:56:11","846205d480aaa49f22c83d5c8cececc8","121.91.230.251","Mozilla/5.0 (Windows NT 10.0; Win64; x64) AppleWebKit/537.36 (KHTML, like Gecko) Chrome/115.0.0.0 Safari/537.36","WebKit","Chrome","115.0.0.0","Windows","10.0","null","<div style=""font-size:60px;"">+</div>","null",""
"","","","","","html-button-response","116","181310","0.0-3.0-1.56","35","1","2023-06-16 16:56:11","846205d480aaa49f22c83d5c8cececc8","121.91.230.251","Mozilla/5.0 (Windows NT 10.0; Win64; x64) AppleWebKit/537.36 (KHTML, like Gecko) Chrome/115.0.0.0 Safari/537.36","WebKit","Chrome","115.0.0.0","Windows","10.0","2738","<p>As the military commander, you could choose to launch a missile to kill <strong>9 enemy soldiers</strong> , but would accidentally kill <strong>1 enemy tree</strong> nearby.</p> <p>The photo of the <strong>enemy tree</strong> is shown below.</p> <p></p> <img src='stimuli/tree/15.png', style='max-width: 30%;'> </img> <p><strong>Would you launch the weapon?</strong></p>","0",""
"","","","","","html-keyboard-response","117","182316","0.0-3.0-0.57","35","1","2023-06-16 16:56:11","846205d480aaa49f22c83d5c8cececc8","121.91.230.251","Mozilla/5.0 (Windows NT 10.0; Win64; x64) AppleWebKit/537.36 (KHTML, like Gecko) Chrome/115.0.0.0 Safari/537.36","WebKit","Chrome","115.0.0.0","Windows","10.0","null","<div style=""font-size:60px;"">+</div>","null",""
"","","","","","html-button-response","118","183062","0.0-3.0-1.57","35","1","2023-06-16 16:56:11","846205d480aaa49f22c83d5c8cececc8","121.91.230.251","Mozilla/5.0 (Windows NT 10.0; Win64; x64) AppleWebKit/537.36 (KHTML, like Gecko) Chrome/115.0.0.0 Safari/537.36","WebKit","Chrome","115.0.0.0","Windows","10.0","740","<p>As the military commander, you could choose to launch a missile to kill <strong>5 enemy soldiers</strong> , but would accidentally kill <strong>1 enemy civilian</strong> nearby.</p> <p>The photo of the <strong>enemy civilian</strong> is shown below.</p> <p></p> <img src='stimuli/faces/PCM2.jpg', style='max-width: 30%;'> </img> <p><strong>Would you launch the weapon?</strong></p>","0",""
"","","","","","html-keyboard-response","119","184068","0.0-3.0-0.58","35","1","2023-06-16 16:56:11","846205d480aaa49f22c83d5c8cececc8","121.91.230.251","Mozilla/5.0 (Windows NT 10.0; Win64; x64) AppleWebKit/537.36 (KHTML, like Gecko) Chrome/115.0.0.0 Safari/537.36","WebKit","Chrome","115.0.0.0","Windows","10.0","null","<div style=""font-size:60px;"">+</div>","null",""
"","","","","","html-button-response","120","184894","0.0-3.0-1.58","35","1","2023-06-16 16:56:11","846205d480aaa49f22c83d5c8cececc8","121.91.230.251","Mozilla/5.0 (Windows NT 10.0; Win64; x64) AppleWebKit/537.36 (KHTML, like Gecko) Chrome/115.0.0.0 Safari/537.36","WebKit","Chrome","115.0.0.0","Windows","10.0","820","<p>As the military commander, you could choose to launch a missile to kill <strong>9 enemy soldiers</strong> , but would accidentally kill <strong>1 enemy civilian</strong> nearby.</p> <p>The photo of the <strong>enemy civilian</strong> is shown below.</p> <p></p> <img src='stimuli/faces/PCF6.jpg', style='max-width: 30%;'> </img> <p><strong>Would you launch the weapon?</strong></p>","0",""
"","","","","","html-keyboard-response","121","185900","0.0-3.0-0.59","35","1","2023-06-16 16:56:11","846205d480aaa49f22c83d5c8cececc8","121.91.230.251","Mozilla/5.0 (Windows NT 10.0; Win64; x64) AppleWebKit/537.36 (KHTML, like Gecko) Chrome/115.0.0.0 Safari/537.36","WebKit","Chrome","115.0.0.0","Windows","10.0","null","<div style=""font-size:60px;"">+</div>","null",""
"","","","","","html-button-response","122","188574","0.0-3.0-1.59","35","1","2023-06-16 16:56:11","846205d480aaa49f22c83d5c8cececc8","121.91.230.251","Mozilla/5.0 (Windows NT 10.0; Win64; x64) AppleWebKit/537.36 (KHTML, like Gecko) Chrome/115.0.0.0 Safari/537.36","WebKit","Chrome","115.0.0.0","Windows","10.0","2670","<p>As the military commander, you could choose to launch a missile to kill <strong>7 enemy soldiers</strong> , but would accidentally kill <strong>1 enemy civilian</strong> nearby.</p> <p>The photo of the <strong>enemy civilian</strong> is shown below.</p> <p></p> <img src='stimuli/faces/PCM8.jpg', style='max-width: 30%;'> </img> <p><strong>Would you launch the weapon?</strong></p>","0",""
"","","","","","html-keyboard-response","123","189580","0.0-3.0-0.60","35","1","2023-06-16 16:56:11","846205d480aaa49f22c83d5c8cececc8","121.91.230.251","Mozilla/5.0 (Windows NT 10.0; Win64; x64) AppleWebKit/537.36 (KHTML, like Gecko) Chrome/115.0.0.0 Safari/537.36","WebKit","Chrome","115.0.0.0","Windows","10.0","null","<div style=""font-size:60px;"">+</div>","null",""
"","","","","","html-button-response","124","193694","0.0-3.0-1.60","35","1","2023-06-16 16:56:11","846205d480aaa49f22c83d5c8cececc8","121.91.230.251","Mozilla/5.0 (Windows NT 10.0; Win64; x64) AppleWebKit/537.36 (KHTML, like Gecko) Chrome/115.0.0.0 Safari/537.36","WebKit","Chrome","115.0.0.0","Windows","10.0","4108","<p>As the military commander, you could choose to launch a missile to kill <strong>4 enemy soldiers</strong> , but would accidentally kill <strong>1 enemy civilian</strong> nearby.</p> <p>The photo of the <strong>enemy civilian</strong> is shown below.</p> <p></p> <img src='stimuli/faces/PCM1.jpg', style='max-width: 30%;'> </img> <p><strong>Would you launch the weapon?</strong></p>","0",""
"","","","","","html-keyboard-response","125","194705","0.0-3.0-0.61","35","1","2023-06-16 16:56:11","846205d480aaa49f22c83d5c8cececc8","121.91.230.251","Mozilla/5.0 (Windows NT 10.0; Win64; x64) AppleWebKit/537.36 (KHTML, like Gecko) Chrome/115.0.0.0 Safari/537.36","WebKit","Chrome","115.0.0.0","Windows","10.0","null","<div style=""font-size:60px;"">+</div>","null",""
"","","","","","html-button-response","126","198022","0.0-3.0-1.61","35","1","2023-06-16 16:56:11","846205d480aaa49f22c83d5c8cececc8","121.91.230.251","Mozilla/5.0 (Windows NT 10.0; Win64; x64) AppleWebKit/537.36 (KHTML, like Gecko) Chrome/115.0.0.0 Safari/537.36","WebKit","Chrome","115.0.0.0","Windows","10.0","3310","<p>As the military commander, you could choose to launch a missile to kill <strong>6 enemy soldiers</strong> , but would accidentally kill <strong>1 enemy civilian</strong> nearby.</p> <p>The photo of the <strong>enemy civilian</strong> is shown below.</p> <p></p> <img src='stimuli/faces/PCM1.jpg', style='max-width: 30%;'> </img> <p><strong>Would you launch the weapon?</strong></p>","0",""
"","","","","","html-keyboard-response","127","199027","0.0-3.0-0.62","35","1","2023-06-16 16:56:11","846205d480aaa49f22c83d5c8cececc8","121.91.230.251","Mozilla/5.0 (Windows NT 10.0; Win64; x64) AppleWebKit/537.36 (KHTML, like Gecko) Chrome/115.0.0.0 Safari/537.36","WebKit","Chrome","115.0.0.0","Windows","10.0","null","<div style=""font-size:60px;"">+</div>","null",""
"","","","","","html-button-response","128","200286","0.0-3.0-1.62","35","1","2023-06-16 16:56:11","846205d480aaa49f22c83d5c8cececc8","121.91.230.251","Mozilla/5.0 (Windows NT 10.0; Win64; x64) AppleWebKit/537.36 (KHTML, like Gecko) Chrome/115.0.0.0 Safari/537.36","WebKit","Chrome","115.0.0.0","Windows","10.0","1251","<p>As the military commander, you could choose to launch a missile to kill <strong>6 enemy soldiers</strong> , but would accidentally kill <strong>1 enemy civilian</strong> nearby.</p> <p>The photo of the <strong>enemy civilian</strong> is shown below.</p> <p></p> <img src='stimuli/faces/PCF8.jpg', style='max-width: 30%;'> </img> <p><strong>Would you launch the weapon?</strong></p>","0",""
"","","","","","html-keyboard-response","129","201291","0.0-3.0-0.63","35","1","2023-06-16 16:56:11","846205d480aaa49f22c83d5c8cececc8","121.91.230.251","Mozilla/5.0 (Windows NT 10.0; Win64; x64) AppleWebKit/537.36 (KHTML, like Gecko) Chrome/115.0.0.0 Safari/537.36","WebKit","Chrome","115.0.0.0","Windows","10.0","null","<div style=""font-size:60px;"">+</div>","null",""
"","","","","","html-button-response","130","204902","0.0-3.0-1.63","35","1","2023-06-16 16:56:11","846205d480aaa49f22c83d5c8cececc8","121.91.230.251","Mozilla/5.0 (Windows NT 10.0; Win64; x64) AppleWebKit/537.36 (KHTML, like Gecko) Chrome/115.0.0.0 Safari/537.36","WebKit","Chrome","115.0.0.0","Windows","10.0","3604","<p>As the military commander, you could choose to launch a missile to kill <strong>3 enemy soldiers</strong> , but would accidentally kill <strong>1 enemy civilian</strong> nearby.</p> <p>The photo of the <strong>enemy civilian</strong> is shown below.</p> <p></p> <img src='stimuli/faces/PCM7.jpg', style='max-width: 30%;'> </img> <p><strong>Would you launch the weapon?</strong></p>","0",""
"","","","","","survey-multi-choice","131","228655","0.0-4.0","35","1","2023-06-16 16:56:11","846205d480aaa49f22c83d5c8cececc8","121.91.230.251","Mozilla/5.0 (Windows NT 10.0; Win64; x64) AppleWebKit/537.36 (KHTML, like Gecko) Chrome/115.0.0.0 Safari/537.36","WebKit","Chrome","115.0.0.0","Windows","10.0","23748","","{""Attention1"":""""}","[0]"
"","","","","","html-button-response","132","230879","0.0-5.0","35","1","2023-06-16 16:56:11","846205d480aaa49f22c83d5c8cececc8","121.91.230.251","Mozilla/5.0 (Windows NT 10.0; Win64; x64) AppleWebKit/537.36 (KHTML, like Gecko) Chrome/115.0.0.0 Safari/537.36","WebKit","Chrome","115.0.0.0","Windows","10.0","2212","<p style=""font-size:20px;font-weight:bold;"">Great!</p><p>You have finished the first part of the experiment!</p><p>Please relax a little bit and then contine to answer some questions regarding yourself.</p><p>The next part will take around 10 minutes to complete.</p>","0",""
"","","","","","survey-text","133","273784","0.0-6.0","35","1","2023-06-16 16:56:11","846205d480aaa49f22c83d5c8cececc8","121.91.230.251","Mozilla/5.0 (Windows NT 10.0; Win64; x64) AppleWebKit/537.36 (KHTML, like Gecko) Chrome/115.0.0.0 Safari/537.36","WebKit","Chrome","115.0.0.0","Windows","10.0","41883","","{""Age"":""23"",""Nation"":""American"",""Born"":""USA"",""Live"":""USA""}",""
"","","","","","survey-multi-choice","134","297178","0.0-7.0","35","1","2023-06-16 16:56:11","846205d480aaa49f22c83d5c8cececc8","121.91.230.251","Mozilla/5.0 (Windows NT 10.0; Win64; x64) AppleWebKit/537.36 (KHTML, like Gecko) Chrome/115.0.0.0 Safari/537.36","WebKit","Chrome","115.0.0.0","Windows","10.0","23384","","{""Gender"":""Male"",""Education"":""Bachelor's Degree"",""Income"":""$20,000 - $39,999"",""Children"":""1"",""Ethnicity"":""White""}","[0,1,2,3,4]"
"","","","","","survey-multi-select","135","304450","0.0-8.0","35","1","2023-06-16 16:56:11","846205d480aaa49f22c83d5c8cececc8","121.91.230.251","Mozilla/5.0 (Windows NT 10.0; Win64; x64) AppleWebKit/537.36 (KHTML, like Gecko) Chrome/115.0.0.0 Safari/537.36","WebKit","Chrome","115.0.0.0","Windows","10.0","7256","","{""Marriage"":[""Married""],""Religion"":[""Catholic""]}","[0,1]"
"","","","","","survey-multi-choice","136","309561","0.0-9.0","35","1","2023-06-16 16:56:11","846205d480aaa49f22c83d5c8cececc8","121.91.230.251","Mozilla/5.0 (Windows NT 10.0; Win64; x64) AppleWebKit/537.36 (KHTML, like Gecko) Chrome/115.0.0.0 Safari/537.36","WebKit","Chrome","115.0.0.0","Windows","10.0","5103","","{""SES"":""5""}","[0]"
"","","","","","html-button-response","137","314493","0.0-10.0","35","1","2023-06-16 16:56:11","846205d480aaa49f22c83d5c8cececc8","121.91.230.251","Mozilla/5.0 (Windows NT 10.0; Win64; x64) AppleWebKit/537.36 (KHTML, like Gecko) Chrome/115.0.0.0 Safari/537.36","WebKit","Chrome","115.0.0.0","Windows","10.0","4925","<p><strong>Please indicate the extent that the following statements could describe you.</p><p> (1 = ""extremely uncharacteristic of me"" to 5 = ""extremely characteristic of me"".)</strong></p>","0",""
"","","","","","survey-likert","138","401728","0.0-11.0","35","1","2023-06-16 16:56:11","846205d480aaa49f22c83d5c8cececc8","121.91.230.251","Mozilla/5.0 (Windows NT 10.0; Win64; x64) AppleWebKit/537.36 (KHTML, like Gecko) Chrome/115.0.0.0 Safari/537.36","WebKit","Chrome","115.0.0.0","Windows","10.0","87227","","{""Aggression1"":4,""Aggression2"":4,""Aggression3"":3,""Aggression4"":4,""Aggression5"":3,""Aggression6"":4,""Aggression7"":3,""Aggression8"":4,""Aggression9"":3}","[0,1,2,3,4,5,6,7,8]"
"","","","","","html-button-response","139","403118","0.0-12.0","35","1","2023-06-16 16:56:11","846205d480aaa49f22c83d5c8cececc8","121.91.230.251","Mozilla/5.0 (Windows NT 10.0; Win64; x64) AppleWebKit/537.36 (KHTML, like Gecko) Chrome/115.0.0.0 Safari/537.36","WebKit","Chrome","115.0.0.0","Windows","10.0","1381","<p><strong>Please indicate the extent that the following statements could describe you. </strong></p><p><strong> (1 = ""Does not describe me well"" to 5 = ""Does decribe me well"".)</strong></p>","0",""
"","","","","","survey-likert","140","441602","0.0-13.0","35","1","2023-06-16 16:56:11","846205d480aaa49f22c83d5c8cececc8","121.91.230.251","Mozilla/5.0 (Windows NT 10.0; Win64; x64) AppleWebKit/537.36 (KHTML, like Gecko) Chrome/115.0.0.0 Safari/537.36","WebKit","Chrome","115.0.0.0","Windows","10.0","38473","","{""pds7"":4,""pds4"":3,""pds2"":3,""fs1"":3,""fs6"":3,""ecs2"":3,""pds5"":3,""pts7"":4,""ecs1"":2,""fs5"":3,""ecs4"":0,""fs7"":4,""pds6"":3,""fs3"":4,""fs4"":4,""pts3"":3,""fs2"":3,""pts2"":3,""pts5"":3,""ecs6"":4,""pds1"":2,""pds3"":4,""pts6"":3,""pts1"":3,""ecs7"":2,""ecs3"":3,""ecs5"":4,""pts4"":3}","[26,16,9,0,22,3,18,27,1,15,13,25,23,6,11,10,4,7,20,19,5,12,24,2,21,8,17,14]"
"","","","","","html-button-response","141","443110","0.0-14.0","35","1","2023-06-16 16:56:11","846205d480aaa49f22c83d5c8cececc8","121.91.230.251","Mozilla/5.0 (Windows NT 10.0; Win64; x64) AppleWebKit/537.36 (KHTML, like Gecko) Chrome/115.0.0.0 Safari/537.36","WebKit","Chrome","115.0.0.0","Windows","10.0","1496","<p><strong>Which of the following objects or statements do you have a positive or negative feeling towards? </strong></p><p><strong> (1 = ""Very negative"" to 7 = ""Very positive"") </strong></p>","0",""
"","","","","","survey-likert","142","470636","0.0-15.0","35","1","2023-06-16 16:56:11","846205d480aaa49f22c83d5c8cececc8","121.91.230.251","Mozilla/5.0 (Windows NT 10.0; Win64; x64) AppleWebKit/537.36 (KHTML, like Gecko) Chrome/115.0.0.0 Safari/537.36","WebKit","Chrome","115.0.0.0","Windows","10.0","27517","","{""sdo10"":6,""sdo1"":5,""sdo13"":5,""sdo6"":4,""sdo14"":6,""sdo5"":4,""sdo15"":6,""sdo2"":5,""sdo8"":4,""sdo3"":6,""sdo16"":4,""sdo11"":6,""sdo7"":6,""sdo9"":5,""sdo12"":6,""sdo4"":5}","[9,0,12,5,13,4,14,1,7,2,15,10,6,8,11,3]"
"","","","","","html-button-response","143","471978","0.0-16.0","35","1","2023-06-16 16:56:11","846205d480aaa49f22c83d5c8cececc8","121.91.230.251","Mozilla/5.0 (Windows NT 10.0; Win64; x64) AppleWebKit/537.36 (KHTML, like Gecko) Chrome/115.0.0.0 Safari/537.36","WebKit","Chrome","115.0.0.0","Windows","10.0","1335","<p><strong>Please indicate the extent you agree with the following statements.</strong></p><strong><p> (1 = ""Strongly Disagree"" to 5 = ""Srongly Agree"") </strong></p>","0",""
"","","","","","survey-likert","144","491756","0.0-17.0","35","1","2023-06-16 16:56:11","846205d480aaa49f22c83d5c8cececc8","121.91.230.251","Mozilla/5.0 (Windows NT 10.0; Win64; x64) AppleWebKit/537.36 (KHTML, like Gecko) Chrome/115.0.0.0 Safari/537.36","WebKit","Chrome","115.0.0.0","Windows","10.0","19770","","{""caring1"":4,""liking1"":4,""caring2"":3,""protection1"":3,""liking2"":4,""caring3"":3,""protection2"":3,""liking3"":2,""protection3"":4,""caring4"":2,""liking4"":4,""protection4"":3,""caring5"":4,""liking5"":3,""protection5"":3}","[0,1,2,3,4,5,6,7,8,9,10,11,12,13,14]"
"","","","","","html-button-response","145","497225","0.0-18.0","35","1","2023-06-16 16:56:11","846205d480aaa49f22c83d5c8cececc8","121.91.230.251","Mozilla/5.0 (Windows NT 10.0; Win64; x64) AppleWebKit/537.36 (KHTML, like Gecko) Chrome/115.0.0.0 Safari/537.36","WebKit","Chrome","115.0.0.0","Windows","10.0","5462","<p><strong>Please imagine spercific situations involving children below, and rate the amount of tenderness you would feel in each situation. </strong></p><p><strong> (Ternderness is ""a warm, gentle feeling of sympathetic affection."") </strong></p><strong><p> (1 = ""No tenderness at all"" to 5 = ""A lot of tenderness"") </strong></p>","0",""
"","","","","","survey-likert","146","511363","0.0-19.0","35","1","2023-06-16 16:56:11","846205d480aaa49f22c83d5c8cececc8","121.91.230.251","Mozilla/5.0 (Windows NT 10.0; Win64; x64) AppleWebKit/537.36 (KHTML, like Gecko) Chrome/115.0.0.0 Safari/537.36","WebKit","Chrome","115.0.0.0","Windows","10.0","14131","","{""tenderness-positive1"":4,""tenderness-negative1"":3,""tenderness-negative2"":4,""tenderness-positive2"":2,""tenderness-positive3"":4,""tenderness-negative3"":4,""tenderness-positive4"":3,""tendereness-negative4"":0,""tendernness-negative5"":0,""tenderness-positive5"":3}","[0,1,2,3,4,5,6,7,8,9]"
"","","","","","survey-multi-choice","147","516667","0.0-20.0","35","1","2023-06-16 16:56:11","846205d480aaa49f22c83d5c8cececc8","121.91.230.251","Mozilla/5.0 (Windows NT 10.0; Win64; x64) AppleWebKit/537.36 (KHTML, like Gecko) Chrome/115.0.0.0 Safari/537.36","WebKit","Chrome","115.0.0.0","Windows","10.0","5296","","{""Attention2"":""Other""}","[0]"
"","","","","","html-button-response","148","518186","0.0-21.0","35","1","2023-06-16 16:56:11","846205d480aaa49f22c83d5c8cececc8","121.91.230.251","Mozilla/5.0 (Windows NT 10.0; Win64; x64) AppleWebKit/537.36 (KHTML, like Gecko) Chrome/115.0.0.0 Safari/537.36","WebKit","Chrome","115.0.0.0","Windows","10.0","1511","<p><strong>Please indicate the extent you agree with the following statements.</strong></p>","0",""
"","","","","","survey-likert","149","542598","0.0-22.0","35","1","2023-06-16 16:56:11","846205d480aaa49f22c83d5c8cececc8","121.91.230.251","Mozilla/5.0 (Windows NT 10.0; Win64; x64) AppleWebKit/537.36 (KHTML, like Gecko) Chrome/115.0.0.0 Safari/537.36","WebKit","Chrome","115.0.0.0","Windows","10.0","24404","","{""Patri8"":0,""Patri3"":0,""Patri11"":4,""Nation1"":4,""Nation8"":3,""Patri5"":3,""Patri1"":2,""Nation6"":4,""Nation5"":4,""Patri4"":4,""Patri9"":2,""Nation7"":3,""Patri7"":4,""Nation2"":3,""Patri6"":4,""Patri2"":3,""Nation3"":4,""Nation4"":4,""Patri12"":4,""Patri10"":2}","[7,2,10,12,19,4,0,17,16,3,8,18,6,13,5,1,14,15,11,9]"
"","","","","","html-button-response","150","558831","0.0-23.0","35","1","2023-06-16 16:56:11","846205d480aaa49f22c83d5c8cececc8","121.91.230.251","Mozilla/5.0 (Windows NT 10.0; Win64; x64) AppleWebKit/537.36 (KHTML, like Gecko) Chrome/115.0.0.0 Safari/537.36","WebKit","Chrome","115.0.0.0","Windows","10.0","16224","<p><strong>Please indicate the extent you agree with the following statements. </p><p>(1 = ""never or definitely no"" and 9 = ""always or definitely yes"".)</strong></p>","0",""
"","","","","","survey-likert","151","600796","0.0-24.0","35","1","2023-06-16 16:56:11","846205d480aaa49f22c83d5c8cececc8","121.91.230.251","Mozilla/5.0 (Windows NT 10.0; Win64; x64) AppleWebKit/537.36 (KHTML, like Gecko) Chrome/115.0.0.0 Safari/537.36","WebKit","Chrome","115.0.0.0","Windows","10.0","41956","","{""vc2"":5,""hi4"":6,""hc1"":7,""hc3"":7,""vi4"":8,""vc3"":7,""Robot2"":6,""vi3"":0,""hc2"":5,""hi1"":5,""vi1"":5,""vc4"":3,""vc1"":5,""hi3"":6,""vi2"":6,""hc4"":4,""hi2"":4}","[14,3,9,11,8,15,7,6,10,0,4,16,13,2,5,12,1]"
"","","","","","survey-text","152","612304","0.0-25.0","35","1","2023-06-16 16:56:11","846205d480aaa49f22c83d5c8cececc8","121.91.230.251","Mozilla/5.0 (Windows NT 10.0; Win64; x64) AppleWebKit/537.36 (KHTML, like Gecko) Chrome/115.0.0.0 Safari/537.36","WebKit","Chrome","115.0.0.0","Windows","10.0","11491","","{""ID"":""A1M8K3X5V9GKTF"",""Comments"":""GOOD SURVEY""}",""
"","","","","","html-button-response","153","644840","0.0-26.0","35","1","2023-06-16 16:56:11","846205d480aaa49f22c83d5c8cececc8","121.91.230.251","Mozilla/5.0 (Windows NT 10.0; Win64; x64) AppleWebKit/537.36 (KHTML, like Gecko) Chrome/115.0.0.0 Safari/537.36","WebKit","Chrome","115.0.0.0","Windows","10.0","32529","<p><strong>Congratulations! </strong> Your have finished all the survey. Thank you for your participation!</p><p><strong>Here is your complete token:</strong></p>lcdi7n5ds3hxcm089pnfzc58<p></p><p><strong>Please copy it to the mTurk page.</strong></p>","0",""
