"success","timeout","failed_images","failed_audio","failed_video","trial_type","trial_index","time_elapsed","internal_node_id","run_id","condition","recorded_at","source_code_version","ip","user_agent","device","browser","browser_version","platform","platform_version","rt","stimulus","response","question_order"
"true","false","[]","[]","[]","preload","0","411","0.0-0.0","39","1","2023-06-16 17:06:03","846205d480aaa49f22c83d5c8cececc8","207.135.205.91","Mozilla/5.0 (Windows NT 6.3; WOW64) AppleWebKit/537.36 (KHTML, like Gecko) Chrome/109.0.0.0 Safari/537.36","WebKit","Chrome","109.0.0.0","Windows","6.3","","","",""
"true","","","","","fullscreen","1","9898","0.0-1.0","39","1","2023-06-16 17:06:03","846205d480aaa49f22c83d5c8cececc8","207.135.205.91","Mozilla/5.0 (Windows NT 6.3; WOW64) AppleWebKit/537.36 (KHTML, like Gecko) Chrome/109.0.0.0 Safari/537.36","WebKit","Chrome","109.0.0.0","Windows","6.3","","","",""
"","","","","","html-button-response","2","12458","0.0-2.0","39","1","2023-06-16 17:06:03","846205d480aaa49f22c83d5c8cececc8","207.135.205.91","Mozilla/5.0 (Windows NT 6.3; WOW64) AppleWebKit/537.36 (KHTML, like Gecko) Chrome/109.0.0.0 Safari/537.36","WebKit","Chrome","109.0.0.0","Windows","6.3","2557","<p ><strong>Welcome to the experiment!</strong></p><p ><strong>In the first task, please imagine:</strong></p><p>Your country is involved in a military conflict with another country.</p><p>You are the commander of your army and must make decisions in the conflict.</p><p>Specifically, as the military commander, you must decide whether to launch a missile to strike enemy.</p><p>You will face a series of scenarios. Please read each scenario carefully and make a decision.</p><p>The task will take around 10 minutes to complete.</p><p><strong>Please pay your attention during the experiment.</strong></p>","0",""
"","","","","","html-keyboard-response","3","13466","0.0-3.0-0.0","39","1","2023-06-16 17:06:03","846205d480aaa49f22c83d5c8cececc8","207.135.205.91","Mozilla/5.0 (Windows NT 6.3; WOW64) AppleWebKit/537.36 (KHTML, like Gecko) Chrome/109.0.0.0 Safari/537.36","WebKit","Chrome","109.0.0.0","Windows","6.3","null","<div style=""font-size:60px;"">+</div>","null",""
"","","","","","html-button-response","4","53379","0.0-3.0-1.0","39","1","2023-06-16 17:06:03","846205d480aaa49f22c83d5c8cececc8","207.135.205.91","Mozilla/5.0 (Windows NT 6.3; WOW64) AppleWebKit/537.36 (KHTML, like Gecko) Chrome/109.0.0.0 Safari/537.36","WebKit","Chrome","109.0.0.0","Windows","6.3","39910","<p>As the military commander, you could choose to launch a missile to kill <strong>4 enemy soldiers</strong> , but would accidentally kill <strong>1 enemy civilian</strong> nearby.</p> <p>The photo of the <strong>enemy civilian</strong> is shown below.</p> <p></p> <img src='stimuli/faces/PCM3.jpg', style='max-width: 30%;'> </img> <p><strong>Would you launch the weapon?</strong></p>","0",""
"","","","","","html-keyboard-response","5","54387","0.0-3.0-0.1","39","1","2023-06-16 17:06:03","846205d480aaa49f22c83d5c8cececc8","207.135.205.91","Mozilla/5.0 (Windows NT 6.3; WOW64) AppleWebKit/537.36 (KHTML, like Gecko) Chrome/109.0.0.0 Safari/537.36","WebKit","Chrome","109.0.0.0","Windows","6.3","null","<div style=""font-size:60px;"">+</div>","null",""
"","","","","","html-button-response","6","695221","0.0-3.0-1.1","39","1","2023-06-16 17:06:03","846205d480aaa49f22c83d5c8cececc8","207.135.205.91","Mozilla/5.0 (Windows NT 6.3; WOW64) AppleWebKit/537.36 (KHTML, like Gecko) Chrome/109.0.0.0 Safari/537.36","WebKit","Chrome","109.0.0.0","Windows","6.3","640832","<p>As the military commander, you could choose to launch a missile to kill <strong>10 enemy soldiers</strong> , but would accidentally kill <strong>1 enemy civilian</strong> nearby.</p> <p>The photo of the <strong>enemy civilian</strong> is shown below.</p> <p></p> <img src='stimuli/faces/PCF1.jpg', style='max-width: 30%;'> </img> <p><strong>Would you launch the weapon?</strong></p>","1",""
"","","","","","html-keyboard-response","7","696227","0.0-3.0-0.2","39","1","2023-06-16 17:06:03","846205d480aaa49f22c83d5c8cececc8","207.135.205.91","Mozilla/5.0 (Windows NT 6.3; WOW64) AppleWebKit/537.36 (KHTML, like Gecko) Chrome/109.0.0.0 Safari/537.36","WebKit","Chrome","109.0.0.0","Windows","6.3","null","<div style=""font-size:60px;"">+</div>","null",""
"","","","","","html-button-response","8","698821","0.0-3.0-1.2","39","1","2023-06-16 17:06:03","846205d480aaa49f22c83d5c8cececc8","207.135.205.91","Mozilla/5.0 (Windows NT 6.3; WOW64) AppleWebKit/537.36 (KHTML, like Gecko) Chrome/109.0.0.0 Safari/537.36","WebKit","Chrome","109.0.0.0","Windows","6.3","2591","<p>As the military commander, you could choose to launch a missile to kill <strong>9 enemy soldiers</strong> , but would accidentally kill <strong>1 enemy tree</strong> nearby.</p> <p>The photo of the <strong>enemy tree</strong> is shown below.</p> <p></p> <img src='stimuli/tree/15.png', style='max-width: 30%;'> </img> <p><strong>Would you launch the weapon?</strong></p>","0",""
"","","","","","html-keyboard-response","9","699835","0.0-3.0-0.3","39","1","2023-06-16 17:06:03","846205d480aaa49f22c83d5c8cececc8","207.135.205.91","Mozilla/5.0 (Windows NT 6.3; WOW64) AppleWebKit/537.36 (KHTML, like Gecko) Chrome/109.0.0.0 Safari/537.36","WebKit","Chrome","109.0.0.0","Windows","6.3","null","<div style=""font-size:60px;"">+</div>","null",""
"","","","","","html-button-response","10","704925","0.0-3.0-1.3","39","1","2023-06-16 17:06:03","846205d480aaa49f22c83d5c8cececc8","207.135.205.91","Mozilla/5.0 (Windows NT 6.3; WOW64) AppleWebKit/537.36 (KHTML, like Gecko) Chrome/109.0.0.0 Safari/537.36","WebKit","Chrome","109.0.0.0","Windows","6.3","5087","<p>As the military commander, you could choose to launch a missile to kill <strong>10 enemy soldiers</strong> , but would accidentally kill <strong>1 enemy civilian</strong> nearby.</p> <p>The photo of the <strong>enemy civilian</strong> is shown below.</p> <p></p> <img src='stimuli/faces/PCM7.jpg', style='max-width: 30%;'> </img> <p><strong>Would you launch the weapon?</strong></p>","1",""
"","","","","","html-keyboard-response","11","705935","0.0-3.0-0.4","39","1","2023-06-16 17:06:03","846205d480aaa49f22c83d5c8cececc8","207.135.205.91","Mozilla/5.0 (Windows NT 6.3; WOW64) AppleWebKit/537.36 (KHTML, like Gecko) Chrome/109.0.0.0 Safari/537.36","WebKit","Chrome","109.0.0.0","Windows","6.3","null","<div style=""font-size:60px;"">+</div>","null",""
"","","","","","html-button-response","12","709004","0.0-3.0-1.4","39","1","2023-06-16 17:06:03","846205d480aaa49f22c83d5c8cececc8","207.135.205.91","Mozilla/5.0 (Windows NT 6.3; WOW64) AppleWebKit/537.36 (KHTML, like Gecko) Chrome/109.0.0.0 Safari/537.36","WebKit","Chrome","109.0.0.0","Windows","6.3","3066","<p>As the military commander, you could choose to launch a missile to kill <strong>7 enemy soldiers</strong> , but would accidentally kill <strong>1 enemy civilian</strong> nearby.</p> <p>The photo of the <strong>enemy civilian</strong> is shown below.</p> <p></p> <img src='stimuli/faces/PCM2.jpg', style='max-width: 30%;'> </img> <p><strong>Would you launch the weapon?</strong></p>","1",""
"","","","","","html-keyboard-response","13","710011","0.0-3.0-0.5","39","1","2023-06-16 17:06:03","846205d480aaa49f22c83d5c8cececc8","207.135.205.91","Mozilla/5.0 (Windows NT 6.3; WOW64) AppleWebKit/537.36 (KHTML, like Gecko) Chrome/109.0.0.0 Safari/537.36","WebKit","Chrome","109.0.0.0","Windows","6.3","null","<div style=""font-size:60px;"">+</div>","null",""
"","","","","","html-button-response","14","713829","0.0-3.0-1.5","39","1","2023-06-16 17:06:03","846205d480aaa49f22c83d5c8cececc8","207.135.205.91","Mozilla/5.0 (Windows NT 6.3; WOW64) AppleWebKit/537.36 (KHTML, like Gecko) Chrome/109.0.0.0 Safari/537.36","WebKit","Chrome","109.0.0.0","Windows","6.3","3815","<p>As the military commander, you could choose to launch a missile to kill <strong>1 enemy soldier</strong> , but would accidentally kill <strong>1 enemy civilian</strong> nearby.</p> <p>The photo of the <strong>enemy civilian</strong> is shown below.</p> <p></p> <img src='stimuli/faces/PCF4.jpg', style='max-width: 30%;'> </img> <p><strong>Would you launch the weapon?</strong></p>","1",""
"","","","","","html-keyboard-response","15","714834","0.0-3.0-0.6","39","1","2023-06-16 17:06:03","846205d480aaa49f22c83d5c8cececc8","207.135.205.91","Mozilla/5.0 (Windows NT 6.3; WOW64) AppleWebKit/537.36 (KHTML, like Gecko) Chrome/109.0.0.0 Safari/537.36","WebKit","Chrome","109.0.0.0","Windows","6.3","null","<div style=""font-size:60px;"">+</div>","null",""
"","","","","","html-button-response","16","717292","0.0-3.0-1.6","39","1","2023-06-16 17:06:03","846205d480aaa49f22c83d5c8cececc8","207.135.205.91","Mozilla/5.0 (Windows NT 6.3; WOW64) AppleWebKit/537.36 (KHTML, like Gecko) Chrome/109.0.0.0 Safari/537.36","WebKit","Chrome","109.0.0.0","Windows","6.3","2456","<p>As the military commander, you could choose to launch a missile to kill <strong>10 enemy soldiers</strong> , but would accidentally kill <strong>1 enemy civilian</strong> nearby.</p> <p>The photo of the <strong>enemy civilian</strong> is shown below.</p> <p></p> <img src='stimuli/faces/PCM3.jpg', style='max-width: 30%;'> </img> <p><strong>Would you launch the weapon?</strong></p>","1",""
"","","","","","html-keyboard-response","17","718298","0.0-3.0-0.7","39","1","2023-06-16 17:06:03","846205d480aaa49f22c83d5c8cececc8","207.135.205.91","Mozilla/5.0 (Windows NT 6.3; WOW64) AppleWebKit/537.36 (KHTML, like Gecko) Chrome/109.0.0.0 Safari/537.36","WebKit","Chrome","109.0.0.0","Windows","6.3","null","<div style=""font-size:60px;"">+</div>","null",""
"","","","","","html-button-response","18","725173","0.0-3.0-1.7","39","1","2023-06-16 17:06:03","846205d480aaa49f22c83d5c8cececc8","207.135.205.91","Mozilla/5.0 (Windows NT 6.3; WOW64) AppleWebKit/537.36 (KHTML, like Gecko) Chrome/109.0.0.0 Safari/537.36","WebKit","Chrome","109.0.0.0","Windows","6.3","6872","<p>As the military commander, you could choose to launch a missile to kill <strong>2 enemy soldiers</strong> , but would accidentally kill <strong>1 enemy tree</strong> nearby.</p> <p>The photo of the <strong>enemy tree</strong> is shown below.</p> <p></p> <img src='stimuli/tree/2.png', style='max-width: 30%;'> </img> <p><strong>Would you launch the weapon?</strong></p>","0",""
"","","","","","html-keyboard-response","19","726180","0.0-3.0-0.8","39","1","2023-06-16 17:06:03","846205d480aaa49f22c83d5c8cececc8","207.135.205.91","Mozilla/5.0 (Windows NT 6.3; WOW64) AppleWebKit/537.36 (KHTML, like Gecko) Chrome/109.0.0.0 Safari/537.36","WebKit","Chrome","109.0.0.0","Windows","6.3","null","<div style=""font-size:60px;"">+</div>","null",""
"","","","","","html-button-response","20","729589","0.0-3.0-1.8","39","1","2023-06-16 17:06:03","846205d480aaa49f22c83d5c8cececc8","207.135.205.91","Mozilla/5.0 (Windows NT 6.3; WOW64) AppleWebKit/537.36 (KHTML, like Gecko) Chrome/109.0.0.0 Safari/537.36","WebKit","Chrome","109.0.0.0","Windows","6.3","3406","<p>As the military commander, you could choose to launch a missile to kill <strong>9 enemy soldiers</strong> , but would accidentally kill <strong>1 enemy civilian</strong> nearby.</p> <p>The photo of the <strong>enemy civilian</strong> is shown below.</p> <p></p> <img src='stimuli/faces/PCM1.jpg', style='max-width: 30%;'> </img> <p><strong>Would you launch the weapon?</strong></p>","1",""
"","","","","","html-keyboard-response","21","730602","0.0-3.0-0.9","39","1","2023-06-16 17:06:03","846205d480aaa49f22c83d5c8cececc8","207.135.205.91","Mozilla/5.0 (Windows NT 6.3; WOW64) AppleWebKit/537.36 (KHTML, like Gecko) Chrome/109.0.0.0 Safari/537.36","WebKit","Chrome","109.0.0.0","Windows","6.3","null","<div style=""font-size:60px;"">+</div>","null",""
"","","","","","html-button-response","22","733429","0.0-3.0-1.9","39","1","2023-06-16 17:06:03","846205d480aaa49f22c83d5c8cececc8","207.135.205.91","Mozilla/5.0 (Windows NT 6.3; WOW64) AppleWebKit/537.36 (KHTML, like Gecko) Chrome/109.0.0.0 Safari/537.36","WebKit","Chrome","109.0.0.0","Windows","6.3","2824","<p>As the military commander, you could choose to launch a missile to kill <strong>1 enemy soldier</strong> , but would accidentally kill <strong>1 enemy civilian</strong> nearby.</p> <p>The photo of the <strong>enemy civilian</strong> is shown below.</p> <p></p> <img src='stimuli/faces/PCM1.jpg', style='max-width: 30%;'> </img> <p><strong>Would you launch the weapon?</strong></p>","1",""
"","","","","","html-keyboard-response","23","734434","0.0-3.0-0.10","39","1","2023-06-16 17:06:03","846205d480aaa49f22c83d5c8cececc8","207.135.205.91","Mozilla/5.0 (Windows NT 6.3; WOW64) AppleWebKit/537.36 (KHTML, like Gecko) Chrome/109.0.0.0 Safari/537.36","WebKit","Chrome","109.0.0.0","Windows","6.3","null","<div style=""font-size:60px;"">+</div>","null",""
"","","","","","html-button-response","24","737902","0.0-3.0-1.10","39","1","2023-06-16 17:06:03","846205d480aaa49f22c83d5c8cececc8","207.135.205.91","Mozilla/5.0 (Windows NT 6.3; WOW64) AppleWebKit/537.36 (KHTML, like Gecko) Chrome/109.0.0.0 Safari/537.36","WebKit","Chrome","109.0.0.0","Windows","6.3","3465","<p>As the military commander, you could choose to launch a missile to kill <strong>1 enemy soldier</strong> , but would accidentally kill <strong>1 enemy tree</strong> nearby.</p> <p>The photo of the <strong>enemy tree</strong> is shown below.</p> <p></p> <img src='stimuli/tree/13.png', style='max-width: 30%;'> </img> <p><strong>Would you launch the weapon?</strong></p>","0",""
"","","","","","html-keyboard-response","25","738907","0.0-3.0-0.11","39","1","2023-06-16 17:06:03","846205d480aaa49f22c83d5c8cececc8","207.135.205.91","Mozilla/5.0 (Windows NT 6.3; WOW64) AppleWebKit/537.36 (KHTML, like Gecko) Chrome/109.0.0.0 Safari/537.36","WebKit","Chrome","109.0.0.0","Windows","6.3","null","<div style=""font-size:60px;"">+</div>","null",""
"","","","","","html-button-response","26","741077","0.0-3.0-1.11","39","1","2023-06-16 17:06:03","846205d480aaa49f22c83d5c8cececc8","207.135.205.91","Mozilla/5.0 (Windows NT 6.3; WOW64) AppleWebKit/537.36 (KHTML, like Gecko) Chrome/109.0.0.0 Safari/537.36","WebKit","Chrome","109.0.0.0","Windows","6.3","2167","<p>As the military commander, you could choose to launch a missile to kill <strong>2 enemy soldiers</strong> , but would accidentally kill <strong>1 enemy tree</strong> nearby.</p> <p>The photo of the <strong>enemy tree</strong> is shown below.</p> <p></p> <img src='stimuli/tree/12.png', style='max-width: 30%;'> </img> <p><strong>Would you launch the weapon?</strong></p>","0",""
"","","","","","html-keyboard-response","27","742090","0.0-3.0-0.12","39","1","2023-06-16 17:06:03","846205d480aaa49f22c83d5c8cececc8","207.135.205.91","Mozilla/5.0 (Windows NT 6.3; WOW64) AppleWebKit/537.36 (KHTML, like Gecko) Chrome/109.0.0.0 Safari/537.36","WebKit","Chrome","109.0.0.0","Windows","6.3","null","<div style=""font-size:60px;"">+</div>","null",""
"","","","","","html-button-response","28","1112587","0.0-3.0-1.12","39","1","2023-06-16 17:06:03","846205d480aaa49f22c83d5c8cececc8","207.135.205.91","Mozilla/5.0 (Windows NT 6.3; WOW64) AppleWebKit/537.36 (KHTML, like Gecko) Chrome/109.0.0.0 Safari/537.36","WebKit","Chrome","109.0.0.0","Windows","6.3","370495","<p>As the military commander, you could choose to launch a missile to kill <strong>6 enemy soldiers</strong> , but would accidentally kill <strong>1 enemy tree</strong> nearby.</p> <p>The photo of the <strong>enemy tree</strong> is shown below.</p> <p></p> <img src='stimuli/tree/1.png', style='max-width: 30%;'> </img> <p><strong>Would you launch the weapon?</strong></p>","0",""
"","","","","","html-keyboard-response","29","1113594","0.0-3.0-0.13","39","1","2023-06-16 17:06:03","846205d480aaa49f22c83d5c8cececc8","207.135.205.91","Mozilla/5.0 (Windows NT 6.3; WOW64) AppleWebKit/537.36 (KHTML, like Gecko) Chrome/109.0.0.0 Safari/537.36","WebKit","Chrome","109.0.0.0","Windows","6.3","null","<div style=""font-size:60px;"">+</div>","null",""
"","","","","","html-button-response","30","1121955","0.0-3.0-1.13","39","1","2023-06-16 17:06:03","846205d480aaa49f22c83d5c8cececc8","207.135.205.91","Mozilla/5.0 (Windows NT 6.3; WOW64) AppleWebKit/537.36 (KHTML, like Gecko) Chrome/109.0.0.0 Safari/537.36","WebKit","Chrome","109.0.0.0","Windows","6.3","8359","<p>As the military commander, you could choose to launch a missile to kill <strong>2 enemy soldiers</strong> , but would accidentally kill <strong>1 enemy civilian</strong> nearby.</p> <p>The photo of the <strong>enemy civilian</strong> is shown below.</p> <p></p> <img src='stimuli/faces/PCM4.jpg', style='max-width: 30%;'> </img> <p><strong>Would you launch the weapon?</strong></p>","1",""
"","","","","","html-keyboard-response","31","1122962","0.0-3.0-0.14","39","1","2023-06-16 17:06:03","846205d480aaa49f22c83d5c8cececc8","207.135.205.91","Mozilla/5.0 (Windows NT 6.3; WOW64) AppleWebKit/537.36 (KHTML, like Gecko) Chrome/109.0.0.0 Safari/537.36","WebKit","Chrome","109.0.0.0","Windows","6.3","null","<div style=""font-size:60px;"">+</div>","null",""
"","","","","","html-button-response","32","1125467","0.0-3.0-1.14","39","1","2023-06-16 17:06:03","846205d480aaa49f22c83d5c8cececc8","207.135.205.91","Mozilla/5.0 (Windows NT 6.3; WOW64) AppleWebKit/537.36 (KHTML, like Gecko) Chrome/109.0.0.0 Safari/537.36","WebKit","Chrome","109.0.0.0","Windows","6.3","2502","<p>As the military commander, you could choose to launch a missile to kill <strong>2 enemy soldiers</strong> , but would accidentally kill <strong>1 enemy tree</strong> nearby.</p> <p>The photo of the <strong>enemy tree</strong> is shown below.</p> <p></p> <img src='stimuli/tree/14.png', style='max-width: 30%;'> </img> <p><strong>Would you launch the weapon?</strong></p>","0",""
"","","","","","html-keyboard-response","33","1126475","0.0-3.0-0.15","39","1","2023-06-16 17:06:03","846205d480aaa49f22c83d5c8cececc8","207.135.205.91","Mozilla/5.0 (Windows NT 6.3; WOW64) AppleWebKit/537.36 (KHTML, like Gecko) Chrome/109.0.0.0 Safari/537.36","WebKit","Chrome","109.0.0.0","Windows","6.3","null","<div style=""font-size:60px;"">+</div>","null",""
"","","","","","html-button-response","34","1130621","0.0-3.0-1.15","39","1","2023-06-16 17:06:03","846205d480aaa49f22c83d5c8cececc8","207.135.205.91","Mozilla/5.0 (Windows NT 6.3; WOW64) AppleWebKit/537.36 (KHTML, like Gecko) Chrome/109.0.0.0 Safari/537.36","WebKit","Chrome","109.0.0.0","Windows","6.3","4143","<p>As the military commander, you could choose to launch a missile to kill <strong>5 enemy soldiers</strong> , but would accidentally kill <strong>1 enemy tree</strong> nearby.</p> <p>The photo of the <strong>enemy tree</strong> is shown below.</p> <p></p> <img src='stimuli/tree/15.png', style='max-width: 30%;'> </img> <p><strong>Would you launch the weapon?</strong></p>","0",""
"","","","","","html-keyboard-response","35","1131627","0.0-3.0-0.16","39","1","2023-06-16 17:06:03","846205d480aaa49f22c83d5c8cececc8","207.135.205.91","Mozilla/5.0 (Windows NT 6.3; WOW64) AppleWebKit/537.36 (KHTML, like Gecko) Chrome/109.0.0.0 Safari/537.36","WebKit","Chrome","109.0.0.0","Windows","6.3","null","<div style=""font-size:60px;"">+</div>","null",""
"","","","","","html-button-response","36","1133717","0.0-3.0-1.16","39","1","2023-06-16 17:06:03","846205d480aaa49f22c83d5c8cececc8","207.135.205.91","Mozilla/5.0 (Windows NT 6.3; WOW64) AppleWebKit/537.36 (KHTML, like Gecko) Chrome/109.0.0.0 Safari/537.36","WebKit","Chrome","109.0.0.0","Windows","6.3","2088","<p>As the military commander, you could choose to launch a missile to kill <strong>1 enemy soldier</strong> , but would accidentally kill <strong>1 enemy tree</strong> nearby.</p> <p>The photo of the <strong>enemy tree</strong> is shown below.</p> <p></p> <img src='stimuli/tree/16.png', style='max-width: 30%;'> </img> <p><strong>Would you launch the weapon?</strong></p>","0",""
"","","","","","html-keyboard-response","37","1134723","0.0-3.0-0.17","39","1","2023-06-16 17:06:03","846205d480aaa49f22c83d5c8cececc8","207.135.205.91","Mozilla/5.0 (Windows NT 6.3; WOW64) AppleWebKit/537.36 (KHTML, like Gecko) Chrome/109.0.0.0 Safari/537.36","WebKit","Chrome","109.0.0.0","Windows","6.3","null","<div style=""font-size:60px;"">+</div>","null",""
"","","","","","html-button-response","38","1137116","0.0-3.0-1.17","39","1","2023-06-16 17:06:03","846205d480aaa49f22c83d5c8cececc8","207.135.205.91","Mozilla/5.0 (Windows NT 6.3; WOW64) AppleWebKit/537.36 (KHTML, like Gecko) Chrome/109.0.0.0 Safari/537.36","WebKit","Chrome","109.0.0.0","Windows","6.3","2390","<p>As the military commander, you could choose to launch a missile to kill <strong>4 enemy soldiers</strong> , but would accidentally kill <strong>1 enemy tree</strong> nearby.</p> <p>The photo of the <strong>enemy tree</strong> is shown below.</p> <p></p> <img src='stimuli/tree/1.png', style='max-width: 30%;'> </img> <p><strong>Would you launch the weapon?</strong></p>","0",""
"","","","","","html-keyboard-response","39","1138122","0.0-3.0-0.18","39","1","2023-06-16 17:06:03","846205d480aaa49f22c83d5c8cececc8","207.135.205.91","Mozilla/5.0 (Windows NT 6.3; WOW64) AppleWebKit/537.36 (KHTML, like Gecko) Chrome/109.0.0.0 Safari/537.36","WebKit","Chrome","109.0.0.0","Windows","6.3","null","<div style=""font-size:60px;"">+</div>","null",""
"","","","","","html-button-response","40","1140708","0.0-3.0-1.18","39","1","2023-06-16 17:06:03","846205d480aaa49f22c83d5c8cececc8","207.135.205.91","Mozilla/5.0 (Windows NT 6.3; WOW64) AppleWebKit/537.36 (KHTML, like Gecko) Chrome/109.0.0.0 Safari/537.36","WebKit","Chrome","109.0.0.0","Windows","6.3","2583","<p>As the military commander, you could choose to launch a missile to kill <strong>10 enemy soldiers</strong> , but would accidentally kill <strong>1 enemy civilian</strong> nearby.</p> <p>The photo of the <strong>enemy civilian</strong> is shown below.</p> <p></p> <img src='stimuli/faces/PCF2.jpg', style='max-width: 30%;'> </img> <p><strong>Would you launch the weapon?</strong></p>","1",""
"","","","","","html-keyboard-response","41","1141715","0.0-3.0-0.19","39","1","2023-06-16 17:06:03","846205d480aaa49f22c83d5c8cececc8","207.135.205.91","Mozilla/5.0 (Windows NT 6.3; WOW64) AppleWebKit/537.36 (KHTML, like Gecko) Chrome/109.0.0.0 Safari/537.36","WebKit","Chrome","109.0.0.0","Windows","6.3","null","<div style=""font-size:60px;"">+</div>","null",""
"","","","","","html-button-response","42","1144276","0.0-3.0-1.19","39","1","2023-06-16 17:06:03","846205d480aaa49f22c83d5c8cececc8","207.135.205.91","Mozilla/5.0 (Windows NT 6.3; WOW64) AppleWebKit/537.36 (KHTML, like Gecko) Chrome/109.0.0.0 Safari/537.36","WebKit","Chrome","109.0.0.0","Windows","6.3","2558","<p>As the military commander, you could choose to launch a missile to kill <strong>10 enemy soldiers</strong> , but would accidentally kill <strong>1 enemy civilian</strong> nearby.</p> <p>The photo of the <strong>enemy civilian</strong> is shown below.</p> <p></p> <img src='stimuli/faces/PCF6.jpg', style='max-width: 30%;'> </img> <p><strong>Would you launch the weapon?</strong></p>","0",""
"","","","","","html-keyboard-response","43","1145283","0.0-3.0-0.20","39","1","2023-06-16 17:06:03","846205d480aaa49f22c83d5c8cececc8","207.135.205.91","Mozilla/5.0 (Windows NT 6.3; WOW64) AppleWebKit/537.36 (KHTML, like Gecko) Chrome/109.0.0.0 Safari/537.36","WebKit","Chrome","109.0.0.0","Windows","6.3","null","<div style=""font-size:60px;"">+</div>","null",""
"","","","","","html-button-response","44","1146644","0.0-3.0-1.20","39","1","2023-06-16 17:06:03","846205d480aaa49f22c83d5c8cececc8","207.135.205.91","Mozilla/5.0 (Windows NT 6.3; WOW64) AppleWebKit/537.36 (KHTML, like Gecko) Chrome/109.0.0.0 Safari/537.36","WebKit","Chrome","109.0.0.0","Windows","6.3","1358","<p>As the military commander, you could choose to launch a missile to kill <strong>8 enemy soldiers</strong> , but would accidentally kill <strong>1 enemy civilian</strong> nearby.</p> <p>The photo of the <strong>enemy civilian</strong> is shown below.</p> <p></p> <img src='stimuli/faces/PCF3.jpg', style='max-width: 30%;'> </img> <p><strong>Would you launch the weapon?</strong></p>","1",""
"","","","","","html-keyboard-response","45","1147650","0.0-3.0-0.21","39","1","2023-06-16 17:06:03","846205d480aaa49f22c83d5c8cececc8","207.135.205.91","Mozilla/5.0 (Windows NT 6.3; WOW64) AppleWebKit/537.36 (KHTML, like Gecko) Chrome/109.0.0.0 Safari/537.36","WebKit","Chrome","109.0.0.0","Windows","6.3","null","<div style=""font-size:60px;"">+</div>","null",""
"","","","","","html-button-response","46","1148996","0.0-3.0-1.21","39","1","2023-06-16 17:06:03","846205d480aaa49f22c83d5c8cececc8","207.135.205.91","Mozilla/5.0 (Windows NT 6.3; WOW64) AppleWebKit/537.36 (KHTML, like Gecko) Chrome/109.0.0.0 Safari/537.36","WebKit","Chrome","109.0.0.0","Windows","6.3","1343","<p>As the military commander, you could choose to launch a missile to kill <strong>3 enemy soldiers</strong> , but would accidentally kill <strong>1 enemy civilian</strong> nearby.</p> <p>The photo of the <strong>enemy civilian</strong> is shown below.</p> <p></p> <img src='stimuli/faces/PCM2.jpg', style='max-width: 30%;'> </img> <p><strong>Would you launch the weapon?</strong></p>","1",""
"","","","","","html-keyboard-response","47","1150002","0.0-3.0-0.22","39","1","2023-06-16 17:06:03","846205d480aaa49f22c83d5c8cececc8","207.135.205.91","Mozilla/5.0 (Windows NT 6.3; WOW64) AppleWebKit/537.36 (KHTML, like Gecko) Chrome/109.0.0.0 Safari/537.36","WebKit","Chrome","109.0.0.0","Windows","6.3","null","<div style=""font-size:60px;"">+</div>","null",""
"","","","","","html-button-response","48","1151468","0.0-3.0-1.22","39","1","2023-06-16 17:06:03","846205d480aaa49f22c83d5c8cececc8","207.135.205.91","Mozilla/5.0 (Windows NT 6.3; WOW64) AppleWebKit/537.36 (KHTML, like Gecko) Chrome/109.0.0.0 Safari/537.36","WebKit","Chrome","109.0.0.0","Windows","6.3","1463","<p>As the military commander, you could choose to launch a missile to kill <strong>4 enemy soldiers</strong> , but would accidentally kill <strong>1 enemy civilian</strong> nearby.</p> <p>The photo of the <strong>enemy civilian</strong> is shown below.</p> <p></p> <img src='stimuli/faces/PCM7.jpg', style='max-width: 30%;'> </img> <p><strong>Would you launch the weapon?</strong></p>","1",""
"","","","","","html-keyboard-response","49","1152475","0.0-3.0-0.23","39","1","2023-06-16 17:06:03","846205d480aaa49f22c83d5c8cececc8","207.135.205.91","Mozilla/5.0 (Windows NT 6.3; WOW64) AppleWebKit/537.36 (KHTML, like Gecko) Chrome/109.0.0.0 Safari/537.36","WebKit","Chrome","109.0.0.0","Windows","6.3","null","<div style=""font-size:60px;"">+</div>","null",""
"","","","","","html-button-response","50","1154140","0.0-3.0-1.23","39","1","2023-06-16 17:06:03","846205d480aaa49f22c83d5c8cececc8","207.135.205.91","Mozilla/5.0 (Windows NT 6.3; WOW64) AppleWebKit/537.36 (KHTML, like Gecko) Chrome/109.0.0.0 Safari/537.36","WebKit","Chrome","109.0.0.0","Windows","6.3","1662","<p>As the military commander, you could choose to launch a missile to kill <strong>9 enemy soldiers</strong> , but would accidentally kill <strong>1 enemy tree</strong> nearby.</p> <p>The photo of the <strong>enemy tree</strong> is shown below.</p> <p></p> <img src='stimuli/tree/2.png', style='max-width: 30%;'> </img> <p><strong>Would you launch the weapon?</strong></p>","0",""
"","","","","","html-keyboard-response","51","1155146","0.0-3.0-0.24","39","1","2023-06-16 17:06:03","846205d480aaa49f22c83d5c8cececc8","207.135.205.91","Mozilla/5.0 (Windows NT 6.3; WOW64) AppleWebKit/537.36 (KHTML, like Gecko) Chrome/109.0.0.0 Safari/537.36","WebKit","Chrome","109.0.0.0","Windows","6.3","null","<div style=""font-size:60px;"">+</div>","null",""
"","","","","","html-button-response","52","1157580","0.0-3.0-1.24","39","1","2023-06-16 17:06:03","846205d480aaa49f22c83d5c8cececc8","207.135.205.91","Mozilla/5.0 (Windows NT 6.3; WOW64) AppleWebKit/537.36 (KHTML, like Gecko) Chrome/109.0.0.0 Safari/537.36","WebKit","Chrome","109.0.0.0","Windows","6.3","2431","<p>As the military commander, you could choose to launch a missile to kill <strong>10 enemy soldiers</strong> , but would accidentally kill <strong>1 enemy civilian</strong> nearby.</p> <p>The photo of the <strong>enemy civilian</strong> is shown below.</p> <p></p> <img src='stimuli/faces/PCM6.jpg', style='max-width: 30%;'> </img> <p><strong>Would you launch the weapon?</strong></p>","1",""
"","","","","","html-keyboard-response","53","1158586","0.0-3.0-0.25","39","1","2023-06-16 17:06:03","846205d480aaa49f22c83d5c8cececc8","207.135.205.91","Mozilla/5.0 (Windows NT 6.3; WOW64) AppleWebKit/537.36 (KHTML, like Gecko) Chrome/109.0.0.0 Safari/537.36","WebKit","Chrome","109.0.0.0","Windows","6.3","null","<div style=""font-size:60px;"">+</div>","null",""
"","","","","","html-button-response","54","1160733","0.0-3.0-1.25","39","1","2023-06-16 17:06:03","846205d480aaa49f22c83d5c8cececc8","207.135.205.91","Mozilla/5.0 (Windows NT 6.3; WOW64) AppleWebKit/537.36 (KHTML, like Gecko) Chrome/109.0.0.0 Safari/537.36","WebKit","Chrome","109.0.0.0","Windows","6.3","2143","<p>As the military commander, you could choose to launch a missile to kill <strong>3 enemy soldiers</strong> , but would accidentally kill <strong>1 enemy civilian</strong> nearby.</p> <p>The photo of the <strong>enemy civilian</strong> is shown below.</p> <p></p> <img src='stimuli/faces/PCF3.jpg', style='max-width: 30%;'> </img> <p><strong>Would you launch the weapon?</strong></p>","1",""
"","","","","","html-keyboard-response","55","1161739","0.0-3.0-0.26","39","1","2023-06-16 17:06:03","846205d480aaa49f22c83d5c8cececc8","207.135.205.91","Mozilla/5.0 (Windows NT 6.3; WOW64) AppleWebKit/537.36 (KHTML, like Gecko) Chrome/109.0.0.0 Safari/537.36","WebKit","Chrome","109.0.0.0","Windows","6.3","null","<div style=""font-size:60px;"">+</div>","null",""
"","","","","","html-button-response","56","1164388","0.0-3.0-1.26","39","1","2023-06-16 17:06:03","846205d480aaa49f22c83d5c8cececc8","207.135.205.91","Mozilla/5.0 (Windows NT 6.3; WOW64) AppleWebKit/537.36 (KHTML, like Gecko) Chrome/109.0.0.0 Safari/537.36","WebKit","Chrome","109.0.0.0","Windows","6.3","2646","<p>As the military commander, you could choose to launch a missile to kill <strong>1 enemy soldier</strong> , but would accidentally kill <strong>1 enemy tree</strong> nearby.</p> <p>The photo of the <strong>enemy tree</strong> is shown below.</p> <p></p> <img src='stimuli/tree/7.png', style='max-width: 30%;'> </img> <p><strong>Would you launch the weapon?</strong></p>","0",""
"","","","","","html-keyboard-response","57","1165396","0.0-3.0-0.27","39","1","2023-06-16 17:06:03","846205d480aaa49f22c83d5c8cececc8","207.135.205.91","Mozilla/5.0 (Windows NT 6.3; WOW64) AppleWebKit/537.36 (KHTML, like Gecko) Chrome/109.0.0.0 Safari/537.36","WebKit","Chrome","109.0.0.0","Windows","6.3","null","<div style=""font-size:60px;"">+</div>","null",""
"","","","","","html-button-response","58","1266607","0.0-3.0-1.27","39","1","2023-06-16 17:06:03","846205d480aaa49f22c83d5c8cececc8","207.135.205.91","Mozilla/5.0 (Windows NT 6.3; WOW64) AppleWebKit/537.36 (KHTML, like Gecko) Chrome/109.0.0.0 Safari/537.36","WebKit","Chrome","109.0.0.0","Windows","6.3","101207","<p>As the military commander, you could choose to launch a missile to kill <strong>6 enemy soldiers</strong> , but would accidentally kill <strong>1 enemy civilian</strong> nearby.</p> <p>The photo of the <strong>enemy civilian</strong> is shown below.</p> <p></p> <img src='stimuli/faces/PCF5.jpg', style='max-width: 30%;'> </img> <p><strong>Would you launch the weapon?</strong></p>","1",""
"","","","","","html-keyboard-response","59","1267611","0.0-3.0-0.28","39","1","2023-06-16 17:06:03","846205d480aaa49f22c83d5c8cececc8","207.135.205.91","Mozilla/5.0 (Windows NT 6.3; WOW64) AppleWebKit/537.36 (KHTML, like Gecko) Chrome/109.0.0.0 Safari/537.36","WebKit","Chrome","109.0.0.0","Windows","6.3","null","<div style=""font-size:60px;"">+</div>","null",""
"","","","","","html-button-response","60","1269544","0.0-3.0-1.28","39","1","2023-06-16 17:06:03","846205d480aaa49f22c83d5c8cececc8","207.135.205.91","Mozilla/5.0 (Windows NT 6.3; WOW64) AppleWebKit/537.36 (KHTML, like Gecko) Chrome/109.0.0.0 Safari/537.36","WebKit","Chrome","109.0.0.0","Windows","6.3","1930","<p>As the military commander, you could choose to launch a missile to kill <strong>7 enemy soldiers</strong> , but would accidentally kill <strong>1 enemy tree</strong> nearby.</p> <p>The photo of the <strong>enemy tree</strong> is shown below.</p> <p></p> <img src='stimuli/tree/8.png', style='max-width: 30%;'> </img> <p><strong>Would you launch the weapon?</strong></p>","0",""
"","","","","","html-keyboard-response","61","1270547","0.0-3.0-0.29","39","1","2023-06-16 17:06:03","846205d480aaa49f22c83d5c8cececc8","207.135.205.91","Mozilla/5.0 (Windows NT 6.3; WOW64) AppleWebKit/537.36 (KHTML, like Gecko) Chrome/109.0.0.0 Safari/537.36","WebKit","Chrome","109.0.0.0","Windows","6.3","null","<div style=""font-size:60px;"">+</div>","null",""
"","","","","","html-button-response","62","1272335","0.0-3.0-1.29","39","1","2023-06-16 17:06:03","846205d480aaa49f22c83d5c8cececc8","207.135.205.91","Mozilla/5.0 (Windows NT 6.3; WOW64) AppleWebKit/537.36 (KHTML, like Gecko) Chrome/109.0.0.0 Safari/537.36","WebKit","Chrome","109.0.0.0","Windows","6.3","1786","<p>As the military commander, you could choose to launch a missile to kill <strong>9 enemy soldiers</strong> , but would accidentally kill <strong>1 enemy tree</strong> nearby.</p> <p>The photo of the <strong>enemy tree</strong> is shown below.</p> <p></p> <img src='stimuli/tree/13.png', style='max-width: 30%;'> </img> <p><strong>Would you launch the weapon?</strong></p>","0",""
"","","","","","html-keyboard-response","63","1273342","0.0-3.0-0.30","39","1","2023-06-16 17:06:03","846205d480aaa49f22c83d5c8cececc8","207.135.205.91","Mozilla/5.0 (Windows NT 6.3; WOW64) AppleWebKit/537.36 (KHTML, like Gecko) Chrome/109.0.0.0 Safari/537.36","WebKit","Chrome","109.0.0.0","Windows","6.3","null","<div style=""font-size:60px;"">+</div>","null",""
"","","","","","html-button-response","64","1275329","0.0-3.0-1.30","39","1","2023-06-16 17:06:03","846205d480aaa49f22c83d5c8cececc8","207.135.205.91","Mozilla/5.0 (Windows NT 6.3; WOW64) AppleWebKit/537.36 (KHTML, like Gecko) Chrome/109.0.0.0 Safari/537.36","WebKit","Chrome","109.0.0.0","Windows","6.3","1981","<p>As the military commander, you could choose to launch a missile to kill <strong>1 enemy soldier</strong> , but would accidentally kill <strong>1 enemy tree</strong> nearby.</p> <p>The photo of the <strong>enemy tree</strong> is shown below.</p> <p></p> <img src='stimuli/tree/3.png', style='max-width: 30%;'> </img> <p><strong>Would you launch the weapon?</strong></p>","0",""
"","","","","","html-keyboard-response","65","1276340","0.0-3.0-0.31","39","1","2023-06-16 17:06:03","846205d480aaa49f22c83d5c8cececc8","207.135.205.91","Mozilla/5.0 (Windows NT 6.3; WOW64) AppleWebKit/537.36 (KHTML, like Gecko) Chrome/109.0.0.0 Safari/537.36","WebKit","Chrome","109.0.0.0","Windows","6.3","null","<div style=""font-size:60px;"">+</div>","null",""
"","","","","","html-button-response","66","1277839","0.0-3.0-1.31","39","1","2023-06-16 17:06:03","846205d480aaa49f22c83d5c8cececc8","207.135.205.91","Mozilla/5.0 (Windows NT 6.3; WOW64) AppleWebKit/537.36 (KHTML, like Gecko) Chrome/109.0.0.0 Safari/537.36","WebKit","Chrome","109.0.0.0","Windows","6.3","1496","<p>As the military commander, you could choose to launch a missile to kill <strong>1 enemy soldier</strong> , but would accidentally kill <strong>1 enemy tree</strong> nearby.</p> <p>The photo of the <strong>enemy tree</strong> is shown below.</p> <p></p> <img src='stimuli/tree/9.png', style='max-width: 30%;'> </img> <p><strong>Would you launch the weapon?</strong></p>","0",""
"","","","","","html-keyboard-response","67","1278843","0.0-3.0-0.32","39","1","2023-06-16 17:06:03","846205d480aaa49f22c83d5c8cececc8","207.135.205.91","Mozilla/5.0 (Windows NT 6.3; WOW64) AppleWebKit/537.36 (KHTML, like Gecko) Chrome/109.0.0.0 Safari/537.36","WebKit","Chrome","109.0.0.0","Windows","6.3","null","<div style=""font-size:60px;"">+</div>","null",""
"","","","","","html-button-response","68","1280655","0.0-3.0-1.32","39","1","2023-06-16 17:06:03","846205d480aaa49f22c83d5c8cececc8","207.135.205.91","Mozilla/5.0 (Windows NT 6.3; WOW64) AppleWebKit/537.36 (KHTML, like Gecko) Chrome/109.0.0.0 Safari/537.36","WebKit","Chrome","109.0.0.0","Windows","6.3","1808","<p>As the military commander, you could choose to launch a missile to kill <strong>9 enemy soldiers</strong> , but would accidentally kill <strong>1 enemy tree</strong> nearby.</p> <p>The photo of the <strong>enemy tree</strong> is shown below.</p> <p></p> <img src='stimuli/tree/10.png', style='max-width: 30%;'> </img> <p><strong>Would you launch the weapon?</strong></p>","0",""
"","","","","","html-keyboard-response","69","1281660","0.0-3.0-0.33","39","1","2023-06-16 17:06:03","846205d480aaa49f22c83d5c8cececc8","207.135.205.91","Mozilla/5.0 (Windows NT 6.3; WOW64) AppleWebKit/537.36 (KHTML, like Gecko) Chrome/109.0.0.0 Safari/537.36","WebKit","Chrome","109.0.0.0","Windows","6.3","null","<div style=""font-size:60px;"">+</div>","null",""
"","","","","","html-button-response","70","1283567","0.0-3.0-1.33","39","1","2023-06-16 17:06:03","846205d480aaa49f22c83d5c8cececc8","207.135.205.91","Mozilla/5.0 (Windows NT 6.3; WOW64) AppleWebKit/537.36 (KHTML, like Gecko) Chrome/109.0.0.0 Safari/537.36","WebKit","Chrome","109.0.0.0","Windows","6.3","1903","<p>As the military commander, you could choose to launch a missile to kill <strong>9 enemy soldiers</strong> , but would accidentally kill <strong>1 enemy tree</strong> nearby.</p> <p>The photo of the <strong>enemy tree</strong> is shown below.</p> <p></p> <img src='stimuli/tree/9.png', style='max-width: 30%;'> </img> <p><strong>Would you launch the weapon?</strong></p>","0",""
"","","","","","html-keyboard-response","71","1284571","0.0-3.0-0.34","39","1","2023-06-16 17:06:03","846205d480aaa49f22c83d5c8cececc8","207.135.205.91","Mozilla/5.0 (Windows NT 6.3; WOW64) AppleWebKit/537.36 (KHTML, like Gecko) Chrome/109.0.0.0 Safari/537.36","WebKit","Chrome","109.0.0.0","Windows","6.3","null","<div style=""font-size:60px;"">+</div>","null",""
"","","","","","html-button-response","72","1286119","0.0-3.0-1.34","39","1","2023-06-16 17:06:03","846205d480aaa49f22c83d5c8cececc8","207.135.205.91","Mozilla/5.0 (Windows NT 6.3; WOW64) AppleWebKit/537.36 (KHTML, like Gecko) Chrome/109.0.0.0 Safari/537.36","WebKit","Chrome","109.0.0.0","Windows","6.3","1545","<p>As the military commander, you could choose to launch a missile to kill <strong>8 enemy soldiers</strong> , but would accidentally kill <strong>1 enemy civilian</strong> nearby.</p> <p>The photo of the <strong>enemy civilian</strong> is shown below.</p> <p></p> <img src='stimuli/faces/PCM4.jpg', style='max-width: 30%;'> </img> <p><strong>Would you launch the weapon?</strong></p>","1",""
"","","","","","html-keyboard-response","73","1287124","0.0-3.0-0.35","39","1","2023-06-16 17:06:03","846205d480aaa49f22c83d5c8cececc8","207.135.205.91","Mozilla/5.0 (Windows NT 6.3; WOW64) AppleWebKit/537.36 (KHTML, like Gecko) Chrome/109.0.0.0 Safari/537.36","WebKit","Chrome","109.0.0.0","Windows","6.3","null","<div style=""font-size:60px;"">+</div>","null",""
"","","","","","html-button-response","74","1288983","0.0-3.0-1.35","39","1","2023-06-16 17:06:03","846205d480aaa49f22c83d5c8cececc8","207.135.205.91","Mozilla/5.0 (Windows NT 6.3; WOW64) AppleWebKit/537.36 (KHTML, like Gecko) Chrome/109.0.0.0 Safari/537.36","WebKit","Chrome","109.0.0.0","Windows","6.3","1856","<p>As the military commander, you could choose to launch a missile to kill <strong>9 enemy soldiers</strong> , but would accidentally kill <strong>1 enemy tree</strong> nearby.</p> <p>The photo of the <strong>enemy tree</strong> is shown below.</p> <p></p> <img src='stimuli/tree/5.png', style='max-width: 30%;'> </img> <p><strong>Would you launch the weapon?</strong></p>","0",""
"","","","","","html-keyboard-response","75","1289987","0.0-3.0-0.36","39","1","2023-06-16 17:06:03","846205d480aaa49f22c83d5c8cececc8","207.135.205.91","Mozilla/5.0 (Windows NT 6.3; WOW64) AppleWebKit/537.36 (KHTML, like Gecko) Chrome/109.0.0.0 Safari/537.36","WebKit","Chrome","109.0.0.0","Windows","6.3","null","<div style=""font-size:60px;"">+</div>","null",""
"","","","","","html-button-response","76","1291631","0.0-3.0-1.36","39","1","2023-06-16 17:06:03","846205d480aaa49f22c83d5c8cececc8","207.135.205.91","Mozilla/5.0 (Windows NT 6.3; WOW64) AppleWebKit/537.36 (KHTML, like Gecko) Chrome/109.0.0.0 Safari/537.36","WebKit","Chrome","109.0.0.0","Windows","6.3","1641","<p>As the military commander, you could choose to launch a missile to kill <strong>1 enemy soldier</strong> , but would accidentally kill <strong>1 enemy tree</strong> nearby.</p> <p>The photo of the <strong>enemy tree</strong> is shown below.</p> <p></p> <img src='stimuli/tree/5.png', style='max-width: 30%;'> </img> <p><strong>Would you launch the weapon?</strong></p>","0",""
"","","","","","html-keyboard-response","77","1292636","0.0-3.0-0.37","39","1","2023-06-16 17:06:03","846205d480aaa49f22c83d5c8cececc8","207.135.205.91","Mozilla/5.0 (Windows NT 6.3; WOW64) AppleWebKit/537.36 (KHTML, like Gecko) Chrome/109.0.0.0 Safari/537.36","WebKit","Chrome","109.0.0.0","Windows","6.3","null","<div style=""font-size:60px;"">+</div>","null",""
"","","","","","html-button-response","78","1294207","0.0-3.0-1.37","39","1","2023-06-16 17:06:03","846205d480aaa49f22c83d5c8cececc8","207.135.205.91","Mozilla/5.0 (Windows NT 6.3; WOW64) AppleWebKit/537.36 (KHTML, like Gecko) Chrome/109.0.0.0 Safari/537.36","WebKit","Chrome","109.0.0.0","Windows","6.3","1568","<p>As the military commander, you could choose to launch a missile to kill <strong>7 enemy soldiers</strong> , but would accidentally kill <strong>1 enemy tree</strong> nearby.</p> <p>The photo of the <strong>enemy tree</strong> is shown below.</p> <p></p> <img src='stimuli/tree/16.png', style='max-width: 30%;'> </img> <p><strong>Would you launch the weapon?</strong></p>","0",""
"","","","","","html-keyboard-response","79","1295220","0.0-3.0-0.38","39","1","2023-06-16 17:06:03","846205d480aaa49f22c83d5c8cececc8","207.135.205.91","Mozilla/5.0 (Windows NT 6.3; WOW64) AppleWebKit/537.36 (KHTML, like Gecko) Chrome/109.0.0.0 Safari/537.36","WebKit","Chrome","109.0.0.0","Windows","6.3","null","<div style=""font-size:60px;"">+</div>","null",""
"","","","","","html-button-response","80","1296566","0.0-3.0-1.38","39","1","2023-06-16 17:06:03","846205d480aaa49f22c83d5c8cececc8","207.135.205.91","Mozilla/5.0 (Windows NT 6.3; WOW64) AppleWebKit/537.36 (KHTML, like Gecko) Chrome/109.0.0.0 Safari/537.36","WebKit","Chrome","109.0.0.0","Windows","6.3","1344","<p>As the military commander, you could choose to launch a missile to kill <strong>6 enemy soldiers</strong> , but would accidentally kill <strong>1 enemy tree</strong> nearby.</p> <p>The photo of the <strong>enemy tree</strong> is shown below.</p> <p></p> <img src='stimuli/tree/11.png', style='max-width: 30%;'> </img> <p><strong>Would you launch the weapon?</strong></p>","0",""
"","","","","","html-keyboard-response","81","1297572","0.0-3.0-0.39","39","1","2023-06-16 17:06:03","846205d480aaa49f22c83d5c8cececc8","207.135.205.91","Mozilla/5.0 (Windows NT 6.3; WOW64) AppleWebKit/537.36 (KHTML, like Gecko) Chrome/109.0.0.0 Safari/537.36","WebKit","Chrome","109.0.0.0","Windows","6.3","null","<div style=""font-size:60px;"">+</div>","null",""
"","","","","","html-button-response","82","1299431","0.0-3.0-1.39","39","1","2023-06-16 17:06:03","846205d480aaa49f22c83d5c8cececc8","207.135.205.91","Mozilla/5.0 (Windows NT 6.3; WOW64) AppleWebKit/537.36 (KHTML, like Gecko) Chrome/109.0.0.0 Safari/537.36","WebKit","Chrome","109.0.0.0","Windows","6.3","1856","<p>As the military commander, you could choose to launch a missile to kill <strong>2 enemy soldiers</strong> , but would accidentally kill <strong>1 enemy civilian</strong> nearby.</p> <p>The photo of the <strong>enemy civilian</strong> is shown below.</p> <p></p> <img src='stimuli/faces/PCM6.jpg', style='max-width: 30%;'> </img> <p><strong>Would you launch the weapon?</strong></p>","1",""
"","","","","","html-keyboard-response","83","1300435","0.0-3.0-0.40","39","1","2023-06-16 17:06:03","846205d480aaa49f22c83d5c8cececc8","207.135.205.91","Mozilla/5.0 (Windows NT 6.3; WOW64) AppleWebKit/537.36 (KHTML, like Gecko) Chrome/109.0.0.0 Safari/537.36","WebKit","Chrome","109.0.0.0","Windows","6.3","null","<div style=""font-size:60px;"">+</div>","null",""
"","","","","","html-button-response","84","1302247","0.0-3.0-1.40","39","1","2023-06-16 17:06:03","846205d480aaa49f22c83d5c8cececc8","207.135.205.91","Mozilla/5.0 (Windows NT 6.3; WOW64) AppleWebKit/537.36 (KHTML, like Gecko) Chrome/109.0.0.0 Safari/537.36","WebKit","Chrome","109.0.0.0","Windows","6.3","1809","<p>As the military commander, you could choose to launch a missile to kill <strong>4 enemy soldiers</strong> , but would accidentally kill <strong>1 enemy tree</strong> nearby.</p> <p>The photo of the <strong>enemy tree</strong> is shown below.</p> <p></p> <img src='stimuli/tree/8.png', style='max-width: 30%;'> </img> <p><strong>Would you launch the weapon?</strong></p>","0",""
"","","","","","html-keyboard-response","85","1303251","0.0-3.0-0.41","39","1","2023-06-16 17:06:03","846205d480aaa49f22c83d5c8cececc8","207.135.205.91","Mozilla/5.0 (Windows NT 6.3; WOW64) AppleWebKit/537.36 (KHTML, like Gecko) Chrome/109.0.0.0 Safari/537.36","WebKit","Chrome","109.0.0.0","Windows","6.3","null","<div style=""font-size:60px;"">+</div>","null",""
"","","","","","html-button-response","86","1305679","0.0-3.0-1.41","39","1","2023-06-16 17:06:03","846205d480aaa49f22c83d5c8cececc8","207.135.205.91","Mozilla/5.0 (Windows NT 6.3; WOW64) AppleWebKit/537.36 (KHTML, like Gecko) Chrome/109.0.0.0 Safari/537.36","WebKit","Chrome","109.0.0.0","Windows","6.3","2425","<p>As the military commander, you could choose to launch a missile to kill <strong>10 enemy soldiers</strong> , but would accidentally kill <strong>1 enemy civilian</strong> nearby.</p> <p>The photo of the <strong>enemy civilian</strong> is shown below.</p> <p></p> <img src='stimuli/faces/PCF8.jpg', style='max-width: 30%;'> </img> <p><strong>Would you launch the weapon?</strong></p>","1",""
"","","","","","html-keyboard-response","87","1306692","0.0-3.0-0.42","39","1","2023-06-16 17:06:03","846205d480aaa49f22c83d5c8cececc8","207.135.205.91","Mozilla/5.0 (Windows NT 6.3; WOW64) AppleWebKit/537.36 (KHTML, like Gecko) Chrome/109.0.0.0 Safari/537.36","WebKit","Chrome","109.0.0.0","Windows","6.3","null","<div style=""font-size:60px;"">+</div>","null",""
"","","","","","html-button-response","88","1308319","0.0-3.0-1.42","39","1","2023-06-16 17:06:03","846205d480aaa49f22c83d5c8cececc8","207.135.205.91","Mozilla/5.0 (Windows NT 6.3; WOW64) AppleWebKit/537.36 (KHTML, like Gecko) Chrome/109.0.0.0 Safari/537.36","WebKit","Chrome","109.0.0.0","Windows","6.3","1624","<p>As the military commander, you could choose to launch a missile to kill <strong>10 enemy soldiers</strong> , but would accidentally kill <strong>1 enemy tree</strong> nearby.</p> <p>The photo of the <strong>enemy tree</strong> is shown below.</p> <p></p> <img src='stimuli/tree/6.png', style='max-width: 30%;'> </img> <p><strong>Would you launch the weapon?</strong></p>","0",""
"","","","","","html-keyboard-response","89","1309323","0.0-3.0-0.43","39","1","2023-06-16 17:06:03","846205d480aaa49f22c83d5c8cececc8","207.135.205.91","Mozilla/5.0 (Windows NT 6.3; WOW64) AppleWebKit/537.36 (KHTML, like Gecko) Chrome/109.0.0.0 Safari/537.36","WebKit","Chrome","109.0.0.0","Windows","6.3","null","<div style=""font-size:60px;"">+</div>","null",""
"","","","","","html-button-response","90","1432481","0.0-3.0-1.43","39","1","2023-06-16 17:06:03","846205d480aaa49f22c83d5c8cececc8","207.135.205.91","Mozilla/5.0 (Windows NT 6.3; WOW64) AppleWebKit/537.36 (KHTML, like Gecko) Chrome/109.0.0.0 Safari/537.36","WebKit","Chrome","109.0.0.0","Windows","6.3","123154","<p>As the military commander, you could choose to launch a missile to kill <strong>2 enemy soldiers</strong> , but would accidentally kill <strong>1 enemy civilian</strong> nearby.</p> <p>The photo of the <strong>enemy civilian</strong> is shown below.</p> <p></p> <img src='stimuli/faces/PCM8.jpg', style='max-width: 30%;'> </img> <p><strong>Would you launch the weapon?</strong></p>","1",""
"","","","","","html-keyboard-response","91","1433491","0.0-3.0-0.44","39","1","2023-06-16 17:06:03","846205d480aaa49f22c83d5c8cececc8","207.135.205.91","Mozilla/5.0 (Windows NT 6.3; WOW64) AppleWebKit/537.36 (KHTML, like Gecko) Chrome/109.0.0.0 Safari/537.36","WebKit","Chrome","109.0.0.0","Windows","6.3","null","<div style=""font-size:60px;"">+</div>","null",""
"","","","","","html-button-response","92","1435595","0.0-3.0-1.44","39","1","2023-06-16 17:06:03","846205d480aaa49f22c83d5c8cececc8","207.135.205.91","Mozilla/5.0 (Windows NT 6.3; WOW64) AppleWebKit/537.36 (KHTML, like Gecko) Chrome/109.0.0.0 Safari/537.36","WebKit","Chrome","109.0.0.0","Windows","6.3","2101","<p>As the military commander, you could choose to launch a missile to kill <strong>3 enemy soldiers</strong> , but would accidentally kill <strong>1 enemy civilian</strong> nearby.</p> <p>The photo of the <strong>enemy civilian</strong> is shown below.</p> <p></p> <img src='stimuli/faces/PCF8.jpg', style='max-width: 30%;'> </img> <p><strong>Would you launch the weapon?</strong></p>","1",""
"","","","","","html-keyboard-response","93","1436604","0.0-3.0-0.45","39","1","2023-06-16 17:06:03","846205d480aaa49f22c83d5c8cececc8","207.135.205.91","Mozilla/5.0 (Windows NT 6.3; WOW64) AppleWebKit/537.36 (KHTML, like Gecko) Chrome/109.0.0.0 Safari/537.36","WebKit","Chrome","109.0.0.0","Windows","6.3","null","<div style=""font-size:60px;"">+</div>","null",""
"","","","","","html-button-response","94","1437953","0.0-3.0-1.45","39","1","2023-06-16 17:06:03","846205d480aaa49f22c83d5c8cececc8","207.135.205.91","Mozilla/5.0 (Windows NT 6.3; WOW64) AppleWebKit/537.36 (KHTML, like Gecko) Chrome/109.0.0.0 Safari/537.36","WebKit","Chrome","109.0.0.0","Windows","6.3","1345","<p>As the military commander, you could choose to launch a missile to kill <strong>9 enemy soldiers</strong> , but would accidentally kill <strong>1 enemy tree</strong> nearby.</p> <p>The photo of the <strong>enemy tree</strong> is shown below.</p> <p></p> <img src='stimuli/tree/3.png', style='max-width: 30%;'> </img> <p><strong>Would you launch the weapon?</strong></p>","0",""
"","","","","","html-keyboard-response","95","1438963","0.0-3.0-0.46","39","1","2023-06-16 17:06:03","846205d480aaa49f22c83d5c8cececc8","207.135.205.91","Mozilla/5.0 (Windows NT 6.3; WOW64) AppleWebKit/537.36 (KHTML, like Gecko) Chrome/109.0.0.0 Safari/537.36","WebKit","Chrome","109.0.0.0","Windows","6.3","null","<div style=""font-size:60px;"">+</div>","null",""
"","","","","","html-button-response","96","1445922","0.0-3.0-1.46","39","1","2023-06-16 17:06:03","846205d480aaa49f22c83d5c8cececc8","207.135.205.91","Mozilla/5.0 (Windows NT 6.3; WOW64) AppleWebKit/537.36 (KHTML, like Gecko) Chrome/109.0.0.0 Safari/537.36","WebKit","Chrome","109.0.0.0","Windows","6.3","6955","<p>As the military commander, you could choose to launch a missile to kill <strong>9 enemy soldiers</strong> , but would accidentally kill <strong>1 enemy tree</strong> nearby.</p> <p>The photo of the <strong>enemy tree</strong> is shown below.</p> <p></p> <img src='stimuli/tree/12.png', style='max-width: 30%;'> </img> <p><strong>Would you launch the weapon?</strong></p>","0",""
"","","","","","html-keyboard-response","97","1446931","0.0-3.0-0.47","39","1","2023-06-16 17:06:03","846205d480aaa49f22c83d5c8cececc8","207.135.205.91","Mozilla/5.0 (Windows NT 6.3; WOW64) AppleWebKit/537.36 (KHTML, like Gecko) Chrome/109.0.0.0 Safari/537.36","WebKit","Chrome","109.0.0.0","Windows","6.3","null","<div style=""font-size:60px;"">+</div>","null",""
"","","","","","html-button-response","98","1448777","0.0-3.0-1.47","39","1","2023-06-16 17:06:03","846205d480aaa49f22c83d5c8cececc8","207.135.205.91","Mozilla/5.0 (Windows NT 6.3; WOW64) AppleWebKit/537.36 (KHTML, like Gecko) Chrome/109.0.0.0 Safari/537.36","WebKit","Chrome","109.0.0.0","Windows","6.3","1842","<p>As the military commander, you could choose to launch a missile to kill <strong>6 enemy soldiers</strong> , but would accidentally kill <strong>1 enemy civilian</strong> nearby.</p> <p>The photo of the <strong>enemy civilian</strong> is shown below.</p> <p></p> <img src='stimuli/faces/PCM8.jpg', style='max-width: 30%;'> </img> <p><strong>Would you launch the weapon?</strong></p>","1",""
"","","","","","html-keyboard-response","99","1449788","0.0-3.0-0.48","39","1","2023-06-16 17:06:03","846205d480aaa49f22c83d5c8cececc8","207.135.205.91","Mozilla/5.0 (Windows NT 6.3; WOW64) AppleWebKit/537.36 (KHTML, like Gecko) Chrome/109.0.0.0 Safari/537.36","WebKit","Chrome","109.0.0.0","Windows","6.3","null","<div style=""font-size:60px;"">+</div>","null",""
"","","","","","html-button-response","100","1452753","0.0-3.0-1.48","39","1","2023-06-16 17:06:03","846205d480aaa49f22c83d5c8cececc8","207.135.205.91","Mozilla/5.0 (Windows NT 6.3; WOW64) AppleWebKit/537.36 (KHTML, like Gecko) Chrome/109.0.0.0 Safari/537.36","WebKit","Chrome","109.0.0.0","Windows","6.3","2962","<p>As the military commander, you could choose to launch a missile to kill <strong>3 enemy soldiers</strong> , but would accidentally kill <strong>1 enemy tree</strong> nearby.</p> <p>The photo of the <strong>enemy tree</strong> is shown below.</p> <p></p> <img src='stimuli/tree/10.png', style='max-width: 30%;'> </img> <p><strong>Would you launch the weapon?</strong></p>","0",""
"","","","","","html-keyboard-response","101","1453763","0.0-3.0-0.49","39","1","2023-06-16 17:06:03","846205d480aaa49f22c83d5c8cececc8","207.135.205.91","Mozilla/5.0 (Windows NT 6.3; WOW64) AppleWebKit/537.36 (KHTML, like Gecko) Chrome/109.0.0.0 Safari/537.36","WebKit","Chrome","109.0.0.0","Windows","6.3","null","<div style=""font-size:60px;"">+</div>","null",""
"","","","","","html-button-response","102","1458393","0.0-3.0-1.49","39","1","2023-06-16 17:06:03","846205d480aaa49f22c83d5c8cececc8","207.135.205.91","Mozilla/5.0 (Windows NT 6.3; WOW64) AppleWebKit/537.36 (KHTML, like Gecko) Chrome/109.0.0.0 Safari/537.36","WebKit","Chrome","109.0.0.0","Windows","6.3","4627","<p>As the military commander, you could choose to launch a missile to kill <strong>5 enemy soldiers</strong> , but would accidentally kill <strong>1 enemy civilian</strong> nearby.</p> <p>The photo of the <strong>enemy civilian</strong> is shown below.</p> <p></p> <img src='stimuli/faces/PCF7.jpg', style='max-width: 30%;'> </img> <p><strong>Would you launch the weapon?</strong></p>","1",""
"","","","","","html-keyboard-response","103","1459403","0.0-3.0-0.50","39","1","2023-06-16 17:06:03","846205d480aaa49f22c83d5c8cececc8","207.135.205.91","Mozilla/5.0 (Windows NT 6.3; WOW64) AppleWebKit/537.36 (KHTML, like Gecko) Chrome/109.0.0.0 Safari/537.36","WebKit","Chrome","109.0.0.0","Windows","6.3","null","<div style=""font-size:60px;"">+</div>","null",""
"","","","","","html-button-response","104","1461241","0.0-3.0-1.50","39","1","2023-06-16 17:06:03","846205d480aaa49f22c83d5c8cececc8","207.135.205.91","Mozilla/5.0 (Windows NT 6.3; WOW64) AppleWebKit/537.36 (KHTML, like Gecko) Chrome/109.0.0.0 Safari/537.36","WebKit","Chrome","109.0.0.0","Windows","6.3","1835","<p>As the military commander, you could choose to launch a missile to kill <strong>1 enemy soldier</strong> , but would accidentally kill <strong>1 enemy tree</strong> nearby.</p> <p>The photo of the <strong>enemy tree</strong> is shown below.</p> <p></p> <img src='stimuli/tree/4.png', style='max-width: 30%;'> </img> <p><strong>Would you launch the weapon?</strong></p>","0",""
"","","","","","html-keyboard-response","105","1462251","0.0-3.0-0.51","39","1","2023-06-16 17:06:03","846205d480aaa49f22c83d5c8cececc8","207.135.205.91","Mozilla/5.0 (Windows NT 6.3; WOW64) AppleWebKit/537.36 (KHTML, like Gecko) Chrome/109.0.0.0 Safari/537.36","WebKit","Chrome","109.0.0.0","Windows","6.3","null","<div style=""font-size:60px;"">+</div>","null",""
"","","","","","html-button-response","106","1464057","0.0-3.0-1.51","39","1","2023-06-16 17:06:03","846205d480aaa49f22c83d5c8cececc8","207.135.205.91","Mozilla/5.0 (Windows NT 6.3; WOW64) AppleWebKit/537.36 (KHTML, like Gecko) Chrome/109.0.0.0 Safari/537.36","WebKit","Chrome","109.0.0.0","Windows","6.3","1802","<p>As the military commander, you could choose to launch a missile to kill <strong>3 enemy soldiers</strong> , but would accidentally kill <strong>1 enemy civilian</strong> nearby.</p> <p>The photo of the <strong>enemy civilian</strong> is shown below.</p> <p></p> <img src='stimuli/faces/PCF2.jpg', style='max-width: 30%;'> </img> <p><strong>Would you launch the weapon?</strong></p>","1",""
"","","","","","html-keyboard-response","107","1465068","0.0-3.0-0.52","39","1","2023-06-16 17:06:03","846205d480aaa49f22c83d5c8cececc8","207.135.205.91","Mozilla/5.0 (Windows NT 6.3; WOW64) AppleWebKit/537.36 (KHTML, like Gecko) Chrome/109.0.0.0 Safari/537.36","WebKit","Chrome","109.0.0.0","Windows","6.3","null","<div style=""font-size:60px;"">+</div>","null",""
"","","","","","html-button-response","108","1467801","0.0-3.0-1.52","39","1","2023-06-16 17:06:03","846205d480aaa49f22c83d5c8cececc8","207.135.205.91","Mozilla/5.0 (Windows NT 6.3; WOW64) AppleWebKit/537.36 (KHTML, like Gecko) Chrome/109.0.0.0 Safari/537.36","WebKit","Chrome","109.0.0.0","Windows","6.3","2730","<p>As the military commander, you could choose to launch a missile to kill <strong>9 enemy soldiers</strong> , but would accidentally kill <strong>1 enemy civilian</strong> nearby.</p> <p>The photo of the <strong>enemy civilian</strong> is shown below.</p> <p></p> <img src='stimuli/faces/PCM5.jpg', style='max-width: 30%;'> </img> <p><strong>Would you launch the weapon?</strong></p>","1",""
"","","","","","html-keyboard-response","109","1468811","0.0-3.0-0.53","39","1","2023-06-16 17:06:03","846205d480aaa49f22c83d5c8cececc8","207.135.205.91","Mozilla/5.0 (Windows NT 6.3; WOW64) AppleWebKit/537.36 (KHTML, like Gecko) Chrome/109.0.0.0 Safari/537.36","WebKit","Chrome","109.0.0.0","Windows","6.3","null","<div style=""font-size:60px;"">+</div>","null",""
"","","","","","html-button-response","110","1470529","0.0-3.0-1.53","39","1","2023-06-16 17:06:03","846205d480aaa49f22c83d5c8cececc8","207.135.205.91","Mozilla/5.0 (Windows NT 6.3; WOW64) AppleWebKit/537.36 (KHTML, like Gecko) Chrome/109.0.0.0 Safari/537.36","WebKit","Chrome","109.0.0.0","Windows","6.3","1714","<p>As the military commander, you could choose to launch a missile to kill <strong>6 enemy soldiers</strong> , but would accidentally kill <strong>1 enemy tree</strong> nearby.</p> <p>The photo of the <strong>enemy tree</strong> is shown below.</p> <p></p> <img src='stimuli/tree/4.png', style='max-width: 30%;'> </img> <p><strong>Would you launch the weapon?</strong></p>","0",""
"","","","","","html-keyboard-response","111","1471539","0.0-3.0-0.54","39","1","2023-06-16 17:06:03","846205d480aaa49f22c83d5c8cececc8","207.135.205.91","Mozilla/5.0 (Windows NT 6.3; WOW64) AppleWebKit/537.36 (KHTML, like Gecko) Chrome/109.0.0.0 Safari/537.36","WebKit","Chrome","109.0.0.0","Windows","6.3","null","<div style=""font-size:60px;"">+</div>","null",""
"","","","","","html-button-response","112","1473281","0.0-3.0-1.54","39","1","2023-06-16 17:06:03","846205d480aaa49f22c83d5c8cececc8","207.135.205.91","Mozilla/5.0 (Windows NT 6.3; WOW64) AppleWebKit/537.36 (KHTML, like Gecko) Chrome/109.0.0.0 Safari/537.36","WebKit","Chrome","109.0.0.0","Windows","6.3","1739","<p>As the military commander, you could choose to launch a missile to kill <strong>4 enemy soldiers</strong> , but would accidentally kill <strong>1 enemy tree</strong> nearby.</p> <p>The photo of the <strong>enemy tree</strong> is shown below.</p> <p></p> <img src='stimuli/tree/6.png', style='max-width: 30%;'> </img> <p><strong>Would you launch the weapon?</strong></p>","0",""
"","","","","","html-keyboard-response","113","1474291","0.0-3.0-0.55","39","1","2023-06-16 17:06:03","846205d480aaa49f22c83d5c8cececc8","207.135.205.91","Mozilla/5.0 (Windows NT 6.3; WOW64) AppleWebKit/537.36 (KHTML, like Gecko) Chrome/109.0.0.0 Safari/537.36","WebKit","Chrome","109.0.0.0","Windows","6.3","null","<div style=""font-size:60px;"">+</div>","null",""
"","","","","","html-button-response","114","1476034","0.0-3.0-1.55","39","1","2023-06-16 17:06:03","846205d480aaa49f22c83d5c8cececc8","207.135.205.91","Mozilla/5.0 (Windows NT 6.3; WOW64) AppleWebKit/537.36 (KHTML, like Gecko) Chrome/109.0.0.0 Safari/537.36","WebKit","Chrome","109.0.0.0","Windows","6.3","1739","<p>As the military commander, you could choose to launch a missile to kill <strong>9 enemy soldiers</strong> , but would accidentally kill <strong>1 enemy civilian</strong> nearby.</p> <p>The photo of the <strong>enemy civilian</strong> is shown below.</p> <p></p> <img src='stimuli/faces/PCF7.jpg', style='max-width: 30%;'> </img> <p><strong>Would you launch the weapon?</strong></p>","1",""
"","","","","","html-keyboard-response","115","1477043","0.0-3.0-0.56","39","1","2023-06-16 17:06:03","846205d480aaa49f22c83d5c8cececc8","207.135.205.91","Mozilla/5.0 (Windows NT 6.3; WOW64) AppleWebKit/537.36 (KHTML, like Gecko) Chrome/109.0.0.0 Safari/537.36","WebKit","Chrome","109.0.0.0","Windows","6.3","null","<div style=""font-size:60px;"">+</div>","null",""
"","","","","","html-button-response","116","1478713","0.0-3.0-1.56","39","1","2023-06-16 17:06:03","846205d480aaa49f22c83d5c8cececc8","207.135.205.91","Mozilla/5.0 (Windows NT 6.3; WOW64) AppleWebKit/537.36 (KHTML, like Gecko) Chrome/109.0.0.0 Safari/537.36","WebKit","Chrome","109.0.0.0","Windows","6.3","1667","<p>As the military commander, you could choose to launch a missile to kill <strong>2 enemy soldiers</strong> , but would accidentally kill <strong>1 enemy civilian</strong> nearby.</p> <p>The photo of the <strong>enemy civilian</strong> is shown below.</p> <p></p> <img src='stimuli/faces/PCF5.jpg', style='max-width: 30%;'> </img> <p><strong>Would you launch the weapon?</strong></p>","1",""
"","","","","","html-keyboard-response","117","1479723","0.0-3.0-0.57","39","1","2023-06-16 17:06:03","846205d480aaa49f22c83d5c8cececc8","207.135.205.91","Mozilla/5.0 (Windows NT 6.3; WOW64) AppleWebKit/537.36 (KHTML, like Gecko) Chrome/109.0.0.0 Safari/537.36","WebKit","Chrome","109.0.0.0","Windows","6.3","null","<div style=""font-size:60px;"">+</div>","null",""
"","","","","","html-button-response","118","1481433","0.0-3.0-1.57","39","1","2023-06-16 17:06:03","846205d480aaa49f22c83d5c8cececc8","207.135.205.91","Mozilla/5.0 (Windows NT 6.3; WOW64) AppleWebKit/537.36 (KHTML, like Gecko) Chrome/109.0.0.0 Safari/537.36","WebKit","Chrome","109.0.0.0","Windows","6.3","1707","<p>As the military commander, you could choose to launch a missile to kill <strong>4 enemy soldiers</strong> , but would accidentally kill <strong>1 enemy civilian</strong> nearby.</p> <p>The photo of the <strong>enemy civilian</strong> is shown below.</p> <p></p> <img src='stimuli/faces/PCF6.jpg', style='max-width: 30%;'> </img> <p><strong>Would you launch the weapon?</strong></p>","1",""
"","","","","","html-keyboard-response","119","1482443","0.0-3.0-0.58","39","1","2023-06-16 17:06:03","846205d480aaa49f22c83d5c8cececc8","207.135.205.91","Mozilla/5.0 (Windows NT 6.3; WOW64) AppleWebKit/537.36 (KHTML, like Gecko) Chrome/109.0.0.0 Safari/537.36","WebKit","Chrome","109.0.0.0","Windows","6.3","null","<div style=""font-size:60px;"">+</div>","null",""
"","","","","","html-button-response","120","1484225","0.0-3.0-1.58","39","1","2023-06-16 17:06:03","846205d480aaa49f22c83d5c8cececc8","207.135.205.91","Mozilla/5.0 (Windows NT 6.3; WOW64) AppleWebKit/537.36 (KHTML, like Gecko) Chrome/109.0.0.0 Safari/537.36","WebKit","Chrome","109.0.0.0","Windows","6.3","1779","<p>As the military commander, you could choose to launch a missile to kill <strong>2 enemy soldiers</strong> , but would accidentally kill <strong>1 enemy tree</strong> nearby.</p> <p>The photo of the <strong>enemy tree</strong> is shown below.</p> <p></p> <img src='stimuli/tree/11.png', style='max-width: 30%;'> </img> <p><strong>Would you launch the weapon?</strong></p>","0",""
"","","","","","html-keyboard-response","121","1485235","0.0-3.0-0.59","39","1","2023-06-16 17:06:03","846205d480aaa49f22c83d5c8cececc8","207.135.205.91","Mozilla/5.0 (Windows NT 6.3; WOW64) AppleWebKit/537.36 (KHTML, like Gecko) Chrome/109.0.0.0 Safari/537.36","WebKit","Chrome","109.0.0.0","Windows","6.3","null","<div style=""font-size:60px;"">+</div>","null",""
"","","","","","html-button-response","122","1487258","0.0-3.0-1.59","39","1","2023-06-16 17:06:03","846205d480aaa49f22c83d5c8cececc8","207.135.205.91","Mozilla/5.0 (Windows NT 6.3; WOW64) AppleWebKit/537.36 (KHTML, like Gecko) Chrome/109.0.0.0 Safari/537.36","WebKit","Chrome","109.0.0.0","Windows","6.3","2020","<p>As the military commander, you could choose to launch a missile to kill <strong>5 enemy soldiers</strong> , but would accidentally kill <strong>1 enemy civilian</strong> nearby.</p> <p>The photo of the <strong>enemy civilian</strong> is shown below.</p> <p></p> <img src='stimuli/faces/PCM5.jpg', style='max-width: 30%;'> </img> <p><strong>Would you launch the weapon?</strong></p>","1",""
"","","","","","html-keyboard-response","123","1488268","0.0-3.0-0.60","39","1","2023-06-16 17:06:03","846205d480aaa49f22c83d5c8cececc8","207.135.205.91","Mozilla/5.0 (Windows NT 6.3; WOW64) AppleWebKit/537.36 (KHTML, like Gecko) Chrome/109.0.0.0 Safari/537.36","WebKit","Chrome","109.0.0.0","Windows","6.3","null","<div style=""font-size:60px;"">+</div>","null",""
"","","","","","html-button-response","124","1489945","0.0-3.0-1.60","39","1","2023-06-16 17:06:03","846205d480aaa49f22c83d5c8cececc8","207.135.205.91","Mozilla/5.0 (Windows NT 6.3; WOW64) AppleWebKit/537.36 (KHTML, like Gecko) Chrome/109.0.0.0 Safari/537.36","WebKit","Chrome","109.0.0.0","Windows","6.3","1673","<p>As the military commander, you could choose to launch a missile to kill <strong>9 enemy soldiers</strong> , but would accidentally kill <strong>1 enemy civilian</strong> nearby.</p> <p>The photo of the <strong>enemy civilian</strong> is shown below.</p> <p></p> <img src='stimuli/faces/PCF4.jpg', style='max-width: 30%;'> </img> <p><strong>Would you launch the weapon?</strong></p>","1",""
"","","","","","html-keyboard-response","125","1490954","0.0-3.0-0.61","39","1","2023-06-16 17:06:03","846205d480aaa49f22c83d5c8cececc8","207.135.205.91","Mozilla/5.0 (Windows NT 6.3; WOW64) AppleWebKit/537.36 (KHTML, like Gecko) Chrome/109.0.0.0 Safari/537.36","WebKit","Chrome","109.0.0.0","Windows","6.3","null","<div style=""font-size:60px;"">+</div>","null",""
"","","","","","html-button-response","126","1493593","0.0-3.0-1.61","39","1","2023-06-16 17:06:03","846205d480aaa49f22c83d5c8cececc8","207.135.205.91","Mozilla/5.0 (Windows NT 6.3; WOW64) AppleWebKit/537.36 (KHTML, like Gecko) Chrome/109.0.0.0 Safari/537.36","WebKit","Chrome","109.0.0.0","Windows","6.3","2636","<p>As the military commander, you could choose to launch a missile to kill <strong>7 enemy soldiers</strong> , but would accidentally kill <strong>1 enemy tree</strong> nearby.</p> <p>The photo of the <strong>enemy tree</strong> is shown below.</p> <p></p> <img src='stimuli/tree/7.png', style='max-width: 30%;'> </img> <p><strong>Would you launch the weapon?</strong></p>","0",""
"","","","","","html-keyboard-response","127","1494602","0.0-3.0-0.62","39","1","2023-06-16 17:06:03","846205d480aaa49f22c83d5c8cececc8","207.135.205.91","Mozilla/5.0 (Windows NT 6.3; WOW64) AppleWebKit/537.36 (KHTML, like Gecko) Chrome/109.0.0.0 Safari/537.36","WebKit","Chrome","109.0.0.0","Windows","6.3","null","<div style=""font-size:60px;"">+</div>","null",""
"","","","","","html-button-response","128","1496170","0.0-3.0-1.62","39","1","2023-06-16 17:06:03","846205d480aaa49f22c83d5c8cececc8","207.135.205.91","Mozilla/5.0 (Windows NT 6.3; WOW64) AppleWebKit/537.36 (KHTML, like Gecko) Chrome/109.0.0.0 Safari/537.36","WebKit","Chrome","109.0.0.0","Windows","6.3","1564","<p>As the military commander, you could choose to launch a missile to kill <strong>2 enemy soldiers</strong> , but would accidentally kill <strong>1 enemy civilian</strong> nearby.</p> <p>The photo of the <strong>enemy civilian</strong> is shown below.</p> <p></p> <img src='stimuli/faces/PCF1.jpg', style='max-width: 30%;'> </img> <p><strong>Would you launch the weapon?</strong></p>","1",""
"","","","","","html-keyboard-response","129","1497179","0.0-3.0-0.63","39","1","2023-06-16 17:06:03","846205d480aaa49f22c83d5c8cececc8","207.135.205.91","Mozilla/5.0 (Windows NT 6.3; WOW64) AppleWebKit/537.36 (KHTML, like Gecko) Chrome/109.0.0.0 Safari/537.36","WebKit","Chrome","109.0.0.0","Windows","6.3","null","<div style=""font-size:60px;"">+</div>","null",""
"","","","","","html-button-response","130","1499033","0.0-3.0-1.63","39","1","2023-06-16 17:06:03","846205d480aaa49f22c83d5c8cececc8","207.135.205.91","Mozilla/5.0 (Windows NT 6.3; WOW64) AppleWebKit/537.36 (KHTML, like Gecko) Chrome/109.0.0.0 Safari/537.36","WebKit","Chrome","109.0.0.0","Windows","6.3","1850","<p>As the military commander, you could choose to launch a missile to kill <strong>9 enemy soldiers</strong> , but would accidentally kill <strong>1 enemy tree</strong> nearby.</p> <p>The photo of the <strong>enemy tree</strong> is shown below.</p> <p></p> <img src='stimuli/tree/14.png', style='max-width: 30%;'> </img> <p><strong>Would you launch the weapon?</strong></p>","0",""
"","","","","","survey-multi-choice","131","1503314","0.0-4.0","39","1","2023-06-16 17:06:03","846205d480aaa49f22c83d5c8cececc8","207.135.205.91","Mozilla/5.0 (Windows NT 6.3; WOW64) AppleWebKit/537.36 (KHTML, like Gecko) Chrome/109.0.0.0 Safari/537.36","WebKit","Chrome","109.0.0.0","Windows","6.3","4276","","{""Attention1"":""6""}","[0]"
"","","","","","html-button-response","132","1506122","0.0-5.0","39","1","2023-06-16 17:06:03","846205d480aaa49f22c83d5c8cececc8","207.135.205.91","Mozilla/5.0 (Windows NT 6.3; WOW64) AppleWebKit/537.36 (KHTML, like Gecko) Chrome/109.0.0.0 Safari/537.36","WebKit","Chrome","109.0.0.0","Windows","6.3","2801","<p style=""font-size:20px;font-weight:bold;"">Great!</p><p>You have finished the first part of the experiment!</p><p>Please relax a little bit and then contine to answer some questions regarding yourself.</p><p>The next part will take around 10 minutes to complete.</p>","0",""
"","","","","","survey-text","133","1539010","0.0-6.0","39","1","2023-06-16 17:06:03","846205d480aaa49f22c83d5c8cececc8","207.135.205.91","Mozilla/5.0 (Windows NT 6.3; WOW64) AppleWebKit/537.36 (KHTML, like Gecko) Chrome/109.0.0.0 Safari/537.36","WebKit","Chrome","109.0.0.0","Windows","6.3","31877","","{""Age"":""25"",""Nation"":""USA"",""Born"":""1999"",""Live"":""NEWYORK ""}",""
"","","","","","survey-multi-choice","134","1553212","0.0-7.0","39","1","2023-06-16 17:06:03","846205d480aaa49f22c83d5c8cececc8","207.135.205.91","Mozilla/5.0 (Windows NT 6.3; WOW64) AppleWebKit/537.36 (KHTML, like Gecko) Chrome/109.0.0.0 Safari/537.36","WebKit","Chrome","109.0.0.0","Windows","6.3","14196","","{""Gender"":""Male"",""Education"":""Bachelor's Degree"",""Income"":""$100,000 - $124,999"",""Children"":""1"",""Ethnicity"":""White""}","[0,1,2,3,4]"
"","","","","","survey-multi-select","135","1570699","0.0-8.0","39","1","2023-06-16 17:06:03","846205d480aaa49f22c83d5c8cececc8","207.135.205.91","Mozilla/5.0 (Windows NT 6.3; WOW64) AppleWebKit/537.36 (KHTML, like Gecko) Chrome/109.0.0.0 Safari/537.36","WebKit","Chrome","109.0.0.0","Windows","6.3","17467","","{""Marriage"":[""Single""],""Religion"":[""Christian""]}","[0,1]"
"","","","","","survey-multi-choice","136","1575699","0.0-9.0","39","1","2023-06-16 17:06:03","846205d480aaa49f22c83d5c8cececc8","207.135.205.91","Mozilla/5.0 (Windows NT 6.3; WOW64) AppleWebKit/537.36 (KHTML, like Gecko) Chrome/109.0.0.0 Safari/537.36","WebKit","Chrome","109.0.0.0","Windows","6.3","4993","","{""SES"":""7""}","[0]"
"","","","","","html-button-response","137","1576962","0.0-10.0","39","1","2023-06-16 17:06:03","846205d480aaa49f22c83d5c8cececc8","207.135.205.91","Mozilla/5.0 (Windows NT 6.3; WOW64) AppleWebKit/537.36 (KHTML, like Gecko) Chrome/109.0.0.0 Safari/537.36","WebKit","Chrome","109.0.0.0","Windows","6.3","1256","<p><strong>Please indicate the extent that the following statements could describe you.</p><p> (1 = ""extremely uncharacteristic of me"" to 5 = ""extremely characteristic of me"".)</strong></p>","0",""
"","","","","","survey-likert","138","1601084","0.0-11.0","39","1","2023-06-16 17:06:03","846205d480aaa49f22c83d5c8cececc8","207.135.205.91","Mozilla/5.0 (Windows NT 6.3; WOW64) AppleWebKit/537.36 (KHTML, like Gecko) Chrome/109.0.0.0 Safari/537.36","WebKit","Chrome","109.0.0.0","Windows","6.3","24116","","{""Aggression1"":3,""Aggression2"":4,""Aggression3"":3,""Aggression4"":3,""Aggression5"":4,""Aggression6"":3,""Aggression7"":3,""Aggression8"":4,""Aggression9"":2}","[0,1,2,3,4,5,6,7,8]"
"","","","","","html-button-response","139","1602531","0.0-12.0","39","1","2023-06-16 17:06:03","846205d480aaa49f22c83d5c8cececc8","207.135.205.91","Mozilla/5.0 (Windows NT 6.3; WOW64) AppleWebKit/537.36 (KHTML, like Gecko) Chrome/109.0.0.0 Safari/537.36","WebKit","Chrome","109.0.0.0","Windows","6.3","1439","<p><strong>Please indicate the extent that the following statements could describe you. </strong></p><p><strong> (1 = ""Does not describe me well"" to 5 = ""Does decribe me well"".)</strong></p>","0",""
"","","","","","survey-likert","140","1664614","0.0-13.0","39","1","2023-06-16 17:06:03","846205d480aaa49f22c83d5c8cececc8","207.135.205.91","Mozilla/5.0 (Windows NT 6.3; WOW64) AppleWebKit/537.36 (KHTML, like Gecko) Chrome/109.0.0.0 Safari/537.36","WebKit","Chrome","109.0.0.0","Windows","6.3","62075","","{""fs3"":3,""fs1"":3,""ecs7"":2,""pds4"":4,""pts5"":3,""pds5"":3,""pds1"":2,""pts1"":0,""pds7"":3,""ecs3"":3,""pds6"":2,""fs4"":2,""pts7"":4,""ecs2"":3,""pds3"":2,""ecs6"":1,""pts3"":3,""fs2"":3,""pts4"":4,""pts6"":3,""ecs1"":3,""pds2"":2,""pts2"":3,""ecs4"":3,""fs7"":4,""ecs5"":3,""fs5"":2,""fs6"":3}","[6,0,21,16,20,18,5,2,26,8,23,11,27,3,12,19,10,4,14,24,1,9,7,13,25,17,15,22]"
"","","","","","html-button-response","141","1666033","0.0-14.0","39","1","2023-06-16 17:06:03","846205d480aaa49f22c83d5c8cececc8","207.135.205.91","Mozilla/5.0 (Windows NT 6.3; WOW64) AppleWebKit/537.36 (KHTML, like Gecko) Chrome/109.0.0.0 Safari/537.36","WebKit","Chrome","109.0.0.0","Windows","6.3","1413","<p><strong>Which of the following objects or statements do you have a positive or negative feeling towards? </strong></p><p><strong> (1 = ""Very negative"" to 7 = ""Very positive"") </strong></p>","0",""
"","","","","","survey-likert","142","1702852","0.0-15.0","39","1","2023-06-16 17:06:03","846205d480aaa49f22c83d5c8cececc8","207.135.205.91","Mozilla/5.0 (Windows NT 6.3; WOW64) AppleWebKit/537.36 (KHTML, like Gecko) Chrome/109.0.0.0 Safari/537.36","WebKit","Chrome","109.0.0.0","Windows","6.3","36813","","{""sdo1"":5,""sdo16"":6,""sdo10"":5,""sdo5"":4,""sdo2"":4,""sdo6"":5,""sdo11"":5,""sdo3"":4,""sdo9"":5,""sdo12"":6,""sdo14"":5,""sdo13"":4,""sdo15"":3,""sdo7"":4,""sdo8"":5,""sdo4"":6}","[0,15,9,4,1,5,10,2,8,11,13,12,14,6,7,3]"
"","","","","","html-button-response","143","1704386","0.0-16.0","39","1","2023-06-16 17:06:03","846205d480aaa49f22c83d5c8cececc8","207.135.205.91","Mozilla/5.0 (Windows NT 6.3; WOW64) AppleWebKit/537.36 (KHTML, like Gecko) Chrome/109.0.0.0 Safari/537.36","WebKit","Chrome","109.0.0.0","Windows","6.3","1527","<p><strong>Please indicate the extent you agree with the following statements.</strong></p><strong><p> (1 = ""Strongly Disagree"" to 5 = ""Srongly Agree"") </strong></p>","0",""
"","","","","","survey-likert","144","1726420","0.0-17.0","39","1","2023-06-16 17:06:03","846205d480aaa49f22c83d5c8cececc8","207.135.205.91","Mozilla/5.0 (Windows NT 6.3; WOW64) AppleWebKit/537.36 (KHTML, like Gecko) Chrome/109.0.0.0 Safari/537.36","WebKit","Chrome","109.0.0.0","Windows","6.3","22028","","{""caring1"":3,""liking1"":3,""caring2"":4,""protection1"":3,""liking2"":4,""caring3"":3,""protection2"":2,""liking3"":3,""protection3"":4,""caring4"":3,""liking4"":2,""protection4"":3,""caring5"":4,""liking5"":3,""protection5"":2}","[0,1,2,3,4,5,6,7,8,9,10,11,12,13,14]"
"","","","","","html-button-response","145","1727738","0.0-18.0","39","1","2023-06-16 17:06:03","846205d480aaa49f22c83d5c8cececc8","207.135.205.91","Mozilla/5.0 (Windows NT 6.3; WOW64) AppleWebKit/537.36 (KHTML, like Gecko) Chrome/109.0.0.0 Safari/537.36","WebKit","Chrome","109.0.0.0","Windows","6.3","1311","<p><strong>Please imagine spercific situations involving children below, and rate the amount of tenderness you would feel in each situation. </strong></p><p><strong> (Ternderness is ""a warm, gentle feeling of sympathetic affection."") </strong></p><strong><p> (1 = ""No tenderness at all"" to 5 = ""A lot of tenderness"") </strong></p>","0",""
"","","","","","survey-likert","146","1751268","0.0-19.0","39","1","2023-06-16 17:06:03","846205d480aaa49f22c83d5c8cececc8","207.135.205.91","Mozilla/5.0 (Windows NT 6.3; WOW64) AppleWebKit/537.36 (KHTML, like Gecko) Chrome/109.0.0.0 Safari/537.36","WebKit","Chrome","109.0.0.0","Windows","6.3","23524","","{""tenderness-positive1"":3,""tenderness-negative1"":4,""tenderness-negative2"":3,""tenderness-positive2"":3,""tenderness-positive3"":4,""tenderness-negative3"":3,""tenderness-positive4"":3,""tendereness-negative4"":4,""tendernness-negative5"":3,""tenderness-positive5"":2}","[0,1,2,3,4,5,6,7,8,9]"
"","","","","","survey-multi-choice","147","1759259","0.0-20.0","39","1","2023-06-16 17:06:03","846205d480aaa49f22c83d5c8cececc8","207.135.205.91","Mozilla/5.0 (Windows NT 6.3; WOW64) AppleWebKit/537.36 (KHTML, like Gecko) Chrome/109.0.0.0 Safari/537.36","WebKit","Chrome","109.0.0.0","Windows","6.3","7984","","{""Attention2"":""Other""}","[0]"
"","","","","","html-button-response","148","1760667","0.0-21.0","39","1","2023-06-16 17:06:03","846205d480aaa49f22c83d5c8cececc8","207.135.205.91","Mozilla/5.0 (Windows NT 6.3; WOW64) AppleWebKit/537.36 (KHTML, like Gecko) Chrome/109.0.0.0 Safari/537.36","WebKit","Chrome","109.0.0.0","Windows","6.3","1401","<p><strong>Please indicate the extent you agree with the following statements.</strong></p>","0",""
"","","","","","survey-likert","149","1805574","0.0-22.0","39","1","2023-06-16 17:06:03","846205d480aaa49f22c83d5c8cececc8","207.135.205.91","Mozilla/5.0 (Windows NT 6.3; WOW64) AppleWebKit/537.36 (KHTML, like Gecko) Chrome/109.0.0.0 Safari/537.36","WebKit","Chrome","109.0.0.0","Windows","6.3","44900","","{""Nation4"":3,""Patri11"":4,""Nation1"":3,""Patri12"":4,""Patri8"":3,""Nation7"":2,""Nation5"":3,""Patri3"":4,""Patri9"":3,""Patri1"":2,""Patri5"":3,""Patri10"":4,""Patri4"":3,""Nation3"":3,""Nation6"":2,""Patri7"":1,""Patri6"":2,""Nation8"":3,""Patri2"":4,""Nation2"":3}","[15,10,12,11,7,18,16,2,8,0,4,9,3,14,17,6,5,19,1,13]"
"","","","","","html-button-response","150","1809412","0.0-23.0","39","1","2023-06-16 17:06:03","846205d480aaa49f22c83d5c8cececc8","207.135.205.91","Mozilla/5.0 (Windows NT 6.3; WOW64) AppleWebKit/537.36 (KHTML, like Gecko) Chrome/109.0.0.0 Safari/537.36","WebKit","Chrome","109.0.0.0","Windows","6.3","3830","<p><strong>Please indicate the extent you agree with the following statements. </p><p>(1 = ""never or definitely no"" and 9 = ""always or definitely yes"".)</strong></p>","0",""
"","","","","","survey-likert","151","1839639","0.0-24.0","39","1","2023-06-16 17:06:03","846205d480aaa49f22c83d5c8cececc8","207.135.205.91","Mozilla/5.0 (Windows NT 6.3; WOW64) AppleWebKit/537.36 (KHTML, like Gecko) Chrome/109.0.0.0 Safari/537.36","WebKit","Chrome","109.0.0.0","Windows","6.3","30220","","{""vc2"":6,""vc4"":7,""hi2"":8,""hc2"":7,""hc4"":7,""Robot2"":6,""hi1"":6,""hi3"":7,""vi1"":7,""hc1"":8,""vi3"":7,""vc1"":6,""hc3"":7,""vi4"":8,""hi4"":7,""vi2"":6,""vc3"":5}","[14,16,1,10,12,7,0,2,4,9,6,13,11,8,3,5,15]"
"","","","","","survey-text","152","1862589","0.0-25.0","39","1","2023-06-16 17:06:03","846205d480aaa49f22c83d5c8cececc8","207.135.205.91","Mozilla/5.0 (Windows NT 6.3; WOW64) AppleWebKit/537.36 (KHTML, like Gecko) Chrome/109.0.0.0 Safari/537.36","WebKit","Chrome","109.0.0.0","Windows","6.3","22937","","{""ID"":""A16B7ZNV276IJA"",""Comments"":"" GOOD SURVEY ""}",""
"","","","","","html-button-response","153","1874621","0.0-26.0","39","1","2023-06-16 17:06:03","846205d480aaa49f22c83d5c8cececc8","207.135.205.91","Mozilla/5.0 (Windows NT 6.3; WOW64) AppleWebKit/537.36 (KHTML, like Gecko) Chrome/109.0.0.0 Safari/537.36","WebKit","Chrome","109.0.0.0","Windows","6.3","12026","<p><strong>Congratulations! </strong> Your have finished all the survey. Thank you for your participation!</p><p><strong>Here is your complete token:</strong></p>5j98umra7wchxcobjizgkvlfe<p></p><p><strong>Please copy it to the mTurk page.</strong></p>","0",""
