"success","timeout","failed_images","failed_audio","failed_video","trial_type","trial_index","time_elapsed","internal_node_id","run_id","condition","recorded_at","source_code_version","ip","user_agent","device","browser","browser_version","platform","platform_version","rt","stimulus","response","question_order"
"true","false","[]","[]","[]","preload","0","2662","0.0-0.0","46","1","2023-06-09 16:55:28","846205d480aaa49f22c83d5c8cececc8","208.196.109.63","Mozilla/5.0 (Windows NT 10.0; Win64; x64) AppleWebKit/537.36 (KHTML, like Gecko) Chrome/113.0.0.0 Safari/537.36","WebKit","Chrome","113.0.0.0","Windows","10.0","","","",""
"true","","","","","fullscreen","1","1078370","0.0-1.0","46","1","2023-06-09 16:55:28","846205d480aaa49f22c83d5c8cececc8","208.196.109.63","Mozilla/5.0 (Windows NT 10.0; Win64; x64) AppleWebKit/537.36 (KHTML, like Gecko) Chrome/113.0.0.0 Safari/537.36","WebKit","Chrome","113.0.0.0","Windows","10.0","","","",""
"","","","","","html-button-response","2","1086589","0.0-2.0","46","1","2023-06-09 16:55:28","846205d480aaa49f22c83d5c8cececc8","208.196.109.63","Mozilla/5.0 (Windows NT 10.0; Win64; x64) AppleWebKit/537.36 (KHTML, like Gecko) Chrome/113.0.0.0 Safari/537.36","WebKit","Chrome","113.0.0.0","Windows","10.0","8212","<p ><strong>Welcome to the experiment!</strong></p><p ><strong>In the first task, please imagine:</strong></p><p>Your country is involved in a military conflict with another country.</p><p>You are the commander of your army and must make decisions in the conflict.</p><p>Specifically, as the military commander, you must decide whether to launch a missile to strike enemy.</p><p>You will face a series of scenarios. Please read each scenario carefully and make a decision.</p><p>The task will take around 10 minutes to complete.</p><p><strong>Please pay your attention during the experiment.</strong></p>","0",""
"","","","","","html-keyboard-response","3","1087597","0.0-3.0-0.0","46","1","2023-06-09 16:55:28","846205d480aaa49f22c83d5c8cececc8","208.196.109.63","Mozilla/5.0 (Windows NT 10.0; Win64; x64) AppleWebKit/537.36 (KHTML, like Gecko) Chrome/113.0.0.0 Safari/537.36","WebKit","Chrome","113.0.0.0","Windows","10.0","null","<div style=""font-size:60px;"">+</div>","null",""
"","","","","","html-button-response","4","1091077","0.0-3.0-1.0","46","1","2023-06-09 16:55:28","846205d480aaa49f22c83d5c8cececc8","208.196.109.63","Mozilla/5.0 (Windows NT 10.0; Win64; x64) AppleWebKit/537.36 (KHTML, like Gecko) Chrome/113.0.0.0 Safari/537.36","WebKit","Chrome","113.0.0.0","Windows","10.0","3470","<p>As the military commander, you could choose to launch a missile to kill <strong>1 enemy soldier</strong> , but would accidentally kill <strong>1 enemy tree</strong> nearby.</p> <p>The photo of the <strong>enemy tree</strong> is shown below.</p> <p></p> <img src='stimuli/tree/4.png', style='max-width: 30%;'> </img> <p><strong>Would you launch the weapon?</strong></p>","0",""
"","","","","","html-keyboard-response","5","1092082","0.0-3.0-0.1","46","1","2023-06-09 16:55:28","846205d480aaa49f22c83d5c8cececc8","208.196.109.63","Mozilla/5.0 (Windows NT 10.0; Win64; x64) AppleWebKit/537.36 (KHTML, like Gecko) Chrome/113.0.0.0 Safari/537.36","WebKit","Chrome","113.0.0.0","Windows","10.0","null","<div style=""font-size:60px;"">+</div>","null",""
"","","","","","html-button-response","6","1094240","0.0-3.0-1.1","46","1","2023-06-09 16:55:28","846205d480aaa49f22c83d5c8cececc8","208.196.109.63","Mozilla/5.0 (Windows NT 10.0; Win64; x64) AppleWebKit/537.36 (KHTML, like Gecko) Chrome/113.0.0.0 Safari/537.36","WebKit","Chrome","113.0.0.0","Windows","10.0","2154","<p>As the military commander, you could choose to launch a missile to kill <strong>3 enemy soldiers</strong> , but would accidentally kill <strong>1 enemy tree</strong> nearby.</p> <p>The photo of the <strong>enemy tree</strong> is shown below.</p> <p></p> <img src='stimuli/tree/7.png', style='max-width: 30%;'> </img> <p><strong>Would you launch the weapon?</strong></p>","1",""
"","","","","","html-keyboard-response","7","1095254","0.0-3.0-0.2","46","1","2023-06-09 16:55:28","846205d480aaa49f22c83d5c8cececc8","208.196.109.63","Mozilla/5.0 (Windows NT 10.0; Win64; x64) AppleWebKit/537.36 (KHTML, like Gecko) Chrome/113.0.0.0 Safari/537.36","WebKit","Chrome","113.0.0.0","Windows","10.0","null","<div style=""font-size:60px;"">+</div>","null",""
"","","","","","html-button-response","8","1096389","0.0-3.0-1.2","46","1","2023-06-09 16:55:28","846205d480aaa49f22c83d5c8cececc8","208.196.109.63","Mozilla/5.0 (Windows NT 10.0; Win64; x64) AppleWebKit/537.36 (KHTML, like Gecko) Chrome/113.0.0.0 Safari/537.36","WebKit","Chrome","113.0.0.0","Windows","10.0","1132","<p>As the military commander, you could choose to launch a missile to kill <strong>9 enemy soldiers</strong> , but would accidentally kill <strong>1 enemy tree</strong> nearby.</p> <p>The photo of the <strong>enemy tree</strong> is shown below.</p> <p></p> <img src='stimuli/tree/10.png', style='max-width: 30%;'> </img> <p><strong>Would you launch the weapon?</strong></p>","0",""
"","","","","","html-keyboard-response","9","1097414","0.0-3.0-0.3","46","1","2023-06-09 16:55:28","846205d480aaa49f22c83d5c8cececc8","208.196.109.63","Mozilla/5.0 (Windows NT 10.0; Win64; x64) AppleWebKit/537.36 (KHTML, like Gecko) Chrome/113.0.0.0 Safari/537.36","WebKit","Chrome","113.0.0.0","Windows","10.0","null","<div style=""font-size:60px;"">+</div>","null",""
"","","","","","html-button-response","10","1097903","0.0-3.0-1.3","46","1","2023-06-09 16:55:28","846205d480aaa49f22c83d5c8cececc8","208.196.109.63","Mozilla/5.0 (Windows NT 10.0; Win64; x64) AppleWebKit/537.36 (KHTML, like Gecko) Chrome/113.0.0.0 Safari/537.36","WebKit","Chrome","113.0.0.0","Windows","10.0","485","<p>As the military commander, you could choose to launch a missile to kill <strong>9 enemy soldiers</strong> , but would accidentally kill <strong>1 enemy civilian</strong> nearby.</p> <p>The photo of the <strong>enemy civilian</strong> is shown below.</p> <p></p> <img src='stimuli/faces/PCM2.jpg', style='max-width: 30%;'> </img> <p><strong>Would you launch the weapon?</strong></p>","0",""
"","","","","","html-keyboard-response","11","1098920","0.0-3.0-0.4","46","1","2023-06-09 16:55:28","846205d480aaa49f22c83d5c8cececc8","208.196.109.63","Mozilla/5.0 (Windows NT 10.0; Win64; x64) AppleWebKit/537.36 (KHTML, like Gecko) Chrome/113.0.0.0 Safari/537.36","WebKit","Chrome","113.0.0.0","Windows","10.0","null","<div style=""font-size:60px;"">+</div>","null",""
"","","","","","html-button-response","12","1099199","0.0-3.0-1.4","46","1","2023-06-09 16:55:28","846205d480aaa49f22c83d5c8cececc8","208.196.109.63","Mozilla/5.0 (Windows NT 10.0; Win64; x64) AppleWebKit/537.36 (KHTML, like Gecko) Chrome/113.0.0.0 Safari/537.36","WebKit","Chrome","113.0.0.0","Windows","10.0","272","<p>As the military commander, you could choose to launch a missile to kill <strong>2 enemy soldiers</strong> , but would accidentally kill <strong>1 enemy civilian</strong> nearby.</p> <p>The photo of the <strong>enemy civilian</strong> is shown below.</p> <p></p> <img src='stimuli/faces/PCF4.jpg', style='max-width: 30%;'> </img> <p><strong>Would you launch the weapon?</strong></p>","1",""
"","","","","","html-keyboard-response","13","1100211","0.0-3.0-0.5","46","1","2023-06-09 16:55:28","846205d480aaa49f22c83d5c8cececc8","208.196.109.63","Mozilla/5.0 (Windows NT 10.0; Win64; x64) AppleWebKit/537.36 (KHTML, like Gecko) Chrome/113.0.0.0 Safari/537.36","WebKit","Chrome","113.0.0.0","Windows","10.0","null","<div style=""font-size:60px;"">+</div>","null",""
"","","","","","html-button-response","14","1100489","0.0-3.0-1.5","46","1","2023-06-09 16:55:28","846205d480aaa49f22c83d5c8cececc8","208.196.109.63","Mozilla/5.0 (Windows NT 10.0; Win64; x64) AppleWebKit/537.36 (KHTML, like Gecko) Chrome/113.0.0.0 Safari/537.36","WebKit","Chrome","113.0.0.0","Windows","10.0","274","<p>As the military commander, you could choose to launch a missile to kill <strong>6 enemy soldiers</strong> , but would accidentally kill <strong>1 enemy civilian</strong> nearby.</p> <p>The photo of the <strong>enemy civilian</strong> is shown below.</p> <p></p> <img src='stimuli/faces/PCM4.jpg', style='max-width: 30%;'> </img> <p><strong>Would you launch the weapon?</strong></p>","1",""
"","","","","","html-keyboard-response","15","1101501","0.0-3.0-0.6","46","1","2023-06-09 16:55:28","846205d480aaa49f22c83d5c8cececc8","208.196.109.63","Mozilla/5.0 (Windows NT 10.0; Win64; x64) AppleWebKit/537.36 (KHTML, like Gecko) Chrome/113.0.0.0 Safari/537.36","WebKit","Chrome","113.0.0.0","Windows","10.0","null","<div style=""font-size:60px;"">+</div>","null",""
"","","","","","html-button-response","16","1102419","0.0-3.0-1.6","46","1","2023-06-09 16:55:28","846205d480aaa49f22c83d5c8cececc8","208.196.109.63","Mozilla/5.0 (Windows NT 10.0; Win64; x64) AppleWebKit/537.36 (KHTML, like Gecko) Chrome/113.0.0.0 Safari/537.36","WebKit","Chrome","113.0.0.0","Windows","10.0","914","<p>As the military commander, you could choose to launch a missile to kill <strong>3 enemy soldiers</strong> , but would accidentally kill <strong>1 enemy civilian</strong> nearby.</p> <p>The photo of the <strong>enemy civilian</strong> is shown below.</p> <p></p> <img src='stimuli/faces/PCM4.jpg', style='max-width: 30%;'> </img> <p><strong>Would you launch the weapon?</strong></p>","0",""
"","","","","","html-keyboard-response","17","1103427","0.0-3.0-0.7","46","1","2023-06-09 16:55:28","846205d480aaa49f22c83d5c8cececc8","208.196.109.63","Mozilla/5.0 (Windows NT 10.0; Win64; x64) AppleWebKit/537.36 (KHTML, like Gecko) Chrome/113.0.0.0 Safari/537.36","WebKit","Chrome","113.0.0.0","Windows","10.0","null","<div style=""font-size:60px;"">+</div>","null",""
"","","","","","html-button-response","18","1104566","0.0-3.0-1.7","46","1","2023-06-09 16:55:28","846205d480aaa49f22c83d5c8cececc8","208.196.109.63","Mozilla/5.0 (Windows NT 10.0; Win64; x64) AppleWebKit/537.36 (KHTML, like Gecko) Chrome/113.0.0.0 Safari/537.36","WebKit","Chrome","113.0.0.0","Windows","10.0","1136","<p>As the military commander, you could choose to launch a missile to kill <strong>4 enemy soldiers</strong> , but would accidentally kill <strong>1 enemy tree</strong> nearby.</p> <p>The photo of the <strong>enemy tree</strong> is shown below.</p> <p></p> <img src='stimuli/tree/10.png', style='max-width: 30%;'> </img> <p><strong>Would you launch the weapon?</strong></p>","0",""
"","","","","","html-keyboard-response","19","1105583","0.0-3.0-0.8","46","1","2023-06-09 16:55:28","846205d480aaa49f22c83d5c8cececc8","208.196.109.63","Mozilla/5.0 (Windows NT 10.0; Win64; x64) AppleWebKit/537.36 (KHTML, like Gecko) Chrome/113.0.0.0 Safari/537.36","WebKit","Chrome","113.0.0.0","Windows","10.0","null","<div style=""font-size:60px;"">+</div>","null",""
"","","","","","html-button-response","20","1105760","0.0-3.0-1.8","46","1","2023-06-09 16:55:28","846205d480aaa49f22c83d5c8cececc8","208.196.109.63","Mozilla/5.0 (Windows NT 10.0; Win64; x64) AppleWebKit/537.36 (KHTML, like Gecko) Chrome/113.0.0.0 Safari/537.36","WebKit","Chrome","113.0.0.0","Windows","10.0","171","<p>As the military commander, you could choose to launch a missile to kill <strong>8 enemy soldiers</strong> , but would accidentally kill <strong>1 enemy tree</strong> nearby.</p> <p>The photo of the <strong>enemy tree</strong> is shown below.</p> <p></p> <img src='stimuli/tree/13.png', style='max-width: 30%;'> </img> <p><strong>Would you launch the weapon?</strong></p>","0",""
"","","","","","html-keyboard-response","21","1106771","0.0-3.0-0.9","46","1","2023-06-09 16:55:28","846205d480aaa49f22c83d5c8cececc8","208.196.109.63","Mozilla/5.0 (Windows NT 10.0; Win64; x64) AppleWebKit/537.36 (KHTML, like Gecko) Chrome/113.0.0.0 Safari/537.36","WebKit","Chrome","113.0.0.0","Windows","10.0","null","<div style=""font-size:60px;"">+</div>","null",""
"","","","","","html-button-response","22","1107165","0.0-3.0-1.9","46","1","2023-06-09 16:55:28","846205d480aaa49f22c83d5c8cececc8","208.196.109.63","Mozilla/5.0 (Windows NT 10.0; Win64; x64) AppleWebKit/537.36 (KHTML, like Gecko) Chrome/113.0.0.0 Safari/537.36","WebKit","Chrome","113.0.0.0","Windows","10.0","392","<p>As the military commander, you could choose to launch a missile to kill <strong>9 enemy soldiers</strong> , but would accidentally kill <strong>1 enemy tree</strong> nearby.</p> <p>The photo of the <strong>enemy tree</strong> is shown below.</p> <p></p> <img src='stimuli/tree/7.png', style='max-width: 30%;'> </img> <p><strong>Would you launch the weapon?</strong></p>","0",""
"","","","","","html-keyboard-response","23","1108170","0.0-3.0-0.10","46","1","2023-06-09 16:55:28","846205d480aaa49f22c83d5c8cececc8","208.196.109.63","Mozilla/5.0 (Windows NT 10.0; Win64; x64) AppleWebKit/537.36 (KHTML, like Gecko) Chrome/113.0.0.0 Safari/537.36","WebKit","Chrome","113.0.0.0","Windows","10.0","null","<div style=""font-size:60px;"">+</div>","null",""
"","","","","","html-button-response","24","1108725","0.0-3.0-1.10","46","1","2023-06-09 16:55:28","846205d480aaa49f22c83d5c8cececc8","208.196.109.63","Mozilla/5.0 (Windows NT 10.0; Win64; x64) AppleWebKit/537.36 (KHTML, like Gecko) Chrome/113.0.0.0 Safari/537.36","WebKit","Chrome","113.0.0.0","Windows","10.0","551","<p>As the military commander, you could choose to launch a missile to kill <strong>8 enemy soldiers</strong> , but would accidentally kill <strong>1 enemy civilian</strong> nearby.</p> <p>The photo of the <strong>enemy civilian</strong> is shown below.</p> <p></p> <img src='stimuli/faces/PCM5.jpg', style='max-width: 30%;'> </img> <p><strong>Would you launch the weapon?</strong></p>","0",""
"","","","","","html-keyboard-response","25","1109737","0.0-3.0-0.11","46","1","2023-06-09 16:55:28","846205d480aaa49f22c83d5c8cececc8","208.196.109.63","Mozilla/5.0 (Windows NT 10.0; Win64; x64) AppleWebKit/537.36 (KHTML, like Gecko) Chrome/113.0.0.0 Safari/537.36","WebKit","Chrome","113.0.0.0","Windows","10.0","null","<div style=""font-size:60px;"">+</div>","null",""
"","","","","","html-button-response","26","1110185","0.0-3.0-1.11","46","1","2023-06-09 16:55:28","846205d480aaa49f22c83d5c8cececc8","208.196.109.63","Mozilla/5.0 (Windows NT 10.0; Win64; x64) AppleWebKit/537.36 (KHTML, like Gecko) Chrome/113.0.0.0 Safari/537.36","WebKit","Chrome","113.0.0.0","Windows","10.0","444","<p>As the military commander, you could choose to launch a missile to kill <strong>1 enemy soldier</strong> , but would accidentally kill <strong>1 enemy tree</strong> nearby.</p> <p>The photo of the <strong>enemy tree</strong> is shown below.</p> <p></p> <img src='stimuli/tree/1.png', style='max-width: 30%;'> </img> <p><strong>Would you launch the weapon?</strong></p>","0",""
"","","","","","html-keyboard-response","27","1111189","0.0-3.0-0.12","46","1","2023-06-09 16:55:28","846205d480aaa49f22c83d5c8cececc8","208.196.109.63","Mozilla/5.0 (Windows NT 10.0; Win64; x64) AppleWebKit/537.36 (KHTML, like Gecko) Chrome/113.0.0.0 Safari/537.36","WebKit","Chrome","113.0.0.0","Windows","10.0","null","<div style=""font-size:60px;"">+</div>","null",""
"","","","","","html-button-response","28","1111785","0.0-3.0-1.12","46","1","2023-06-09 16:55:28","846205d480aaa49f22c83d5c8cececc8","208.196.109.63","Mozilla/5.0 (Windows NT 10.0; Win64; x64) AppleWebKit/537.36 (KHTML, like Gecko) Chrome/113.0.0.0 Safari/537.36","WebKit","Chrome","113.0.0.0","Windows","10.0","592","<p>As the military commander, you could choose to launch a missile to kill <strong>3 enemy soldiers</strong> , but would accidentally kill <strong>1 enemy tree</strong> nearby.</p> <p>The photo of the <strong>enemy tree</strong> is shown below.</p> <p></p> <img src='stimuli/tree/2.png', style='max-width: 30%;'> </img> <p><strong>Would you launch the weapon?</strong></p>","0",""
"","","","","","html-keyboard-response","29","1112801","0.0-3.0-0.13","46","1","2023-06-09 16:55:28","846205d480aaa49f22c83d5c8cececc8","208.196.109.63","Mozilla/5.0 (Windows NT 10.0; Win64; x64) AppleWebKit/537.36 (KHTML, like Gecko) Chrome/113.0.0.0 Safari/537.36","WebKit","Chrome","113.0.0.0","Windows","10.0","null","<div style=""font-size:60px;"">+</div>","null",""
"","","","","","html-button-response","30","1113497","0.0-3.0-1.13","46","1","2023-06-09 16:55:28","846205d480aaa49f22c83d5c8cececc8","208.196.109.63","Mozilla/5.0 (Windows NT 10.0; Win64; x64) AppleWebKit/537.36 (KHTML, like Gecko) Chrome/113.0.0.0 Safari/537.36","WebKit","Chrome","113.0.0.0","Windows","10.0","691","<p>As the military commander, you could choose to launch a missile to kill <strong>5 enemy soldiers</strong> , but would accidentally kill <strong>1 enemy civilian</strong> nearby.</p> <p>The photo of the <strong>enemy civilian</strong> is shown below.</p> <p></p> <img src='stimuli/faces/PCF8.jpg', style='max-width: 30%;'> </img> <p><strong>Would you launch the weapon?</strong></p>","1",""
"","","","","","html-keyboard-response","31","1114510","0.0-3.0-0.14","46","1","2023-06-09 16:55:28","846205d480aaa49f22c83d5c8cececc8","208.196.109.63","Mozilla/5.0 (Windows NT 10.0; Win64; x64) AppleWebKit/537.36 (KHTML, like Gecko) Chrome/113.0.0.0 Safari/537.36","WebKit","Chrome","113.0.0.0","Windows","10.0","null","<div style=""font-size:60px;"">+</div>","null",""
"","","","","","html-button-response","32","1114889","0.0-3.0-1.14","46","1","2023-06-09 16:55:28","846205d480aaa49f22c83d5c8cececc8","208.196.109.63","Mozilla/5.0 (Windows NT 10.0; Win64; x64) AppleWebKit/537.36 (KHTML, like Gecko) Chrome/113.0.0.0 Safari/537.36","WebKit","Chrome","113.0.0.0","Windows","10.0","373","<p>As the military commander, you could choose to launch a missile to kill <strong>9 enemy soldiers</strong> , but would accidentally kill <strong>1 enemy tree</strong> nearby.</p> <p>The photo of the <strong>enemy tree</strong> is shown below.</p> <p></p> <img src='stimuli/tree/11.png', style='max-width: 30%;'> </img> <p><strong>Would you launch the weapon?</strong></p>","0",""
"","","","","","html-keyboard-response","33","1115916","0.0-3.0-0.15","46","1","2023-06-09 16:55:28","846205d480aaa49f22c83d5c8cececc8","208.196.109.63","Mozilla/5.0 (Windows NT 10.0; Win64; x64) AppleWebKit/537.36 (KHTML, like Gecko) Chrome/113.0.0.0 Safari/537.36","WebKit","Chrome","113.0.0.0","Windows","10.0","null","<div style=""font-size:60px;"">+</div>","null",""
"","","","","","html-button-response","34","1116119","0.0-3.0-1.15","46","1","2023-06-09 16:55:28","846205d480aaa49f22c83d5c8cececc8","208.196.109.63","Mozilla/5.0 (Windows NT 10.0; Win64; x64) AppleWebKit/537.36 (KHTML, like Gecko) Chrome/113.0.0.0 Safari/537.36","WebKit","Chrome","113.0.0.0","Windows","10.0","200","<p>As the military commander, you could choose to launch a missile to kill <strong>1 enemy soldier</strong> , but would accidentally kill <strong>1 enemy civilian</strong> nearby.</p> <p>The photo of the <strong>enemy civilian</strong> is shown below.</p> <p></p> <img src='stimuli/faces/PCM6.jpg', style='max-width: 30%;'> </img> <p><strong>Would you launch the weapon?</strong></p>","0",""
"","","","","","html-keyboard-response","35","1117121","0.0-3.0-0.16","46","1","2023-06-09 16:55:28","846205d480aaa49f22c83d5c8cececc8","208.196.109.63","Mozilla/5.0 (Windows NT 10.0; Win64; x64) AppleWebKit/537.36 (KHTML, like Gecko) Chrome/113.0.0.0 Safari/537.36","WebKit","Chrome","113.0.0.0","Windows","10.0","null","<div style=""font-size:60px;"">+</div>","null",""
"","","","","","html-button-response","36","1117720","0.0-3.0-1.16","46","1","2023-06-09 16:55:28","846205d480aaa49f22c83d5c8cececc8","208.196.109.63","Mozilla/5.0 (Windows NT 10.0; Win64; x64) AppleWebKit/537.36 (KHTML, like Gecko) Chrome/113.0.0.0 Safari/537.36","WebKit","Chrome","113.0.0.0","Windows","10.0","594","<p>As the military commander, you could choose to launch a missile to kill <strong>2 enemy soldiers</strong> , but would accidentally kill <strong>1 enemy civilian</strong> nearby.</p> <p>The photo of the <strong>enemy civilian</strong> is shown below.</p> <p></p> <img src='stimuli/faces/PCF6.jpg', style='max-width: 30%;'> </img> <p><strong>Would you launch the weapon?</strong></p>","0",""
"","","","","","html-keyboard-response","37","1118728","0.0-3.0-0.17","46","1","2023-06-09 16:55:28","846205d480aaa49f22c83d5c8cececc8","208.196.109.63","Mozilla/5.0 (Windows NT 10.0; Win64; x64) AppleWebKit/537.36 (KHTML, like Gecko) Chrome/113.0.0.0 Safari/537.36","WebKit","Chrome","113.0.0.0","Windows","10.0","null","<div style=""font-size:60px;"">+</div>","null",""
"","","","","","html-button-response","38","1118883","0.0-3.0-1.17","46","1","2023-06-09 16:55:28","846205d480aaa49f22c83d5c8cececc8","208.196.109.63","Mozilla/5.0 (Windows NT 10.0; Win64; x64) AppleWebKit/537.36 (KHTML, like Gecko) Chrome/113.0.0.0 Safari/537.36","WebKit","Chrome","113.0.0.0","Windows","10.0","145","<p>As the military commander, you could choose to launch a missile to kill <strong>2 enemy soldiers</strong> , but would accidentally kill <strong>1 enemy tree</strong> nearby.</p> <p>The photo of the <strong>enemy tree</strong> is shown below.</p> <p></p> <img src='stimuli/tree/8.png', style='max-width: 30%;'> </img> <p><strong>Would you launch the weapon?</strong></p>","1",""
"","","","","","html-keyboard-response","39","1119905","0.0-3.0-0.18","46","1","2023-06-09 16:55:28","846205d480aaa49f22c83d5c8cececc8","208.196.109.63","Mozilla/5.0 (Windows NT 10.0; Win64; x64) AppleWebKit/537.36 (KHTML, like Gecko) Chrome/113.0.0.0 Safari/537.36","WebKit","Chrome","113.0.0.0","Windows","10.0","null","<div style=""font-size:60px;"">+</div>","null",""
"","","","","","html-button-response","40","1120118","0.0-3.0-1.18","46","1","2023-06-09 16:55:28","846205d480aaa49f22c83d5c8cececc8","208.196.109.63","Mozilla/5.0 (Windows NT 10.0; Win64; x64) AppleWebKit/537.36 (KHTML, like Gecko) Chrome/113.0.0.0 Safari/537.36","WebKit","Chrome","113.0.0.0","Windows","10.0","207","<p>As the military commander, you could choose to launch a missile to kill <strong>7 enemy soldiers</strong> , but would accidentally kill <strong>1 enemy tree</strong> nearby.</p> <p>The photo of the <strong>enemy tree</strong> is shown below.</p> <p></p> <img src='stimuli/tree/9.png', style='max-width: 30%;'> </img> <p><strong>Would you launch the weapon?</strong></p>","0",""
"","","","","","html-keyboard-response","41","1121120","0.0-3.0-0.19","46","1","2023-06-09 16:55:28","846205d480aaa49f22c83d5c8cececc8","208.196.109.63","Mozilla/5.0 (Windows NT 10.0; Win64; x64) AppleWebKit/537.36 (KHTML, like Gecko) Chrome/113.0.0.0 Safari/537.36","WebKit","Chrome","113.0.0.0","Windows","10.0","null","<div style=""font-size:60px;"">+</div>","null",""
"","","","","","html-button-response","42","1121775","0.0-3.0-1.19","46","1","2023-06-09 16:55:28","846205d480aaa49f22c83d5c8cececc8","208.196.109.63","Mozilla/5.0 (Windows NT 10.0; Win64; x64) AppleWebKit/537.36 (KHTML, like Gecko) Chrome/113.0.0.0 Safari/537.36","WebKit","Chrome","113.0.0.0","Windows","10.0","636","<p>As the military commander, you could choose to launch a missile to kill <strong>2 enemy soldiers</strong> , but would accidentally kill <strong>1 enemy tree</strong> nearby.</p> <p>The photo of the <strong>enemy tree</strong> is shown below.</p> <p></p> <img src='stimuli/tree/11.png', style='max-width: 30%;'> </img> <p><strong>Would you launch the weapon?</strong></p>","1",""
"","","","","","html-keyboard-response","43","1122787","0.0-3.0-0.20","46","1","2023-06-09 16:55:28","846205d480aaa49f22c83d5c8cececc8","208.196.109.63","Mozilla/5.0 (Windows NT 10.0; Win64; x64) AppleWebKit/537.36 (KHTML, like Gecko) Chrome/113.0.0.0 Safari/537.36","WebKit","Chrome","113.0.0.0","Windows","10.0","null","<div style=""font-size:60px;"">+</div>","null",""
"","","","","","html-button-response","44","1123316","0.0-3.0-1.20","46","1","2023-06-09 16:55:28","846205d480aaa49f22c83d5c8cececc8","208.196.109.63","Mozilla/5.0 (Windows NT 10.0; Win64; x64) AppleWebKit/537.36 (KHTML, like Gecko) Chrome/113.0.0.0 Safari/537.36","WebKit","Chrome","113.0.0.0","Windows","10.0","507","<p>As the military commander, you could choose to launch a missile to kill <strong>1 enemy soldier</strong> , but would accidentally kill <strong>1 enemy tree</strong> nearby.</p> <p>The photo of the <strong>enemy tree</strong> is shown below.</p> <p></p> <img src='stimuli/tree/9.png', style='max-width: 30%;'> </img> <p><strong>Would you launch the weapon?</strong></p>","1",""
"","","","","","html-keyboard-response","45","1124334","0.0-3.0-0.21","46","1","2023-06-09 16:55:28","846205d480aaa49f22c83d5c8cececc8","208.196.109.63","Mozilla/5.0 (Windows NT 10.0; Win64; x64) AppleWebKit/537.36 (KHTML, like Gecko) Chrome/113.0.0.0 Safari/537.36","WebKit","Chrome","113.0.0.0","Windows","10.0","null","<div style=""font-size:60px;"">+</div>","null",""
"","","","","","html-button-response","46","1124630","0.0-3.0-1.21","46","1","2023-06-09 16:55:28","846205d480aaa49f22c83d5c8cececc8","208.196.109.63","Mozilla/5.0 (Windows NT 10.0; Win64; x64) AppleWebKit/537.36 (KHTML, like Gecko) Chrome/113.0.0.0 Safari/537.36","WebKit","Chrome","113.0.0.0","Windows","10.0","293","<p>As the military commander, you could choose to launch a missile to kill <strong>10 enemy soldiers</strong> , but would accidentally kill <strong>1 enemy civilian</strong> nearby.</p> <p>The photo of the <strong>enemy civilian</strong> is shown below.</p> <p></p> <img src='stimuli/faces/PCF6.jpg', style='max-width: 30%;'> </img> <p><strong>Would you launch the weapon?</strong></p>","0",""
"","","","","","html-keyboard-response","47","1125633","0.0-3.0-0.22","46","1","2023-06-09 16:55:28","846205d480aaa49f22c83d5c8cececc8","208.196.109.63","Mozilla/5.0 (Windows NT 10.0; Win64; x64) AppleWebKit/537.36 (KHTML, like Gecko) Chrome/113.0.0.0 Safari/537.36","WebKit","Chrome","113.0.0.0","Windows","10.0","null","<div style=""font-size:60px;"">+</div>","null",""
"","","","","","html-button-response","48","1126192","0.0-3.0-1.22","46","1","2023-06-09 16:55:28","846205d480aaa49f22c83d5c8cececc8","208.196.109.63","Mozilla/5.0 (Windows NT 10.0; Win64; x64) AppleWebKit/537.36 (KHTML, like Gecko) Chrome/113.0.0.0 Safari/537.36","WebKit","Chrome","113.0.0.0","Windows","10.0","554","<p>As the military commander, you could choose to launch a missile to kill <strong>4 enemy soldiers</strong> , but would accidentally kill <strong>1 enemy civilian</strong> nearby.</p> <p>The photo of the <strong>enemy civilian</strong> is shown below.</p> <p></p> <img src='stimuli/faces/PCM1.jpg', style='max-width: 30%;'> </img> <p><strong>Would you launch the weapon?</strong></p>","1",""
"","","","","","html-keyboard-response","49","1127210","0.0-3.0-0.23","46","1","2023-06-09 16:55:28","846205d480aaa49f22c83d5c8cececc8","208.196.109.63","Mozilla/5.0 (Windows NT 10.0; Win64; x64) AppleWebKit/537.36 (KHTML, like Gecko) Chrome/113.0.0.0 Safari/537.36","WebKit","Chrome","113.0.0.0","Windows","10.0","null","<div style=""font-size:60px;"">+</div>","null",""
"","","","","","html-button-response","50","1127400","0.0-3.0-1.23","46","1","2023-06-09 16:55:28","846205d480aaa49f22c83d5c8cececc8","208.196.109.63","Mozilla/5.0 (Windows NT 10.0; Win64; x64) AppleWebKit/537.36 (KHTML, like Gecko) Chrome/113.0.0.0 Safari/537.36","WebKit","Chrome","113.0.0.0","Windows","10.0","186","<p>As the military commander, you could choose to launch a missile to kill <strong>2 enemy soldiers</strong> , but would accidentally kill <strong>1 enemy tree</strong> nearby.</p> <p>The photo of the <strong>enemy tree</strong> is shown below.</p> <p></p> <img src='stimuli/tree/3.png', style='max-width: 30%;'> </img> <p><strong>Would you launch the weapon?</strong></p>","1",""
"","","","","","html-keyboard-response","51","1128413","0.0-3.0-0.24","46","1","2023-06-09 16:55:28","846205d480aaa49f22c83d5c8cececc8","208.196.109.63","Mozilla/5.0 (Windows NT 10.0; Win64; x64) AppleWebKit/537.36 (KHTML, like Gecko) Chrome/113.0.0.0 Safari/537.36","WebKit","Chrome","113.0.0.0","Windows","10.0","null","<div style=""font-size:60px;"">+</div>","null",""
"","","","","","html-button-response","52","1129109","0.0-3.0-1.24","46","1","2023-06-09 16:55:28","846205d480aaa49f22c83d5c8cececc8","208.196.109.63","Mozilla/5.0 (Windows NT 10.0; Win64; x64) AppleWebKit/537.36 (KHTML, like Gecko) Chrome/113.0.0.0 Safari/537.36","WebKit","Chrome","113.0.0.0","Windows","10.0","683","<p>As the military commander, you could choose to launch a missile to kill <strong>3 enemy soldiers</strong> , but would accidentally kill <strong>1 enemy tree</strong> nearby.</p> <p>The photo of the <strong>enemy tree</strong> is shown below.</p> <p></p> <img src='stimuli/tree/13.png', style='max-width: 30%;'> </img> <p><strong>Would you launch the weapon?</strong></p>","1",""
"","","","","","html-keyboard-response","53","1130113","0.0-3.0-0.25","46","1","2023-06-09 16:55:28","846205d480aaa49f22c83d5c8cececc8","208.196.109.63","Mozilla/5.0 (Windows NT 10.0; Win64; x64) AppleWebKit/537.36 (KHTML, like Gecko) Chrome/113.0.0.0 Safari/537.36","WebKit","Chrome","113.0.0.0","Windows","10.0","null","<div style=""font-size:60px;"">+</div>","null",""
"","","","","","html-button-response","54","1130753","0.0-3.0-1.25","46","1","2023-06-09 16:55:28","846205d480aaa49f22c83d5c8cececc8","208.196.109.63","Mozilla/5.0 (Windows NT 10.0; Win64; x64) AppleWebKit/537.36 (KHTML, like Gecko) Chrome/113.0.0.0 Safari/537.36","WebKit","Chrome","113.0.0.0","Windows","10.0","627","<p>As the military commander, you could choose to launch a missile to kill <strong>6 enemy soldiers</strong> , but would accidentally kill <strong>1 enemy tree</strong> nearby.</p> <p>The photo of the <strong>enemy tree</strong> is shown below.</p> <p></p> <img src='stimuli/tree/12.png', style='max-width: 30%;'> </img> <p><strong>Would you launch the weapon?</strong></p>","0",""
"","","","","","html-keyboard-response","55","1131781","0.0-3.0-0.26","46","1","2023-06-09 16:55:28","846205d480aaa49f22c83d5c8cececc8","208.196.109.63","Mozilla/5.0 (Windows NT 10.0; Win64; x64) AppleWebKit/537.36 (KHTML, like Gecko) Chrome/113.0.0.0 Safari/537.36","WebKit","Chrome","113.0.0.0","Windows","10.0","null","<div style=""font-size:60px;"">+</div>","null",""
"","","","","","html-button-response","56","1132156","0.0-3.0-1.26","46","1","2023-06-09 16:55:28","846205d480aaa49f22c83d5c8cececc8","208.196.109.63","Mozilla/5.0 (Windows NT 10.0; Win64; x64) AppleWebKit/537.36 (KHTML, like Gecko) Chrome/113.0.0.0 Safari/537.36","WebKit","Chrome","113.0.0.0","Windows","10.0","370","<p>As the military commander, you could choose to launch a missile to kill <strong>4 enemy soldiers</strong> , but would accidentally kill <strong>1 enemy tree</strong> nearby.</p> <p>The photo of the <strong>enemy tree</strong> is shown below.</p> <p></p> <img src='stimuli/tree/6.png', style='max-width: 30%;'> </img> <p><strong>Would you launch the weapon?</strong></p>","0",""
"","","","","","html-keyboard-response","57","1133166","0.0-3.0-0.27","46","1","2023-06-09 16:55:28","846205d480aaa49f22c83d5c8cececc8","208.196.109.63","Mozilla/5.0 (Windows NT 10.0; Win64; x64) AppleWebKit/537.36 (KHTML, like Gecko) Chrome/113.0.0.0 Safari/537.36","WebKit","Chrome","113.0.0.0","Windows","10.0","null","<div style=""font-size:60px;"">+</div>","null",""
"","","","","","html-button-response","58","1133692","0.0-3.0-1.27","46","1","2023-06-09 16:55:28","846205d480aaa49f22c83d5c8cececc8","208.196.109.63","Mozilla/5.0 (Windows NT 10.0; Win64; x64) AppleWebKit/537.36 (KHTML, like Gecko) Chrome/113.0.0.0 Safari/537.36","WebKit","Chrome","113.0.0.0","Windows","10.0","522","<p>As the military commander, you could choose to launch a missile to kill <strong>5 enemy soldiers</strong> , but would accidentally kill <strong>1 enemy tree</strong> nearby.</p> <p>The photo of the <strong>enemy tree</strong> is shown below.</p> <p></p> <img src='stimuli/tree/12.png', style='max-width: 30%;'> </img> <p><strong>Would you launch the weapon?</strong></p>","0",""
"","","","","","html-keyboard-response","59","1134701","0.0-3.0-0.28","46","1","2023-06-09 16:55:28","846205d480aaa49f22c83d5c8cececc8","208.196.109.63","Mozilla/5.0 (Windows NT 10.0; Win64; x64) AppleWebKit/537.36 (KHTML, like Gecko) Chrome/113.0.0.0 Safari/537.36","WebKit","Chrome","113.0.0.0","Windows","10.0","null","<div style=""font-size:60px;"">+</div>","null",""
"","","","","","html-button-response","60","1134920","0.0-3.0-1.28","46","1","2023-06-09 16:55:28","846205d480aaa49f22c83d5c8cececc8","208.196.109.63","Mozilla/5.0 (Windows NT 10.0; Win64; x64) AppleWebKit/537.36 (KHTML, like Gecko) Chrome/113.0.0.0 Safari/537.36","WebKit","Chrome","113.0.0.0","Windows","10.0","211","<p>As the military commander, you could choose to launch a missile to kill <strong>7 enemy soldiers</strong> , but would accidentally kill <strong>1 enemy civilian</strong> nearby.</p> <p>The photo of the <strong>enemy civilian</strong> is shown below.</p> <p></p> <img src='stimuli/faces/PCF8.jpg', style='max-width: 30%;'> </img> <p><strong>Would you launch the weapon?</strong></p>","1",""
"","","","","","html-keyboard-response","61","1135932","0.0-3.0-0.29","46","1","2023-06-09 16:55:28","846205d480aaa49f22c83d5c8cececc8","208.196.109.63","Mozilla/5.0 (Windows NT 10.0; Win64; x64) AppleWebKit/537.36 (KHTML, like Gecko) Chrome/113.0.0.0 Safari/537.36","WebKit","Chrome","113.0.0.0","Windows","10.0","null","<div style=""font-size:60px;"">+</div>","null",""
"","","","","","html-button-response","62","1136544","0.0-3.0-1.29","46","1","2023-06-09 16:55:28","846205d480aaa49f22c83d5c8cececc8","208.196.109.63","Mozilla/5.0 (Windows NT 10.0; Win64; x64) AppleWebKit/537.36 (KHTML, like Gecko) Chrome/113.0.0.0 Safari/537.36","WebKit","Chrome","113.0.0.0","Windows","10.0","607","<p>As the military commander, you could choose to launch a missile to kill <strong>7 enemy soldiers</strong> , but would accidentally kill <strong>1 enemy tree</strong> nearby.</p> <p>The photo of the <strong>enemy tree</strong> is shown below.</p> <p></p> <img src='stimuli/tree/8.png', style='max-width: 30%;'> </img> <p><strong>Would you launch the weapon?</strong></p>","0",""
"","","","","","html-keyboard-response","63","1137562","0.0-3.0-0.30","46","1","2023-06-09 16:55:28","846205d480aaa49f22c83d5c8cececc8","208.196.109.63","Mozilla/5.0 (Windows NT 10.0; Win64; x64) AppleWebKit/537.36 (KHTML, like Gecko) Chrome/113.0.0.0 Safari/537.36","WebKit","Chrome","113.0.0.0","Windows","10.0","null","<div style=""font-size:60px;"">+</div>","null",""
"","","","","","html-button-response","64","1137781","0.0-3.0-1.30","46","1","2023-06-09 16:55:28","846205d480aaa49f22c83d5c8cececc8","208.196.109.63","Mozilla/5.0 (Windows NT 10.0; Win64; x64) AppleWebKit/537.36 (KHTML, like Gecko) Chrome/113.0.0.0 Safari/537.36","WebKit","Chrome","113.0.0.0","Windows","10.0","210","<p>As the military commander, you could choose to launch a missile to kill <strong>1 enemy soldier</strong> , but would accidentally kill <strong>1 enemy civilian</strong> nearby.</p> <p>The photo of the <strong>enemy civilian</strong> is shown below.</p> <p></p> <img src='stimuli/faces/PCF7.jpg', style='max-width: 30%;'> </img> <p><strong>Would you launch the weapon?</strong></p>","1",""
"","","","","","html-keyboard-response","65","1138790","0.0-3.0-0.31","46","1","2023-06-09 16:55:28","846205d480aaa49f22c83d5c8cececc8","208.196.109.63","Mozilla/5.0 (Windows NT 10.0; Win64; x64) AppleWebKit/537.36 (KHTML, like Gecko) Chrome/113.0.0.0 Safari/537.36","WebKit","Chrome","113.0.0.0","Windows","10.0","null","<div style=""font-size:60px;"">+</div>","null",""
"","","","","","html-button-response","66","1139450","0.0-3.0-1.31","46","1","2023-06-09 16:55:28","846205d480aaa49f22c83d5c8cececc8","208.196.109.63","Mozilla/5.0 (Windows NT 10.0; Win64; x64) AppleWebKit/537.36 (KHTML, like Gecko) Chrome/113.0.0.0 Safari/537.36","WebKit","Chrome","113.0.0.0","Windows","10.0","648","<p>As the military commander, you could choose to launch a missile to kill <strong>5 enemy soldiers</strong> , but would accidentally kill <strong>1 enemy civilian</strong> nearby.</p> <p>The photo of the <strong>enemy civilian</strong> is shown below.</p> <p></p> <img src='stimuli/faces/PCF3.jpg', style='max-width: 30%;'> </img> <p><strong>Would you launch the weapon?</strong></p>","1",""
"","","","","","html-keyboard-response","67","1140454","0.0-3.0-0.32","46","1","2023-06-09 16:55:28","846205d480aaa49f22c83d5c8cececc8","208.196.109.63","Mozilla/5.0 (Windows NT 10.0; Win64; x64) AppleWebKit/537.36 (KHTML, like Gecko) Chrome/113.0.0.0 Safari/537.36","WebKit","Chrome","113.0.0.0","Windows","10.0","null","<div style=""font-size:60px;"">+</div>","null",""
"","","","","","html-button-response","68","1140602","0.0-3.0-1.32","46","1","2023-06-09 16:55:28","846205d480aaa49f22c83d5c8cececc8","208.196.109.63","Mozilla/5.0 (Windows NT 10.0; Win64; x64) AppleWebKit/537.36 (KHTML, like Gecko) Chrome/113.0.0.0 Safari/537.36","WebKit","Chrome","113.0.0.0","Windows","10.0","139","<p>As the military commander, you could choose to launch a missile to kill <strong>6 enemy soldiers</strong> , but would accidentally kill <strong>1 enemy tree</strong> nearby.</p> <p>The photo of the <strong>enemy tree</strong> is shown below.</p> <p></p> <img src='stimuli/tree/4.png', style='max-width: 30%;'> </img> <p><strong>Would you launch the weapon?</strong></p>","0",""
"","","","","","html-keyboard-response","69","1141607","0.0-3.0-0.33","46","1","2023-06-09 16:55:28","846205d480aaa49f22c83d5c8cececc8","208.196.109.63","Mozilla/5.0 (Windows NT 10.0; Win64; x64) AppleWebKit/537.36 (KHTML, like Gecko) Chrome/113.0.0.0 Safari/537.36","WebKit","Chrome","113.0.0.0","Windows","10.0","null","<div style=""font-size:60px;"">+</div>","null",""
"","","","","","html-button-response","70","1142504","0.0-3.0-1.33","46","1","2023-06-09 16:55:28","846205d480aaa49f22c83d5c8cececc8","208.196.109.63","Mozilla/5.0 (Windows NT 10.0; Win64; x64) AppleWebKit/537.36 (KHTML, like Gecko) Chrome/113.0.0.0 Safari/537.36","WebKit","Chrome","113.0.0.0","Windows","10.0","894","<p>As the military commander, you could choose to launch a missile to kill <strong>10 enemy soldiers</strong> , but would accidentally kill <strong>1 enemy civilian</strong> nearby.</p> <p>The photo of the <strong>enemy civilian</strong> is shown below.</p> <p></p> <img src='stimuli/faces/PCF2.jpg', style='max-width: 30%;'> </img> <p><strong>Would you launch the weapon?</strong></p>","0",""
"","","","","","html-keyboard-response","71","1143521","0.0-3.0-0.34","46","1","2023-06-09 16:55:28","846205d480aaa49f22c83d5c8cececc8","208.196.109.63","Mozilla/5.0 (Windows NT 10.0; Win64; x64) AppleWebKit/537.36 (KHTML, like Gecko) Chrome/113.0.0.0 Safari/537.36","WebKit","Chrome","113.0.0.0","Windows","10.0","null","<div style=""font-size:60px;"">+</div>","null",""
"","","","","","html-button-response","72","1143692","0.0-3.0-1.34","46","1","2023-06-09 16:55:28","846205d480aaa49f22c83d5c8cececc8","208.196.109.63","Mozilla/5.0 (Windows NT 10.0; Win64; x64) AppleWebKit/537.36 (KHTML, like Gecko) Chrome/113.0.0.0 Safari/537.36","WebKit","Chrome","113.0.0.0","Windows","10.0","166","<p>As the military commander, you could choose to launch a missile to kill <strong>9 enemy soldiers</strong> , but would accidentally kill <strong>1 enemy civilian</strong> nearby.</p> <p>The photo of the <strong>enemy civilian</strong> is shown below.</p> <p></p> <img src='stimuli/faces/PCF3.jpg', style='max-width: 30%;'> </img> <p><strong>Would you launch the weapon?</strong></p>","1",""
"","","","","","html-keyboard-response","73","1144705","0.0-3.0-0.35","46","1","2023-06-09 16:55:28","846205d480aaa49f22c83d5c8cececc8","208.196.109.63","Mozilla/5.0 (Windows NT 10.0; Win64; x64) AppleWebKit/537.36 (KHTML, like Gecko) Chrome/113.0.0.0 Safari/537.36","WebKit","Chrome","113.0.0.0","Windows","10.0","null","<div style=""font-size:60px;"">+</div>","null",""
"","","","","","html-button-response","74","1145410","0.0-3.0-1.35","46","1","2023-06-09 16:55:28","846205d480aaa49f22c83d5c8cececc8","208.196.109.63","Mozilla/5.0 (Windows NT 10.0; Win64; x64) AppleWebKit/537.36 (KHTML, like Gecko) Chrome/113.0.0.0 Safari/537.36","WebKit","Chrome","113.0.0.0","Windows","10.0","697","<p>As the military commander, you could choose to launch a missile to kill <strong>2 enemy soldiers</strong> , but would accidentally kill <strong>1 enemy civilian</strong> nearby.</p> <p>The photo of the <strong>enemy civilian</strong> is shown below.</p> <p></p> <img src='stimuli/faces/PCM8.jpg', style='max-width: 30%;'> </img> <p><strong>Would you launch the weapon?</strong></p>","0",""
"","","","","","html-keyboard-response","75","1146425","0.0-3.0-0.36","46","1","2023-06-09 16:55:28","846205d480aaa49f22c83d5c8cececc8","208.196.109.63","Mozilla/5.0 (Windows NT 10.0; Win64; x64) AppleWebKit/537.36 (KHTML, like Gecko) Chrome/113.0.0.0 Safari/537.36","WebKit","Chrome","113.0.0.0","Windows","10.0","null","<div style=""font-size:60px;"">+</div>","null",""
"","","","","","html-button-response","76","1148245","0.0-3.0-1.36","46","1","2023-06-09 16:55:28","846205d480aaa49f22c83d5c8cececc8","208.196.109.63","Mozilla/5.0 (Windows NT 10.0; Win64; x64) AppleWebKit/537.36 (KHTML, like Gecko) Chrome/113.0.0.0 Safari/537.36","WebKit","Chrome","113.0.0.0","Windows","10.0","1810","<p>As the military commander, you could choose to launch a missile to kill <strong>3 enemy soldiers</strong> , but would accidentally kill <strong>1 enemy civilian</strong> nearby.</p> <p>The photo of the <strong>enemy civilian</strong> is shown below.</p> <p></p> <img src='stimuli/faces/PCF2.jpg', style='max-width: 30%;'> </img> <p><strong>Would you launch the weapon?</strong></p>","0",""
"","","","","","html-keyboard-response","77","1149263","0.0-3.0-0.37","46","1","2023-06-09 16:55:28","846205d480aaa49f22c83d5c8cececc8","208.196.109.63","Mozilla/5.0 (Windows NT 10.0; Win64; x64) AppleWebKit/537.36 (KHTML, like Gecko) Chrome/113.0.0.0 Safari/537.36","WebKit","Chrome","113.0.0.0","Windows","10.0","null","<div style=""font-size:60px;"">+</div>","null",""
"","","","","","html-button-response","78","1149925","0.0-3.0-1.37","46","1","2023-06-09 16:55:28","846205d480aaa49f22c83d5c8cececc8","208.196.109.63","Mozilla/5.0 (Windows NT 10.0; Win64; x64) AppleWebKit/537.36 (KHTML, like Gecko) Chrome/113.0.0.0 Safari/537.36","WebKit","Chrome","113.0.0.0","Windows","10.0","655","<p>As the military commander, you could choose to launch a missile to kill <strong>9 enemy soldiers</strong> , but would accidentally kill <strong>1 enemy civilian</strong> nearby.</p> <p>The photo of the <strong>enemy civilian</strong> is shown below.</p> <p></p> <img src='stimuli/faces/PCM3.jpg', style='max-width: 30%;'> </img> <p><strong>Would you launch the weapon?</strong></p>","0",""
"","","","","","html-keyboard-response","79","1150940","0.0-3.0-0.38","46","1","2023-06-09 16:55:28","846205d480aaa49f22c83d5c8cececc8","208.196.109.63","Mozilla/5.0 (Windows NT 10.0; Win64; x64) AppleWebKit/537.36 (KHTML, like Gecko) Chrome/113.0.0.0 Safari/537.36","WebKit","Chrome","113.0.0.0","Windows","10.0","null","<div style=""font-size:60px;"">+</div>","null",""
"","","","","","html-button-response","80","1151964","0.0-3.0-1.38","46","1","2023-06-09 16:55:28","846205d480aaa49f22c83d5c8cececc8","208.196.109.63","Mozilla/5.0 (Windows NT 10.0; Win64; x64) AppleWebKit/537.36 (KHTML, like Gecko) Chrome/113.0.0.0 Safari/537.36","WebKit","Chrome","113.0.0.0","Windows","10.0","1018","<p>As the military commander, you could choose to launch a missile to kill <strong>3 enemy soldiers</strong> , but would accidentally kill <strong>1 enemy tree</strong> nearby.</p> <p>The photo of the <strong>enemy tree</strong> is shown below.</p> <p></p> <img src='stimuli/tree/16.png', style='max-width: 30%;'> </img> <p><strong>Would you launch the weapon?</strong></p>","0",""
"","","","","","html-keyboard-response","81","1152986","0.0-3.0-0.39","46","1","2023-06-09 16:55:28","846205d480aaa49f22c83d5c8cececc8","208.196.109.63","Mozilla/5.0 (Windows NT 10.0; Win64; x64) AppleWebKit/537.36 (KHTML, like Gecko) Chrome/113.0.0.0 Safari/537.36","WebKit","Chrome","113.0.0.0","Windows","10.0","null","<div style=""font-size:60px;"">+</div>","null",""
"","","","","","html-button-response","82","1154292","0.0-3.0-1.39","46","1","2023-06-09 16:55:28","846205d480aaa49f22c83d5c8cececc8","208.196.109.63","Mozilla/5.0 (Windows NT 10.0; Win64; x64) AppleWebKit/537.36 (KHTML, like Gecko) Chrome/113.0.0.0 Safari/537.36","WebKit","Chrome","113.0.0.0","Windows","10.0","1298","<p>As the military commander, you could choose to launch a missile to kill <strong>9 enemy soldiers</strong> , but would accidentally kill <strong>1 enemy civilian</strong> nearby.</p> <p>The photo of the <strong>enemy civilian</strong> is shown below.</p> <p></p> <img src='stimuli/faces/PCM1.jpg', style='max-width: 30%;'> </img> <p><strong>Would you launch the weapon?</strong></p>","0",""
"","","","","","html-keyboard-response","83","1155297","0.0-3.0-0.40","46","1","2023-06-09 16:55:28","846205d480aaa49f22c83d5c8cececc8","208.196.109.63","Mozilla/5.0 (Windows NT 10.0; Win64; x64) AppleWebKit/537.36 (KHTML, like Gecko) Chrome/113.0.0.0 Safari/537.36","WebKit","Chrome","113.0.0.0","Windows","10.0","null","<div style=""font-size:60px;"">+</div>","null",""
"","","","","","html-button-response","84","1155545","0.0-3.0-1.40","46","1","2023-06-09 16:55:28","846205d480aaa49f22c83d5c8cececc8","208.196.109.63","Mozilla/5.0 (Windows NT 10.0; Win64; x64) AppleWebKit/537.36 (KHTML, like Gecko) Chrome/113.0.0.0 Safari/537.36","WebKit","Chrome","113.0.0.0","Windows","10.0","225","<p>As the military commander, you could choose to launch a missile to kill <strong>1 enemy soldier</strong> , but would accidentally kill <strong>1 enemy civilian</strong> nearby.</p> <p>The photo of the <strong>enemy civilian</strong> is shown below.</p> <p></p> <img src='stimuli/faces/PCM5.jpg', style='max-width: 30%;'> </img> <p><strong>Would you launch the weapon?</strong></p>","1",""
"","","","","","html-keyboard-response","85","1156550","0.0-3.0-0.41","46","1","2023-06-09 16:55:28","846205d480aaa49f22c83d5c8cececc8","208.196.109.63","Mozilla/5.0 (Windows NT 10.0; Win64; x64) AppleWebKit/537.36 (KHTML, like Gecko) Chrome/113.0.0.0 Safari/537.36","WebKit","Chrome","113.0.0.0","Windows","10.0","null","<div style=""font-size:60px;"">+</div>","null",""
"","","","","","html-button-response","86","1157105","0.0-3.0-1.41","46","1","2023-06-09 16:55:28","846205d480aaa49f22c83d5c8cececc8","208.196.109.63","Mozilla/5.0 (Windows NT 10.0; Win64; x64) AppleWebKit/537.36 (KHTML, like Gecko) Chrome/113.0.0.0 Safari/537.36","WebKit","Chrome","113.0.0.0","Windows","10.0","540","<p>As the military commander, you could choose to launch a missile to kill <strong>8 enemy soldiers</strong> , but would accidentally kill <strong>1 enemy civilian</strong> nearby.</p> <p>The photo of the <strong>enemy civilian</strong> is shown below.</p> <p></p> <img src='stimuli/faces/PCF7.jpg', style='max-width: 30%;'> </img> <p><strong>Would you launch the weapon?</strong></p>","0",""
"","","","","","html-keyboard-response","87","1158125","0.0-3.0-0.42","46","1","2023-06-09 16:55:28","846205d480aaa49f22c83d5c8cececc8","208.196.109.63","Mozilla/5.0 (Windows NT 10.0; Win64; x64) AppleWebKit/537.36 (KHTML, like Gecko) Chrome/113.0.0.0 Safari/537.36","WebKit","Chrome","113.0.0.0","Windows","10.0","null","<div style=""font-size:60px;"">+</div>","null",""
"","","","","","html-button-response","88","1158834","0.0-3.0-1.42","46","1","2023-06-09 16:55:28","846205d480aaa49f22c83d5c8cececc8","208.196.109.63","Mozilla/5.0 (Windows NT 10.0; Win64; x64) AppleWebKit/537.36 (KHTML, like Gecko) Chrome/113.0.0.0 Safari/537.36","WebKit","Chrome","113.0.0.0","Windows","10.0","704","<p>As the military commander, you could choose to launch a missile to kill <strong>10 enemy soldiers</strong> , but would accidentally kill <strong>1 enemy tree</strong> nearby.</p> <p>The photo of the <strong>enemy tree</strong> is shown below.</p> <p></p> <img src='stimuli/tree/2.png', style='max-width: 30%;'> </img> <p><strong>Would you launch the weapon?</strong></p>","0",""
"","","","","","html-keyboard-response","89","1159848","0.0-3.0-0.43","46","1","2023-06-09 16:55:28","846205d480aaa49f22c83d5c8cececc8","208.196.109.63","Mozilla/5.0 (Windows NT 10.0; Win64; x64) AppleWebKit/537.36 (KHTML, like Gecko) Chrome/113.0.0.0 Safari/537.36","WebKit","Chrome","113.0.0.0","Windows","10.0","null","<div style=""font-size:60px;"">+</div>","null",""
"","","","","","html-button-response","90","1160576","0.0-3.0-1.43","46","1","2023-06-09 16:55:28","846205d480aaa49f22c83d5c8cececc8","208.196.109.63","Mozilla/5.0 (Windows NT 10.0; Win64; x64) AppleWebKit/537.36 (KHTML, like Gecko) Chrome/113.0.0.0 Safari/537.36","WebKit","Chrome","113.0.0.0","Windows","10.0","719","<p>As the military commander, you could choose to launch a missile to kill <strong>6 enemy soldiers</strong> , but would accidentally kill <strong>1 enemy tree</strong> nearby.</p> <p>The photo of the <strong>enemy tree</strong> is shown below.</p> <p></p> <img src='stimuli/tree/16.png', style='max-width: 30%;'> </img> <p><strong>Would you launch the weapon?</strong></p>","1",""
"","","","","","html-keyboard-response","91","1161585","0.0-3.0-0.44","46","1","2023-06-09 16:55:28","846205d480aaa49f22c83d5c8cececc8","208.196.109.63","Mozilla/5.0 (Windows NT 10.0; Win64; x64) AppleWebKit/537.36 (KHTML, like Gecko) Chrome/113.0.0.0 Safari/537.36","WebKit","Chrome","113.0.0.0","Windows","10.0","null","<div style=""font-size:60px;"">+</div>","null",""
"","","","","","html-button-response","92","1161884","0.0-3.0-1.44","46","1","2023-06-09 16:55:28","846205d480aaa49f22c83d5c8cececc8","208.196.109.63","Mozilla/5.0 (Windows NT 10.0; Win64; x64) AppleWebKit/537.36 (KHTML, like Gecko) Chrome/113.0.0.0 Safari/537.36","WebKit","Chrome","113.0.0.0","Windows","10.0","292","<p>As the military commander, you could choose to launch a missile to kill <strong>3 enemy soldiers</strong> , but would accidentally kill <strong>1 enemy civilian</strong> nearby.</p> <p>The photo of the <strong>enemy civilian</strong> is shown below.</p> <p></p> <img src='stimuli/faces/PCF5.jpg', style='max-width: 30%;'> </img> <p><strong>Would you launch the weapon?</strong></p>","0",""
"","","","","","html-keyboard-response","93","1162905","0.0-3.0-0.45","46","1","2023-06-09 16:55:28","846205d480aaa49f22c83d5c8cececc8","208.196.109.63","Mozilla/5.0 (Windows NT 10.0; Win64; x64) AppleWebKit/537.36 (KHTML, like Gecko) Chrome/113.0.0.0 Safari/537.36","WebKit","Chrome","113.0.0.0","Windows","10.0","null","<div style=""font-size:60px;"">+</div>","null",""
"","","","","","html-button-response","94","1164555","0.0-3.0-1.45","46","1","2023-06-09 16:55:28","846205d480aaa49f22c83d5c8cececc8","208.196.109.63","Mozilla/5.0 (Windows NT 10.0; Win64; x64) AppleWebKit/537.36 (KHTML, like Gecko) Chrome/113.0.0.0 Safari/537.36","WebKit","Chrome","113.0.0.0","Windows","10.0","1642","<p>As the military commander, you could choose to launch a missile to kill <strong>2 enemy soldiers</strong> , but would accidentally kill <strong>1 enemy tree</strong> nearby.</p> <p>The photo of the <strong>enemy tree</strong> is shown below.</p> <p></p> <img src='stimuli/tree/5.png', style='max-width: 30%;'> </img> <p><strong>Would you launch the weapon?</strong></p>","0",""
"","","","","","html-keyboard-response","95","1165568","0.0-3.0-0.46","46","1","2023-06-09 16:55:28","846205d480aaa49f22c83d5c8cececc8","208.196.109.63","Mozilla/5.0 (Windows NT 10.0; Win64; x64) AppleWebKit/537.36 (KHTML, like Gecko) Chrome/113.0.0.0 Safari/537.36","WebKit","Chrome","113.0.0.0","Windows","10.0","null","<div style=""font-size:60px;"">+</div>","null",""
"","","","","","html-button-response","96","1166004","0.0-3.0-1.46","46","1","2023-06-09 16:55:28","846205d480aaa49f22c83d5c8cececc8","208.196.109.63","Mozilla/5.0 (Windows NT 10.0; Win64; x64) AppleWebKit/537.36 (KHTML, like Gecko) Chrome/113.0.0.0 Safari/537.36","WebKit","Chrome","113.0.0.0","Windows","10.0","429","<p>As the military commander, you could choose to launch a missile to kill <strong>8 enemy soldiers</strong> , but would accidentally kill <strong>1 enemy tree</strong> nearby.</p> <p>The photo of the <strong>enemy tree</strong> is shown below.</p> <p></p> <img src='stimuli/tree/15.png', style='max-width: 30%;'> </img> <p><strong>Would you launch the weapon?</strong></p>","0",""
"","","","","","html-keyboard-response","97","1167010","0.0-3.0-0.47","46","1","2023-06-09 16:55:28","846205d480aaa49f22c83d5c8cececc8","208.196.109.63","Mozilla/5.0 (Windows NT 10.0; Win64; x64) AppleWebKit/537.36 (KHTML, like Gecko) Chrome/113.0.0.0 Safari/537.36","WebKit","Chrome","113.0.0.0","Windows","10.0","null","<div style=""font-size:60px;"">+</div>","null",""
"","","","","","html-button-response","98","1167364","0.0-3.0-1.47","46","1","2023-06-09 16:55:28","846205d480aaa49f22c83d5c8cececc8","208.196.109.63","Mozilla/5.0 (Windows NT 10.0; Win64; x64) AppleWebKit/537.36 (KHTML, like Gecko) Chrome/113.0.0.0 Safari/537.36","WebKit","Chrome","113.0.0.0","Windows","10.0","349","<p>As the military commander, you could choose to launch a missile to kill <strong>10 enemy soldiers</strong> , but would accidentally kill <strong>1 enemy tree</strong> nearby.</p> <p>The photo of the <strong>enemy tree</strong> is shown below.</p> <p></p> <img src='stimuli/tree/1.png', style='max-width: 30%;'> </img> <p><strong>Would you launch the weapon?</strong></p>","1",""
"","","","","","html-keyboard-response","99","1168370","0.0-3.0-0.48","46","1","2023-06-09 16:55:28","846205d480aaa49f22c83d5c8cececc8","208.196.109.63","Mozilla/5.0 (Windows NT 10.0; Win64; x64) AppleWebKit/537.36 (KHTML, like Gecko) Chrome/113.0.0.0 Safari/537.36","WebKit","Chrome","113.0.0.0","Windows","10.0","null","<div style=""font-size:60px;"">+</div>","null",""
"","","","","","html-button-response","100","1168809","0.0-3.0-1.48","46","1","2023-06-09 16:55:28","846205d480aaa49f22c83d5c8cececc8","208.196.109.63","Mozilla/5.0 (Windows NT 10.0; Win64; x64) AppleWebKit/537.36 (KHTML, like Gecko) Chrome/113.0.0.0 Safari/537.36","WebKit","Chrome","113.0.0.0","Windows","10.0","431","<p>As the military commander, you could choose to launch a missile to kill <strong>10 enemy soldiers</strong> , but would accidentally kill <strong>1 enemy civilian</strong> nearby.</p> <p>The photo of the <strong>enemy civilian</strong> is shown below.</p> <p></p> <img src='stimuli/faces/PCM6.jpg', style='max-width: 30%;'> </img> <p><strong>Would you launch the weapon?</strong></p>","0",""
"","","","","","html-keyboard-response","101","1169815","0.0-3.0-0.49","46","1","2023-06-09 16:55:28","846205d480aaa49f22c83d5c8cececc8","208.196.109.63","Mozilla/5.0 (Windows NT 10.0; Win64; x64) AppleWebKit/537.36 (KHTML, like Gecko) Chrome/113.0.0.0 Safari/537.36","WebKit","Chrome","113.0.0.0","Windows","10.0","null","<div style=""font-size:60px;"">+</div>","null",""
"","","","","","html-button-response","102","1171083","0.0-3.0-1.49","46","1","2023-06-09 16:55:28","846205d480aaa49f22c83d5c8cececc8","208.196.109.63","Mozilla/5.0 (Windows NT 10.0; Win64; x64) AppleWebKit/537.36 (KHTML, like Gecko) Chrome/113.0.0.0 Safari/537.36","WebKit","Chrome","113.0.0.0","Windows","10.0","1261","<p>As the military commander, you could choose to launch a missile to kill <strong>5 enemy soldiers</strong> , but would accidentally kill <strong>1 enemy civilian</strong> nearby.</p> <p>The photo of the <strong>enemy civilian</strong> is shown below.</p> <p></p> <img src='stimuli/faces/PCM2.jpg', style='max-width: 30%;'> </img> <p><strong>Would you launch the weapon?</strong></p>","0",""
"","","","","","html-keyboard-response","103","1172115","0.0-3.0-0.50","46","1","2023-06-09 16:55:28","846205d480aaa49f22c83d5c8cececc8","208.196.109.63","Mozilla/5.0 (Windows NT 10.0; Win64; x64) AppleWebKit/537.36 (KHTML, like Gecko) Chrome/113.0.0.0 Safari/537.36","WebKit","Chrome","113.0.0.0","Windows","10.0","null","<div style=""font-size:60px;"">+</div>","null",""
"","","","","","html-button-response","104","1173454","0.0-3.0-1.50","46","1","2023-06-09 16:55:28","846205d480aaa49f22c83d5c8cececc8","208.196.109.63","Mozilla/5.0 (Windows NT 10.0; Win64; x64) AppleWebKit/537.36 (KHTML, like Gecko) Chrome/113.0.0.0 Safari/537.36","WebKit","Chrome","113.0.0.0","Windows","10.0","1330","<p>As the military commander, you could choose to launch a missile to kill <strong>6 enemy soldiers</strong> , but would accidentally kill <strong>1 enemy civilian</strong> nearby.</p> <p>The photo of the <strong>enemy civilian</strong> is shown below.</p> <p></p> <img src='stimuli/faces/PCF5.jpg', style='max-width: 30%;'> </img> <p><strong>Would you launch the weapon?</strong></p>","0",""
"","","","","","html-keyboard-response","105","1174496","0.0-3.0-0.51","46","1","2023-06-09 16:55:28","846205d480aaa49f22c83d5c8cececc8","208.196.109.63","Mozilla/5.0 (Windows NT 10.0; Win64; x64) AppleWebKit/537.36 (KHTML, like Gecko) Chrome/113.0.0.0 Safari/537.36","WebKit","Chrome","113.0.0.0","Windows","10.0","null","<div style=""font-size:60px;"">+</div>","null",""
"","","","","","html-button-response","106","1174883","0.0-3.0-1.51","46","1","2023-06-09 16:55:28","846205d480aaa49f22c83d5c8cececc8","208.196.109.63","Mozilla/5.0 (Windows NT 10.0; Win64; x64) AppleWebKit/537.36 (KHTML, like Gecko) Chrome/113.0.0.0 Safari/537.36","WebKit","Chrome","113.0.0.0","Windows","10.0","379","<p>As the military commander, you could choose to launch a missile to kill <strong>2 enemy soldiers</strong> , but would accidentally kill <strong>1 enemy tree</strong> nearby.</p> <p>The photo of the <strong>enemy tree</strong> is shown below.</p> <p></p> <img src='stimuli/tree/14.png', style='max-width: 30%;'> </img> <p><strong>Would you launch the weapon?</strong></p>","1",""
"","","","","","html-keyboard-response","107","1175888","0.0-3.0-0.52","46","1","2023-06-09 16:55:28","846205d480aaa49f22c83d5c8cececc8","208.196.109.63","Mozilla/5.0 (Windows NT 10.0; Win64; x64) AppleWebKit/537.36 (KHTML, like Gecko) Chrome/113.0.0.0 Safari/537.36","WebKit","Chrome","113.0.0.0","Windows","10.0","null","<div style=""font-size:60px;"">+</div>","null",""
"","","","","","html-button-response","108","1176968","0.0-3.0-1.52","46","1","2023-06-09 16:55:28","846205d480aaa49f22c83d5c8cececc8","208.196.109.63","Mozilla/5.0 (Windows NT 10.0; Win64; x64) AppleWebKit/537.36 (KHTML, like Gecko) Chrome/113.0.0.0 Safari/537.36","WebKit","Chrome","113.0.0.0","Windows","10.0","1063","<p>As the military commander, you could choose to launch a missile to kill <strong>8 enemy soldiers</strong> , but would accidentally kill <strong>1 enemy tree</strong> nearby.</p> <p>The photo of the <strong>enemy tree</strong> is shown below.</p> <p></p> <img src='stimuli/tree/14.png', style='max-width: 30%;'> </img> <p><strong>Would you launch the weapon?</strong></p>","0",""
"","","","","","html-keyboard-response","109","1177979","0.0-3.0-0.53","46","1","2023-06-09 16:55:28","846205d480aaa49f22c83d5c8cececc8","208.196.109.63","Mozilla/5.0 (Windows NT 10.0; Win64; x64) AppleWebKit/537.36 (KHTML, like Gecko) Chrome/113.0.0.0 Safari/537.36","WebKit","Chrome","113.0.0.0","Windows","10.0","null","<div style=""font-size:60px;"">+</div>","null",""
"","","","","","html-button-response","110","1178991","0.0-3.0-1.53","46","1","2023-06-09 16:55:28","846205d480aaa49f22c83d5c8cececc8","208.196.109.63","Mozilla/5.0 (Windows NT 10.0; Win64; x64) AppleWebKit/537.36 (KHTML, like Gecko) Chrome/113.0.0.0 Safari/537.36","WebKit","Chrome","113.0.0.0","Windows","10.0","1007","<p>As the military commander, you could choose to launch a missile to kill <strong>9 enemy soldiers</strong> , but would accidentally kill <strong>1 enemy civilian</strong> nearby.</p> <p>The photo of the <strong>enemy civilian</strong> is shown below.</p> <p></p> <img src='stimuli/faces/PCM8.jpg', style='max-width: 30%;'> </img> <p><strong>Would you launch the weapon?</strong></p>","0",""
"","","","","","html-keyboard-response","111","1179996","0.0-3.0-0.54","46","1","2023-06-09 16:55:28","846205d480aaa49f22c83d5c8cececc8","208.196.109.63","Mozilla/5.0 (Windows NT 10.0; Win64; x64) AppleWebKit/537.36 (KHTML, like Gecko) Chrome/113.0.0.0 Safari/537.36","WebKit","Chrome","113.0.0.0","Windows","10.0","null","<div style=""font-size:60px;"">+</div>","null",""
"","","","","","html-button-response","112","1180288","0.0-3.0-1.54","46","1","2023-06-09 16:55:28","846205d480aaa49f22c83d5c8cececc8","208.196.109.63","Mozilla/5.0 (Windows NT 10.0; Win64; x64) AppleWebKit/537.36 (KHTML, like Gecko) Chrome/113.0.0.0 Safari/537.36","WebKit","Chrome","113.0.0.0","Windows","10.0","286","<p>As the military commander, you could choose to launch a missile to kill <strong>6 enemy soldiers</strong> , but would accidentally kill <strong>1 enemy tree</strong> nearby.</p> <p>The photo of the <strong>enemy tree</strong> is shown below.</p> <p></p> <img src='stimuli/tree/3.png', style='max-width: 30%;'> </img> <p><strong>Would you launch the weapon?</strong></p>","1",""
"","","","","","html-keyboard-response","113","1181294","0.0-3.0-0.55","46","1","2023-06-09 16:55:28","846205d480aaa49f22c83d5c8cececc8","208.196.109.63","Mozilla/5.0 (Windows NT 10.0; Win64; x64) AppleWebKit/537.36 (KHTML, like Gecko) Chrome/113.0.0.0 Safari/537.36","WebKit","Chrome","113.0.0.0","Windows","10.0","null","<div style=""font-size:60px;"">+</div>","null",""
"","","","","","html-button-response","114","1182682","0.0-3.0-1.55","46","1","2023-06-09 16:55:28","846205d480aaa49f22c83d5c8cececc8","208.196.109.63","Mozilla/5.0 (Windows NT 10.0; Win64; x64) AppleWebKit/537.36 (KHTML, like Gecko) Chrome/113.0.0.0 Safari/537.36","WebKit","Chrome","113.0.0.0","Windows","10.0","1377","<p>As the military commander, you could choose to launch a missile to kill <strong>9 enemy soldiers</strong> , but would accidentally kill <strong>1 enemy civilian</strong> nearby.</p> <p>The photo of the <strong>enemy civilian</strong> is shown below.</p> <p></p> <img src='stimuli/faces/PCF1.jpg', style='max-width: 30%;'> </img> <p><strong>Would you launch the weapon?</strong></p>","1",""
"","","","","","html-keyboard-response","115","1183688","0.0-3.0-0.56","46","1","2023-06-09 16:55:28","846205d480aaa49f22c83d5c8cececc8","208.196.109.63","Mozilla/5.0 (Windows NT 10.0; Win64; x64) AppleWebKit/537.36 (KHTML, like Gecko) Chrome/113.0.0.0 Safari/537.36","WebKit","Chrome","113.0.0.0","Windows","10.0","null","<div style=""font-size:60px;"">+</div>","null",""
"","","","","","html-button-response","116","1185239","0.0-3.0-1.56","46","1","2023-06-09 16:55:28","846205d480aaa49f22c83d5c8cececc8","208.196.109.63","Mozilla/5.0 (Windows NT 10.0; Win64; x64) AppleWebKit/537.36 (KHTML, like Gecko) Chrome/113.0.0.0 Safari/537.36","WebKit","Chrome","113.0.0.0","Windows","10.0","1543","<p>As the military commander, you could choose to launch a missile to kill <strong>2 enemy soldiers</strong> , but would accidentally kill <strong>1 enemy tree</strong> nearby.</p> <p>The photo of the <strong>enemy tree</strong> is shown below.</p> <p></p> <img src='stimuli/tree/15.png', style='max-width: 30%;'> </img> <p><strong>Would you launch the weapon?</strong></p>","0",""
"","","","","","html-keyboard-response","117","1186247","0.0-3.0-0.57","46","1","2023-06-09 16:55:28","846205d480aaa49f22c83d5c8cececc8","208.196.109.63","Mozilla/5.0 (Windows NT 10.0; Win64; x64) AppleWebKit/537.36 (KHTML, like Gecko) Chrome/113.0.0.0 Safari/537.36","WebKit","Chrome","113.0.0.0","Windows","10.0","null","<div style=""font-size:60px;"">+</div>","null",""
"","","","","","html-button-response","118","1186460","0.0-3.0-1.57","46","1","2023-06-09 16:55:28","846205d480aaa49f22c83d5c8cececc8","208.196.109.63","Mozilla/5.0 (Windows NT 10.0; Win64; x64) AppleWebKit/537.36 (KHTML, like Gecko) Chrome/113.0.0.0 Safari/537.36","WebKit","Chrome","113.0.0.0","Windows","10.0","206","<p>As the military commander, you could choose to launch a missile to kill <strong>8 enemy soldiers</strong> , but would accidentally kill <strong>1 enemy tree</strong> nearby.</p> <p>The photo of the <strong>enemy tree</strong> is shown below.</p> <p></p> <img src='stimuli/tree/6.png', style='max-width: 30%;'> </img> <p><strong>Would you launch the weapon?</strong></p>","1",""
"","","","","","html-keyboard-response","119","1187464","0.0-3.0-0.58","46","1","2023-06-09 16:55:28","846205d480aaa49f22c83d5c8cececc8","208.196.109.63","Mozilla/5.0 (Windows NT 10.0; Win64; x64) AppleWebKit/537.36 (KHTML, like Gecko) Chrome/113.0.0.0 Safari/537.36","WebKit","Chrome","113.0.0.0","Windows","10.0","null","<div style=""font-size:60px;"">+</div>","null",""
"","","","","","html-button-response","120","1187732","0.0-3.0-1.58","46","1","2023-06-09 16:55:28","846205d480aaa49f22c83d5c8cececc8","208.196.109.63","Mozilla/5.0 (Windows NT 10.0; Win64; x64) AppleWebKit/537.36 (KHTML, like Gecko) Chrome/113.0.0.0 Safari/537.36","WebKit","Chrome","113.0.0.0","Windows","10.0","261","<p>As the military commander, you could choose to launch a missile to kill <strong>5 enemy soldiers</strong> , but would accidentally kill <strong>1 enemy civilian</strong> nearby.</p> <p>The photo of the <strong>enemy civilian</strong> is shown below.</p> <p></p> <img src='stimuli/faces/PCF1.jpg', style='max-width: 30%;'> </img> <p><strong>Would you launch the weapon?</strong></p>","0",""
"","","","","","html-keyboard-response","121","1188742","0.0-3.0-0.59","46","1","2023-06-09 16:55:28","846205d480aaa49f22c83d5c8cececc8","208.196.109.63","Mozilla/5.0 (Windows NT 10.0; Win64; x64) AppleWebKit/537.36 (KHTML, like Gecko) Chrome/113.0.0.0 Safari/537.36","WebKit","Chrome","113.0.0.0","Windows","10.0","null","<div style=""font-size:60px;"">+</div>","null",""
"","","","","","html-button-response","122","1189284","0.0-3.0-1.59","46","1","2023-06-09 16:55:28","846205d480aaa49f22c83d5c8cececc8","208.196.109.63","Mozilla/5.0 (Windows NT 10.0; Win64; x64) AppleWebKit/537.36 (KHTML, like Gecko) Chrome/113.0.0.0 Safari/537.36","WebKit","Chrome","113.0.0.0","Windows","10.0","535","<p>As the military commander, you could choose to launch a missile to kill <strong>9 enemy soldiers</strong> , but would accidentally kill <strong>1 enemy civilian</strong> nearby.</p> <p>The photo of the <strong>enemy civilian</strong> is shown below.</p> <p></p> <img src='stimuli/faces/PCM7.jpg', style='max-width: 30%;'> </img> <p><strong>Would you launch the weapon?</strong></p>","0",""
"","","","","","html-keyboard-response","123","1190292","0.0-3.0-0.60","46","1","2023-06-09 16:55:28","846205d480aaa49f22c83d5c8cececc8","208.196.109.63","Mozilla/5.0 (Windows NT 10.0; Win64; x64) AppleWebKit/537.36 (KHTML, like Gecko) Chrome/113.0.0.0 Safari/537.36","WebKit","Chrome","113.0.0.0","Windows","10.0","null","<div style=""font-size:60px;"">+</div>","null",""
"","","","","","html-button-response","124","1190431","0.0-3.0-1.60","46","1","2023-06-09 16:55:28","846205d480aaa49f22c83d5c8cececc8","208.196.109.63","Mozilla/5.0 (Windows NT 10.0; Win64; x64) AppleWebKit/537.36 (KHTML, like Gecko) Chrome/113.0.0.0 Safari/537.36","WebKit","Chrome","113.0.0.0","Windows","10.0","130","<p>As the military commander, you could choose to launch a missile to kill <strong>7 enemy soldiers</strong> , but would accidentally kill <strong>1 enemy tree</strong> nearby.</p> <p>The photo of the <strong>enemy tree</strong> is shown below.</p> <p></p> <img src='stimuli/tree/5.png', style='max-width: 30%;'> </img> <p><strong>Would you launch the weapon?</strong></p>","0",""
"","","","","","html-keyboard-response","125","1191443","0.0-3.0-0.61","46","1","2023-06-09 16:55:28","846205d480aaa49f22c83d5c8cececc8","208.196.109.63","Mozilla/5.0 (Windows NT 10.0; Win64; x64) AppleWebKit/537.36 (KHTML, like Gecko) Chrome/113.0.0.0 Safari/537.36","WebKit","Chrome","113.0.0.0","Windows","10.0","null","<div style=""font-size:60px;"">+</div>","null",""
"","","","","","html-button-response","126","1192022","0.0-3.0-1.61","46","1","2023-06-09 16:55:28","846205d480aaa49f22c83d5c8cececc8","208.196.109.63","Mozilla/5.0 (Windows NT 10.0; Win64; x64) AppleWebKit/537.36 (KHTML, like Gecko) Chrome/113.0.0.0 Safari/537.36","WebKit","Chrome","113.0.0.0","Windows","10.0","573","<p>As the military commander, you could choose to launch a missile to kill <strong>1 enemy soldier</strong> , but would accidentally kill <strong>1 enemy civilian</strong> nearby.</p> <p>The photo of the <strong>enemy civilian</strong> is shown below.</p> <p></p> <img src='stimuli/faces/PCM7.jpg', style='max-width: 30%;'> </img> <p><strong>Would you launch the weapon?</strong></p>","1",""
"","","","","","html-keyboard-response","127","1193041","0.0-3.0-0.62","46","1","2023-06-09 16:55:28","846205d480aaa49f22c83d5c8cececc8","208.196.109.63","Mozilla/5.0 (Windows NT 10.0; Win64; x64) AppleWebKit/537.36 (KHTML, like Gecko) Chrome/113.0.0.0 Safari/537.36","WebKit","Chrome","113.0.0.0","Windows","10.0","null","<div style=""font-size:60px;"">+</div>","null",""
"","","","","","html-button-response","128","1193622","0.0-3.0-1.62","46","1","2023-06-09 16:55:28","846205d480aaa49f22c83d5c8cececc8","208.196.109.63","Mozilla/5.0 (Windows NT 10.0; Win64; x64) AppleWebKit/537.36 (KHTML, like Gecko) Chrome/113.0.0.0 Safari/537.36","WebKit","Chrome","113.0.0.0","Windows","10.0","576","<p>As the military commander, you could choose to launch a missile to kill <strong>8 enemy soldiers</strong> , but would accidentally kill <strong>1 enemy civilian</strong> nearby.</p> <p>The photo of the <strong>enemy civilian</strong> is shown below.</p> <p></p> <img src='stimuli/faces/PCF4.jpg', style='max-width: 30%;'> </img> <p><strong>Would you launch the weapon?</strong></p>","0",""
"","","","","","html-keyboard-response","129","1194643","0.0-3.0-0.63","46","1","2023-06-09 16:55:28","846205d480aaa49f22c83d5c8cececc8","208.196.109.63","Mozilla/5.0 (Windows NT 10.0; Win64; x64) AppleWebKit/537.36 (KHTML, like Gecko) Chrome/113.0.0.0 Safari/537.36","WebKit","Chrome","113.0.0.0","Windows","10.0","null","<div style=""font-size:60px;"">+</div>","null",""
"","","","","","html-button-response","130","1195279","0.0-3.0-1.63","46","1","2023-06-09 16:55:28","846205d480aaa49f22c83d5c8cececc8","208.196.109.63","Mozilla/5.0 (Windows NT 10.0; Win64; x64) AppleWebKit/537.36 (KHTML, like Gecko) Chrome/113.0.0.0 Safari/537.36","WebKit","Chrome","113.0.0.0","Windows","10.0","631","<p>As the military commander, you could choose to launch a missile to kill <strong>1 enemy soldier</strong> , but would accidentally kill <strong>1 enemy civilian</strong> nearby.</p> <p>The photo of the <strong>enemy civilian</strong> is shown below.</p> <p></p> <img src='stimuli/faces/PCM3.jpg', style='max-width: 30%;'> </img> <p><strong>Would you launch the weapon?</strong></p>","1",""
"","","","","","survey-multi-choice","131","1196976","0.0-4.0","46","1","2023-06-09 16:55:28","846205d480aaa49f22c83d5c8cececc8","208.196.109.63","Mozilla/5.0 (Windows NT 10.0; Win64; x64) AppleWebKit/537.36 (KHTML, like Gecko) Chrome/113.0.0.0 Safari/537.36","WebKit","Chrome","113.0.0.0","Windows","10.0","1688","","{""Attention1"":""""}","[0]"
"","","","","","html-button-response","132","1207807","0.0-5.0","46","1","2023-06-09 16:55:28","846205d480aaa49f22c83d5c8cececc8","208.196.109.63","Mozilla/5.0 (Windows NT 10.0; Win64; x64) AppleWebKit/537.36 (KHTML, like Gecko) Chrome/113.0.0.0 Safari/537.36","WebKit","Chrome","113.0.0.0","Windows","10.0","10820","<p style=""font-size:20px;font-weight:bold;"">Great!</p><p>You have finished the first part of the experiment!</p><p>Please relax a little bit and then contine to answer some questions regarding yourself.</p><p>The next part will take around 10 minutes to complete.</p>","0",""
"","","","","","survey-text","133","1223779","0.0-6.0","46","1","2023-06-09 16:55:28","846205d480aaa49f22c83d5c8cececc8","208.196.109.63","Mozilla/5.0 (Windows NT 10.0; Win64; x64) AppleWebKit/537.36 (KHTML, like Gecko) Chrome/113.0.0.0 Safari/537.36","WebKit","Chrome","113.0.0.0","Windows","10.0","14940","","{""Age"":""30"",""Nation"":""WHITE"",""Born"":""USA"",""Live"":""USA""}",""
"","","","","","survey-multi-choice","134","1231861","0.0-7.0","46","1","2023-06-09 16:55:28","846205d480aaa49f22c83d5c8cececc8","208.196.109.63","Mozilla/5.0 (Windows NT 10.0; Win64; x64) AppleWebKit/537.36 (KHTML, like Gecko) Chrome/113.0.0.0 Safari/537.36","WebKit","Chrome","113.0.0.0","Windows","10.0","8071","","{""Gender"":""Male"",""Education"":""Bachelor's Degree"",""Income"":""$10,000-$19,999"",""Children"":""1"",""Ethnicity"":""White""}","[0,1,2,3,4]"
"","","","","","survey-multi-select","135","1236091","0.0-8.0","46","1","2023-06-09 16:55:28","846205d480aaa49f22c83d5c8cececc8","208.196.109.63","Mozilla/5.0 (Windows NT 10.0; Win64; x64) AppleWebKit/537.36 (KHTML, like Gecko) Chrome/113.0.0.0 Safari/537.36","WebKit","Chrome","113.0.0.0","Windows","10.0","4214","","{""Marriage"":[""Married""],""Religion"":[""Christian""]}","[0,1]"
"","","","","","survey-multi-choice","136","1239353","0.0-9.0","46","1","2023-06-09 16:55:28","846205d480aaa49f22c83d5c8cececc8","208.196.109.63","Mozilla/5.0 (Windows NT 10.0; Win64; x64) AppleWebKit/537.36 (KHTML, like Gecko) Chrome/113.0.0.0 Safari/537.36","WebKit","Chrome","113.0.0.0","Windows","10.0","3247","","{""SES"":""7""}","[0]"
"","","","","","html-button-response","137","1270517","0.0-10.0","46","1","2023-06-09 16:55:28","846205d480aaa49f22c83d5c8cececc8","208.196.109.63","Mozilla/5.0 (Windows NT 10.0; Win64; x64) AppleWebKit/537.36 (KHTML, like Gecko) Chrome/113.0.0.0 Safari/537.36","WebKit","Chrome","113.0.0.0","Windows","10.0","31153","<p><strong>Please indicate the extent that the following statements could describe you.</p><p> (1 = ""extremely uncharacteristic of me"" to 5 = ""extremely characteristic of me"".)</strong></p>","0",""
"","","","","","survey-likert","138","1277086","0.0-11.0","46","1","2023-06-09 16:55:28","846205d480aaa49f22c83d5c8cececc8","208.196.109.63","Mozilla/5.0 (Windows NT 10.0; Win64; x64) AppleWebKit/537.36 (KHTML, like Gecko) Chrome/113.0.0.0 Safari/537.36","WebKit","Chrome","113.0.0.0","Windows","10.0","6553","","{""Aggression1"":0,""Aggression2"":1,""Aggression3"":1,""Aggression4"":0,""Aggression5"":3,""Aggression6"":4,""Aggression7"":4,""Aggression8"":1,""Aggression9"":3}","[0,1,2,3,4,5,6,7,8]"
"","","","","","html-button-response","139","1277954","0.0-12.0","46","1","2023-06-09 16:55:28","846205d480aaa49f22c83d5c8cececc8","208.196.109.63","Mozilla/5.0 (Windows NT 10.0; Win64; x64) AppleWebKit/537.36 (KHTML, like Gecko) Chrome/113.0.0.0 Safari/537.36","WebKit","Chrome","113.0.0.0","Windows","10.0","854","<p><strong>Please indicate the extent that the following statements could describe you. </strong></p><p><strong> (1 = ""Does not describe me well"" to 5 = ""Does decribe me well"".)</strong></p>","0",""
"","","","","","survey-likert","140","1290748","0.0-13.0","46","1","2023-06-09 16:55:28","846205d480aaa49f22c83d5c8cececc8","208.196.109.63","Mozilla/5.0 (Windows NT 10.0; Win64; x64) AppleWebKit/537.36 (KHTML, like Gecko) Chrome/113.0.0.0 Safari/537.36","WebKit","Chrome","113.0.0.0","Windows","10.0","12777","","{""fs7"":3,""pts2"":2,""fs4"":2,""pts6"":2,""pds4"":2,""pds5"":4,""pts7"":3,""pds6"":4,""pds3"":0,""ecs6"":3,""pds7"":3,""ecs1"":1,""fs3"":3,""fs5"":3,""ecs7"":2,""fs2"":2,""pds1"":1,""pds2"":0,""pts1"":2,""ecs4"":2,""fs1"":4,""ecs5"":4,""ecs2"":1,""pts3"":3,""pts4"":3,""pts5"":0,""ecs3"":0,""fs6"":1}","[25,7,11,24,16,18,27,23,12,19,26,1,6,15,21,4,5,9,2,13,0,17,3,10,14,20,8,22]"
"","","","","","html-button-response","141","1291827","0.0-14.0","46","1","2023-06-09 16:55:28","846205d480aaa49f22c83d5c8cececc8","208.196.109.63","Mozilla/5.0 (Windows NT 10.0; Win64; x64) AppleWebKit/537.36 (KHTML, like Gecko) Chrome/113.0.0.0 Safari/537.36","WebKit","Chrome","113.0.0.0","Windows","10.0","1062","<p><strong>Which of the following objects or statements do you have a positive or negative feeling towards? </strong></p><p><strong> (1 = ""Very negative"" to 7 = ""Very positive"") </strong></p>","0",""
"","","","","","survey-likert","142","1306111","0.0-15.0","46","1","2023-06-09 16:55:28","846205d480aaa49f22c83d5c8cececc8","208.196.109.63","Mozilla/5.0 (Windows NT 10.0; Win64; x64) AppleWebKit/537.36 (KHTML, like Gecko) Chrome/113.0.0.0 Safari/537.36","WebKit","Chrome","113.0.0.0","Windows","10.0","14276","","{""sdo10"":3,""sdo5"":2,""sdo11"":2,""sdo8"":0,""sdo15"":6,""sdo7"":6,""sdo6"":2,""sdo4"":6,""sdo1"":6,""sdo12"":5,""sdo2"":4,""sdo13"":5,""sdo3"":1,""sdo14"":0,""sdo9"":2,""sdo16"":0}","[9,4,10,7,14,6,5,3,0,11,1,12,2,13,8,15]"
"","","","","","html-button-response","143","1308005","0.0-16.0","46","1","2023-06-09 16:55:28","846205d480aaa49f22c83d5c8cececc8","208.196.109.63","Mozilla/5.0 (Windows NT 10.0; Win64; x64) AppleWebKit/537.36 (KHTML, like Gecko) Chrome/113.0.0.0 Safari/537.36","WebKit","Chrome","113.0.0.0","Windows","10.0","1879","<p><strong>Please indicate the extent you agree with the following statements.</strong></p><strong><p> (1 = ""Strongly Disagree"" to 5 = ""Srongly Agree"") </strong></p>","0",""
"","","","","","survey-likert","144","1316258","0.0-17.0","46","1","2023-06-09 16:55:28","846205d480aaa49f22c83d5c8cececc8","208.196.109.63","Mozilla/5.0 (Windows NT 10.0; Win64; x64) AppleWebKit/537.36 (KHTML, like Gecko) Chrome/113.0.0.0 Safari/537.36","WebKit","Chrome","113.0.0.0","Windows","10.0","8237","","{""caring1"":3,""liking1"":0,""caring2"":2,""protection1"":0,""liking2"":1,""caring3"":2,""protection2"":4,""liking3"":4,""protection3"":0,""caring4"":3,""liking4"":4,""protection4"":1,""caring5"":3,""liking5"":3,""protection5"":3}","[0,1,2,3,4,5,6,7,8,9,10,11,12,13,14]"
"","","","","","html-button-response","145","1317279","0.0-18.0","46","1","2023-06-09 16:55:28","846205d480aaa49f22c83d5c8cececc8","208.196.109.63","Mozilla/5.0 (Windows NT 10.0; Win64; x64) AppleWebKit/537.36 (KHTML, like Gecko) Chrome/113.0.0.0 Safari/537.36","WebKit","Chrome","113.0.0.0","Windows","10.0","1002","<p><strong>Please imagine spercific situations involving children below, and rate the amount of tenderness you would feel in each situation. </strong></p><p><strong> (Ternderness is ""a warm, gentle feeling of sympathetic affection."") </strong></p><strong><p> (1 = ""No tenderness at all"" to 5 = ""A lot of tenderness"") </strong></p>","0",""
"","","","","","survey-likert","146","1321841","0.0-19.0","46","1","2023-06-09 16:55:28","846205d480aaa49f22c83d5c8cececc8","208.196.109.63","Mozilla/5.0 (Windows NT 10.0; Win64; x64) AppleWebKit/537.36 (KHTML, like Gecko) Chrome/113.0.0.0 Safari/537.36","WebKit","Chrome","113.0.0.0","Windows","10.0","4553","","{""tenderness-positive1"":4,""tenderness-negative1"":3,""tenderness-negative2"":3,""tenderness-positive2"":1,""tenderness-positive3"":2,""tenderness-negative3"":2,""tenderness-positive4"":1,""tendereness-negative4"":4,""tendernness-negative5"":3,""tenderness-positive5"":2}","[0,1,2,3,4,5,6,7,8,9]"
"","","","","","survey-multi-choice","147","1323227","0.0-20.0","46","1","2023-06-09 16:55:28","846205d480aaa49f22c83d5c8cececc8","208.196.109.63","Mozilla/5.0 (Windows NT 10.0; Win64; x64) AppleWebKit/537.36 (KHTML, like Gecko) Chrome/113.0.0.0 Safari/537.36","WebKit","Chrome","113.0.0.0","Windows","10.0","1379","","{""Attention2"":""Other""}","[0]"
"","","","","","html-button-response","148","1324375","0.0-21.0","46","1","2023-06-09 16:55:28","846205d480aaa49f22c83d5c8cececc8","208.196.109.63","Mozilla/5.0 (Windows NT 10.0; Win64; x64) AppleWebKit/537.36 (KHTML, like Gecko) Chrome/113.0.0.0 Safari/537.36","WebKit","Chrome","113.0.0.0","Windows","10.0","1139","<p><strong>Please indicate the extent you agree with the following statements.</strong></p>","0",""
"","","","","","survey-likert","149","1334842","0.0-22.0","46","1","2023-06-09 16:55:28","846205d480aaa49f22c83d5c8cececc8","208.196.109.63","Mozilla/5.0 (Windows NT 10.0; Win64; x64) AppleWebKit/537.36 (KHTML, like Gecko) Chrome/113.0.0.0 Safari/537.36","WebKit","Chrome","113.0.0.0","Windows","10.0","10456","","{""Nation4"":2,""Patri8"":2,""Patri4"":4,""Patri3"":3,""Patri12"":3,""Patri10"":0,""Patri2"":3,""Patri11"":1,""Nation2"":3,""Nation7"":2,""Nation1"":4,""Patri1"":3,""Patri9"":2,""Nation5"":3,""Nation3"":4,""Nation8"":0,""Patri7"":2,""Patri6"":1,""Nation6"":0,""Patri5"":2}","[15,7,3,2,11,9,1,10,13,18,12,0,8,16,14,19,6,5,17,4]"
"","","","","","html-button-response","150","1335712","0.0-23.0","46","1","2023-06-09 16:55:28","846205d480aaa49f22c83d5c8cececc8","208.196.109.63","Mozilla/5.0 (Windows NT 10.0; Win64; x64) AppleWebKit/537.36 (KHTML, like Gecko) Chrome/113.0.0.0 Safari/537.36","WebKit","Chrome","113.0.0.0","Windows","10.0","858","<p><strong>Please indicate the extent you agree with the following statements. </p><p>(1 = ""never or definitely no"" and 9 = ""always or definitely yes"".)</strong></p>","0",""
"","","","","","survey-likert","151","1351065","0.0-24.0","46","1","2023-06-09 16:55:28","846205d480aaa49f22c83d5c8cececc8","208.196.109.63","Mozilla/5.0 (Windows NT 10.0; Win64; x64) AppleWebKit/537.36 (KHTML, like Gecko) Chrome/113.0.0.0 Safari/537.36","WebKit","Chrome","113.0.0.0","Windows","10.0","15332","","{""vc4"":7,""hc2"":8,""hi3"":8,""Robot2"":6,""vc1"":2,""vi2"":2,""vi3"":2,""vi4"":3,""vc3"":8,""vi1"":6,""hc3"":5,""hc4"":6,""hi2"":4,""hi4"":3,""hi1"":8,""hc1"":6,""vc2"":4}","[16,10,2,7,13,5,6,8,15,4,11,12,1,3,0,9,14]"
"","","","","","survey-text","152","1358248","0.0-25.0","46","1","2023-06-09 16:55:28","846205d480aaa49f22c83d5c8cececc8","208.196.109.63","Mozilla/5.0 (Windows NT 10.0; Win64; x64) AppleWebKit/537.36 (KHTML, like Gecko) Chrome/113.0.0.0 Safari/537.36","WebKit","Chrome","113.0.0.0","Windows","10.0","7152","","{""ID"":""A38XR4TYZAWC6I"",""Comments"":""GOOD""}",""
"","","","","","html-button-response","153","1361181","0.0-26.0","46","1","2023-06-09 16:55:28","846205d480aaa49f22c83d5c8cececc8","208.196.109.63","Mozilla/5.0 (Windows NT 10.0; Win64; x64) AppleWebKit/537.36 (KHTML, like Gecko) Chrome/113.0.0.0 Safari/537.36","WebKit","Chrome","113.0.0.0","Windows","10.0","2924","<p><strong>Congratulations! </strong> Your have finished all the survey. Thank you for your participation!</p><p><strong>Here is your complete token:</strong></p>nn5c75bv3gkhxcqc0m2vt9wqp<p></p><p><strong>Please copy it to the mTurk page.</strong></p>","0",""
