"success","timeout","failed_images","failed_audio","failed_video","trial_type","trial_index","time_elapsed","internal_node_id","run_id","condition","recorded_at","source_code_version","ip","user_agent","device","browser","browser_version","platform","platform_version","rt","stimulus","response","question_order"
"true","false","[]","[]","[]","preload","0","987","0.0-0.0","5","1","2023-06-27 15:22:52","846205d480aaa49f22c83d5c8cececc8","172.98.187.121","Mozilla/5.0 (Windows NT 10.0; Win64; x64) AppleWebKit/537.36 (KHTML, like Gecko) Chrome/115.0.0.0 Safari/537.36","WebKit","Chrome","115.0.0.0","Windows","10.0","","","",""
"true","","","","","fullscreen","1","4769","0.0-1.0","5","1","2023-06-27 15:22:52","846205d480aaa49f22c83d5c8cececc8","172.98.187.121","Mozilla/5.0 (Windows NT 10.0; Win64; x64) AppleWebKit/537.36 (KHTML, like Gecko) Chrome/115.0.0.0 Safari/537.36","WebKit","Chrome","115.0.0.0","Windows","10.0","","","",""
"","","","","","html-button-response","2","8609","0.0-2.0","5","1","2023-06-27 15:22:52","846205d480aaa49f22c83d5c8cececc8","172.98.187.121","Mozilla/5.0 (Windows NT 10.0; Win64; x64) AppleWebKit/537.36 (KHTML, like Gecko) Chrome/115.0.0.0 Safari/537.36","WebKit","Chrome","115.0.0.0","Windows","10.0","3836","<p ><strong>Welcome to the experiment!</strong></p><p ><strong>In the first task, please imagine:</strong></p><p>Your country is involved in a military conflict with another country.</p><p>You are the commander of your army and must make decisions in the conflict.</p><p>Specifically, as the military commander, you must decide whether to launch a missile to strike enemy.</p><p>You will face a series of scenarios. Please read each scenario carefully and make a decision.</p><p>The task will take around 10 minutes to complete.</p><p><strong>Please pay your attention during the experiment.</strong></p>","0",""
"","","","","","html-keyboard-response","3","9610","0.0-3.0-0.0","5","1","2023-06-27 15:22:52","846205d480aaa49f22c83d5c8cececc8","172.98.187.121","Mozilla/5.0 (Windows NT 10.0; Win64; x64) AppleWebKit/537.36 (KHTML, like Gecko) Chrome/115.0.0.0 Safari/537.36","WebKit","Chrome","115.0.0.0","Windows","10.0","null","<div style=""font-size:60px;"">+</div>","null",""
"","","","","","html-button-response","4","24677","0.0-3.0-1.0","5","1","2023-06-27 15:22:52","846205d480aaa49f22c83d5c8cececc8","172.98.187.121","Mozilla/5.0 (Windows NT 10.0; Win64; x64) AppleWebKit/537.36 (KHTML, like Gecko) Chrome/115.0.0.0 Safari/537.36","WebKit","Chrome","115.0.0.0","Windows","10.0","15065","<p>As the military commander, you could choose to launch a missile to kill <strong>1 enemy soldier</strong> , but would accidentally kill <strong>1 enemy tree</strong> nearby.</p> <p>The photo of the <strong>enemy tree</strong> is shown below.</p> <p></p> <img src='stimuli/tree/6.png', style='max-width: 30%;'> </img> <p><strong>Would you launch the weapon?</strong></p>","0",""
"","","","","","html-keyboard-response","5","25679","0.0-3.0-0.1","5","1","2023-06-27 15:22:52","846205d480aaa49f22c83d5c8cececc8","172.98.187.121","Mozilla/5.0 (Windows NT 10.0; Win64; x64) AppleWebKit/537.36 (KHTML, like Gecko) Chrome/115.0.0.0 Safari/537.36","WebKit","Chrome","115.0.0.0","Windows","10.0","null","<div style=""font-size:60px;"">+</div>","null",""
"","","","","","html-button-response","6","30789","0.0-3.0-1.1","5","1","2023-06-27 15:22:52","846205d480aaa49f22c83d5c8cececc8","172.98.187.121","Mozilla/5.0 (Windows NT 10.0; Win64; x64) AppleWebKit/537.36 (KHTML, like Gecko) Chrome/115.0.0.0 Safari/537.36","WebKit","Chrome","115.0.0.0","Windows","10.0","5108","<p>As the military commander, you could choose to launch a missile to kill <strong>8 enemy soldiers</strong> , but would accidentally kill <strong>1 enemy civilian</strong> nearby.</p> <p>The photo of the <strong>enemy civilian</strong> is shown below.</p> <p></p> <img src='stimuli/faces/PCF7.jpg', style='max-width: 30%;'> </img> <p><strong>Would you launch the weapon?</strong></p>","0",""
"","","","","","html-keyboard-response","7","31792","0.0-3.0-0.2","5","1","2023-06-27 15:22:52","846205d480aaa49f22c83d5c8cececc8","172.98.187.121","Mozilla/5.0 (Windows NT 10.0; Win64; x64) AppleWebKit/537.36 (KHTML, like Gecko) Chrome/115.0.0.0 Safari/537.36","WebKit","Chrome","115.0.0.0","Windows","10.0","null","<div style=""font-size:60px;"">+</div>","null",""
"","","","","","html-button-response","8","37212","0.0-3.0-1.2","5","1","2023-06-27 15:22:52","846205d480aaa49f22c83d5c8cececc8","172.98.187.121","Mozilla/5.0 (Windows NT 10.0; Win64; x64) AppleWebKit/537.36 (KHTML, like Gecko) Chrome/115.0.0.0 Safari/537.36","WebKit","Chrome","115.0.0.0","Windows","10.0","5417","<p>As the military commander, you could choose to launch a missile to kill <strong>6 enemy soldiers</strong> , but would accidentally kill <strong>1 enemy civilian</strong> nearby.</p> <p>The photo of the <strong>enemy civilian</strong> is shown below.</p> <p></p> <img src='stimuli/faces/PCM8.jpg', style='max-width: 30%;'> </img> <p><strong>Would you launch the weapon?</strong></p>","0",""
"","","","","","html-keyboard-response","9","38216","0.0-3.0-0.3","5","1","2023-06-27 15:22:52","846205d480aaa49f22c83d5c8cececc8","172.98.187.121","Mozilla/5.0 (Windows NT 10.0; Win64; x64) AppleWebKit/537.36 (KHTML, like Gecko) Chrome/115.0.0.0 Safari/537.36","WebKit","Chrome","115.0.0.0","Windows","10.0","null","<div style=""font-size:60px;"">+</div>","null",""
"","","","","","html-button-response","10","41436","0.0-3.0-1.3","5","1","2023-06-27 15:22:52","846205d480aaa49f22c83d5c8cececc8","172.98.187.121","Mozilla/5.0 (Windows NT 10.0; Win64; x64) AppleWebKit/537.36 (KHTML, like Gecko) Chrome/115.0.0.0 Safari/537.36","WebKit","Chrome","115.0.0.0","Windows","10.0","3217","<p>As the military commander, you could choose to launch a missile to kill <strong>7 enemy soldiers</strong> , but would accidentally kill <strong>1 enemy tree</strong> nearby.</p> <p>The photo of the <strong>enemy tree</strong> is shown below.</p> <p></p> <img src='stimuli/tree/3.png', style='max-width: 30%;'> </img> <p><strong>Would you launch the weapon?</strong></p>","0",""
"","","","","","html-keyboard-response","11","42437","0.0-3.0-0.4","5","1","2023-06-27 15:22:52","846205d480aaa49f22c83d5c8cececc8","172.98.187.121","Mozilla/5.0 (Windows NT 10.0; Win64; x64) AppleWebKit/537.36 (KHTML, like Gecko) Chrome/115.0.0.0 Safari/537.36","WebKit","Chrome","115.0.0.0","Windows","10.0","null","<div style=""font-size:60px;"">+</div>","null",""
"","","","","","html-button-response","12","44030","0.0-3.0-1.4","5","1","2023-06-27 15:22:52","846205d480aaa49f22c83d5c8cececc8","172.98.187.121","Mozilla/5.0 (Windows NT 10.0; Win64; x64) AppleWebKit/537.36 (KHTML, like Gecko) Chrome/115.0.0.0 Safari/537.36","WebKit","Chrome","115.0.0.0","Windows","10.0","1590","<p>As the military commander, you could choose to launch a missile to kill <strong>8 enemy soldiers</strong> , but would accidentally kill <strong>1 enemy tree</strong> nearby.</p> <p>The photo of the <strong>enemy tree</strong> is shown below.</p> <p></p> <img src='stimuli/tree/4.png', style='max-width: 30%;'> </img> <p><strong>Would you launch the weapon?</strong></p>","0",""
"","","","","","html-keyboard-response","13","45035","0.0-3.0-0.5","5","1","2023-06-27 15:22:52","846205d480aaa49f22c83d5c8cececc8","172.98.187.121","Mozilla/5.0 (Windows NT 10.0; Win64; x64) AppleWebKit/537.36 (KHTML, like Gecko) Chrome/115.0.0.0 Safari/537.36","WebKit","Chrome","115.0.0.0","Windows","10.0","null","<div style=""font-size:60px;"">+</div>","null",""
"","","","","","html-button-response","14","48005","0.0-3.0-1.5","5","1","2023-06-27 15:22:52","846205d480aaa49f22c83d5c8cececc8","172.98.187.121","Mozilla/5.0 (Windows NT 10.0; Win64; x64) AppleWebKit/537.36 (KHTML, like Gecko) Chrome/115.0.0.0 Safari/537.36","WebKit","Chrome","115.0.0.0","Windows","10.0","2967","<p>As the military commander, you could choose to launch a missile to kill <strong>4 enemy soldiers</strong> , but would accidentally kill <strong>1 enemy tree</strong> nearby.</p> <p>The photo of the <strong>enemy tree</strong> is shown below.</p> <p></p> <img src='stimuli/tree/10.png', style='max-width: 30%;'> </img> <p><strong>Would you launch the weapon?</strong></p>","0",""
"","","","","","html-keyboard-response","15","49008","0.0-3.0-0.6","5","1","2023-06-27 15:22:52","846205d480aaa49f22c83d5c8cececc8","172.98.187.121","Mozilla/5.0 (Windows NT 10.0; Win64; x64) AppleWebKit/537.36 (KHTML, like Gecko) Chrome/115.0.0.0 Safari/537.36","WebKit","Chrome","115.0.0.0","Windows","10.0","null","<div style=""font-size:60px;"">+</div>","null",""
"","","","","","html-button-response","16","52638","0.0-3.0-1.6","5","1","2023-06-27 15:22:52","846205d480aaa49f22c83d5c8cececc8","172.98.187.121","Mozilla/5.0 (Windows NT 10.0; Win64; x64) AppleWebKit/537.36 (KHTML, like Gecko) Chrome/115.0.0.0 Safari/537.36","WebKit","Chrome","115.0.0.0","Windows","10.0","3627","<p>As the military commander, you could choose to launch a missile to kill <strong>1 enemy soldier</strong> , but would accidentally kill <strong>1 enemy civilian</strong> nearby.</p> <p>The photo of the <strong>enemy civilian</strong> is shown below.</p> <p></p> <img src='stimuli/faces/PCF8.jpg', style='max-width: 30%;'> </img> <p><strong>Would you launch the weapon?</strong></p>","0",""
"","","","","","html-keyboard-response","17","53641","0.0-3.0-0.7","5","1","2023-06-27 15:22:52","846205d480aaa49f22c83d5c8cececc8","172.98.187.121","Mozilla/5.0 (Windows NT 10.0; Win64; x64) AppleWebKit/537.36 (KHTML, like Gecko) Chrome/115.0.0.0 Safari/537.36","WebKit","Chrome","115.0.0.0","Windows","10.0","null","<div style=""font-size:60px;"">+</div>","null",""
"","","","","","html-button-response","18","57480","0.0-3.0-1.7","5","1","2023-06-27 15:22:52","846205d480aaa49f22c83d5c8cececc8","172.98.187.121","Mozilla/5.0 (Windows NT 10.0; Win64; x64) AppleWebKit/537.36 (KHTML, like Gecko) Chrome/115.0.0.0 Safari/537.36","WebKit","Chrome","115.0.0.0","Windows","10.0","3836","<p>As the military commander, you could choose to launch a missile to kill <strong>2 enemy soldiers</strong> , but would accidentally kill <strong>1 enemy civilian</strong> nearby.</p> <p>The photo of the <strong>enemy civilian</strong> is shown below.</p> <p></p> <img src='stimuli/faces/PCF6.jpg', style='max-width: 30%;'> </img> <p><strong>Would you launch the weapon?</strong></p>","1",""
"","","","","","html-keyboard-response","19","58485","0.0-3.0-0.8","5","1","2023-06-27 15:22:52","846205d480aaa49f22c83d5c8cececc8","172.98.187.121","Mozilla/5.0 (Windows NT 10.0; Win64; x64) AppleWebKit/537.36 (KHTML, like Gecko) Chrome/115.0.0.0 Safari/537.36","WebKit","Chrome","115.0.0.0","Windows","10.0","null","<div style=""font-size:60px;"">+</div>","null",""
"","","","","","html-button-response","20","62227","0.0-3.0-1.8","5","1","2023-06-27 15:22:52","846205d480aaa49f22c83d5c8cececc8","172.98.187.121","Mozilla/5.0 (Windows NT 10.0; Win64; x64) AppleWebKit/537.36 (KHTML, like Gecko) Chrome/115.0.0.0 Safari/537.36","WebKit","Chrome","115.0.0.0","Windows","10.0","3738","<p>As the military commander, you could choose to launch a missile to kill <strong>2 enemy soldiers</strong> , but would accidentally kill <strong>1 enemy tree</strong> nearby.</p> <p>The photo of the <strong>enemy tree</strong> is shown below.</p> <p></p> <img src='stimuli/tree/11.png', style='max-width: 30%;'> </img> <p><strong>Would you launch the weapon?</strong></p>","0",""
"","","","","","html-keyboard-response","21","63229","0.0-3.0-0.9","5","1","2023-06-27 15:22:52","846205d480aaa49f22c83d5c8cececc8","172.98.187.121","Mozilla/5.0 (Windows NT 10.0; Win64; x64) AppleWebKit/537.36 (KHTML, like Gecko) Chrome/115.0.0.0 Safari/537.36","WebKit","Chrome","115.0.0.0","Windows","10.0","null","<div style=""font-size:60px;"">+</div>","null",""
"","","","","","html-button-response","22","65222","0.0-3.0-1.9","5","1","2023-06-27 15:22:52","846205d480aaa49f22c83d5c8cececc8","172.98.187.121","Mozilla/5.0 (Windows NT 10.0; Win64; x64) AppleWebKit/537.36 (KHTML, like Gecko) Chrome/115.0.0.0 Safari/537.36","WebKit","Chrome","115.0.0.0","Windows","10.0","1991","<p>As the military commander, you could choose to launch a missile to kill <strong>6 enemy soldiers</strong> , but would accidentally kill <strong>1 enemy civilian</strong> nearby.</p> <p>The photo of the <strong>enemy civilian</strong> is shown below.</p> <p></p> <img src='stimuli/faces/PCM6.jpg', style='max-width: 30%;'> </img> <p><strong>Would you launch the weapon?</strong></p>","1",""
"","","","","","html-keyboard-response","23","66225","0.0-3.0-0.10","5","1","2023-06-27 15:22:52","846205d480aaa49f22c83d5c8cececc8","172.98.187.121","Mozilla/5.0 (Windows NT 10.0; Win64; x64) AppleWebKit/537.36 (KHTML, like Gecko) Chrome/115.0.0.0 Safari/537.36","WebKit","Chrome","115.0.0.0","Windows","10.0","null","<div style=""font-size:60px;"">+</div>","null",""
"","","","","","html-button-response","24","67759","0.0-3.0-1.10","5","1","2023-06-27 15:22:52","846205d480aaa49f22c83d5c8cececc8","172.98.187.121","Mozilla/5.0 (Windows NT 10.0; Win64; x64) AppleWebKit/537.36 (KHTML, like Gecko) Chrome/115.0.0.0 Safari/537.36","WebKit","Chrome","115.0.0.0","Windows","10.0","1531","<p>As the military commander, you could choose to launch a missile to kill <strong>10 enemy soldiers</strong> , but would accidentally kill <strong>1 enemy tree</strong> nearby.</p> <p>The photo of the <strong>enemy tree</strong> is shown below.</p> <p></p> <img src='stimuli/tree/16.png', style='max-width: 30%;'> </img> <p><strong>Would you launch the weapon?</strong></p>","0",""
"","","","","","html-keyboard-response","25","68762","0.0-3.0-0.11","5","1","2023-06-27 15:22:52","846205d480aaa49f22c83d5c8cececc8","172.98.187.121","Mozilla/5.0 (Windows NT 10.0; Win64; x64) AppleWebKit/537.36 (KHTML, like Gecko) Chrome/115.0.0.0 Safari/537.36","WebKit","Chrome","115.0.0.0","Windows","10.0","null","<div style=""font-size:60px;"">+</div>","null",""
"","","","","","html-button-response","26","71435","0.0-3.0-1.11","5","1","2023-06-27 15:22:52","846205d480aaa49f22c83d5c8cececc8","172.98.187.121","Mozilla/5.0 (Windows NT 10.0; Win64; x64) AppleWebKit/537.36 (KHTML, like Gecko) Chrome/115.0.0.0 Safari/537.36","WebKit","Chrome","115.0.0.0","Windows","10.0","2654","<p>As the military commander, you could choose to launch a missile to kill <strong>3 enemy soldiers</strong> , but would accidentally kill <strong>1 enemy tree</strong> nearby.</p> <p>The photo of the <strong>enemy tree</strong> is shown below.</p> <p></p> <img src='stimuli/tree/7.png', style='max-width: 30%;'> </img> <p><strong>Would you launch the weapon?</strong></p>","1",""
"","","","","","html-keyboard-response","27","72440","0.0-3.0-0.12","5","1","2023-06-27 15:22:52","846205d480aaa49f22c83d5c8cececc8","172.98.187.121","Mozilla/5.0 (Windows NT 10.0; Win64; x64) AppleWebKit/537.36 (KHTML, like Gecko) Chrome/115.0.0.0 Safari/537.36","WebKit","Chrome","115.0.0.0","Windows","10.0","null","<div style=""font-size:60px;"">+</div>","null",""
"","","","","","html-button-response","28","75526","0.0-3.0-1.12","5","1","2023-06-27 15:22:52","846205d480aaa49f22c83d5c8cececc8","172.98.187.121","Mozilla/5.0 (Windows NT 10.0; Win64; x64) AppleWebKit/537.36 (KHTML, like Gecko) Chrome/115.0.0.0 Safari/537.36","WebKit","Chrome","115.0.0.0","Windows","10.0","3084","<p>As the military commander, you could choose to launch a missile to kill <strong>9 enemy soldiers</strong> , but would accidentally kill <strong>1 enemy tree</strong> nearby.</p> <p>The photo of the <strong>enemy tree</strong> is shown below.</p> <p></p> <img src='stimuli/tree/5.png', style='max-width: 30%;'> </img> <p><strong>Would you launch the weapon?</strong></p>","0",""
"","","","","","html-keyboard-response","29","76528","0.0-3.0-0.13","5","1","2023-06-27 15:22:52","846205d480aaa49f22c83d5c8cececc8","172.98.187.121","Mozilla/5.0 (Windows NT 10.0; Win64; x64) AppleWebKit/537.36 (KHTML, like Gecko) Chrome/115.0.0.0 Safari/537.36","WebKit","Chrome","115.0.0.0","Windows","10.0","null","<div style=""font-size:60px;"">+</div>","null",""
"","","","","","html-button-response","30","77921","0.0-3.0-1.13","5","1","2023-06-27 15:22:52","846205d480aaa49f22c83d5c8cececc8","172.98.187.121","Mozilla/5.0 (Windows NT 10.0; Win64; x64) AppleWebKit/537.36 (KHTML, like Gecko) Chrome/115.0.0.0 Safari/537.36","WebKit","Chrome","115.0.0.0","Windows","10.0","1390","<p>As the military commander, you could choose to launch a missile to kill <strong>6 enemy soldiers</strong> , but would accidentally kill <strong>1 enemy tree</strong> nearby.</p> <p>The photo of the <strong>enemy tree</strong> is shown below.</p> <p></p> <img src='stimuli/tree/10.png', style='max-width: 30%;'> </img> <p><strong>Would you launch the weapon?</strong></p>","1",""
"","","","","","html-keyboard-response","31","78926","0.0-3.0-0.14","5","1","2023-06-27 15:22:52","846205d480aaa49f22c83d5c8cececc8","172.98.187.121","Mozilla/5.0 (Windows NT 10.0; Win64; x64) AppleWebKit/537.36 (KHTML, like Gecko) Chrome/115.0.0.0 Safari/537.36","WebKit","Chrome","115.0.0.0","Windows","10.0","null","<div style=""font-size:60px;"">+</div>","null",""
"","","","","","html-button-response","32","81739","0.0-3.0-1.14","5","1","2023-06-27 15:22:52","846205d480aaa49f22c83d5c8cececc8","172.98.187.121","Mozilla/5.0 (Windows NT 10.0; Win64; x64) AppleWebKit/537.36 (KHTML, like Gecko) Chrome/115.0.0.0 Safari/537.36","WebKit","Chrome","115.0.0.0","Windows","10.0","2808","<p>As the military commander, you could choose to launch a missile to kill <strong>3 enemy soldiers</strong> , but would accidentally kill <strong>1 enemy tree</strong> nearby.</p> <p>The photo of the <strong>enemy tree</strong> is shown below.</p> <p></p> <img src='stimuli/tree/13.png', style='max-width: 30%;'> </img> <p><strong>Would you launch the weapon?</strong></p>","0",""
"","","","","","html-keyboard-response","33","82743","0.0-3.0-0.15","5","1","2023-06-27 15:22:52","846205d480aaa49f22c83d5c8cececc8","172.98.187.121","Mozilla/5.0 (Windows NT 10.0; Win64; x64) AppleWebKit/537.36 (KHTML, like Gecko) Chrome/115.0.0.0 Safari/537.36","WebKit","Chrome","115.0.0.0","Windows","10.0","null","<div style=""font-size:60px;"">+</div>","null",""
"","","","","","html-button-response","34","86223","0.0-3.0-1.15","5","1","2023-06-27 15:22:52","846205d480aaa49f22c83d5c8cececc8","172.98.187.121","Mozilla/5.0 (Windows NT 10.0; Win64; x64) AppleWebKit/537.36 (KHTML, like Gecko) Chrome/115.0.0.0 Safari/537.36","WebKit","Chrome","115.0.0.0","Windows","10.0","3477","<p>As the military commander, you could choose to launch a missile to kill <strong>5 enemy soldiers</strong> , but would accidentally kill <strong>1 enemy tree</strong> nearby.</p> <p>The photo of the <strong>enemy tree</strong> is shown below.</p> <p></p> <img src='stimuli/tree/9.png', style='max-width: 30%;'> </img> <p><strong>Would you launch the weapon?</strong></p>","0",""
"","","","","","html-keyboard-response","35","87227","0.0-3.0-0.16","5","1","2023-06-27 15:22:52","846205d480aaa49f22c83d5c8cececc8","172.98.187.121","Mozilla/5.0 (Windows NT 10.0; Win64; x64) AppleWebKit/537.36 (KHTML, like Gecko) Chrome/115.0.0.0 Safari/537.36","WebKit","Chrome","115.0.0.0","Windows","10.0","null","<div style=""font-size:60px;"">+</div>","null",""
"","","","","","html-button-response","36","89095","0.0-3.0-1.16","5","1","2023-06-27 15:22:52","846205d480aaa49f22c83d5c8cececc8","172.98.187.121","Mozilla/5.0 (Windows NT 10.0; Win64; x64) AppleWebKit/537.36 (KHTML, like Gecko) Chrome/115.0.0.0 Safari/537.36","WebKit","Chrome","115.0.0.0","Windows","10.0","1865","<p>As the military commander, you could choose to launch a missile to kill <strong>8 enemy soldiers</strong> , but would accidentally kill <strong>1 enemy civilian</strong> nearby.</p> <p>The photo of the <strong>enemy civilian</strong> is shown below.</p> <p></p> <img src='stimuli/faces/PCF2.jpg', style='max-width: 30%;'> </img> <p><strong>Would you launch the weapon?</strong></p>","1",""
"","","","","","html-keyboard-response","37","90098","0.0-3.0-0.17","5","1","2023-06-27 15:22:52","846205d480aaa49f22c83d5c8cececc8","172.98.187.121","Mozilla/5.0 (Windows NT 10.0; Win64; x64) AppleWebKit/537.36 (KHTML, like Gecko) Chrome/115.0.0.0 Safari/537.36","WebKit","Chrome","115.0.0.0","Windows","10.0","null","<div style=""font-size:60px;"">+</div>","null",""
"","","","","","html-button-response","38","93111","0.0-3.0-1.17","5","1","2023-06-27 15:22:52","846205d480aaa49f22c83d5c8cececc8","172.98.187.121","Mozilla/5.0 (Windows NT 10.0; Win64; x64) AppleWebKit/537.36 (KHTML, like Gecko) Chrome/115.0.0.0 Safari/537.36","WebKit","Chrome","115.0.0.0","Windows","10.0","3011","<p>As the military commander, you could choose to launch a missile to kill <strong>8 enemy soldiers</strong> , but would accidentally kill <strong>1 enemy civilian</strong> nearby.</p> <p>The photo of the <strong>enemy civilian</strong> is shown below.</p> <p></p> <img src='stimuli/faces/PCF8.jpg', style='max-width: 30%;'> </img> <p><strong>Would you launch the weapon?</strong></p>","0",""
"","","","","","html-keyboard-response","39","94113","0.0-3.0-0.18","5","1","2023-06-27 15:22:52","846205d480aaa49f22c83d5c8cececc8","172.98.187.121","Mozilla/5.0 (Windows NT 10.0; Win64; x64) AppleWebKit/537.36 (KHTML, like Gecko) Chrome/115.0.0.0 Safari/537.36","WebKit","Chrome","115.0.0.0","Windows","10.0","null","<div style=""font-size:60px;"">+</div>","null",""
"","","","","","html-button-response","40","112495","0.0-3.0-1.18","5","1","2023-06-27 15:22:52","846205d480aaa49f22c83d5c8cececc8","172.98.187.121","Mozilla/5.0 (Windows NT 10.0; Win64; x64) AppleWebKit/537.36 (KHTML, like Gecko) Chrome/115.0.0.0 Safari/537.36","WebKit","Chrome","115.0.0.0","Windows","10.0","18376","<p>As the military commander, you could choose to launch a missile to kill <strong>6 enemy soldiers</strong> , but would accidentally kill <strong>1 enemy civilian</strong> nearby.</p> <p>The photo of the <strong>enemy civilian</strong> is shown below.</p> <p></p> <img src='stimuli/faces/PCF4.jpg', style='max-width: 30%;'> </img> <p><strong>Would you launch the weapon?</strong></p>","0",""
"","","","","","html-keyboard-response","41","113499","0.0-3.0-0.19","5","1","2023-06-27 15:22:52","846205d480aaa49f22c83d5c8cececc8","172.98.187.121","Mozilla/5.0 (Windows NT 10.0; Win64; x64) AppleWebKit/537.36 (KHTML, like Gecko) Chrome/115.0.0.0 Safari/537.36","WebKit","Chrome","115.0.0.0","Windows","10.0","null","<div style=""font-size:60px;"">+</div>","null",""
"","","","","","html-button-response","42","125459","0.0-3.0-1.19","5","1","2023-06-27 15:22:52","846205d480aaa49f22c83d5c8cececc8","172.98.187.121","Mozilla/5.0 (Windows NT 10.0; Win64; x64) AppleWebKit/537.36 (KHTML, like Gecko) Chrome/115.0.0.0 Safari/537.36","WebKit","Chrome","115.0.0.0","Windows","10.0","11953","<p>As the military commander, you could choose to launch a missile to kill <strong>9 enemy soldiers</strong> , but would accidentally kill <strong>1 enemy tree</strong> nearby.</p> <p>The photo of the <strong>enemy tree</strong> is shown below.</p> <p></p> <img src='stimuli/tree/12.png', style='max-width: 30%;'> </img> <p><strong>Would you launch the weapon?</strong></p>","0",""
"","","","","","html-keyboard-response","43","126463","0.0-3.0-0.20","5","1","2023-06-27 15:22:52","846205d480aaa49f22c83d5c8cececc8","172.98.187.121","Mozilla/5.0 (Windows NT 10.0; Win64; x64) AppleWebKit/537.36 (KHTML, like Gecko) Chrome/115.0.0.0 Safari/537.36","WebKit","Chrome","115.0.0.0","Windows","10.0","null","<div style=""font-size:60px;"">+</div>","null",""
"","","","","","html-button-response","44","157231","0.0-3.0-1.20","5","1","2023-06-27 15:22:52","846205d480aaa49f22c83d5c8cececc8","172.98.187.121","Mozilla/5.0 (Windows NT 10.0; Win64; x64) AppleWebKit/537.36 (KHTML, like Gecko) Chrome/115.0.0.0 Safari/537.36","WebKit","Chrome","115.0.0.0","Windows","10.0","30764","<p>As the military commander, you could choose to launch a missile to kill <strong>6 enemy soldiers</strong> , but would accidentally kill <strong>1 enemy tree</strong> nearby.</p> <p>The photo of the <strong>enemy tree</strong> is shown below.</p> <p></p> <img src='stimuli/tree/15.png', style='max-width: 30%;'> </img> <p><strong>Would you launch the weapon?</strong></p>","0",""
"","","","","","html-keyboard-response","45","158233","0.0-3.0-0.21","5","1","2023-06-27 15:22:52","846205d480aaa49f22c83d5c8cececc8","172.98.187.121","Mozilla/5.0 (Windows NT 10.0; Win64; x64) AppleWebKit/537.36 (KHTML, like Gecko) Chrome/115.0.0.0 Safari/537.36","WebKit","Chrome","115.0.0.0","Windows","10.0","null","<div style=""font-size:60px;"">+</div>","null",""
"","","","","","html-button-response","46","162531","0.0-3.0-1.21","5","1","2023-06-27 15:22:52","846205d480aaa49f22c83d5c8cececc8","172.98.187.121","Mozilla/5.0 (Windows NT 10.0; Win64; x64) AppleWebKit/537.36 (KHTML, like Gecko) Chrome/115.0.0.0 Safari/537.36","WebKit","Chrome","115.0.0.0","Windows","10.0","4295","<p>As the military commander, you could choose to launch a missile to kill <strong>5 enemy soldiers</strong> , but would accidentally kill <strong>1 enemy tree</strong> nearby.</p> <p>The photo of the <strong>enemy tree</strong> is shown below.</p> <p></p> <img src='stimuli/tree/4.png', style='max-width: 30%;'> </img> <p><strong>Would you launch the weapon?</strong></p>","0",""
"","","","","","html-keyboard-response","47","163535","0.0-3.0-0.22","5","1","2023-06-27 15:22:52","846205d480aaa49f22c83d5c8cececc8","172.98.187.121","Mozilla/5.0 (Windows NT 10.0; Win64; x64) AppleWebKit/537.36 (KHTML, like Gecko) Chrome/115.0.0.0 Safari/537.36","WebKit","Chrome","115.0.0.0","Windows","10.0","null","<div style=""font-size:60px;"">+</div>","null",""
"","","","","","html-button-response","48","168594","0.0-3.0-1.22","5","1","2023-06-27 15:22:52","846205d480aaa49f22c83d5c8cececc8","172.98.187.121","Mozilla/5.0 (Windows NT 10.0; Win64; x64) AppleWebKit/537.36 (KHTML, like Gecko) Chrome/115.0.0.0 Safari/537.36","WebKit","Chrome","115.0.0.0","Windows","10.0","5052","<p>As the military commander, you could choose to launch a missile to kill <strong>8 enemy soldiers</strong> , but would accidentally kill <strong>1 enemy civilian</strong> nearby.</p> <p>The photo of the <strong>enemy civilian</strong> is shown below.</p> <p></p> <img src='stimuli/faces/PCM4.jpg', style='max-width: 30%;'> </img> <p><strong>Would you launch the weapon?</strong></p>","0",""
"","","","","","html-keyboard-response","49","169597","0.0-3.0-0.23","5","1","2023-06-27 15:22:52","846205d480aaa49f22c83d5c8cececc8","172.98.187.121","Mozilla/5.0 (Windows NT 10.0; Win64; x64) AppleWebKit/537.36 (KHTML, like Gecko) Chrome/115.0.0.0 Safari/537.36","WebKit","Chrome","115.0.0.0","Windows","10.0","null","<div style=""font-size:60px;"">+</div>","null",""
"","","","","","html-button-response","50","172373","0.0-3.0-1.23","5","1","2023-06-27 15:22:52","846205d480aaa49f22c83d5c8cececc8","172.98.187.121","Mozilla/5.0 (Windows NT 10.0; Win64; x64) AppleWebKit/537.36 (KHTML, like Gecko) Chrome/115.0.0.0 Safari/537.36","WebKit","Chrome","115.0.0.0","Windows","10.0","2769","<p>As the military commander, you could choose to launch a missile to kill <strong>3 enemy soldiers</strong> , but would accidentally kill <strong>1 enemy civilian</strong> nearby.</p> <p>The photo of the <strong>enemy civilian</strong> is shown below.</p> <p></p> <img src='stimuli/faces/PCF3.jpg', style='max-width: 30%;'> </img> <p><strong>Would you launch the weapon?</strong></p>","1",""
"","","","","","html-keyboard-response","51","173378","0.0-3.0-0.24","5","1","2023-06-27 15:22:52","846205d480aaa49f22c83d5c8cececc8","172.98.187.121","Mozilla/5.0 (Windows NT 10.0; Win64; x64) AppleWebKit/537.36 (KHTML, like Gecko) Chrome/115.0.0.0 Safari/537.36","WebKit","Chrome","115.0.0.0","Windows","10.0","null","<div style=""font-size:60px;"">+</div>","null",""
"","","","","","html-button-response","52","175246","0.0-3.0-1.24","5","1","2023-06-27 15:22:52","846205d480aaa49f22c83d5c8cececc8","172.98.187.121","Mozilla/5.0 (Windows NT 10.0; Win64; x64) AppleWebKit/537.36 (KHTML, like Gecko) Chrome/115.0.0.0 Safari/537.36","WebKit","Chrome","115.0.0.0","Windows","10.0","1865","<p>As the military commander, you could choose to launch a missile to kill <strong>6 enemy soldiers</strong> , but would accidentally kill <strong>1 enemy civilian</strong> nearby.</p> <p>The photo of the <strong>enemy civilian</strong> is shown below.</p> <p></p> <img src='stimuli/faces/PCF3.jpg', style='max-width: 30%;'> </img> <p><strong>Would you launch the weapon?</strong></p>","0",""
"","","","","","html-keyboard-response","53","176249","0.0-3.0-0.25","5","1","2023-06-27 15:22:52","846205d480aaa49f22c83d5c8cececc8","172.98.187.121","Mozilla/5.0 (Windows NT 10.0; Win64; x64) AppleWebKit/537.36 (KHTML, like Gecko) Chrome/115.0.0.0 Safari/537.36","WebKit","Chrome","115.0.0.0","Windows","10.0","null","<div style=""font-size:60px;"">+</div>","null",""
"","","","","","html-button-response","54","178071","0.0-3.0-1.25","5","1","2023-06-27 15:22:52","846205d480aaa49f22c83d5c8cececc8","172.98.187.121","Mozilla/5.0 (Windows NT 10.0; Win64; x64) AppleWebKit/537.36 (KHTML, like Gecko) Chrome/115.0.0.0 Safari/537.36","WebKit","Chrome","115.0.0.0","Windows","10.0","1818","<p>As the military commander, you could choose to launch a missile to kill <strong>9 enemy soldiers</strong> , but would accidentally kill <strong>1 enemy civilian</strong> nearby.</p> <p>The photo of the <strong>enemy civilian</strong> is shown below.</p> <p></p> <img src='stimuli/faces/PCF5.jpg', style='max-width: 30%;'> </img> <p><strong>Would you launch the weapon?</strong></p>","0",""
"","","","","","html-keyboard-response","55","179075","0.0-3.0-0.26","5","1","2023-06-27 15:22:52","846205d480aaa49f22c83d5c8cececc8","172.98.187.121","Mozilla/5.0 (Windows NT 10.0; Win64; x64) AppleWebKit/537.36 (KHTML, like Gecko) Chrome/115.0.0.0 Safari/537.36","WebKit","Chrome","115.0.0.0","Windows","10.0","null","<div style=""font-size:60px;"">+</div>","null",""
"","","","","","html-button-response","56","183476","0.0-3.0-1.26","5","1","2023-06-27 15:22:52","846205d480aaa49f22c83d5c8cececc8","172.98.187.121","Mozilla/5.0 (Windows NT 10.0; Win64; x64) AppleWebKit/537.36 (KHTML, like Gecko) Chrome/115.0.0.0 Safari/537.36","WebKit","Chrome","115.0.0.0","Windows","10.0","4395","<p>As the military commander, you could choose to launch a missile to kill <strong>2 enemy soldiers</strong> , but would accidentally kill <strong>1 enemy tree</strong> nearby.</p> <p>The photo of the <strong>enemy tree</strong> is shown below.</p> <p></p> <img src='stimuli/tree/14.png', style='max-width: 30%;'> </img> <p><strong>Would you launch the weapon?</strong></p>","0",""
"","","","","","html-keyboard-response","57","184479","0.0-3.0-0.27","5","1","2023-06-27 15:22:52","846205d480aaa49f22c83d5c8cececc8","172.98.187.121","Mozilla/5.0 (Windows NT 10.0; Win64; x64) AppleWebKit/537.36 (KHTML, like Gecko) Chrome/115.0.0.0 Safari/537.36","WebKit","Chrome","115.0.0.0","Windows","10.0","null","<div style=""font-size:60px;"">+</div>","null",""
"","","","","","html-button-response","58","187013","0.0-3.0-1.27","5","1","2023-06-27 15:22:52","846205d480aaa49f22c83d5c8cececc8","172.98.187.121","Mozilla/5.0 (Windows NT 10.0; Win64; x64) AppleWebKit/537.36 (KHTML, like Gecko) Chrome/115.0.0.0 Safari/537.36","WebKit","Chrome","115.0.0.0","Windows","10.0","2529","<p>As the military commander, you could choose to launch a missile to kill <strong>4 enemy soldiers</strong> , but would accidentally kill <strong>1 enemy tree</strong> nearby.</p> <p>The photo of the <strong>enemy tree</strong> is shown below.</p> <p></p> <img src='stimuli/tree/3.png', style='max-width: 30%;'> </img> <p><strong>Would you launch the weapon?</strong></p>","0",""
"","","","","","html-keyboard-response","59","188019","0.0-3.0-0.28","5","1","2023-06-27 15:22:52","846205d480aaa49f22c83d5c8cececc8","172.98.187.121","Mozilla/5.0 (Windows NT 10.0; Win64; x64) AppleWebKit/537.36 (KHTML, like Gecko) Chrome/115.0.0.0 Safari/537.36","WebKit","Chrome","115.0.0.0","Windows","10.0","null","<div style=""font-size:60px;"">+</div>","null",""
"","","","","","html-button-response","60","190255","0.0-3.0-1.28","5","1","2023-06-27 15:22:52","846205d480aaa49f22c83d5c8cececc8","172.98.187.121","Mozilla/5.0 (Windows NT 10.0; Win64; x64) AppleWebKit/537.36 (KHTML, like Gecko) Chrome/115.0.0.0 Safari/537.36","WebKit","Chrome","115.0.0.0","Windows","10.0","2229","<p>As the military commander, you could choose to launch a missile to kill <strong>6 enemy soldiers</strong> , but would accidentally kill <strong>1 enemy civilian</strong> nearby.</p> <p>The photo of the <strong>enemy civilian</strong> is shown below.</p> <p></p> <img src='stimuli/faces/PCM3.jpg', style='max-width: 30%;'> </img> <p><strong>Would you launch the weapon?</strong></p>","0",""
"","","","","","html-keyboard-response","61","191259","0.0-3.0-0.29","5","1","2023-06-27 15:22:52","846205d480aaa49f22c83d5c8cececc8","172.98.187.121","Mozilla/5.0 (Windows NT 10.0; Win64; x64) AppleWebKit/537.36 (KHTML, like Gecko) Chrome/115.0.0.0 Safari/537.36","WebKit","Chrome","115.0.0.0","Windows","10.0","null","<div style=""font-size:60px;"">+</div>","null",""
"","","","","","html-button-response","62","193526","0.0-3.0-1.29","5","1","2023-06-27 15:22:52","846205d480aaa49f22c83d5c8cececc8","172.98.187.121","Mozilla/5.0 (Windows NT 10.0; Win64; x64) AppleWebKit/537.36 (KHTML, like Gecko) Chrome/115.0.0.0 Safari/537.36","WebKit","Chrome","115.0.0.0","Windows","10.0","2264","<p>As the military commander, you could choose to launch a missile to kill <strong>4 enemy soldiers</strong> , but would accidentally kill <strong>1 enemy civilian</strong> nearby.</p> <p>The photo of the <strong>enemy civilian</strong> is shown below.</p> <p></p> <img src='stimuli/faces/PCM6.jpg', style='max-width: 30%;'> </img> <p><strong>Would you launch the weapon?</strong></p>","1",""
"","","","","","html-keyboard-response","63","194529","0.0-3.0-0.30","5","1","2023-06-27 15:22:52","846205d480aaa49f22c83d5c8cececc8","172.98.187.121","Mozilla/5.0 (Windows NT 10.0; Win64; x64) AppleWebKit/537.36 (KHTML, like Gecko) Chrome/115.0.0.0 Safari/537.36","WebKit","Chrome","115.0.0.0","Windows","10.0","null","<div style=""font-size:60px;"">+</div>","null",""
"","","","","","html-button-response","64","196253","0.0-3.0-1.30","5","1","2023-06-27 15:22:52","846205d480aaa49f22c83d5c8cececc8","172.98.187.121","Mozilla/5.0 (Windows NT 10.0; Win64; x64) AppleWebKit/537.36 (KHTML, like Gecko) Chrome/115.0.0.0 Safari/537.36","WebKit","Chrome","115.0.0.0","Windows","10.0","1721","<p>As the military commander, you could choose to launch a missile to kill <strong>8 enemy soldiers</strong> , but would accidentally kill <strong>1 enemy civilian</strong> nearby.</p> <p>The photo of the <strong>enemy civilian</strong> is shown below.</p> <p></p> <img src='stimuli/faces/PCM7.jpg', style='max-width: 30%;'> </img> <p><strong>Would you launch the weapon?</strong></p>","0",""
"","","","","","html-keyboard-response","65","197258","0.0-3.0-0.31","5","1","2023-06-27 15:22:52","846205d480aaa49f22c83d5c8cececc8","172.98.187.121","Mozilla/5.0 (Windows NT 10.0; Win64; x64) AppleWebKit/537.36 (KHTML, like Gecko) Chrome/115.0.0.0 Safari/537.36","WebKit","Chrome","115.0.0.0","Windows","10.0","null","<div style=""font-size:60px;"">+</div>","null",""
"","","","","","html-button-response","66","199636","0.0-3.0-1.31","5","1","2023-06-27 15:22:52","846205d480aaa49f22c83d5c8cececc8","172.98.187.121","Mozilla/5.0 (Windows NT 10.0; Win64; x64) AppleWebKit/537.36 (KHTML, like Gecko) Chrome/115.0.0.0 Safari/537.36","WebKit","Chrome","115.0.0.0","Windows","10.0","2374","<p>As the military commander, you could choose to launch a missile to kill <strong>3 enemy soldiers</strong> , but would accidentally kill <strong>1 enemy civilian</strong> nearby.</p> <p>The photo of the <strong>enemy civilian</strong> is shown below.</p> <p></p> <img src='stimuli/faces/PCM5.jpg', style='max-width: 30%;'> </img> <p><strong>Would you launch the weapon?</strong></p>","1",""
"","","","","","html-keyboard-response","67","200652","0.0-3.0-0.32","5","1","2023-06-27 15:22:52","846205d480aaa49f22c83d5c8cececc8","172.98.187.121","Mozilla/5.0 (Windows NT 10.0; Win64; x64) AppleWebKit/537.36 (KHTML, like Gecko) Chrome/115.0.0.0 Safari/537.36","WebKit","Chrome","115.0.0.0","Windows","10.0","null","<div style=""font-size:60px;"">+</div>","null",""
"","","","","","html-button-response","68","202262","0.0-3.0-1.32","5","1","2023-06-27 15:22:52","846205d480aaa49f22c83d5c8cececc8","172.98.187.121","Mozilla/5.0 (Windows NT 10.0; Win64; x64) AppleWebKit/537.36 (KHTML, like Gecko) Chrome/115.0.0.0 Safari/537.36","WebKit","Chrome","115.0.0.0","Windows","10.0","1605","<p>As the military commander, you could choose to launch a missile to kill <strong>6 enemy soldiers</strong> , but would accidentally kill <strong>1 enemy civilian</strong> nearby.</p> <p>The photo of the <strong>enemy civilian</strong> is shown below.</p> <p></p> <img src='stimuli/faces/PCF1.jpg', style='max-width: 30%;'> </img> <p><strong>Would you launch the weapon?</strong></p>","0",""
"","","","","","html-keyboard-response","69","203267","0.0-3.0-0.33","5","1","2023-06-27 15:22:52","846205d480aaa49f22c83d5c8cececc8","172.98.187.121","Mozilla/5.0 (Windows NT 10.0; Win64; x64) AppleWebKit/537.36 (KHTML, like Gecko) Chrome/115.0.0.0 Safari/537.36","WebKit","Chrome","115.0.0.0","Windows","10.0","null","<div style=""font-size:60px;"">+</div>","null",""
"","","","","","html-button-response","70","205109","0.0-3.0-1.33","5","1","2023-06-27 15:22:52","846205d480aaa49f22c83d5c8cececc8","172.98.187.121","Mozilla/5.0 (Windows NT 10.0; Win64; x64) AppleWebKit/537.36 (KHTML, like Gecko) Chrome/115.0.0.0 Safari/537.36","WebKit","Chrome","115.0.0.0","Windows","10.0","1834","<p>As the military commander, you could choose to launch a missile to kill <strong>1 enemy soldier</strong> , but would accidentally kill <strong>1 enemy civilian</strong> nearby.</p> <p>The photo of the <strong>enemy civilian</strong> is shown below.</p> <p></p> <img src='stimuli/faces/PCF1.jpg', style='max-width: 30%;'> </img> <p><strong>Would you launch the weapon?</strong></p>","1",""
"","","","","","html-keyboard-response","71","206112","0.0-3.0-0.34","5","1","2023-06-27 15:22:52","846205d480aaa49f22c83d5c8cececc8","172.98.187.121","Mozilla/5.0 (Windows NT 10.0; Win64; x64) AppleWebKit/537.36 (KHTML, like Gecko) Chrome/115.0.0.0 Safari/537.36","WebKit","Chrome","115.0.0.0","Windows","10.0","null","<div style=""font-size:60px;"">+</div>","null",""
"","","","","","html-button-response","72","207805","0.0-3.0-1.34","5","1","2023-06-27 15:22:52","846205d480aaa49f22c83d5c8cececc8","172.98.187.121","Mozilla/5.0 (Windows NT 10.0; Win64; x64) AppleWebKit/537.36 (KHTML, like Gecko) Chrome/115.0.0.0 Safari/537.36","WebKit","Chrome","115.0.0.0","Windows","10.0","1686","<p>As the military commander, you could choose to launch a missile to kill <strong>9 enemy soldiers</strong> , but would accidentally kill <strong>1 enemy tree</strong> nearby.</p> <p>The photo of the <strong>enemy tree</strong> is shown below.</p> <p></p> <img src='stimuli/tree/14.png', style='max-width: 30%;'> </img> <p><strong>Would you launch the weapon?</strong></p>","0",""
"","","","","","html-keyboard-response","73","208808","0.0-3.0-0.35","5","1","2023-06-27 15:22:52","846205d480aaa49f22c83d5c8cececc8","172.98.187.121","Mozilla/5.0 (Windows NT 10.0; Win64; x64) AppleWebKit/537.36 (KHTML, like Gecko) Chrome/115.0.0.0 Safari/537.36","WebKit","Chrome","115.0.0.0","Windows","10.0","null","<div style=""font-size:60px;"">+</div>","null",""
"","","","","","html-button-response","74","216525","0.0-3.0-1.35","5","1","2023-06-27 15:22:52","846205d480aaa49f22c83d5c8cececc8","172.98.187.121","Mozilla/5.0 (Windows NT 10.0; Win64; x64) AppleWebKit/537.36 (KHTML, like Gecko) Chrome/115.0.0.0 Safari/537.36","WebKit","Chrome","115.0.0.0","Windows","10.0","7715","<p>As the military commander, you could choose to launch a missile to kill <strong>5 enemy soldiers</strong> , but would accidentally kill <strong>1 enemy tree</strong> nearby.</p> <p>The photo of the <strong>enemy tree</strong> is shown below.</p> <p></p> <img src='stimuli/tree/1.png', style='max-width: 30%;'> </img> <p><strong>Would you launch the weapon?</strong></p>","0",""
"","","","","","html-keyboard-response","75","217528","0.0-3.0-0.36","5","1","2023-06-27 15:22:52","846205d480aaa49f22c83d5c8cececc8","172.98.187.121","Mozilla/5.0 (Windows NT 10.0; Win64; x64) AppleWebKit/537.36 (KHTML, like Gecko) Chrome/115.0.0.0 Safari/537.36","WebKit","Chrome","115.0.0.0","Windows","10.0","null","<div style=""font-size:60px;"">+</div>","null",""
"","","","","","html-button-response","76","219645","0.0-3.0-1.36","5","1","2023-06-27 15:22:52","846205d480aaa49f22c83d5c8cececc8","172.98.187.121","Mozilla/5.0 (Windows NT 10.0; Win64; x64) AppleWebKit/537.36 (KHTML, like Gecko) Chrome/115.0.0.0 Safari/537.36","WebKit","Chrome","115.0.0.0","Windows","10.0","2112","<p>As the military commander, you could choose to launch a missile to kill <strong>5 enemy soldiers</strong> , but would accidentally kill <strong>1 enemy civilian</strong> nearby.</p> <p>The photo of the <strong>enemy civilian</strong> is shown below.</p> <p></p> <img src='stimuli/faces/PCM7.jpg', style='max-width: 30%;'> </img> <p><strong>Would you launch the weapon?</strong></p>","0",""
"","","","","","html-keyboard-response","77","220647","0.0-3.0-0.37","5","1","2023-06-27 15:22:52","846205d480aaa49f22c83d5c8cececc8","172.98.187.121","Mozilla/5.0 (Windows NT 10.0; Win64; x64) AppleWebKit/537.36 (KHTML, like Gecko) Chrome/115.0.0.0 Safari/537.36","WebKit","Chrome","115.0.0.0","Windows","10.0","null","<div style=""font-size:60px;"">+</div>","null",""
"","","","","","html-button-response","78","223039","0.0-3.0-1.37","5","1","2023-06-27 15:22:52","846205d480aaa49f22c83d5c8cececc8","172.98.187.121","Mozilla/5.0 (Windows NT 10.0; Win64; x64) AppleWebKit/537.36 (KHTML, like Gecko) Chrome/115.0.0.0 Safari/537.36","WebKit","Chrome","115.0.0.0","Windows","10.0","2386","<p>As the military commander, you could choose to launch a missile to kill <strong>10 enemy soldiers</strong> , but would accidentally kill <strong>1 enemy civilian</strong> nearby.</p> <p>The photo of the <strong>enemy civilian</strong> is shown below.</p> <p></p> <img src='stimuli/faces/PCM5.jpg', style='max-width: 30%;'> </img> <p><strong>Would you launch the weapon?</strong></p>","0",""
"","","","","","html-keyboard-response","79","224044","0.0-3.0-0.38","5","1","2023-06-27 15:22:52","846205d480aaa49f22c83d5c8cececc8","172.98.187.121","Mozilla/5.0 (Windows NT 10.0; Win64; x64) AppleWebKit/537.36 (KHTML, like Gecko) Chrome/115.0.0.0 Safari/537.36","WebKit","Chrome","115.0.0.0","Windows","10.0","null","<div style=""font-size:60px;"">+</div>","null",""
"","","","","","html-button-response","80","227213","0.0-3.0-1.38","5","1","2023-06-27 15:22:52","846205d480aaa49f22c83d5c8cececc8","172.98.187.121","Mozilla/5.0 (Windows NT 10.0; Win64; x64) AppleWebKit/537.36 (KHTML, like Gecko) Chrome/115.0.0.0 Safari/537.36","WebKit","Chrome","115.0.0.0","Windows","10.0","3165","<p>As the military commander, you could choose to launch a missile to kill <strong>4 enemy soldiers</strong> , but would accidentally kill <strong>1 enemy tree</strong> nearby.</p> <p>The photo of the <strong>enemy tree</strong> is shown below.</p> <p></p> <img src='stimuli/tree/8.png', style='max-width: 30%;'> </img> <p><strong>Would you launch the weapon?</strong></p>","0",""
"","","","","","html-keyboard-response","81","228218","0.0-3.0-0.39","5","1","2023-06-27 15:22:52","846205d480aaa49f22c83d5c8cececc8","172.98.187.121","Mozilla/5.0 (Windows NT 10.0; Win64; x64) AppleWebKit/537.36 (KHTML, like Gecko) Chrome/115.0.0.0 Safari/537.36","WebKit","Chrome","115.0.0.0","Windows","10.0","null","<div style=""font-size:60px;"">+</div>","null",""
"","","","","","html-button-response","82","231181","0.0-3.0-1.39","5","1","2023-06-27 15:22:52","846205d480aaa49f22c83d5c8cececc8","172.98.187.121","Mozilla/5.0 (Windows NT 10.0; Win64; x64) AppleWebKit/537.36 (KHTML, like Gecko) Chrome/115.0.0.0 Safari/537.36","WebKit","Chrome","115.0.0.0","Windows","10.0","2958","<p>As the military commander, you could choose to launch a missile to kill <strong>2 enemy soldiers</strong> , but would accidentally kill <strong>1 enemy civilian</strong> nearby.</p> <p>The photo of the <strong>enemy civilian</strong> is shown below.</p> <p></p> <img src='stimuli/faces/PCF4.jpg', style='max-width: 30%;'> </img> <p><strong>Would you launch the weapon?</strong></p>","1",""
"","","","","","html-keyboard-response","83","232186","0.0-3.0-0.40","5","1","2023-06-27 15:22:52","846205d480aaa49f22c83d5c8cececc8","172.98.187.121","Mozilla/5.0 (Windows NT 10.0; Win64; x64) AppleWebKit/537.36 (KHTML, like Gecko) Chrome/115.0.0.0 Safari/537.36","WebKit","Chrome","115.0.0.0","Windows","10.0","null","<div style=""font-size:60px;"">+</div>","null",""
"","","","","","html-button-response","84","234677","0.0-3.0-1.40","5","1","2023-06-27 15:22:52","846205d480aaa49f22c83d5c8cececc8","172.98.187.121","Mozilla/5.0 (Windows NT 10.0; Win64; x64) AppleWebKit/537.36 (KHTML, like Gecko) Chrome/115.0.0.0 Safari/537.36","WebKit","Chrome","115.0.0.0","Windows","10.0","2484","<p>As the military commander, you could choose to launch a missile to kill <strong>5 enemy soldiers</strong> , but would accidentally kill <strong>1 enemy civilian</strong> nearby.</p> <p>The photo of the <strong>enemy civilian</strong> is shown below.</p> <p></p> <img src='stimuli/faces/PCM1.jpg', style='max-width: 30%;'> </img> <p><strong>Would you launch the weapon?</strong></p>","1",""
"","","","","","html-keyboard-response","85","235681","0.0-3.0-0.41","5","1","2023-06-27 15:22:52","846205d480aaa49f22c83d5c8cececc8","172.98.187.121","Mozilla/5.0 (Windows NT 10.0; Win64; x64) AppleWebKit/537.36 (KHTML, like Gecko) Chrome/115.0.0.0 Safari/537.36","WebKit","Chrome","115.0.0.0","Windows","10.0","null","<div style=""font-size:60px;"">+</div>","null",""
"","","","","","html-button-response","86","237672","0.0-3.0-1.41","5","1","2023-06-27 15:22:52","846205d480aaa49f22c83d5c8cececc8","172.98.187.121","Mozilla/5.0 (Windows NT 10.0; Win64; x64) AppleWebKit/537.36 (KHTML, like Gecko) Chrome/115.0.0.0 Safari/537.36","WebKit","Chrome","115.0.0.0","Windows","10.0","1988","<p>As the military commander, you could choose to launch a missile to kill <strong>5 enemy soldiers</strong> , but would accidentally kill <strong>1 enemy civilian</strong> nearby.</p> <p>The photo of the <strong>enemy civilian</strong> is shown below.</p> <p></p> <img src='stimuli/faces/PCF7.jpg', style='max-width: 30%;'> </img> <p><strong>Would you launch the weapon?</strong></p>","0",""
"","","","","","html-keyboard-response","87","238679","0.0-3.0-0.42","5","1","2023-06-27 15:22:52","846205d480aaa49f22c83d5c8cececc8","172.98.187.121","Mozilla/5.0 (Windows NT 10.0; Win64; x64) AppleWebKit/537.36 (KHTML, like Gecko) Chrome/115.0.0.0 Safari/537.36","WebKit","Chrome","115.0.0.0","Windows","10.0","null","<div style=""font-size:60px;"">+</div>","null",""
"","","","","","html-button-response","88","240621","0.0-3.0-1.42","5","1","2023-06-27 15:22:52","846205d480aaa49f22c83d5c8cececc8","172.98.187.121","Mozilla/5.0 (Windows NT 10.0; Win64; x64) AppleWebKit/537.36 (KHTML, like Gecko) Chrome/115.0.0.0 Safari/537.36","WebKit","Chrome","115.0.0.0","Windows","10.0","1935","<p>As the military commander, you could choose to launch a missile to kill <strong>5 enemy soldiers</strong> , but would accidentally kill <strong>1 enemy civilian</strong> nearby.</p> <p>The photo of the <strong>enemy civilian</strong> is shown below.</p> <p></p> <img src='stimuli/faces/PCM3.jpg', style='max-width: 30%;'> </img> <p><strong>Would you launch the weapon?</strong></p>","1",""
"","","","","","html-keyboard-response","89","241632","0.0-3.0-0.43","5","1","2023-06-27 15:22:52","846205d480aaa49f22c83d5c8cececc8","172.98.187.121","Mozilla/5.0 (Windows NT 10.0; Win64; x64) AppleWebKit/537.36 (KHTML, like Gecko) Chrome/115.0.0.0 Safari/537.36","WebKit","Chrome","115.0.0.0","Windows","10.0","null","<div style=""font-size:60px;"">+</div>","null",""
"","","","","","html-button-response","90","243201","0.0-3.0-1.43","5","1","2023-06-27 15:22:52","846205d480aaa49f22c83d5c8cececc8","172.98.187.121","Mozilla/5.0 (Windows NT 10.0; Win64; x64) AppleWebKit/537.36 (KHTML, like Gecko) Chrome/115.0.0.0 Safari/537.36","WebKit","Chrome","115.0.0.0","Windows","10.0","1561","<p>As the military commander, you could choose to launch a missile to kill <strong>5 enemy soldiers</strong> , but would accidentally kill <strong>1 enemy tree</strong> nearby.</p> <p>The photo of the <strong>enemy tree</strong> is shown below.</p> <p></p> <img src='stimuli/tree/5.png', style='max-width: 30%;'> </img> <p><strong>Would you launch the weapon?</strong></p>","0",""
"","","","","","html-keyboard-response","91","244206","0.0-3.0-0.44","5","1","2023-06-27 15:22:52","846205d480aaa49f22c83d5c8cececc8","172.98.187.121","Mozilla/5.0 (Windows NT 10.0; Win64; x64) AppleWebKit/537.36 (KHTML, like Gecko) Chrome/115.0.0.0 Safari/537.36","WebKit","Chrome","115.0.0.0","Windows","10.0","null","<div style=""font-size:60px;"">+</div>","null",""
"","","","","","html-button-response","92","245564","0.0-3.0-1.44","5","1","2023-06-27 15:22:52","846205d480aaa49f22c83d5c8cececc8","172.98.187.121","Mozilla/5.0 (Windows NT 10.0; Win64; x64) AppleWebKit/537.36 (KHTML, like Gecko) Chrome/115.0.0.0 Safari/537.36","WebKit","Chrome","115.0.0.0","Windows","10.0","1352","<p>As the military commander, you could choose to launch a missile to kill <strong>9 enemy soldiers</strong> , but would accidentally kill <strong>1 enemy civilian</strong> nearby.</p> <p>The photo of the <strong>enemy civilian</strong> is shown below.</p> <p></p> <img src='stimuli/faces/PCF6.jpg', style='max-width: 30%;'> </img> <p><strong>Would you launch the weapon?</strong></p>","0",""
"","","","","","html-keyboard-response","93","246573","0.0-3.0-0.45","5","1","2023-06-27 15:22:52","846205d480aaa49f22c83d5c8cececc8","172.98.187.121","Mozilla/5.0 (Windows NT 10.0; Win64; x64) AppleWebKit/537.36 (KHTML, like Gecko) Chrome/115.0.0.0 Safari/537.36","WebKit","Chrome","115.0.0.0","Windows","10.0","null","<div style=""font-size:60px;"">+</div>","null",""
"","","","","","html-button-response","94","248120","0.0-3.0-1.45","5","1","2023-06-27 15:22:52","846205d480aaa49f22c83d5c8cececc8","172.98.187.121","Mozilla/5.0 (Windows NT 10.0; Win64; x64) AppleWebKit/537.36 (KHTML, like Gecko) Chrome/115.0.0.0 Safari/537.36","WebKit","Chrome","115.0.0.0","Windows","10.0","1543","<p>As the military commander, you could choose to launch a missile to kill <strong>10 enemy soldiers</strong> , but would accidentally kill <strong>1 enemy civilian</strong> nearby.</p> <p>The photo of the <strong>enemy civilian</strong> is shown below.</p> <p></p> <img src='stimuli/faces/PCM1.jpg', style='max-width: 30%;'> </img> <p><strong>Would you launch the weapon?</strong></p>","0",""
"","","","","","html-keyboard-response","95","249124","0.0-3.0-0.46","5","1","2023-06-27 15:22:52","846205d480aaa49f22c83d5c8cececc8","172.98.187.121","Mozilla/5.0 (Windows NT 10.0; Win64; x64) AppleWebKit/537.36 (KHTML, like Gecko) Chrome/115.0.0.0 Safari/537.36","WebKit","Chrome","115.0.0.0","Windows","10.0","null","<div style=""font-size:60px;"">+</div>","null",""
"","","","","","html-button-response","96","250456","0.0-3.0-1.46","5","1","2023-06-27 15:22:52","846205d480aaa49f22c83d5c8cececc8","172.98.187.121","Mozilla/5.0 (Windows NT 10.0; Win64; x64) AppleWebKit/537.36 (KHTML, like Gecko) Chrome/115.0.0.0 Safari/537.36","WebKit","Chrome","115.0.0.0","Windows","10.0","1316","<p>As the military commander, you could choose to launch a missile to kill <strong>1 enemy soldier</strong> , but would accidentally kill <strong>1 enemy tree</strong> nearby.</p> <p>The photo of the <strong>enemy tree</strong> is shown below.</p> <p></p> <img src='stimuli/tree/12.png', style='max-width: 30%;'> </img> <p><strong>Would you launch the weapon?</strong></p>","0",""
"","","","","","html-keyboard-response","97","251461","0.0-3.0-0.47","5","1","2023-06-27 15:22:52","846205d480aaa49f22c83d5c8cececc8","172.98.187.121","Mozilla/5.0 (Windows NT 10.0; Win64; x64) AppleWebKit/537.36 (KHTML, like Gecko) Chrome/115.0.0.0 Safari/537.36","WebKit","Chrome","115.0.0.0","Windows","10.0","null","<div style=""font-size:60px;"">+</div>","null",""
"","","","","","html-button-response","98","253216","0.0-3.0-1.47","5","1","2023-06-27 15:22:52","846205d480aaa49f22c83d5c8cececc8","172.98.187.121","Mozilla/5.0 (Windows NT 10.0; Win64; x64) AppleWebKit/537.36 (KHTML, like Gecko) Chrome/115.0.0.0 Safari/537.36","WebKit","Chrome","115.0.0.0","Windows","10.0","1749","<p>As the military commander, you could choose to launch a missile to kill <strong>4 enemy soldiers</strong> , but would accidentally kill <strong>1 enemy civilian</strong> nearby.</p> <p>The photo of the <strong>enemy civilian</strong> is shown below.</p> <p></p> <img src='stimuli/faces/PCF5.jpg', style='max-width: 30%;'> </img> <p><strong>Would you launch the weapon?</strong></p>","1",""
"","","","","","html-keyboard-response","99","254222","0.0-3.0-0.48","5","1","2023-06-27 15:22:52","846205d480aaa49f22c83d5c8cececc8","172.98.187.121","Mozilla/5.0 (Windows NT 10.0; Win64; x64) AppleWebKit/537.36 (KHTML, like Gecko) Chrome/115.0.0.0 Safari/537.36","WebKit","Chrome","115.0.0.0","Windows","10.0","null","<div style=""font-size:60px;"">+</div>","null",""
"","","","","","html-button-response","100","255704","0.0-3.0-1.48","5","1","2023-06-27 15:22:52","846205d480aaa49f22c83d5c8cececc8","172.98.187.121","Mozilla/5.0 (Windows NT 10.0; Win64; x64) AppleWebKit/537.36 (KHTML, like Gecko) Chrome/115.0.0.0 Safari/537.36","WebKit","Chrome","115.0.0.0","Windows","10.0","1478","<p>As the military commander, you could choose to launch a missile to kill <strong>6 enemy soldiers</strong> , but would accidentally kill <strong>1 enemy tree</strong> nearby.</p> <p>The photo of the <strong>enemy tree</strong> is shown below.</p> <p></p> <img src='stimuli/tree/8.png', style='max-width: 30%;'> </img> <p><strong>Would you launch the weapon?</strong></p>","0",""
"","","","","","html-keyboard-response","101","256707","0.0-3.0-0.49","5","1","2023-06-27 15:22:52","846205d480aaa49f22c83d5c8cececc8","172.98.187.121","Mozilla/5.0 (Windows NT 10.0; Win64; x64) AppleWebKit/537.36 (KHTML, like Gecko) Chrome/115.0.0.0 Safari/537.36","WebKit","Chrome","115.0.0.0","Windows","10.0","null","<div style=""font-size:60px;"">+</div>","null",""
"","","","","","html-button-response","102","258641","0.0-3.0-1.49","5","1","2023-06-27 15:22:52","846205d480aaa49f22c83d5c8cececc8","172.98.187.121","Mozilla/5.0 (Windows NT 10.0; Win64; x64) AppleWebKit/537.36 (KHTML, like Gecko) Chrome/115.0.0.0 Safari/537.36","WebKit","Chrome","115.0.0.0","Windows","10.0","1928","<p>As the military commander, you could choose to launch a missile to kill <strong>2 enemy soldiers</strong> , but would accidentally kill <strong>1 enemy civilian</strong> nearby.</p> <p>The photo of the <strong>enemy civilian</strong> is shown below.</p> <p></p> <img src='stimuli/faces/PCM2.jpg', style='max-width: 30%;'> </img> <p><strong>Would you launch the weapon?</strong></p>","1",""
"","","","","","html-keyboard-response","103","259647","0.0-3.0-0.50","5","1","2023-06-27 15:22:52","846205d480aaa49f22c83d5c8cececc8","172.98.187.121","Mozilla/5.0 (Windows NT 10.0; Win64; x64) AppleWebKit/537.36 (KHTML, like Gecko) Chrome/115.0.0.0 Safari/537.36","WebKit","Chrome","115.0.0.0","Windows","10.0","null","<div style=""font-size:60px;"">+</div>","null",""
"","","","","","html-button-response","104","263208","0.0-3.0-1.50","5","1","2023-06-27 15:22:52","846205d480aaa49f22c83d5c8cececc8","172.98.187.121","Mozilla/5.0 (Windows NT 10.0; Win64; x64) AppleWebKit/537.36 (KHTML, like Gecko) Chrome/115.0.0.0 Safari/537.36","WebKit","Chrome","115.0.0.0","Windows","10.0","3555","<p>As the military commander, you could choose to launch a missile to kill <strong>5 enemy soldiers</strong> , but would accidentally kill <strong>1 enemy civilian</strong> nearby.</p> <p>The photo of the <strong>enemy civilian</strong> is shown below.</p> <p></p> <img src='stimuli/faces/PCM4.jpg', style='max-width: 30%;'> </img> <p><strong>Would you launch the weapon?</strong></p>","0",""
"","","","","","html-keyboard-response","105","264213","0.0-3.0-0.51","5","1","2023-06-27 15:22:52","846205d480aaa49f22c83d5c8cececc8","172.98.187.121","Mozilla/5.0 (Windows NT 10.0; Win64; x64) AppleWebKit/537.36 (KHTML, like Gecko) Chrome/115.0.0.0 Safari/537.36","WebKit","Chrome","115.0.0.0","Windows","10.0","null","<div style=""font-size:60px;"">+</div>","null",""
"","","","","","html-button-response","106","266148","0.0-3.0-1.51","5","1","2023-06-27 15:22:52","846205d480aaa49f22c83d5c8cececc8","172.98.187.121","Mozilla/5.0 (Windows NT 10.0; Win64; x64) AppleWebKit/537.36 (KHTML, like Gecko) Chrome/115.0.0.0 Safari/537.36","WebKit","Chrome","115.0.0.0","Windows","10.0","1929","<p>As the military commander, you could choose to launch a missile to kill <strong>6 enemy soldiers</strong> , but would accidentally kill <strong>1 enemy tree</strong> nearby.</p> <p>The photo of the <strong>enemy tree</strong> is shown below.</p> <p></p> <img src='stimuli/tree/1.png', style='max-width: 30%;'> </img> <p><strong>Would you launch the weapon?</strong></p>","0",""
"","","","","","html-keyboard-response","107","267151","0.0-3.0-0.52","5","1","2023-06-27 15:22:52","846205d480aaa49f22c83d5c8cececc8","172.98.187.121","Mozilla/5.0 (Windows NT 10.0; Win64; x64) AppleWebKit/537.36 (KHTML, like Gecko) Chrome/115.0.0.0 Safari/537.36","WebKit","Chrome","115.0.0.0","Windows","10.0","null","<div style=""font-size:60px;"">+</div>","null",""
"","","","","","html-button-response","108","272896","0.0-3.0-1.52","5","1","2023-06-27 15:22:52","846205d480aaa49f22c83d5c8cececc8","172.98.187.121","Mozilla/5.0 (Windows NT 10.0; Win64; x64) AppleWebKit/537.36 (KHTML, like Gecko) Chrome/115.0.0.0 Safari/537.36","WebKit","Chrome","115.0.0.0","Windows","10.0","5740","<p>As the military commander, you could choose to launch a missile to kill <strong>3 enemy soldiers</strong> , but would accidentally kill <strong>1 enemy civilian</strong> nearby.</p> <p>The photo of the <strong>enemy civilian</strong> is shown below.</p> <p></p> <img src='stimuli/faces/PCM8.jpg', style='max-width: 30%;'> </img> <p><strong>Would you launch the weapon?</strong></p>","1",""
"","","","","","html-keyboard-response","109","273901","0.0-3.0-0.53","5","1","2023-06-27 15:22:52","846205d480aaa49f22c83d5c8cececc8","172.98.187.121","Mozilla/5.0 (Windows NT 10.0; Win64; x64) AppleWebKit/537.36 (KHTML, like Gecko) Chrome/115.0.0.0 Safari/537.36","WebKit","Chrome","115.0.0.0","Windows","10.0","null","<div style=""font-size:60px;"">+</div>","null",""
"","","","","","html-button-response","110","278984","0.0-3.0-1.53","5","1","2023-06-27 15:22:52","846205d480aaa49f22c83d5c8cececc8","172.98.187.121","Mozilla/5.0 (Windows NT 10.0; Win64; x64) AppleWebKit/537.36 (KHTML, like Gecko) Chrome/115.0.0.0 Safari/537.36","WebKit","Chrome","115.0.0.0","Windows","10.0","5078","<p>As the military commander, you could choose to launch a missile to kill <strong>9 enemy soldiers</strong> , but would accidentally kill <strong>1 enemy civilian</strong> nearby.</p> <p>The photo of the <strong>enemy civilian</strong> is shown below.</p> <p></p> <img src='stimuli/faces/PCM2.jpg', style='max-width: 30%;'> </img> <p><strong>Would you launch the weapon?</strong></p>","0",""
"","","","","","html-keyboard-response","111","279989","0.0-3.0-0.54","5","1","2023-06-27 15:22:52","846205d480aaa49f22c83d5c8cececc8","172.98.187.121","Mozilla/5.0 (Windows NT 10.0; Win64; x64) AppleWebKit/537.36 (KHTML, like Gecko) Chrome/115.0.0.0 Safari/537.36","WebKit","Chrome","115.0.0.0","Windows","10.0","null","<div style=""font-size:60px;"">+</div>","null",""
"","","","","","html-button-response","112","281279","0.0-3.0-1.54","5","1","2023-06-27 15:22:52","846205d480aaa49f22c83d5c8cececc8","172.98.187.121","Mozilla/5.0 (Windows NT 10.0; Win64; x64) AppleWebKit/537.36 (KHTML, like Gecko) Chrome/115.0.0.0 Safari/537.36","WebKit","Chrome","115.0.0.0","Windows","10.0","1283","<p>As the military commander, you could choose to launch a missile to kill <strong>5 enemy soldiers</strong> , but would accidentally kill <strong>1 enemy tree</strong> nearby.</p> <p>The photo of the <strong>enemy tree</strong> is shown below.</p> <p></p> <img src='stimuli/tree/15.png', style='max-width: 30%;'> </img> <p><strong>Would you launch the weapon?</strong></p>","0",""
"","","","","","html-keyboard-response","113","282284","0.0-3.0-0.55","5","1","2023-06-27 15:22:52","846205d480aaa49f22c83d5c8cececc8","172.98.187.121","Mozilla/5.0 (Windows NT 10.0; Win64; x64) AppleWebKit/537.36 (KHTML, like Gecko) Chrome/115.0.0.0 Safari/537.36","WebKit","Chrome","115.0.0.0","Windows","10.0","null","<div style=""font-size:60px;"">+</div>","null",""
"","","","","","html-button-response","114","283864","0.0-3.0-1.55","5","1","2023-06-27 15:22:52","846205d480aaa49f22c83d5c8cececc8","172.98.187.121","Mozilla/5.0 (Windows NT 10.0; Win64; x64) AppleWebKit/537.36 (KHTML, like Gecko) Chrome/115.0.0.0 Safari/537.36","WebKit","Chrome","115.0.0.0","Windows","10.0","1575","<p>As the military commander, you could choose to launch a missile to kill <strong>8 enemy soldiers</strong> , but would accidentally kill <strong>1 enemy tree</strong> nearby.</p> <p>The photo of the <strong>enemy tree</strong> is shown below.</p> <p></p> <img src='stimuli/tree/2.png', style='max-width: 30%;'> </img> <p><strong>Would you launch the weapon?</strong></p>","0",""
"","","","","","html-keyboard-response","115","284868","0.0-3.0-0.56","5","1","2023-06-27 15:22:52","846205d480aaa49f22c83d5c8cececc8","172.98.187.121","Mozilla/5.0 (Windows NT 10.0; Win64; x64) AppleWebKit/537.36 (KHTML, like Gecko) Chrome/115.0.0.0 Safari/537.36","WebKit","Chrome","115.0.0.0","Windows","10.0","null","<div style=""font-size:60px;"">+</div>","null",""
"","","","","","html-button-response","116","286056","0.0-3.0-1.56","5","1","2023-06-27 15:22:52","846205d480aaa49f22c83d5c8cececc8","172.98.187.121","Mozilla/5.0 (Windows NT 10.0; Win64; x64) AppleWebKit/537.36 (KHTML, like Gecko) Chrome/115.0.0.0 Safari/537.36","WebKit","Chrome","115.0.0.0","Windows","10.0","1182","<p>As the military commander, you could choose to launch a missile to kill <strong>7 enemy soldiers</strong> , but would accidentally kill <strong>1 enemy tree</strong> nearby.</p> <p>The photo of the <strong>enemy tree</strong> is shown below.</p> <p></p> <img src='stimuli/tree/6.png', style='max-width: 30%;'> </img> <p><strong>Would you launch the weapon?</strong></p>","0",""
"","","","","","html-keyboard-response","117","287064","0.0-3.0-0.57","5","1","2023-06-27 15:22:52","846205d480aaa49f22c83d5c8cececc8","172.98.187.121","Mozilla/5.0 (Windows NT 10.0; Win64; x64) AppleWebKit/537.36 (KHTML, like Gecko) Chrome/115.0.0.0 Safari/537.36","WebKit","Chrome","115.0.0.0","Windows","10.0","null","<div style=""font-size:60px;"">+</div>","null",""
"","","","","","html-button-response","118","288541","0.0-3.0-1.57","5","1","2023-06-27 15:22:52","846205d480aaa49f22c83d5c8cececc8","172.98.187.121","Mozilla/5.0 (Windows NT 10.0; Win64; x64) AppleWebKit/537.36 (KHTML, like Gecko) Chrome/115.0.0.0 Safari/537.36","WebKit","Chrome","115.0.0.0","Windows","10.0","1472","<p>As the military commander, you could choose to launch a missile to kill <strong>7 enemy soldiers</strong> , but would accidentally kill <strong>1 enemy tree</strong> nearby.</p> <p>The photo of the <strong>enemy tree</strong> is shown below.</p> <p></p> <img src='stimuli/tree/9.png', style='max-width: 30%;'> </img> <p><strong>Would you launch the weapon?</strong></p>","0",""
"","","","","","html-keyboard-response","119","289546","0.0-3.0-0.58","5","1","2023-06-27 15:22:52","846205d480aaa49f22c83d5c8cececc8","172.98.187.121","Mozilla/5.0 (Windows NT 10.0; Win64; x64) AppleWebKit/537.36 (KHTML, like Gecko) Chrome/115.0.0.0 Safari/537.36","WebKit","Chrome","115.0.0.0","Windows","10.0","null","<div style=""font-size:60px;"">+</div>","null",""
"","","","","","html-button-response","120","302681","0.0-3.0-1.58","5","1","2023-06-27 15:22:52","846205d480aaa49f22c83d5c8cececc8","172.98.187.121","Mozilla/5.0 (Windows NT 10.0; Win64; x64) AppleWebKit/537.36 (KHTML, like Gecko) Chrome/115.0.0.0 Safari/537.36","WebKit","Chrome","115.0.0.0","Windows","10.0","13128","<p>As the military commander, you could choose to launch a missile to kill <strong>4 enemy soldiers</strong> , but would accidentally kill <strong>1 enemy tree</strong> nearby.</p> <p>The photo of the <strong>enemy tree</strong> is shown below.</p> <p></p> <img src='stimuli/tree/16.png', style='max-width: 30%;'> </img> <p><strong>Would you launch the weapon?</strong></p>","0",""
"","","","","","html-keyboard-response","121","303687","0.0-3.0-0.59","5","1","2023-06-27 15:22:52","846205d480aaa49f22c83d5c8cececc8","172.98.187.121","Mozilla/5.0 (Windows NT 10.0; Win64; x64) AppleWebKit/537.36 (KHTML, like Gecko) Chrome/115.0.0.0 Safari/537.36","WebKit","Chrome","115.0.0.0","Windows","10.0","null","<div style=""font-size:60px;"">+</div>","null",""
"","","","","","html-button-response","122","314001","0.0-3.0-1.59","5","1","2023-06-27 15:22:52","846205d480aaa49f22c83d5c8cececc8","172.98.187.121","Mozilla/5.0 (Windows NT 10.0; Win64; x64) AppleWebKit/537.36 (KHTML, like Gecko) Chrome/115.0.0.0 Safari/537.36","WebKit","Chrome","115.0.0.0","Windows","10.0","10311","<p>As the military commander, you could choose to launch a missile to kill <strong>7 enemy soldiers</strong> , but would accidentally kill <strong>1 enemy tree</strong> nearby.</p> <p>The photo of the <strong>enemy tree</strong> is shown below.</p> <p></p> <img src='stimuli/tree/11.png', style='max-width: 30%;'> </img> <p><strong>Would you launch the weapon?</strong></p>","0",""
"","","","","","html-keyboard-response","123","315005","0.0-3.0-0.60","5","1","2023-06-27 15:22:52","846205d480aaa49f22c83d5c8cececc8","172.98.187.121","Mozilla/5.0 (Windows NT 10.0; Win64; x64) AppleWebKit/537.36 (KHTML, like Gecko) Chrome/115.0.0.0 Safari/537.36","WebKit","Chrome","115.0.0.0","Windows","10.0","null","<div style=""font-size:60px;"">+</div>","null",""
"","","","","","html-button-response","124","319473","0.0-3.0-1.60","5","1","2023-06-27 15:22:52","846205d480aaa49f22c83d5c8cececc8","172.98.187.121","Mozilla/5.0 (Windows NT 10.0; Win64; x64) AppleWebKit/537.36 (KHTML, like Gecko) Chrome/115.0.0.0 Safari/537.36","WebKit","Chrome","115.0.0.0","Windows","10.0","4464","<p>As the military commander, you could choose to launch a missile to kill <strong>5 enemy soldiers</strong> , but would accidentally kill <strong>1 enemy tree</strong> nearby.</p> <p>The photo of the <strong>enemy tree</strong> is shown below.</p> <p></p> <img src='stimuli/tree/2.png', style='max-width: 30%;'> </img> <p><strong>Would you launch the weapon?</strong></p>","0",""
"","","","","","html-keyboard-response","125","320480","0.0-3.0-0.61","5","1","2023-06-27 15:22:52","846205d480aaa49f22c83d5c8cececc8","172.98.187.121","Mozilla/5.0 (Windows NT 10.0; Win64; x64) AppleWebKit/537.36 (KHTML, like Gecko) Chrome/115.0.0.0 Safari/537.36","WebKit","Chrome","115.0.0.0","Windows","10.0","null","<div style=""font-size:60px;"">+</div>","null",""
"","","","","","html-button-response","126","321675","0.0-3.0-1.61","5","1","2023-06-27 15:22:52","846205d480aaa49f22c83d5c8cececc8","172.98.187.121","Mozilla/5.0 (Windows NT 10.0; Win64; x64) AppleWebKit/537.36 (KHTML, like Gecko) Chrome/115.0.0.0 Safari/537.36","WebKit","Chrome","115.0.0.0","Windows","10.0","1189","<p>As the military commander, you could choose to launch a missile to kill <strong>9 enemy soldiers</strong> , but would accidentally kill <strong>1 enemy tree</strong> nearby.</p> <p>The photo of the <strong>enemy tree</strong> is shown below.</p> <p></p> <img src='stimuli/tree/13.png', style='max-width: 30%;'> </img> <p><strong>Would you launch the weapon?</strong></p>","0",""
"","","","","","html-keyboard-response","127","322681","0.0-3.0-0.62","5","1","2023-06-27 15:22:52","846205d480aaa49f22c83d5c8cececc8","172.98.187.121","Mozilla/5.0 (Windows NT 10.0; Win64; x64) AppleWebKit/537.36 (KHTML, like Gecko) Chrome/115.0.0.0 Safari/537.36","WebKit","Chrome","115.0.0.0","Windows","10.0","null","<div style=""font-size:60px;"">+</div>","null",""
"","","","","","html-button-response","128","328305","0.0-3.0-1.62","5","1","2023-06-27 15:22:52","846205d480aaa49f22c83d5c8cececc8","172.98.187.121","Mozilla/5.0 (Windows NT 10.0; Win64; x64) AppleWebKit/537.36 (KHTML, like Gecko) Chrome/115.0.0.0 Safari/537.36","WebKit","Chrome","115.0.0.0","Windows","10.0","5595","<p>As the military commander, you could choose to launch a missile to kill <strong>6 enemy soldiers</strong> , but would accidentally kill <strong>1 enemy tree</strong> nearby.</p> <p>The photo of the <strong>enemy tree</strong> is shown below.</p> <p></p> <img src='stimuli/tree/7.png', style='max-width: 30%;'> </img> <p><strong>Would you launch the weapon?</strong></p>","0",""
"","","","","","html-keyboard-response","129","329311","0.0-3.0-0.63","5","1","2023-06-27 15:22:52","846205d480aaa49f22c83d5c8cececc8","172.98.187.121","Mozilla/5.0 (Windows NT 10.0; Win64; x64) AppleWebKit/537.36 (KHTML, like Gecko) Chrome/115.0.0.0 Safari/537.36","WebKit","Chrome","115.0.0.0","Windows","10.0","null","<div style=""font-size:60px;"">+</div>","null",""
"","","","","","html-button-response","130","332322","0.0-3.0-1.63","5","1","2023-06-27 15:22:52","846205d480aaa49f22c83d5c8cececc8","172.98.187.121","Mozilla/5.0 (Windows NT 10.0; Win64; x64) AppleWebKit/537.36 (KHTML, like Gecko) Chrome/115.0.0.0 Safari/537.36","WebKit","Chrome","115.0.0.0","Windows","10.0","3002","<p>As the military commander, you could choose to launch a missile to kill <strong>3 enemy soldiers</strong> , but would accidentally kill <strong>1 enemy civilian</strong> nearby.</p> <p>The photo of the <strong>enemy civilian</strong> is shown below.</p> <p></p> <img src='stimuli/faces/PCF2.jpg', style='max-width: 30%;'> </img> <p><strong>Would you launch the weapon?</strong></p>","1",""
"","","","","","survey-multi-choice","131","346942","0.0-4.0","5","1","2023-06-27 15:22:52","846205d480aaa49f22c83d5c8cececc8","172.98.187.121","Mozilla/5.0 (Windows NT 10.0; Win64; x64) AppleWebKit/537.36 (KHTML, like Gecko) Chrome/115.0.0.0 Safari/537.36","WebKit","Chrome","115.0.0.0","Windows","10.0","14612","","{""Attention1"":""""}","[0]"
"","","","","","html-button-response","132","350507","0.0-5.0","5","1","2023-06-27 15:22:52","846205d480aaa49f22c83d5c8cececc8","172.98.187.121","Mozilla/5.0 (Windows NT 10.0; Win64; x64) AppleWebKit/537.36 (KHTML, like Gecko) Chrome/115.0.0.0 Safari/537.36","WebKit","Chrome","115.0.0.0","Windows","10.0","3556","<p style=""font-size:20px;font-weight:bold;"">Great!</p><p>You have finished the first part of the experiment!</p><p>Please relax a little bit and then contine to answer some questions regarding yourself.</p><p>The next part will take around 10 minutes to complete.</p>","0",""
"","","","","","survey-text","133","388085","0.0-6.0","5","1","2023-06-27 15:22:52","846205d480aaa49f22c83d5c8cececc8","172.98.187.121","Mozilla/5.0 (Windows NT 10.0; Win64; x64) AppleWebKit/537.36 (KHTML, like Gecko) Chrome/115.0.0.0 Safari/537.36","WebKit","Chrome","115.0.0.0","Windows","10.0","36556","","{""Age"":""23"",""Nation"":""American"",""Born"":""USA"",""Live"":""USA""}",""
"","","","","","survey-multi-choice","134","402623","0.0-7.0","5","1","2023-06-27 15:22:52","846205d480aaa49f22c83d5c8cececc8","172.98.187.121","Mozilla/5.0 (Windows NT 10.0; Win64; x64) AppleWebKit/537.36 (KHTML, like Gecko) Chrome/115.0.0.0 Safari/537.36","WebKit","Chrome","115.0.0.0","Windows","10.0","14528","","{""Gender"":""Male"",""Education"":""Bachelor's Degree"",""Income"":""$40,000 - $69,999"",""Children"":""2"",""Ethnicity"":""White""}","[0,1,2,3,4]"
"","","","","","survey-multi-select","135","409702","0.0-8.0","5","1","2023-06-27 15:22:52","846205d480aaa49f22c83d5c8cececc8","172.98.187.121","Mozilla/5.0 (Windows NT 10.0; Win64; x64) AppleWebKit/537.36 (KHTML, like Gecko) Chrome/115.0.0.0 Safari/537.36","WebKit","Chrome","115.0.0.0","Windows","10.0","7059","","{""Marriage"":[""Married""],""Religion"":[""Catholic""]}","[0,1]"
"","","","","","survey-multi-choice","136","423268","0.0-9.0","5","1","2023-06-27 15:22:52","846205d480aaa49f22c83d5c8cececc8","172.98.187.121","Mozilla/5.0 (Windows NT 10.0; Win64; x64) AppleWebKit/537.36 (KHTML, like Gecko) Chrome/115.0.0.0 Safari/537.36","WebKit","Chrome","115.0.0.0","Windows","10.0","13556","","{""SES"":""10""}","[0]"
"","","","","","html-button-response","137","436755","0.0-10.0","5","1","2023-06-27 15:22:52","846205d480aaa49f22c83d5c8cececc8","172.98.187.121","Mozilla/5.0 (Windows NT 10.0; Win64; x64) AppleWebKit/537.36 (KHTML, like Gecko) Chrome/115.0.0.0 Safari/537.36","WebKit","Chrome","115.0.0.0","Windows","10.0","13477","<p><strong>Please indicate the extent that the following statements could describe you.</p><p> (1 = ""extremely uncharacteristic of me"" to 5 = ""extremely characteristic of me"".)</strong></p>","0",""
"","","","","","survey-likert","138","478411","0.0-11.0","5","1","2023-06-27 15:22:52","846205d480aaa49f22c83d5c8cececc8","172.98.187.121","Mozilla/5.0 (Windows NT 10.0; Win64; x64) AppleWebKit/537.36 (KHTML, like Gecko) Chrome/115.0.0.0 Safari/537.36","WebKit","Chrome","115.0.0.0","Windows","10.0","41648","","{""Aggression1"":4,""Aggression2"":3,""Aggression3"":4,""Aggression4"":3,""Aggression5"":4,""Aggression6"":3,""Aggression7"":2,""Aggression8"":3,""Aggression9"":4}","[0,1,2,3,4,5,6,7,8]"
"","","","","","html-button-response","139","480915","0.0-12.0","5","1","2023-06-27 15:22:52","846205d480aaa49f22c83d5c8cececc8","172.98.187.121","Mozilla/5.0 (Windows NT 10.0; Win64; x64) AppleWebKit/537.36 (KHTML, like Gecko) Chrome/115.0.0.0 Safari/537.36","WebKit","Chrome","115.0.0.0","Windows","10.0","2495","<p><strong>Please indicate the extent that the following statements could describe you. </strong></p><p><strong> (1 = ""Does not describe me well"" to 5 = ""Does decribe me well"".)</strong></p>","0",""
"","","","","","survey-likert","140","572027","0.0-13.0","5","1","2023-06-27 15:22:52","846205d480aaa49f22c83d5c8cececc8","172.98.187.121","Mozilla/5.0 (Windows NT 10.0; Win64; x64) AppleWebKit/537.36 (KHTML, like Gecko) Chrome/115.0.0.0 Safari/537.36","WebKit","Chrome","115.0.0.0","Windows","10.0","91098","","{""fs6"":3,""pts4"":4,""fs5"":3,""fs3"":1,""pds4"":2,""fs7"":3,""ecs3"":4,""pds1"":3,""ecs5"":2,""ecs1"":3,""ecs7"":4,""pts2"":3,""pts1"":4,""pts5"":3,""pts6"":4,""ecs4"":2,""fs4"":3,""ecs2"":4,""pts7"":3,""fs1"":2,""pds5"":3,""fs2"":1,""pds2"":4,""pds3"":3,""pts3"":2,""pds7"":3,""ecs6"":4,""pds6"":3}","[22,14,15,6,16,25,8,5,17,1,21,7,2,20,24,13,11,3,27,0,18,4,9,12,10,26,19,23]"
"","","","","","html-button-response","141","574007","0.0-14.0","5","1","2023-06-27 15:22:52","846205d480aaa49f22c83d5c8cececc8","172.98.187.121","Mozilla/5.0 (Windows NT 10.0; Win64; x64) AppleWebKit/537.36 (KHTML, like Gecko) Chrome/115.0.0.0 Safari/537.36","WebKit","Chrome","115.0.0.0","Windows","10.0","1970","<p><strong>Which of the following objects or statements do you have a positive or negative feeling towards? </strong></p><p><strong> (1 = ""Very negative"" to 7 = ""Very positive"") </strong></p>","0",""
"","","","","","survey-likert","142","603697","0.0-15.0","5","1","2023-06-27 15:22:52","846205d480aaa49f22c83d5c8cececc8","172.98.187.121","Mozilla/5.0 (Windows NT 10.0; Win64; x64) AppleWebKit/537.36 (KHTML, like Gecko) Chrome/115.0.0.0 Safari/537.36","WebKit","Chrome","115.0.0.0","Windows","10.0","29680","","{""sdo4"":6,""sdo11"":5,""sdo14"":4,""sdo3"":5,""sdo16"":6,""sdo5"":5,""sdo7"":4,""sdo9"":5,""sdo10"":6,""sdo15"":5,""sdo8"":4,""sdo12"":5,""sdo1"":6,""sdo13"":5,""sdo6"":4,""sdo2"":5}","[3,10,13,2,15,4,6,8,9,14,7,11,0,12,5,1]"
"","","","","","html-button-response","143","605903","0.0-16.0","5","1","2023-06-27 15:22:52","846205d480aaa49f22c83d5c8cececc8","172.98.187.121","Mozilla/5.0 (Windows NT 10.0; Win64; x64) AppleWebKit/537.36 (KHTML, like Gecko) Chrome/115.0.0.0 Safari/537.36","WebKit","Chrome","115.0.0.0","Windows","10.0","2197","<p><strong>Please indicate the extent you agree with the following statements.</strong></p><strong><p> (1 = ""Strongly Disagree"" to 5 = ""Srongly Agree"") </strong></p>","0",""
"","","","","","survey-likert","144","630841","0.0-17.0","5","1","2023-06-27 15:22:52","846205d480aaa49f22c83d5c8cececc8","172.98.187.121","Mozilla/5.0 (Windows NT 10.0; Win64; x64) AppleWebKit/537.36 (KHTML, like Gecko) Chrome/115.0.0.0 Safari/537.36","WebKit","Chrome","115.0.0.0","Windows","10.0","24930","","{""caring1"":4,""liking1"":3,""caring2"":4,""protection1"":4,""liking2"":3,""caring3"":2,""protection2"":3,""liking3"":4,""protection3"":3,""caring4"":4,""liking4"":3,""protection4"":4,""caring5"":3,""liking5"":4,""protection5"":3}","[0,1,2,3,4,5,6,7,8,9,10,11,12,13,14]"
"","","","","","html-button-response","145","632806","0.0-18.0","5","1","2023-06-27 15:22:52","846205d480aaa49f22c83d5c8cececc8","172.98.187.121","Mozilla/5.0 (Windows NT 10.0; Win64; x64) AppleWebKit/537.36 (KHTML, like Gecko) Chrome/115.0.0.0 Safari/537.36","WebKit","Chrome","115.0.0.0","Windows","10.0","1955","<p><strong>Please imagine spercific situations involving children below, and rate the amount of tenderness you would feel in each situation. </strong></p><p><strong> (Ternderness is ""a warm, gentle feeling of sympathetic affection."") </strong></p><strong><p> (1 = ""No tenderness at all"" to 5 = ""A lot of tenderness"") </strong></p>","0",""
"","","","","","survey-likert","146","651259","0.0-19.0","5","1","2023-06-27 15:22:52","846205d480aaa49f22c83d5c8cececc8","172.98.187.121","Mozilla/5.0 (Windows NT 10.0; Win64; x64) AppleWebKit/537.36 (KHTML, like Gecko) Chrome/115.0.0.0 Safari/537.36","WebKit","Chrome","115.0.0.0","Windows","10.0","18446","","{""tenderness-positive1"":4,""tenderness-negative1"":3,""tenderness-negative2"":4,""tenderness-positive2"":3,""tenderness-positive3"":4,""tenderness-negative3"":3,""tenderness-positive4"":4,""tendereness-negative4"":2,""tendernness-negative5"":3,""tenderness-positive5"":4}","[0,1,2,3,4,5,6,7,8,9]"
"","","","","","survey-multi-choice","147","658790","0.0-20.0","5","1","2023-06-27 15:22:52","846205d480aaa49f22c83d5c8cececc8","172.98.187.121","Mozilla/5.0 (Windows NT 10.0; Win64; x64) AppleWebKit/537.36 (KHTML, like Gecko) Chrome/115.0.0.0 Safari/537.36","WebKit","Chrome","115.0.0.0","Windows","10.0","7512","","{""Attention2"":""Other""}","[0]"
"","","","","","html-button-response","148","660558","0.0-21.0","5","1","2023-06-27 15:22:52","846205d480aaa49f22c83d5c8cececc8","172.98.187.121","Mozilla/5.0 (Windows NT 10.0; Win64; x64) AppleWebKit/537.36 (KHTML, like Gecko) Chrome/115.0.0.0 Safari/537.36","WebKit","Chrome","115.0.0.0","Windows","10.0","1759","<p><strong>Please indicate the extent you agree with the following statements.</strong></p>","0",""
"","","","","","survey-likert","149","716505","0.0-22.0","5","1","2023-06-27 15:22:52","846205d480aaa49f22c83d5c8cececc8","172.98.187.121","Mozilla/5.0 (Windows NT 10.0; Win64; x64) AppleWebKit/537.36 (KHTML, like Gecko) Chrome/115.0.0.0 Safari/537.36","WebKit","Chrome","115.0.0.0","Windows","10.0","55935","","{""Patri10"":4,""Nation5"":3,""Nation7"":4,""Patri1"":3,""Patri11"":4,""Nation1"":3,""Patri4"":4,""Patri2"":3,""Patri5"":4,""Patri6"":2,""Nation6"":3,""Nation4"":4,""Patri8"":3,""Patri3"":4,""Patri12"":3,""Patri9"":2,""Patri7"":3,""Nation8"":4,""Nation3"":3,""Nation2"":4}","[9,16,18,0,10,12,3,1,4,5,17,15,7,2,11,8,6,19,14,13]"
"","","","","","html-button-response","150","718326","0.0-23.0","5","1","2023-06-27 15:22:52","846205d480aaa49f22c83d5c8cececc8","172.98.187.121","Mozilla/5.0 (Windows NT 10.0; Win64; x64) AppleWebKit/537.36 (KHTML, like Gecko) Chrome/115.0.0.0 Safari/537.36","WebKit","Chrome","115.0.0.0","Windows","10.0","1810","<p><strong>Please indicate the extent you agree with the following statements. </p><p>(1 = ""never or definitely no"" and 9 = ""always or definitely yes"".)</strong></p>","0",""
"","","","","","survey-likert","151","755816","0.0-24.0","5","1","2023-06-27 15:22:52","846205d480aaa49f22c83d5c8cececc8","172.98.187.121","Mozilla/5.0 (Windows NT 10.0; Win64; x64) AppleWebKit/537.36 (KHTML, like Gecko) Chrome/115.0.0.0 Safari/537.36","WebKit","Chrome","115.0.0.0","Windows","10.0","37480","","{""vc2"":8,""hi3"":7,""hi2"":8,""hi4"":7,""vc1"":8,""hi1"":7,""vc4"":5,""vi3"":7,""hc2"":8,""Robot2"":6,""vc3"":7,""hc3"":8,""vi4"":7,""hc4"":8,""vi2"":7,""hc1"":6,""vi1"":8}","[14,2,1,3,13,0,16,6,10,7,15,11,8,12,5,9,4]"
"","","","","","survey-text","152","795223","0.0-25.0","5","1","2023-06-27 15:22:52","846205d480aaa49f22c83d5c8cececc8","172.98.187.121","Mozilla/5.0 (Windows NT 10.0; Win64; x64) AppleWebKit/537.36 (KHTML, like Gecko) Chrome/115.0.0.0 Safari/537.36","WebKit","Chrome","115.0.0.0","Windows","10.0","39382","","{""ID"":""A1G0HYW4RZHAGB"",""Comments"":""good experiment""}",""
"","","","","","html-button-response","153","827921","0.0-26.0","5","1","2023-06-27 15:22:52","846205d480aaa49f22c83d5c8cececc8","172.98.187.121","Mozilla/5.0 (Windows NT 10.0; Win64; x64) AppleWebKit/537.36 (KHTML, like Gecko) Chrome/115.0.0.0 Safari/537.36","WebKit","Chrome","115.0.0.0","Windows","10.0","32691","<p><strong>Congratulations! </strong> Your have finished all the survey. Thank you for your participation!</p><p><strong>Here is your complete token:</strong></p>5cjk8bu27wjhxclrye8pltd<p></p><p><strong>Please copy it to the mTurk page.</strong></p>","0",""
