"success","timeout","failed_images","failed_audio","failed_video","trial_type","trial_index","time_elapsed","internal_node_id","run_id","condition","recorded_at","source_code_version","ip","user_agent","device","browser","browser_version","platform","platform_version","rt","stimulus","response","question_order"
"true","false","[]","[]","[]","preload","0","8297","0.0-0.0","74","1","2023-06-16 18:03:28","846205d480aaa49f22c83d5c8cececc8","185.33.85.119","Mozilla/5.0 (Windows NT 6.3; Win64; x64) AppleWebKit/537.36 (KHTML, like Gecko) Chrome/109.0.0.0 Safari/537.36","WebKit","Chrome","109.0.0.0","Windows","6.3","","","",""
"true","","","","","fullscreen","1","23672","0.0-1.0","74","1","2023-06-16 18:03:28","846205d480aaa49f22c83d5c8cececc8","185.33.85.119","Mozilla/5.0 (Windows NT 6.3; Win64; x64) AppleWebKit/537.36 (KHTML, like Gecko) Chrome/109.0.0.0 Safari/537.36","WebKit","Chrome","109.0.0.0","Windows","6.3","","","",""
"","","","","","html-button-response","2","26143","0.0-2.0","74","1","2023-06-16 18:03:28","846205d480aaa49f22c83d5c8cececc8","185.33.85.119","Mozilla/5.0 (Windows NT 6.3; Win64; x64) AppleWebKit/537.36 (KHTML, like Gecko) Chrome/109.0.0.0 Safari/537.36","WebKit","Chrome","109.0.0.0","Windows","6.3","2465","<p ><strong>Welcome to the experiment!</strong></p><p ><strong>In the first task, please imagine:</strong></p><p>Your country is involved in a military conflict with another country.</p><p>You are the commander of your army and must make decisions in the conflict.</p><p>Specifically, as the military commander, you must decide whether to launch a missile to strike enemy.</p><p>You will face a series of scenarios. Please read each scenario carefully and make a decision.</p><p>The task will take around 10 minutes to complete.</p><p><strong>Please pay your attention during the experiment.</strong></p>","0",""
"","","","","","html-keyboard-response","3","27143","0.0-3.0-0.0","74","1","2023-06-16 18:03:28","846205d480aaa49f22c83d5c8cececc8","185.33.85.119","Mozilla/5.0 (Windows NT 6.3; Win64; x64) AppleWebKit/537.36 (KHTML, like Gecko) Chrome/109.0.0.0 Safari/537.36","WebKit","Chrome","109.0.0.0","Windows","6.3","null","<div style=""font-size:60px;"">+</div>","null",""
"","","","","","html-button-response","4","29871","0.0-3.0-1.0","74","1","2023-06-16 18:03:28","846205d480aaa49f22c83d5c8cececc8","185.33.85.119","Mozilla/5.0 (Windows NT 6.3; Win64; x64) AppleWebKit/537.36 (KHTML, like Gecko) Chrome/109.0.0.0 Safari/537.36","WebKit","Chrome","109.0.0.0","Windows","6.3","2726","<p>As the military commander, you could choose to launch a missile to kill <strong>3 enemy soldiers</strong> , but would accidentally kill <strong>1 enemy civilian</strong> nearby.</p> <p>The photo of the <strong>enemy civilian</strong> is shown below.</p> <p></p> <img src='stimuli/faces/PCM1.jpg', style='max-width: 30%;'> </img> <p><strong>Would you launch the weapon?</strong></p>","0",""
"","","","","","html-keyboard-response","5","30879","0.0-3.0-0.1","74","1","2023-06-16 18:03:28","846205d480aaa49f22c83d5c8cececc8","185.33.85.119","Mozilla/5.0 (Windows NT 6.3; Win64; x64) AppleWebKit/537.36 (KHTML, like Gecko) Chrome/109.0.0.0 Safari/537.36","WebKit","Chrome","109.0.0.0","Windows","6.3","null","<div style=""font-size:60px;"">+</div>","null",""
"","","","","","html-button-response","6","33453","0.0-3.0-1.1","74","1","2023-06-16 18:03:28","846205d480aaa49f22c83d5c8cececc8","185.33.85.119","Mozilla/5.0 (Windows NT 6.3; Win64; x64) AppleWebKit/537.36 (KHTML, like Gecko) Chrome/109.0.0.0 Safari/537.36","WebKit","Chrome","109.0.0.0","Windows","6.3","2573","<p>As the military commander, you could choose to launch a missile to kill <strong>6 enemy soldiers</strong> , but would accidentally kill <strong>1 enemy civilian</strong> nearby.</p> <p>The photo of the <strong>enemy civilian</strong> is shown below.</p> <p></p> <img src='stimuli/faces/PCM4.jpg', style='max-width: 30%;'> </img> <p><strong>Would you launch the weapon?</strong></p>","0",""
"","","","","","html-keyboard-response","7","34457","0.0-3.0-0.2","74","1","2023-06-16 18:03:28","846205d480aaa49f22c83d5c8cececc8","185.33.85.119","Mozilla/5.0 (Windows NT 6.3; Win64; x64) AppleWebKit/537.36 (KHTML, like Gecko) Chrome/109.0.0.0 Safari/537.36","WebKit","Chrome","109.0.0.0","Windows","6.3","null","<div style=""font-size:60px;"">+</div>","null",""
"","","","","","html-button-response","8","35527","0.0-3.0-1.2","74","1","2023-06-16 18:03:28","846205d480aaa49f22c83d5c8cececc8","185.33.85.119","Mozilla/5.0 (Windows NT 6.3; Win64; x64) AppleWebKit/537.36 (KHTML, like Gecko) Chrome/109.0.0.0 Safari/537.36","WebKit","Chrome","109.0.0.0","Windows","6.3","1069","<p>As the military commander, you could choose to launch a missile to kill <strong>5 enemy soldiers</strong> , but would accidentally kill <strong>1 enemy civilian</strong> nearby.</p> <p>The photo of the <strong>enemy civilian</strong> is shown below.</p> <p></p> <img src='stimuli/faces/PCF1.jpg', style='max-width: 30%;'> </img> <p><strong>Would you launch the weapon?</strong></p>","0",""
"","","","","","html-keyboard-response","9","36545","0.0-3.0-0.3","74","1","2023-06-16 18:03:28","846205d480aaa49f22c83d5c8cececc8","185.33.85.119","Mozilla/5.0 (Windows NT 6.3; Win64; x64) AppleWebKit/537.36 (KHTML, like Gecko) Chrome/109.0.0.0 Safari/537.36","WebKit","Chrome","109.0.0.0","Windows","6.3","null","<div style=""font-size:60px;"">+</div>","null",""
"","","","","","html-button-response","10","37461","0.0-3.0-1.3","74","1","2023-06-16 18:03:28","846205d480aaa49f22c83d5c8cececc8","185.33.85.119","Mozilla/5.0 (Windows NT 6.3; Win64; x64) AppleWebKit/537.36 (KHTML, like Gecko) Chrome/109.0.0.0 Safari/537.36","WebKit","Chrome","109.0.0.0","Windows","6.3","916","<p>As the military commander, you could choose to launch a missile to kill <strong>9 enemy soldiers</strong> , but would accidentally kill <strong>1 enemy civilian</strong> nearby.</p> <p>The photo of the <strong>enemy civilian</strong> is shown below.</p> <p></p> <img src='stimuli/faces/PCM3.jpg', style='max-width: 30%;'> </img> <p><strong>Would you launch the weapon?</strong></p>","0",""
"","","","","","html-keyboard-response","11","38487","0.0-3.0-0.4","74","1","2023-06-16 18:03:28","846205d480aaa49f22c83d5c8cececc8","185.33.85.119","Mozilla/5.0 (Windows NT 6.3; Win64; x64) AppleWebKit/537.36 (KHTML, like Gecko) Chrome/109.0.0.0 Safari/537.36","WebKit","Chrome","109.0.0.0","Windows","6.3","null","<div style=""font-size:60px;"">+</div>","null",""
"","","","","","html-button-response","12","39255","0.0-3.0-1.4","74","1","2023-06-16 18:03:28","846205d480aaa49f22c83d5c8cececc8","185.33.85.119","Mozilla/5.0 (Windows NT 6.3; Win64; x64) AppleWebKit/537.36 (KHTML, like Gecko) Chrome/109.0.0.0 Safari/537.36","WebKit","Chrome","109.0.0.0","Windows","6.3","768","<p>As the military commander, you could choose to launch a missile to kill <strong>8 enemy soldiers</strong> , but would accidentally kill <strong>1 enemy tree</strong> nearby.</p> <p>The photo of the <strong>enemy tree</strong> is shown below.</p> <p></p> <img src='stimuli/tree/12.png', style='max-width: 30%;'> </img> <p><strong>Would you launch the weapon?</strong></p>","0",""
"","","","","","html-keyboard-response","13","40264","0.0-3.0-0.5","74","1","2023-06-16 18:03:28","846205d480aaa49f22c83d5c8cececc8","185.33.85.119","Mozilla/5.0 (Windows NT 6.3; Win64; x64) AppleWebKit/537.36 (KHTML, like Gecko) Chrome/109.0.0.0 Safari/537.36","WebKit","Chrome","109.0.0.0","Windows","6.3","null","<div style=""font-size:60px;"">+</div>","null",""
"","","","","","html-button-response","14","41355","0.0-3.0-1.5","74","1","2023-06-16 18:03:28","846205d480aaa49f22c83d5c8cececc8","185.33.85.119","Mozilla/5.0 (Windows NT 6.3; Win64; x64) AppleWebKit/537.36 (KHTML, like Gecko) Chrome/109.0.0.0 Safari/537.36","WebKit","Chrome","109.0.0.0","Windows","6.3","1091","<p>As the military commander, you could choose to launch a missile to kill <strong>1 enemy soldier</strong> , but would accidentally kill <strong>1 enemy civilian</strong> nearby.</p> <p>The photo of the <strong>enemy civilian</strong> is shown below.</p> <p></p> <img src='stimuli/faces/PCM6.jpg', style='max-width: 30%;'> </img> <p><strong>Would you launch the weapon?</strong></p>","0",""
"","","","","","html-keyboard-response","15","42370","0.0-3.0-0.6","74","1","2023-06-16 18:03:28","846205d480aaa49f22c83d5c8cececc8","185.33.85.119","Mozilla/5.0 (Windows NT 6.3; Win64; x64) AppleWebKit/537.36 (KHTML, like Gecko) Chrome/109.0.0.0 Safari/537.36","WebKit","Chrome","109.0.0.0","Windows","6.3","null","<div style=""font-size:60px;"">+</div>","null",""
"","","","","","html-button-response","16","43292","0.0-3.0-1.6","74","1","2023-06-16 18:03:28","846205d480aaa49f22c83d5c8cececc8","185.33.85.119","Mozilla/5.0 (Windows NT 6.3; Win64; x64) AppleWebKit/537.36 (KHTML, like Gecko) Chrome/109.0.0.0 Safari/537.36","WebKit","Chrome","109.0.0.0","Windows","6.3","922","<p>As the military commander, you could choose to launch a missile to kill <strong>9 enemy soldiers</strong> , but would accidentally kill <strong>1 enemy civilian</strong> nearby.</p> <p>The photo of the <strong>enemy civilian</strong> is shown below.</p> <p></p> <img src='stimuli/faces/PCM2.jpg', style='max-width: 30%;'> </img> <p><strong>Would you launch the weapon?</strong></p>","0",""
"","","","","","html-keyboard-response","17","44303","0.0-3.0-0.7","74","1","2023-06-16 18:03:28","846205d480aaa49f22c83d5c8cececc8","185.33.85.119","Mozilla/5.0 (Windows NT 6.3; Win64; x64) AppleWebKit/537.36 (KHTML, like Gecko) Chrome/109.0.0.0 Safari/537.36","WebKit","Chrome","109.0.0.0","Windows","6.3","null","<div style=""font-size:60px;"">+</div>","null",""
"","","","","","html-button-response","18","47224","0.0-3.0-1.7","74","1","2023-06-16 18:03:28","846205d480aaa49f22c83d5c8cececc8","185.33.85.119","Mozilla/5.0 (Windows NT 6.3; Win64; x64) AppleWebKit/537.36 (KHTML, like Gecko) Chrome/109.0.0.0 Safari/537.36","WebKit","Chrome","109.0.0.0","Windows","6.3","2921","<p>As the military commander, you could choose to launch a missile to kill <strong>3 enemy soldiers</strong> , but would accidentally kill <strong>1 enemy tree</strong> nearby.</p> <p>The photo of the <strong>enemy tree</strong> is shown below.</p> <p></p> <img src='stimuli/tree/12.png', style='max-width: 30%;'> </img> <p><strong>Would you launch the weapon?</strong></p>","1",""
"","","","","","html-keyboard-response","19","48234","0.0-3.0-0.8","74","1","2023-06-16 18:03:28","846205d480aaa49f22c83d5c8cececc8","185.33.85.119","Mozilla/5.0 (Windows NT 6.3; Win64; x64) AppleWebKit/537.36 (KHTML, like Gecko) Chrome/109.0.0.0 Safari/537.36","WebKit","Chrome","109.0.0.0","Windows","6.3","null","<div style=""font-size:60px;"">+</div>","null",""
"","","","","","html-button-response","20","49584","0.0-3.0-1.8","74","1","2023-06-16 18:03:28","846205d480aaa49f22c83d5c8cececc8","185.33.85.119","Mozilla/5.0 (Windows NT 6.3; Win64; x64) AppleWebKit/537.36 (KHTML, like Gecko) Chrome/109.0.0.0 Safari/537.36","WebKit","Chrome","109.0.0.0","Windows","6.3","1344","<p>As the military commander, you could choose to launch a missile to kill <strong>3 enemy soldiers</strong> , but would accidentally kill <strong>1 enemy tree</strong> nearby.</p> <p>The photo of the <strong>enemy tree</strong> is shown below.</p> <p></p> <img src='stimuli/tree/9.png', style='max-width: 30%;'> </img> <p><strong>Would you launch the weapon?</strong></p>","1",""
"","","","","","html-keyboard-response","21","50591","0.0-3.0-0.9","74","1","2023-06-16 18:03:28","846205d480aaa49f22c83d5c8cececc8","185.33.85.119","Mozilla/5.0 (Windows NT 6.3; Win64; x64) AppleWebKit/537.36 (KHTML, like Gecko) Chrome/109.0.0.0 Safari/537.36","WebKit","Chrome","109.0.0.0","Windows","6.3","null","<div style=""font-size:60px;"">+</div>","null",""
"","","","","","html-button-response","22","53167","0.0-3.0-1.9","74","1","2023-06-16 18:03:28","846205d480aaa49f22c83d5c8cececc8","185.33.85.119","Mozilla/5.0 (Windows NT 6.3; Win64; x64) AppleWebKit/537.36 (KHTML, like Gecko) Chrome/109.0.0.0 Safari/537.36","WebKit","Chrome","109.0.0.0","Windows","6.3","2575","<p>As the military commander, you could choose to launch a missile to kill <strong>6 enemy soldiers</strong> , but would accidentally kill <strong>1 enemy tree</strong> nearby.</p> <p>The photo of the <strong>enemy tree</strong> is shown below.</p> <p></p> <img src='stimuli/tree/3.png', style='max-width: 30%;'> </img> <p><strong>Would you launch the weapon?</strong></p>","1",""
"","","","","","html-keyboard-response","23","54168","0.0-3.0-0.10","74","1","2023-06-16 18:03:28","846205d480aaa49f22c83d5c8cececc8","185.33.85.119","Mozilla/5.0 (Windows NT 6.3; Win64; x64) AppleWebKit/537.36 (KHTML, like Gecko) Chrome/109.0.0.0 Safari/537.36","WebKit","Chrome","109.0.0.0","Windows","6.3","null","<div style=""font-size:60px;"">+</div>","null",""
"","","","","","html-button-response","24","55731","0.0-3.0-1.10","74","1","2023-06-16 18:03:28","846205d480aaa49f22c83d5c8cececc8","185.33.85.119","Mozilla/5.0 (Windows NT 6.3; Win64; x64) AppleWebKit/537.36 (KHTML, like Gecko) Chrome/109.0.0.0 Safari/537.36","WebKit","Chrome","109.0.0.0","Windows","6.3","1563","<p>As the military commander, you could choose to launch a missile to kill <strong>3 enemy soldiers</strong> , but would accidentally kill <strong>1 enemy tree</strong> nearby.</p> <p>The photo of the <strong>enemy tree</strong> is shown below.</p> <p></p> <img src='stimuli/tree/15.png', style='max-width: 30%;'> </img> <p><strong>Would you launch the weapon?</strong></p>","1",""
"","","","","","html-keyboard-response","25","56756","0.0-3.0-0.11","74","1","2023-06-16 18:03:28","846205d480aaa49f22c83d5c8cececc8","185.33.85.119","Mozilla/5.0 (Windows NT 6.3; Win64; x64) AppleWebKit/537.36 (KHTML, like Gecko) Chrome/109.0.0.0 Safari/537.36","WebKit","Chrome","109.0.0.0","Windows","6.3","null","<div style=""font-size:60px;"">+</div>","null",""
"","","","","","html-button-response","26","57852","0.0-3.0-1.11","74","1","2023-06-16 18:03:28","846205d480aaa49f22c83d5c8cececc8","185.33.85.119","Mozilla/5.0 (Windows NT 6.3; Win64; x64) AppleWebKit/537.36 (KHTML, like Gecko) Chrome/109.0.0.0 Safari/537.36","WebKit","Chrome","109.0.0.0","Windows","6.3","1096","<p>As the military commander, you could choose to launch a missile to kill <strong>10 enemy soldiers</strong> , but would accidentally kill <strong>1 enemy tree</strong> nearby.</p> <p>The photo of the <strong>enemy tree</strong> is shown below.</p> <p></p> <img src='stimuli/tree/2.png', style='max-width: 30%;'> </img> <p><strong>Would you launch the weapon?</strong></p>","1",""
"","","","","","html-keyboard-response","27","58888","0.0-3.0-0.12","74","1","2023-06-16 18:03:28","846205d480aaa49f22c83d5c8cececc8","185.33.85.119","Mozilla/5.0 (Windows NT 6.3; Win64; x64) AppleWebKit/537.36 (KHTML, like Gecko) Chrome/109.0.0.0 Safari/537.36","WebKit","Chrome","109.0.0.0","Windows","6.3","null","<div style=""font-size:60px;"">+</div>","null",""
"","","","","","html-button-response","28","60754","0.0-3.0-1.12","74","1","2023-06-16 18:03:28","846205d480aaa49f22c83d5c8cececc8","185.33.85.119","Mozilla/5.0 (Windows NT 6.3; Win64; x64) AppleWebKit/537.36 (KHTML, like Gecko) Chrome/109.0.0.0 Safari/537.36","WebKit","Chrome","109.0.0.0","Windows","6.3","1866","<p>As the military commander, you could choose to launch a missile to kill <strong>2 enemy soldiers</strong> , but would accidentally kill <strong>1 enemy civilian</strong> nearby.</p> <p>The photo of the <strong>enemy civilian</strong> is shown below.</p> <p></p> <img src='stimuli/faces/PCF3.jpg', style='max-width: 30%;'> </img> <p><strong>Would you launch the weapon?</strong></p>","0",""
"","","","","","html-keyboard-response","29","61769","0.0-3.0-0.13","74","1","2023-06-16 18:03:28","846205d480aaa49f22c83d5c8cececc8","185.33.85.119","Mozilla/5.0 (Windows NT 6.3; Win64; x64) AppleWebKit/537.36 (KHTML, like Gecko) Chrome/109.0.0.0 Safari/537.36","WebKit","Chrome","109.0.0.0","Windows","6.3","null","<div style=""font-size:60px;"">+</div>","null",""
"","","","","","html-button-response","30","66058","0.0-3.0-1.13","74","1","2023-06-16 18:03:28","846205d480aaa49f22c83d5c8cececc8","185.33.85.119","Mozilla/5.0 (Windows NT 6.3; Win64; x64) AppleWebKit/537.36 (KHTML, like Gecko) Chrome/109.0.0.0 Safari/537.36","WebKit","Chrome","109.0.0.0","Windows","6.3","4289","<p>As the military commander, you could choose to launch a missile to kill <strong>7 enemy soldiers</strong> , but would accidentally kill <strong>1 enemy tree</strong> nearby.</p> <p>The photo of the <strong>enemy tree</strong> is shown below.</p> <p></p> <img src='stimuli/tree/10.png', style='max-width: 30%;'> </img> <p><strong>Would you launch the weapon?</strong></p>","1",""
"","","","","","html-keyboard-response","31","67078","0.0-3.0-0.14","74","1","2023-06-16 18:03:28","846205d480aaa49f22c83d5c8cececc8","185.33.85.119","Mozilla/5.0 (Windows NT 6.3; Win64; x64) AppleWebKit/537.36 (KHTML, like Gecko) Chrome/109.0.0.0 Safari/537.36","WebKit","Chrome","109.0.0.0","Windows","6.3","null","<div style=""font-size:60px;"">+</div>","null",""
"","","","","","html-button-response","32","68415","0.0-3.0-1.14","74","1","2023-06-16 18:03:28","846205d480aaa49f22c83d5c8cececc8","185.33.85.119","Mozilla/5.0 (Windows NT 6.3; Win64; x64) AppleWebKit/537.36 (KHTML, like Gecko) Chrome/109.0.0.0 Safari/537.36","WebKit","Chrome","109.0.0.0","Windows","6.3","1337","<p>As the military commander, you could choose to launch a missile to kill <strong>8 enemy soldiers</strong> , but would accidentally kill <strong>1 enemy tree</strong> nearby.</p> <p>The photo of the <strong>enemy tree</strong> is shown below.</p> <p></p> <img src='stimuli/tree/15.png', style='max-width: 30%;'> </img> <p><strong>Would you launch the weapon?</strong></p>","1",""
"","","","","","html-keyboard-response","33","69434","0.0-3.0-0.15","74","1","2023-06-16 18:03:28","846205d480aaa49f22c83d5c8cececc8","185.33.85.119","Mozilla/5.0 (Windows NT 6.3; Win64; x64) AppleWebKit/537.36 (KHTML, like Gecko) Chrome/109.0.0.0 Safari/537.36","WebKit","Chrome","109.0.0.0","Windows","6.3","null","<div style=""font-size:60px;"">+</div>","null",""
"","","","","","html-button-response","34","71293","0.0-3.0-1.15","74","1","2023-06-16 18:03:28","846205d480aaa49f22c83d5c8cececc8","185.33.85.119","Mozilla/5.0 (Windows NT 6.3; Win64; x64) AppleWebKit/537.36 (KHTML, like Gecko) Chrome/109.0.0.0 Safari/537.36","WebKit","Chrome","109.0.0.0","Windows","6.3","1841","<p>As the military commander, you could choose to launch a missile to kill <strong>4 enemy soldiers</strong> , but would accidentally kill <strong>1 enemy civilian</strong> nearby.</p> <p>The photo of the <strong>enemy civilian</strong> is shown below.</p> <p></p> <img src='stimuli/faces/PCF5.jpg', style='max-width: 30%;'> </img> <p><strong>Would you launch the weapon?</strong></p>","0",""
"","","","","","html-keyboard-response","35","72319","0.0-3.0-0.16","74","1","2023-06-16 18:03:28","846205d480aaa49f22c83d5c8cececc8","185.33.85.119","Mozilla/5.0 (Windows NT 6.3; Win64; x64) AppleWebKit/537.36 (KHTML, like Gecko) Chrome/109.0.0.0 Safari/537.36","WebKit","Chrome","109.0.0.0","Windows","6.3","null","<div style=""font-size:60px;"">+</div>","null",""
"","","","","","html-button-response","36","74195","0.0-3.0-1.16","74","1","2023-06-16 18:03:28","846205d480aaa49f22c83d5c8cececc8","185.33.85.119","Mozilla/5.0 (Windows NT 6.3; Win64; x64) AppleWebKit/537.36 (KHTML, like Gecko) Chrome/109.0.0.0 Safari/537.36","WebKit","Chrome","109.0.0.0","Windows","6.3","1876","<p>As the military commander, you could choose to launch a missile to kill <strong>5 enemy soldiers</strong> , but would accidentally kill <strong>1 enemy tree</strong> nearby.</p> <p>The photo of the <strong>enemy tree</strong> is shown below.</p> <p></p> <img src='stimuli/tree/13.png', style='max-width: 30%;'> </img> <p><strong>Would you launch the weapon?</strong></p>","1",""
"","","","","","html-keyboard-response","37","75215","0.0-3.0-0.17","74","1","2023-06-16 18:03:28","846205d480aaa49f22c83d5c8cececc8","185.33.85.119","Mozilla/5.0 (Windows NT 6.3; Win64; x64) AppleWebKit/537.36 (KHTML, like Gecko) Chrome/109.0.0.0 Safari/537.36","WebKit","Chrome","109.0.0.0","Windows","6.3","null","<div style=""font-size:60px;"">+</div>","null",""
"","","","","","html-button-response","38","77152","0.0-3.0-1.17","74","1","2023-06-16 18:03:28","846205d480aaa49f22c83d5c8cececc8","185.33.85.119","Mozilla/5.0 (Windows NT 6.3; Win64; x64) AppleWebKit/537.36 (KHTML, like Gecko) Chrome/109.0.0.0 Safari/537.36","WebKit","Chrome","109.0.0.0","Windows","6.3","1937","<p>As the military commander, you could choose to launch a missile to kill <strong>2 enemy soldiers</strong> , but would accidentally kill <strong>1 enemy civilian</strong> nearby.</p> <p>The photo of the <strong>enemy civilian</strong> is shown below.</p> <p></p> <img src='stimuli/faces/PCF8.jpg', style='max-width: 30%;'> </img> <p><strong>Would you launch the weapon?</strong></p>","0",""
"","","","","","html-keyboard-response","39","78170","0.0-3.0-0.18","74","1","2023-06-16 18:03:28","846205d480aaa49f22c83d5c8cececc8","185.33.85.119","Mozilla/5.0 (Windows NT 6.3; Win64; x64) AppleWebKit/537.36 (KHTML, like Gecko) Chrome/109.0.0.0 Safari/537.36","WebKit","Chrome","109.0.0.0","Windows","6.3","null","<div style=""font-size:60px;"">+</div>","null",""
"","","","","","html-button-response","40","80075","0.0-3.0-1.18","74","1","2023-06-16 18:03:28","846205d480aaa49f22c83d5c8cececc8","185.33.85.119","Mozilla/5.0 (Windows NT 6.3; Win64; x64) AppleWebKit/537.36 (KHTML, like Gecko) Chrome/109.0.0.0 Safari/537.36","WebKit","Chrome","109.0.0.0","Windows","6.3","1900","<p>As the military commander, you could choose to launch a missile to kill <strong>8 enemy soldiers</strong> , but would accidentally kill <strong>1 enemy tree</strong> nearby.</p> <p>The photo of the <strong>enemy tree</strong> is shown below.</p> <p></p> <img src='stimuli/tree/4.png', style='max-width: 30%;'> </img> <p><strong>Would you launch the weapon?</strong></p>","1",""
"","","","","","html-keyboard-response","41","81093","0.0-3.0-0.19","74","1","2023-06-16 18:03:28","846205d480aaa49f22c83d5c8cececc8","185.33.85.119","Mozilla/5.0 (Windows NT 6.3; Win64; x64) AppleWebKit/537.36 (KHTML, like Gecko) Chrome/109.0.0.0 Safari/537.36","WebKit","Chrome","109.0.0.0","Windows","6.3","null","<div style=""font-size:60px;"">+</div>","null",""
"","","","","","html-button-response","42","83419","0.0-3.0-1.19","74","1","2023-06-16 18:03:28","846205d480aaa49f22c83d5c8cececc8","185.33.85.119","Mozilla/5.0 (Windows NT 6.3; Win64; x64) AppleWebKit/537.36 (KHTML, like Gecko) Chrome/109.0.0.0 Safari/537.36","WebKit","Chrome","109.0.0.0","Windows","6.3","2325","<p>As the military commander, you could choose to launch a missile to kill <strong>6 enemy soldiers</strong> , but would accidentally kill <strong>1 enemy civilian</strong> nearby.</p> <p>The photo of the <strong>enemy civilian</strong> is shown below.</p> <p></p> <img src='stimuli/faces/PCF3.jpg', style='max-width: 30%;'> </img> <p><strong>Would you launch the weapon?</strong></p>","0",""
"","","","","","html-keyboard-response","43","84439","0.0-3.0-0.20","74","1","2023-06-16 18:03:28","846205d480aaa49f22c83d5c8cececc8","185.33.85.119","Mozilla/5.0 (Windows NT 6.3; Win64; x64) AppleWebKit/537.36 (KHTML, like Gecko) Chrome/109.0.0.0 Safari/537.36","WebKit","Chrome","109.0.0.0","Windows","6.3","null","<div style=""font-size:60px;"">+</div>","null",""
"","","","","","html-button-response","44","86521","0.0-3.0-1.20","74","1","2023-06-16 18:03:28","846205d480aaa49f22c83d5c8cececc8","185.33.85.119","Mozilla/5.0 (Windows NT 6.3; Win64; x64) AppleWebKit/537.36 (KHTML, like Gecko) Chrome/109.0.0.0 Safari/537.36","WebKit","Chrome","109.0.0.0","Windows","6.3","2082","<p>As the military commander, you could choose to launch a missile to kill <strong>3 enemy soldiers</strong> , but would accidentally kill <strong>1 enemy tree</strong> nearby.</p> <p>The photo of the <strong>enemy tree</strong> is shown below.</p> <p></p> <img src='stimuli/tree/8.png', style='max-width: 30%;'> </img> <p><strong>Would you launch the weapon?</strong></p>","1",""
"","","","","","html-keyboard-response","45","87543","0.0-3.0-0.21","74","1","2023-06-16 18:03:28","846205d480aaa49f22c83d5c8cececc8","185.33.85.119","Mozilla/5.0 (Windows NT 6.3; Win64; x64) AppleWebKit/537.36 (KHTML, like Gecko) Chrome/109.0.0.0 Safari/537.36","WebKit","Chrome","109.0.0.0","Windows","6.3","null","<div style=""font-size:60px;"">+</div>","null",""
"","","","","","html-button-response","46","88790","0.0-3.0-1.21","74","1","2023-06-16 18:03:28","846205d480aaa49f22c83d5c8cececc8","185.33.85.119","Mozilla/5.0 (Windows NT 6.3; Win64; x64) AppleWebKit/537.36 (KHTML, like Gecko) Chrome/109.0.0.0 Safari/537.36","WebKit","Chrome","109.0.0.0","Windows","6.3","1247","<p>As the military commander, you could choose to launch a missile to kill <strong>10 enemy soldiers</strong> , but would accidentally kill <strong>1 enemy tree</strong> nearby.</p> <p>The photo of the <strong>enemy tree</strong> is shown below.</p> <p></p> <img src='stimuli/tree/5.png', style='max-width: 30%;'> </img> <p><strong>Would you launch the weapon?</strong></p>","1",""
"","","","","","html-keyboard-response","47","89792","0.0-3.0-0.22","74","1","2023-06-16 18:03:28","846205d480aaa49f22c83d5c8cececc8","185.33.85.119","Mozilla/5.0 (Windows NT 6.3; Win64; x64) AppleWebKit/537.36 (KHTML, like Gecko) Chrome/109.0.0.0 Safari/537.36","WebKit","Chrome","109.0.0.0","Windows","6.3","null","<div style=""font-size:60px;"">+</div>","null",""
"","","","","","html-button-response","48","91028","0.0-3.0-1.22","74","1","2023-06-16 18:03:28","846205d480aaa49f22c83d5c8cececc8","185.33.85.119","Mozilla/5.0 (Windows NT 6.3; Win64; x64) AppleWebKit/537.36 (KHTML, like Gecko) Chrome/109.0.0.0 Safari/537.36","WebKit","Chrome","109.0.0.0","Windows","6.3","1236","<p>As the military commander, you could choose to launch a missile to kill <strong>4 enemy soldiers</strong> , but would accidentally kill <strong>1 enemy tree</strong> nearby.</p> <p>The photo of the <strong>enemy tree</strong> is shown below.</p> <p></p> <img src='stimuli/tree/10.png', style='max-width: 30%;'> </img> <p><strong>Would you launch the weapon?</strong></p>","1",""
"","","","","","html-keyboard-response","49","92043","0.0-3.0-0.23","74","1","2023-06-16 18:03:28","846205d480aaa49f22c83d5c8cececc8","185.33.85.119","Mozilla/5.0 (Windows NT 6.3; Win64; x64) AppleWebKit/537.36 (KHTML, like Gecko) Chrome/109.0.0.0 Safari/537.36","WebKit","Chrome","109.0.0.0","Windows","6.3","null","<div style=""font-size:60px;"">+</div>","null",""
"","","","","","html-button-response","50","93167","0.0-3.0-1.23","74","1","2023-06-16 18:03:28","846205d480aaa49f22c83d5c8cececc8","185.33.85.119","Mozilla/5.0 (Windows NT 6.3; Win64; x64) AppleWebKit/537.36 (KHTML, like Gecko) Chrome/109.0.0.0 Safari/537.36","WebKit","Chrome","109.0.0.0","Windows","6.3","1124","<p>As the military commander, you could choose to launch a missile to kill <strong>3 enemy soldiers</strong> , but would accidentally kill <strong>1 enemy tree</strong> nearby.</p> <p>The photo of the <strong>enemy tree</strong> is shown below.</p> <p></p> <img src='stimuli/tree/3.png', style='max-width: 30%;'> </img> <p><strong>Would you launch the weapon?</strong></p>","1",""
"","","","","","html-keyboard-response","51","94196","0.0-3.0-0.24","74","1","2023-06-16 18:03:28","846205d480aaa49f22c83d5c8cececc8","185.33.85.119","Mozilla/5.0 (Windows NT 6.3; Win64; x64) AppleWebKit/537.36 (KHTML, like Gecko) Chrome/109.0.0.0 Safari/537.36","WebKit","Chrome","109.0.0.0","Windows","6.3","null","<div style=""font-size:60px;"">+</div>","null",""
"","","","","","html-button-response","52","96146","0.0-3.0-1.24","74","1","2023-06-16 18:03:28","846205d480aaa49f22c83d5c8cececc8","185.33.85.119","Mozilla/5.0 (Windows NT 6.3; Win64; x64) AppleWebKit/537.36 (KHTML, like Gecko) Chrome/109.0.0.0 Safari/537.36","WebKit","Chrome","109.0.0.0","Windows","6.3","1950","<p>As the military commander, you could choose to launch a missile to kill <strong>6 enemy soldiers</strong> , but would accidentally kill <strong>1 enemy civilian</strong> nearby.</p> <p>The photo of the <strong>enemy civilian</strong> is shown below.</p> <p></p> <img src='stimuli/faces/PCF1.jpg', style='max-width: 30%;'> </img> <p><strong>Would you launch the weapon?</strong></p>","0",""
"","","","","","html-keyboard-response","53","97165","0.0-3.0-0.25","74","1","2023-06-16 18:03:28","846205d480aaa49f22c83d5c8cececc8","185.33.85.119","Mozilla/5.0 (Windows NT 6.3; Win64; x64) AppleWebKit/537.36 (KHTML, like Gecko) Chrome/109.0.0.0 Safari/537.36","WebKit","Chrome","109.0.0.0","Windows","6.3","null","<div style=""font-size:60px;"">+</div>","null",""
"","","","","","html-button-response","54","99214","0.0-3.0-1.25","74","1","2023-06-16 18:03:28","846205d480aaa49f22c83d5c8cececc8","185.33.85.119","Mozilla/5.0 (Windows NT 6.3; Win64; x64) AppleWebKit/537.36 (KHTML, like Gecko) Chrome/109.0.0.0 Safari/537.36","WebKit","Chrome","109.0.0.0","Windows","6.3","2049","<p>As the military commander, you could choose to launch a missile to kill <strong>5 enemy soldiers</strong> , but would accidentally kill <strong>1 enemy tree</strong> nearby.</p> <p>The photo of the <strong>enemy tree</strong> is shown below.</p> <p></p> <img src='stimuli/tree/5.png', style='max-width: 30%;'> </img> <p><strong>Would you launch the weapon?</strong></p>","1",""
"","","","","","html-keyboard-response","55","100243","0.0-3.0-0.26","74","1","2023-06-16 18:03:28","846205d480aaa49f22c83d5c8cececc8","185.33.85.119","Mozilla/5.0 (Windows NT 6.3; Win64; x64) AppleWebKit/537.36 (KHTML, like Gecko) Chrome/109.0.0.0 Safari/537.36","WebKit","Chrome","109.0.0.0","Windows","6.3","null","<div style=""font-size:60px;"">+</div>","null",""
"","","","","","html-button-response","56","102017","0.0-3.0-1.26","74","1","2023-06-16 18:03:28","846205d480aaa49f22c83d5c8cececc8","185.33.85.119","Mozilla/5.0 (Windows NT 6.3; Win64; x64) AppleWebKit/537.36 (KHTML, like Gecko) Chrome/109.0.0.0 Safari/537.36","WebKit","Chrome","109.0.0.0","Windows","6.3","1772","<p>As the military commander, you could choose to launch a missile to kill <strong>10 enemy soldiers</strong> , but would accidentally kill <strong>1 enemy civilian</strong> nearby.</p> <p>The photo of the <strong>enemy civilian</strong> is shown below.</p> <p></p> <img src='stimuli/faces/PCM5.jpg', style='max-width: 30%;'> </img> <p><strong>Would you launch the weapon?</strong></p>","0",""
"","","","","","html-keyboard-response","57","103032","0.0-3.0-0.27","74","1","2023-06-16 18:03:28","846205d480aaa49f22c83d5c8cececc8","185.33.85.119","Mozilla/5.0 (Windows NT 6.3; Win64; x64) AppleWebKit/537.36 (KHTML, like Gecko) Chrome/109.0.0.0 Safari/537.36","WebKit","Chrome","109.0.0.0","Windows","6.3","null","<div style=""font-size:60px;"">+</div>","null",""
"","","","","","html-button-response","58","104698","0.0-3.0-1.27","74","1","2023-06-16 18:03:28","846205d480aaa49f22c83d5c8cececc8","185.33.85.119","Mozilla/5.0 (Windows NT 6.3; Win64; x64) AppleWebKit/537.36 (KHTML, like Gecko) Chrome/109.0.0.0 Safari/537.36","WebKit","Chrome","109.0.0.0","Windows","6.3","1655","<p>As the military commander, you could choose to launch a missile to kill <strong>3 enemy soldiers</strong> , but would accidentally kill <strong>1 enemy tree</strong> nearby.</p> <p>The photo of the <strong>enemy tree</strong> is shown below.</p> <p></p> <img src='stimuli/tree/1.png', style='max-width: 30%;'> </img> <p><strong>Would you launch the weapon?</strong></p>","1",""
"","","","","","html-keyboard-response","59","105718","0.0-3.0-0.28","74","1","2023-06-16 18:03:28","846205d480aaa49f22c83d5c8cececc8","185.33.85.119","Mozilla/5.0 (Windows NT 6.3; Win64; x64) AppleWebKit/537.36 (KHTML, like Gecko) Chrome/109.0.0.0 Safari/537.36","WebKit","Chrome","109.0.0.0","Windows","6.3","null","<div style=""font-size:60px;"">+</div>","null",""
"","","","","","html-button-response","60","106746","0.0-3.0-1.28","74","1","2023-06-16 18:03:28","846205d480aaa49f22c83d5c8cececc8","185.33.85.119","Mozilla/5.0 (Windows NT 6.3; Win64; x64) AppleWebKit/537.36 (KHTML, like Gecko) Chrome/109.0.0.0 Safari/537.36","WebKit","Chrome","109.0.0.0","Windows","6.3","1026","<p>As the military commander, you could choose to launch a missile to kill <strong>7 enemy soldiers</strong> , but would accidentally kill <strong>1 enemy civilian</strong> nearby.</p> <p>The photo of the <strong>enemy civilian</strong> is shown below.</p> <p></p> <img src='stimuli/faces/PCF6.jpg', style='max-width: 30%;'> </img> <p><strong>Would you launch the weapon?</strong></p>","0",""
"","","","","","html-keyboard-response","61","107761","0.0-3.0-0.29","74","1","2023-06-16 18:03:28","846205d480aaa49f22c83d5c8cececc8","185.33.85.119","Mozilla/5.0 (Windows NT 6.3; Win64; x64) AppleWebKit/537.36 (KHTML, like Gecko) Chrome/109.0.0.0 Safari/537.36","WebKit","Chrome","109.0.0.0","Windows","6.3","null","<div style=""font-size:60px;"">+</div>","null",""
"","","","","","html-button-response","62","108996","0.0-3.0-1.29","74","1","2023-06-16 18:03:28","846205d480aaa49f22c83d5c8cececc8","185.33.85.119","Mozilla/5.0 (Windows NT 6.3; Win64; x64) AppleWebKit/537.36 (KHTML, like Gecko) Chrome/109.0.0.0 Safari/537.36","WebKit","Chrome","109.0.0.0","Windows","6.3","1220","<p>As the military commander, you could choose to launch a missile to kill <strong>9 enemy soldiers</strong> , but would accidentally kill <strong>1 enemy civilian</strong> nearby.</p> <p>The photo of the <strong>enemy civilian</strong> is shown below.</p> <p></p> <img src='stimuli/faces/PCF7.jpg', style='max-width: 30%;'> </img> <p><strong>Would you launch the weapon?</strong></p>","0",""
"","","","","","html-keyboard-response","63","110005","0.0-3.0-0.30","74","1","2023-06-16 18:03:28","846205d480aaa49f22c83d5c8cececc8","185.33.85.119","Mozilla/5.0 (Windows NT 6.3; Win64; x64) AppleWebKit/537.36 (KHTML, like Gecko) Chrome/109.0.0.0 Safari/537.36","WebKit","Chrome","109.0.0.0","Windows","6.3","null","<div style=""font-size:60px;"">+</div>","null",""
"","","","","","html-button-response","64","114604","0.0-3.0-1.30","74","1","2023-06-16 18:03:28","846205d480aaa49f22c83d5c8cececc8","185.33.85.119","Mozilla/5.0 (Windows NT 6.3; Win64; x64) AppleWebKit/537.36 (KHTML, like Gecko) Chrome/109.0.0.0 Safari/537.36","WebKit","Chrome","109.0.0.0","Windows","6.3","4599","<p>As the military commander, you could choose to launch a missile to kill <strong>4 enemy soldiers</strong> , but would accidentally kill <strong>1 enemy civilian</strong> nearby.</p> <p>The photo of the <strong>enemy civilian</strong> is shown below.</p> <p></p> <img src='stimuli/faces/PCM2.jpg', style='max-width: 30%;'> </img> <p><strong>Would you launch the weapon?</strong></p>","0",""
"","","","","","html-keyboard-response","65","115629","0.0-3.0-0.31","74","1","2023-06-16 18:03:28","846205d480aaa49f22c83d5c8cececc8","185.33.85.119","Mozilla/5.0 (Windows NT 6.3; Win64; x64) AppleWebKit/537.36 (KHTML, like Gecko) Chrome/109.0.0.0 Safari/537.36","WebKit","Chrome","109.0.0.0","Windows","6.3","null","<div style=""font-size:60px;"">+</div>","null",""
"","","","","","html-button-response","66","118356","0.0-3.0-1.31","74","1","2023-06-16 18:03:28","846205d480aaa49f22c83d5c8cececc8","185.33.85.119","Mozilla/5.0 (Windows NT 6.3; Win64; x64) AppleWebKit/537.36 (KHTML, like Gecko) Chrome/109.0.0.0 Safari/537.36","WebKit","Chrome","109.0.0.0","Windows","6.3","2727","<p>As the military commander, you could choose to launch a missile to kill <strong>3 enemy soldiers</strong> , but would accidentally kill <strong>1 enemy civilian</strong> nearby.</p> <p>The photo of the <strong>enemy civilian</strong> is shown below.</p> <p></p> <img src='stimuli/faces/PCF7.jpg', style='max-width: 30%;'> </img> <p><strong>Would you launch the weapon?</strong></p>","0",""
"","","","","","html-keyboard-response","67","119384","0.0-3.0-0.32","74","1","2023-06-16 18:03:28","846205d480aaa49f22c83d5c8cececc8","185.33.85.119","Mozilla/5.0 (Windows NT 6.3; Win64; x64) AppleWebKit/537.36 (KHTML, like Gecko) Chrome/109.0.0.0 Safari/537.36","WebKit","Chrome","109.0.0.0","Windows","6.3","null","<div style=""font-size:60px;"">+</div>","null",""
"","","","","","html-button-response","68","120167","0.0-3.0-1.32","74","1","2023-06-16 18:03:28","846205d480aaa49f22c83d5c8cececc8","185.33.85.119","Mozilla/5.0 (Windows NT 6.3; Win64; x64) AppleWebKit/537.36 (KHTML, like Gecko) Chrome/109.0.0.0 Safari/537.36","WebKit","Chrome","109.0.0.0","Windows","6.3","767","<p>As the military commander, you could choose to launch a missile to kill <strong>6 enemy soldiers</strong> , but would accidentally kill <strong>1 enemy civilian</strong> nearby.</p> <p>The photo of the <strong>enemy civilian</strong> is shown below.</p> <p></p> <img src='stimuli/faces/PCM6.jpg', style='max-width: 30%;'> </img> <p><strong>Would you launch the weapon?</strong></p>","0",""
"","","","","","html-keyboard-response","69","121193","0.0-3.0-0.33","74","1","2023-06-16 18:03:28","846205d480aaa49f22c83d5c8cececc8","185.33.85.119","Mozilla/5.0 (Windows NT 6.3; Win64; x64) AppleWebKit/537.36 (KHTML, like Gecko) Chrome/109.0.0.0 Safari/537.36","WebKit","Chrome","109.0.0.0","Windows","6.3","null","<div style=""font-size:60px;"">+</div>","null",""
"","","","","","html-button-response","70","122314","0.0-3.0-1.33","74","1","2023-06-16 18:03:28","846205d480aaa49f22c83d5c8cececc8","185.33.85.119","Mozilla/5.0 (Windows NT 6.3; Win64; x64) AppleWebKit/537.36 (KHTML, like Gecko) Chrome/109.0.0.0 Safari/537.36","WebKit","Chrome","109.0.0.0","Windows","6.3","1121","<p>As the military commander, you could choose to launch a missile to kill <strong>3 enemy soldiers</strong> , but would accidentally kill <strong>1 enemy civilian</strong> nearby.</p> <p>The photo of the <strong>enemy civilian</strong> is shown below.</p> <p></p> <img src='stimuli/faces/PCF4.jpg', style='max-width: 30%;'> </img> <p><strong>Would you launch the weapon?</strong></p>","0",""
"","","","","","html-keyboard-response","71","123369","0.0-3.0-0.34","74","1","2023-06-16 18:03:28","846205d480aaa49f22c83d5c8cececc8","185.33.85.119","Mozilla/5.0 (Windows NT 6.3; Win64; x64) AppleWebKit/537.36 (KHTML, like Gecko) Chrome/109.0.0.0 Safari/537.36","WebKit","Chrome","109.0.0.0","Windows","6.3","null","<div style=""font-size:60px;"">+</div>","null",""
"","","","","","html-button-response","72","125278","0.0-3.0-1.34","74","1","2023-06-16 18:03:28","846205d480aaa49f22c83d5c8cececc8","185.33.85.119","Mozilla/5.0 (Windows NT 6.3; Win64; x64) AppleWebKit/537.36 (KHTML, like Gecko) Chrome/109.0.0.0 Safari/537.36","WebKit","Chrome","109.0.0.0","Windows","6.3","1871","<p>As the military commander, you could choose to launch a missile to kill <strong>4 enemy soldiers</strong> , but would accidentally kill <strong>1 enemy tree</strong> nearby.</p> <p>The photo of the <strong>enemy tree</strong> is shown below.</p> <p></p> <img src='stimuli/tree/16.png', style='max-width: 30%;'> </img> <p><strong>Would you launch the weapon?</strong></p>","1",""
"","","","","","html-keyboard-response","73","126281","0.0-3.0-0.35","74","1","2023-06-16 18:03:28","846205d480aaa49f22c83d5c8cececc8","185.33.85.119","Mozilla/5.0 (Windows NT 6.3; Win64; x64) AppleWebKit/537.36 (KHTML, like Gecko) Chrome/109.0.0.0 Safari/537.36","WebKit","Chrome","109.0.0.0","Windows","6.3","null","<div style=""font-size:60px;"">+</div>","null",""
"","","","","","html-button-response","74","128560","0.0-3.0-1.35","74","1","2023-06-16 18:03:28","846205d480aaa49f22c83d5c8cececc8","185.33.85.119","Mozilla/5.0 (Windows NT 6.3; Win64; x64) AppleWebKit/537.36 (KHTML, like Gecko) Chrome/109.0.0.0 Safari/537.36","WebKit","Chrome","109.0.0.0","Windows","6.3","2279","<p>As the military commander, you could choose to launch a missile to kill <strong>5 enemy soldiers</strong> , but would accidentally kill <strong>1 enemy civilian</strong> nearby.</p> <p>The photo of the <strong>enemy civilian</strong> is shown below.</p> <p></p> <img src='stimuli/faces/PCM8.jpg', style='max-width: 30%;'> </img> <p><strong>Would you launch the weapon?</strong></p>","0",""
"","","","","","html-keyboard-response","75","129577","0.0-3.0-0.36","74","1","2023-06-16 18:03:28","846205d480aaa49f22c83d5c8cececc8","185.33.85.119","Mozilla/5.0 (Windows NT 6.3; Win64; x64) AppleWebKit/537.36 (KHTML, like Gecko) Chrome/109.0.0.0 Safari/537.36","WebKit","Chrome","109.0.0.0","Windows","6.3","null","<div style=""font-size:60px;"">+</div>","null",""
"","","","","","html-button-response","76","131597","0.0-3.0-1.36","74","1","2023-06-16 18:03:28","846205d480aaa49f22c83d5c8cececc8","185.33.85.119","Mozilla/5.0 (Windows NT 6.3; Win64; x64) AppleWebKit/537.36 (KHTML, like Gecko) Chrome/109.0.0.0 Safari/537.36","WebKit","Chrome","109.0.0.0","Windows","6.3","2020","<p>As the military commander, you could choose to launch a missile to kill <strong>4 enemy soldiers</strong> , but would accidentally kill <strong>1 enemy civilian</strong> nearby.</p> <p>The photo of the <strong>enemy civilian</strong> is shown below.</p> <p></p> <img src='stimuli/faces/PCM3.jpg', style='max-width: 30%;'> </img> <p><strong>Would you launch the weapon?</strong></p>","0",""
"","","","","","html-keyboard-response","77","132602","0.0-3.0-0.37","74","1","2023-06-16 18:03:28","846205d480aaa49f22c83d5c8cececc8","185.33.85.119","Mozilla/5.0 (Windows NT 6.3; Win64; x64) AppleWebKit/537.36 (KHTML, like Gecko) Chrome/109.0.0.0 Safari/537.36","WebKit","Chrome","109.0.0.0","Windows","6.3","null","<div style=""font-size:60px;"">+</div>","null",""
"","","","","","html-button-response","78","137142","0.0-3.0-1.37","74","1","2023-06-16 18:03:28","846205d480aaa49f22c83d5c8cececc8","185.33.85.119","Mozilla/5.0 (Windows NT 6.3; Win64; x64) AppleWebKit/537.36 (KHTML, like Gecko) Chrome/109.0.0.0 Safari/537.36","WebKit","Chrome","109.0.0.0","Windows","6.3","4537","<p>As the military commander, you could choose to launch a missile to kill <strong>6 enemy soldiers</strong> , but would accidentally kill <strong>1 enemy tree</strong> nearby.</p> <p>The photo of the <strong>enemy tree</strong> is shown below.</p> <p></p> <img src='stimuli/tree/8.png', style='max-width: 30%;'> </img> <p><strong>Would you launch the weapon?</strong></p>","1",""
"","","","","","html-keyboard-response","79","138156","0.0-3.0-0.38","74","1","2023-06-16 18:03:28","846205d480aaa49f22c83d5c8cececc8","185.33.85.119","Mozilla/5.0 (Windows NT 6.3; Win64; x64) AppleWebKit/537.36 (KHTML, like Gecko) Chrome/109.0.0.0 Safari/537.36","WebKit","Chrome","109.0.0.0","Windows","6.3","null","<div style=""font-size:60px;"">+</div>","null",""
"","","","","","html-button-response","80","140264","0.0-3.0-1.38","74","1","2023-06-16 18:03:28","846205d480aaa49f22c83d5c8cececc8","185.33.85.119","Mozilla/5.0 (Windows NT 6.3; Win64; x64) AppleWebKit/537.36 (KHTML, like Gecko) Chrome/109.0.0.0 Safari/537.36","WebKit","Chrome","109.0.0.0","Windows","6.3","2108","<p>As the military commander, you could choose to launch a missile to kill <strong>5 enemy soldiers</strong> , but would accidentally kill <strong>1 enemy civilian</strong> nearby.</p> <p>The photo of the <strong>enemy civilian</strong> is shown below.</p> <p></p> <img src='stimuli/faces/PCM7.jpg', style='max-width: 30%;'> </img> <p><strong>Would you launch the weapon?</strong></p>","0",""
"","","","","","html-keyboard-response","81","141300","0.0-3.0-0.39","74","1","2023-06-16 18:03:28","846205d480aaa49f22c83d5c8cececc8","185.33.85.119","Mozilla/5.0 (Windows NT 6.3; Win64; x64) AppleWebKit/537.36 (KHTML, like Gecko) Chrome/109.0.0.0 Safari/537.36","WebKit","Chrome","109.0.0.0","Windows","6.3","null","<div style=""font-size:60px;"">+</div>","null",""
"","","","","","html-button-response","82","143321","0.0-3.0-1.39","74","1","2023-06-16 18:03:28","846205d480aaa49f22c83d5c8cececc8","185.33.85.119","Mozilla/5.0 (Windows NT 6.3; Win64; x64) AppleWebKit/537.36 (KHTML, like Gecko) Chrome/109.0.0.0 Safari/537.36","WebKit","Chrome","109.0.0.0","Windows","6.3","2008","<p>As the military commander, you could choose to launch a missile to kill <strong>10 enemy soldiers</strong> , but would accidentally kill <strong>1 enemy tree</strong> nearby.</p> <p>The photo of the <strong>enemy tree</strong> is shown below.</p> <p></p> <img src='stimuli/tree/13.png', style='max-width: 30%;'> </img> <p><strong>Would you launch the weapon?</strong></p>","1",""
"","","","","","html-keyboard-response","83","144334","0.0-3.0-0.40","74","1","2023-06-16 18:03:28","846205d480aaa49f22c83d5c8cececc8","185.33.85.119","Mozilla/5.0 (Windows NT 6.3; Win64; x64) AppleWebKit/537.36 (KHTML, like Gecko) Chrome/109.0.0.0 Safari/537.36","WebKit","Chrome","109.0.0.0","Windows","6.3","null","<div style=""font-size:60px;"">+</div>","null",""
"","","","","","html-button-response","84","146744","0.0-3.0-1.40","74","1","2023-06-16 18:03:28","846205d480aaa49f22c83d5c8cececc8","185.33.85.119","Mozilla/5.0 (Windows NT 6.3; Win64; x64) AppleWebKit/537.36 (KHTML, like Gecko) Chrome/109.0.0.0 Safari/537.36","WebKit","Chrome","109.0.0.0","Windows","6.3","2374","<p>As the military commander, you could choose to launch a missile to kill <strong>10 enemy soldiers</strong> , but would accidentally kill <strong>1 enemy tree</strong> nearby.</p> <p>The photo of the <strong>enemy tree</strong> is shown below.</p> <p></p> <img src='stimuli/tree/1.png', style='max-width: 30%;'> </img> <p><strong>Would you launch the weapon?</strong></p>","1",""
"","","","","","html-keyboard-response","85","147767","0.0-3.0-0.41","74","1","2023-06-16 18:03:28","846205d480aaa49f22c83d5c8cececc8","185.33.85.119","Mozilla/5.0 (Windows NT 6.3; Win64; x64) AppleWebKit/537.36 (KHTML, like Gecko) Chrome/109.0.0.0 Safari/537.36","WebKit","Chrome","109.0.0.0","Windows","6.3","null","<div style=""font-size:60px;"">+</div>","null",""
"","","","","","html-button-response","86","149423","0.0-3.0-1.41","74","1","2023-06-16 18:03:28","846205d480aaa49f22c83d5c8cececc8","185.33.85.119","Mozilla/5.0 (Windows NT 6.3; Win64; x64) AppleWebKit/537.36 (KHTML, like Gecko) Chrome/109.0.0.0 Safari/537.36","WebKit","Chrome","109.0.0.0","Windows","6.3","1656","<p>As the military commander, you could choose to launch a missile to kill <strong>8 enemy soldiers</strong> , but would accidentally kill <strong>1 enemy civilian</strong> nearby.</p> <p>The photo of the <strong>enemy civilian</strong> is shown below.</p> <p></p> <img src='stimuli/faces/PCM8.jpg', style='max-width: 30%;'> </img> <p><strong>Would you launch the weapon?</strong></p>","0",""
"","","","","","html-keyboard-response","87","150442","0.0-3.0-0.42","74","1","2023-06-16 18:03:28","846205d480aaa49f22c83d5c8cececc8","185.33.85.119","Mozilla/5.0 (Windows NT 6.3; Win64; x64) AppleWebKit/537.36 (KHTML, like Gecko) Chrome/109.0.0.0 Safari/537.36","WebKit","Chrome","109.0.0.0","Windows","6.3","null","<div style=""font-size:60px;"">+</div>","null",""
"","","","","","html-button-response","88","154049","0.0-3.0-1.42","74","1","2023-06-16 18:03:28","846205d480aaa49f22c83d5c8cececc8","185.33.85.119","Mozilla/5.0 (Windows NT 6.3; Win64; x64) AppleWebKit/537.36 (KHTML, like Gecko) Chrome/109.0.0.0 Safari/537.36","WebKit","Chrome","109.0.0.0","Windows","6.3","3607","<p>As the military commander, you could choose to launch a missile to kill <strong>8 enemy soldiers</strong> , but would accidentally kill <strong>1 enemy tree</strong> nearby.</p> <p>The photo of the <strong>enemy tree</strong> is shown below.</p> <p></p> <img src='stimuli/tree/11.png', style='max-width: 30%;'> </img> <p><strong>Would you launch the weapon?</strong></p>","1",""
"","","","","","html-keyboard-response","89","155068","0.0-3.0-0.43","74","1","2023-06-16 18:03:28","846205d480aaa49f22c83d5c8cececc8","185.33.85.119","Mozilla/5.0 (Windows NT 6.3; Win64; x64) AppleWebKit/537.36 (KHTML, like Gecko) Chrome/109.0.0.0 Safari/537.36","WebKit","Chrome","109.0.0.0","Windows","6.3","null","<div style=""font-size:60px;"">+</div>","null",""
"","","","","","html-button-response","90","158543","0.0-3.0-1.43","74","1","2023-06-16 18:03:28","846205d480aaa49f22c83d5c8cececc8","185.33.85.119","Mozilla/5.0 (Windows NT 6.3; Win64; x64) AppleWebKit/537.36 (KHTML, like Gecko) Chrome/109.0.0.0 Safari/537.36","WebKit","Chrome","109.0.0.0","Windows","6.3","3467","<p>As the military commander, you could choose to launch a missile to kill <strong>4 enemy soldiers</strong> , but would accidentally kill <strong>1 enemy tree</strong> nearby.</p> <p>The photo of the <strong>enemy tree</strong> is shown below.</p> <p></p> <img src='stimuli/tree/7.png', style='max-width: 30%;'> </img> <p><strong>Would you launch the weapon?</strong></p>","1",""
"","","","","","html-keyboard-response","91","159576","0.0-3.0-0.44","74","1","2023-06-16 18:03:28","846205d480aaa49f22c83d5c8cececc8","185.33.85.119","Mozilla/5.0 (Windows NT 6.3; Win64; x64) AppleWebKit/537.36 (KHTML, like Gecko) Chrome/109.0.0.0 Safari/537.36","WebKit","Chrome","109.0.0.0","Windows","6.3","null","<div style=""font-size:60px;"">+</div>","null",""
"","","","","","html-button-response","92","160685","0.0-3.0-1.44","74","1","2023-06-16 18:03:28","846205d480aaa49f22c83d5c8cececc8","185.33.85.119","Mozilla/5.0 (Windows NT 6.3; Win64; x64) AppleWebKit/537.36 (KHTML, like Gecko) Chrome/109.0.0.0 Safari/537.36","WebKit","Chrome","109.0.0.0","Windows","6.3","1103","<p>As the military commander, you could choose to launch a missile to kill <strong>4 enemy soldiers</strong> , but would accidentally kill <strong>1 enemy tree</strong> nearby.</p> <p>The photo of the <strong>enemy tree</strong> is shown below.</p> <p></p> <img src='stimuli/tree/11.png', style='max-width: 30%;'> </img> <p><strong>Would you launch the weapon?</strong></p>","1",""
"","","","","","html-keyboard-response","93","161710","0.0-3.0-0.45","74","1","2023-06-16 18:03:28","846205d480aaa49f22c83d5c8cececc8","185.33.85.119","Mozilla/5.0 (Windows NT 6.3; Win64; x64) AppleWebKit/537.36 (KHTML, like Gecko) Chrome/109.0.0.0 Safari/537.36","WebKit","Chrome","109.0.0.0","Windows","6.3","null","<div style=""font-size:60px;"">+</div>","null",""
"","","","","","html-button-response","94","171224","0.0-3.0-1.45","74","1","2023-06-16 18:03:28","846205d480aaa49f22c83d5c8cececc8","185.33.85.119","Mozilla/5.0 (Windows NT 6.3; Win64; x64) AppleWebKit/537.36 (KHTML, like Gecko) Chrome/109.0.0.0 Safari/537.36","WebKit","Chrome","109.0.0.0","Windows","6.3","9510","<p>As the military commander, you could choose to launch a missile to kill <strong>6 enemy soldiers</strong> , but would accidentally kill <strong>1 enemy civilian</strong> nearby.</p> <p>The photo of the <strong>enemy civilian</strong> is shown below.</p> <p></p> <img src='stimuli/faces/PCM1.jpg', style='max-width: 30%;'> </img> <p><strong>Would you launch the weapon?</strong></p>","1",""
"","","","","","html-keyboard-response","95","172232","0.0-3.0-0.46","74","1","2023-06-16 18:03:28","846205d480aaa49f22c83d5c8cececc8","185.33.85.119","Mozilla/5.0 (Windows NT 6.3; Win64; x64) AppleWebKit/537.36 (KHTML, like Gecko) Chrome/109.0.0.0 Safari/537.36","WebKit","Chrome","109.0.0.0","Windows","6.3","null","<div style=""font-size:60px;"">+</div>","null",""
"","","","","","html-button-response","96","173333","0.0-3.0-1.46","74","1","2023-06-16 18:03:28","846205d480aaa49f22c83d5c8cececc8","185.33.85.119","Mozilla/5.0 (Windows NT 6.3; Win64; x64) AppleWebKit/537.36 (KHTML, like Gecko) Chrome/109.0.0.0 Safari/537.36","WebKit","Chrome","109.0.0.0","Windows","6.3","1091","<p>As the military commander, you could choose to launch a missile to kill <strong>3 enemy soldiers</strong> , but would accidentally kill <strong>1 enemy tree</strong> nearby.</p> <p>The photo of the <strong>enemy tree</strong> is shown below.</p> <p></p> <img src='stimuli/tree/6.png', style='max-width: 30%;'> </img> <p><strong>Would you launch the weapon?</strong></p>","1",""
"","","","","","html-keyboard-response","97","174375","0.0-3.0-0.47","74","1","2023-06-16 18:03:28","846205d480aaa49f22c83d5c8cececc8","185.33.85.119","Mozilla/5.0 (Windows NT 6.3; Win64; x64) AppleWebKit/537.36 (KHTML, like Gecko) Chrome/109.0.0.0 Safari/537.36","WebKit","Chrome","109.0.0.0","Windows","6.3","null","<div style=""font-size:60px;"">+</div>","null",""
"","","","","","html-button-response","98","175796","0.0-3.0-1.47","74","1","2023-06-16 18:03:28","846205d480aaa49f22c83d5c8cececc8","185.33.85.119","Mozilla/5.0 (Windows NT 6.3; Win64; x64) AppleWebKit/537.36 (KHTML, like Gecko) Chrome/109.0.0.0 Safari/537.36","WebKit","Chrome","109.0.0.0","Windows","6.3","1418","<p>As the military commander, you could choose to launch a missile to kill <strong>3 enemy soldiers</strong> , but would accidentally kill <strong>1 enemy tree</strong> nearby.</p> <p>The photo of the <strong>enemy tree</strong> is shown below.</p> <p></p> <img src='stimuli/tree/2.png', style='max-width: 30%;'> </img> <p><strong>Would you launch the weapon?</strong></p>","1",""
"","","","","","html-keyboard-response","99","176806","0.0-3.0-0.48","74","1","2023-06-16 18:03:28","846205d480aaa49f22c83d5c8cececc8","185.33.85.119","Mozilla/5.0 (Windows NT 6.3; Win64; x64) AppleWebKit/537.36 (KHTML, like Gecko) Chrome/109.0.0.0 Safari/537.36","WebKit","Chrome","109.0.0.0","Windows","6.3","null","<div style=""font-size:60px;"">+</div>","null",""
"","","","","","html-button-response","100","177734","0.0-3.0-1.48","74","1","2023-06-16 18:03:28","846205d480aaa49f22c83d5c8cececc8","185.33.85.119","Mozilla/5.0 (Windows NT 6.3; Win64; x64) AppleWebKit/537.36 (KHTML, like Gecko) Chrome/109.0.0.0 Safari/537.36","WebKit","Chrome","109.0.0.0","Windows","6.3","928","<p>As the military commander, you could choose to launch a missile to kill <strong>2 enemy soldiers</strong> , but would accidentally kill <strong>1 enemy tree</strong> nearby.</p> <p>The photo of the <strong>enemy tree</strong> is shown below.</p> <p></p> <img src='stimuli/tree/4.png', style='max-width: 30%;'> </img> <p><strong>Would you launch the weapon?</strong></p>","1",""
"","","","","","html-keyboard-response","101","178764","0.0-3.0-0.49","74","1","2023-06-16 18:03:28","846205d480aaa49f22c83d5c8cececc8","185.33.85.119","Mozilla/5.0 (Windows NT 6.3; Win64; x64) AppleWebKit/537.36 (KHTML, like Gecko) Chrome/109.0.0.0 Safari/537.36","WebKit","Chrome","109.0.0.0","Windows","6.3","null","<div style=""font-size:60px;"">+</div>","null",""
"","","","","","html-button-response","102","179902","0.0-3.0-1.49","74","1","2023-06-16 18:03:28","846205d480aaa49f22c83d5c8cececc8","185.33.85.119","Mozilla/5.0 (Windows NT 6.3; Win64; x64) AppleWebKit/537.36 (KHTML, like Gecko) Chrome/109.0.0.0 Safari/537.36","WebKit","Chrome","109.0.0.0","Windows","6.3","1133","<p>As the military commander, you could choose to launch a missile to kill <strong>10 enemy soldiers</strong> , but would accidentally kill <strong>1 enemy tree</strong> nearby.</p> <p>The photo of the <strong>enemy tree</strong> is shown below.</p> <p></p> <img src='stimuli/tree/7.png', style='max-width: 30%;'> </img> <p><strong>Would you launch the weapon?</strong></p>","1",""
"","","","","","html-keyboard-response","103","180926","0.0-3.0-0.50","74","1","2023-06-16 18:03:28","846205d480aaa49f22c83d5c8cececc8","185.33.85.119","Mozilla/5.0 (Windows NT 6.3; Win64; x64) AppleWebKit/537.36 (KHTML, like Gecko) Chrome/109.0.0.0 Safari/537.36","WebKit","Chrome","109.0.0.0","Windows","6.3","null","<div style=""font-size:60px;"">+</div>","null",""
"","","","","","html-button-response","104","184712","0.0-3.0-1.50","74","1","2023-06-16 18:03:28","846205d480aaa49f22c83d5c8cececc8","185.33.85.119","Mozilla/5.0 (Windows NT 6.3; Win64; x64) AppleWebKit/537.36 (KHTML, like Gecko) Chrome/109.0.0.0 Safari/537.36","WebKit","Chrome","109.0.0.0","Windows","6.3","3786","<p>As the military commander, you could choose to launch a missile to kill <strong>6 enemy soldiers</strong> , but would accidentally kill <strong>1 enemy tree</strong> nearby.</p> <p>The photo of the <strong>enemy tree</strong> is shown below.</p> <p></p> <img src='stimuli/tree/16.png', style='max-width: 30%;'> </img> <p><strong>Would you launch the weapon?</strong></p>","1",""
"","","","","","html-keyboard-response","105","185727","0.0-3.0-0.51","74","1","2023-06-16 18:03:28","846205d480aaa49f22c83d5c8cececc8","185.33.85.119","Mozilla/5.0 (Windows NT 6.3; Win64; x64) AppleWebKit/537.36 (KHTML, like Gecko) Chrome/109.0.0.0 Safari/537.36","WebKit","Chrome","109.0.0.0","Windows","6.3","null","<div style=""font-size:60px;"">+</div>","null",""
"","","","","","html-button-response","106","188194","0.0-3.0-1.51","74","1","2023-06-16 18:03:28","846205d480aaa49f22c83d5c8cececc8","185.33.85.119","Mozilla/5.0 (Windows NT 6.3; Win64; x64) AppleWebKit/537.36 (KHTML, like Gecko) Chrome/109.0.0.0 Safari/537.36","WebKit","Chrome","109.0.0.0","Windows","6.3","2444","<p>As the military commander, you could choose to launch a missile to kill <strong>9 enemy soldiers</strong> , but would accidentally kill <strong>1 enemy civilian</strong> nearby.</p> <p>The photo of the <strong>enemy civilian</strong> is shown below.</p> <p></p> <img src='stimuli/faces/PCM7.jpg', style='max-width: 30%;'> </img> <p><strong>Would you launch the weapon?</strong></p>","0",""
"","","","","","html-keyboard-response","107","189209","0.0-3.0-0.52","74","1","2023-06-16 18:03:28","846205d480aaa49f22c83d5c8cececc8","185.33.85.119","Mozilla/5.0 (Windows NT 6.3; Win64; x64) AppleWebKit/537.36 (KHTML, like Gecko) Chrome/109.0.0.0 Safari/537.36","WebKit","Chrome","109.0.0.0","Windows","6.3","null","<div style=""font-size:60px;"">+</div>","null",""
"","","","","","html-button-response","108","205593","0.0-3.0-1.52","74","1","2023-06-16 18:03:28","846205d480aaa49f22c83d5c8cececc8","185.33.85.119","Mozilla/5.0 (Windows NT 6.3; Win64; x64) AppleWebKit/537.36 (KHTML, like Gecko) Chrome/109.0.0.0 Safari/537.36","WebKit","Chrome","109.0.0.0","Windows","6.3","16384","<p>As the military commander, you could choose to launch a missile to kill <strong>1 enemy soldier</strong> , but would accidentally kill <strong>1 enemy civilian</strong> nearby.</p> <p>The photo of the <strong>enemy civilian</strong> is shown below.</p> <p></p> <img src='stimuli/faces/PCF6.jpg', style='max-width: 30%;'> </img> <p><strong>Would you launch the weapon?</strong></p>","0",""
"","","","","","html-keyboard-response","109","206618","0.0-3.0-0.53","74","1","2023-06-16 18:03:28","846205d480aaa49f22c83d5c8cececc8","185.33.85.119","Mozilla/5.0 (Windows NT 6.3; Win64; x64) AppleWebKit/537.36 (KHTML, like Gecko) Chrome/109.0.0.0 Safari/537.36","WebKit","Chrome","109.0.0.0","Windows","6.3","null","<div style=""font-size:60px;"">+</div>","null",""
"","","","","","html-button-response","110","208603","0.0-3.0-1.53","74","1","2023-06-16 18:03:28","846205d480aaa49f22c83d5c8cececc8","185.33.85.119","Mozilla/5.0 (Windows NT 6.3; Win64; x64) AppleWebKit/537.36 (KHTML, like Gecko) Chrome/109.0.0.0 Safari/537.36","WebKit","Chrome","109.0.0.0","Windows","6.3","1969","<p>As the military commander, you could choose to launch a missile to kill <strong>9 enemy soldiers</strong> , but would accidentally kill <strong>1 enemy civilian</strong> nearby.</p> <p>The photo of the <strong>enemy civilian</strong> is shown below.</p> <p></p> <img src='stimuli/faces/PCF5.jpg', style='max-width: 30%;'> </img> <p><strong>Would you launch the weapon?</strong></p>","0",""
"","","","","","html-keyboard-response","111","209626","0.0-3.0-0.54","74","1","2023-06-16 18:03:28","846205d480aaa49f22c83d5c8cececc8","185.33.85.119","Mozilla/5.0 (Windows NT 6.3; Win64; x64) AppleWebKit/537.36 (KHTML, like Gecko) Chrome/109.0.0.0 Safari/537.36","WebKit","Chrome","109.0.0.0","Windows","6.3","null","<div style=""font-size:60px;"">+</div>","null",""
"","","","","","html-button-response","112","210903","0.0-3.0-1.54","74","1","2023-06-16 18:03:28","846205d480aaa49f22c83d5c8cececc8","185.33.85.119","Mozilla/5.0 (Windows NT 6.3; Win64; x64) AppleWebKit/537.36 (KHTML, like Gecko) Chrome/109.0.0.0 Safari/537.36","WebKit","Chrome","109.0.0.0","Windows","6.3","1258","<p>As the military commander, you could choose to launch a missile to kill <strong>5 enemy soldiers</strong> , but would accidentally kill <strong>1 enemy civilian</strong> nearby.</p> <p>The photo of the <strong>enemy civilian</strong> is shown below.</p> <p></p> <img src='stimuli/faces/PCM5.jpg', style='max-width: 30%;'> </img> <p><strong>Would you launch the weapon?</strong></p>","0",""
"","","","","","html-keyboard-response","113","211935","0.0-3.0-0.55","74","1","2023-06-16 18:03:28","846205d480aaa49f22c83d5c8cececc8","185.33.85.119","Mozilla/5.0 (Windows NT 6.3; Win64; x64) AppleWebKit/537.36 (KHTML, like Gecko) Chrome/109.0.0.0 Safari/537.36","WebKit","Chrome","109.0.0.0","Windows","6.3","null","<div style=""font-size:60px;"">+</div>","null",""
"","","","","","html-button-response","114","213324","0.0-3.0-1.55","74","1","2023-06-16 18:03:28","846205d480aaa49f22c83d5c8cececc8","185.33.85.119","Mozilla/5.0 (Windows NT 6.3; Win64; x64) AppleWebKit/537.36 (KHTML, like Gecko) Chrome/109.0.0.0 Safari/537.36","WebKit","Chrome","109.0.0.0","Windows","6.3","1389","<p>As the military commander, you could choose to launch a missile to kill <strong>9 enemy soldiers</strong> , but would accidentally kill <strong>1 enemy civilian</strong> nearby.</p> <p>The photo of the <strong>enemy civilian</strong> is shown below.</p> <p></p> <img src='stimuli/faces/PCF8.jpg', style='max-width: 30%;'> </img> <p><strong>Would you launch the weapon?</strong></p>","0",""
"","","","","","html-keyboard-response","115","214352","0.0-3.0-0.56","74","1","2023-06-16 18:03:28","846205d480aaa49f22c83d5c8cececc8","185.33.85.119","Mozilla/5.0 (Windows NT 6.3; Win64; x64) AppleWebKit/537.36 (KHTML, like Gecko) Chrome/109.0.0.0 Safari/537.36","WebKit","Chrome","109.0.0.0","Windows","6.3","null","<div style=""font-size:60px;"">+</div>","null",""
"","","","","","html-button-response","116","216694","0.0-3.0-1.56","74","1","2023-06-16 18:03:28","846205d480aaa49f22c83d5c8cececc8","185.33.85.119","Mozilla/5.0 (Windows NT 6.3; Win64; x64) AppleWebKit/537.36 (KHTML, like Gecko) Chrome/109.0.0.0 Safari/537.36","WebKit","Chrome","109.0.0.0","Windows","6.3","2333","<p>As the military commander, you could choose to launch a missile to kill <strong>8 enemy soldiers</strong> , but would accidentally kill <strong>1 enemy tree</strong> nearby.</p> <p>The photo of the <strong>enemy tree</strong> is shown below.</p> <p></p> <img src='stimuli/tree/6.png', style='max-width: 30%;'> </img> <p><strong>Would you launch the weapon?</strong></p>","1",""
"","","","","","html-keyboard-response","117","217719","0.0-3.0-0.57","74","1","2023-06-16 18:03:28","846205d480aaa49f22c83d5c8cececc8","185.33.85.119","Mozilla/5.0 (Windows NT 6.3; Win64; x64) AppleWebKit/537.36 (KHTML, like Gecko) Chrome/109.0.0.0 Safari/537.36","WebKit","Chrome","109.0.0.0","Windows","6.3","null","<div style=""font-size:60px;"">+</div>","null",""
"","","","","","html-button-response","118","218719","0.0-3.0-1.57","74","1","2023-06-16 18:03:28","846205d480aaa49f22c83d5c8cececc8","185.33.85.119","Mozilla/5.0 (Windows NT 6.3; Win64; x64) AppleWebKit/537.36 (KHTML, like Gecko) Chrome/109.0.0.0 Safari/537.36","WebKit","Chrome","109.0.0.0","Windows","6.3","994","<p>As the military commander, you could choose to launch a missile to kill <strong>2 enemy soldiers</strong> , but would accidentally kill <strong>1 enemy tree</strong> nearby.</p> <p>The photo of the <strong>enemy tree</strong> is shown below.</p> <p></p> <img src='stimuli/tree/14.png', style='max-width: 30%;'> </img> <p><strong>Would you launch the weapon?</strong></p>","1",""
"","","","","","html-keyboard-response","119","219750","0.0-3.0-0.58","74","1","2023-06-16 18:03:28","846205d480aaa49f22c83d5c8cececc8","185.33.85.119","Mozilla/5.0 (Windows NT 6.3; Win64; x64) AppleWebKit/537.36 (KHTML, like Gecko) Chrome/109.0.0.0 Safari/537.36","WebKit","Chrome","109.0.0.0","Windows","6.3","null","<div style=""font-size:60px;"">+</div>","null",""
"","","","","","html-button-response","120","225142","0.0-3.0-1.58","74","1","2023-06-16 18:03:28","846205d480aaa49f22c83d5c8cececc8","185.33.85.119","Mozilla/5.0 (Windows NT 6.3; Win64; x64) AppleWebKit/537.36 (KHTML, like Gecko) Chrome/109.0.0.0 Safari/537.36","WebKit","Chrome","109.0.0.0","Windows","6.3","5387","<p>As the military commander, you could choose to launch a missile to kill <strong>10 enemy soldiers</strong> , but would accidentally kill <strong>1 enemy tree</strong> nearby.</p> <p>The photo of the <strong>enemy tree</strong> is shown below.</p> <p></p> <img src='stimuli/tree/9.png', style='max-width: 30%;'> </img> <p><strong>Would you launch the weapon?</strong></p>","1",""
"","","","","","html-keyboard-response","121","226150","0.0-3.0-0.59","74","1","2023-06-16 18:03:28","846205d480aaa49f22c83d5c8cececc8","185.33.85.119","Mozilla/5.0 (Windows NT 6.3; Win64; x64) AppleWebKit/537.36 (KHTML, like Gecko) Chrome/109.0.0.0 Safari/537.36","WebKit","Chrome","109.0.0.0","Windows","6.3","null","<div style=""font-size:60px;"">+</div>","null",""
"","","","","","html-button-response","122","262366","0.0-3.0-1.59","74","1","2023-06-16 18:03:28","846205d480aaa49f22c83d5c8cececc8","185.33.85.119","Mozilla/5.0 (Windows NT 6.3; Win64; x64) AppleWebKit/537.36 (KHTML, like Gecko) Chrome/109.0.0.0 Safari/537.36","WebKit","Chrome","109.0.0.0","Windows","6.3","36203","<p>As the military commander, you could choose to launch a missile to kill <strong>3 enemy soldiers</strong> , but would accidentally kill <strong>1 enemy civilian</strong> nearby.</p> <p>The photo of the <strong>enemy civilian</strong> is shown below.</p> <p></p> <img src='stimuli/faces/PCM4.jpg', style='max-width: 30%;'> </img> <p><strong>Would you launch the weapon?</strong></p>","0",""
"","","","","","html-keyboard-response","123","263388","0.0-3.0-0.60","74","1","2023-06-16 18:03:28","846205d480aaa49f22c83d5c8cececc8","185.33.85.119","Mozilla/5.0 (Windows NT 6.3; Win64; x64) AppleWebKit/537.36 (KHTML, like Gecko) Chrome/109.0.0.0 Safari/537.36","WebKit","Chrome","109.0.0.0","Windows","6.3","null","<div style=""font-size:60px;"">+</div>","null",""
"","","","","","html-button-response","124","264247","0.0-3.0-1.60","74","1","2023-06-16 18:03:28","846205d480aaa49f22c83d5c8cececc8","185.33.85.119","Mozilla/5.0 (Windows NT 6.3; Win64; x64) AppleWebKit/537.36 (KHTML, like Gecko) Chrome/109.0.0.0 Safari/537.36","WebKit","Chrome","109.0.0.0","Windows","6.3","859","<p>As the military commander, you could choose to launch a missile to kill <strong>4 enemy soldiers</strong> , but would accidentally kill <strong>1 enemy civilian</strong> nearby.</p> <p>The photo of the <strong>enemy civilian</strong> is shown below.</p> <p></p> <img src='stimuli/faces/PCF2.jpg', style='max-width: 30%;'> </img> <p><strong>Would you launch the weapon?</strong></p>","0",""
"","","","","","html-keyboard-response","125","265254","0.0-3.0-0.61","74","1","2023-06-16 18:03:28","846205d480aaa49f22c83d5c8cececc8","185.33.85.119","Mozilla/5.0 (Windows NT 6.3; Win64; x64) AppleWebKit/537.36 (KHTML, like Gecko) Chrome/109.0.0.0 Safari/537.36","WebKit","Chrome","109.0.0.0","Windows","6.3","null","<div style=""font-size:60px;"">+</div>","null",""
"","","","","","html-button-response","126","279461","0.0-3.0-1.61","74","1","2023-06-16 18:03:28","846205d480aaa49f22c83d5c8cececc8","185.33.85.119","Mozilla/5.0 (Windows NT 6.3; Win64; x64) AppleWebKit/537.36 (KHTML, like Gecko) Chrome/109.0.0.0 Safari/537.36","WebKit","Chrome","109.0.0.0","Windows","6.3","14182","<p>As the military commander, you could choose to launch a missile to kill <strong>9 enemy soldiers</strong> , but would accidentally kill <strong>1 enemy tree</strong> nearby.</p> <p>The photo of the <strong>enemy tree</strong> is shown below.</p> <p></p> <img src='stimuli/tree/14.png', style='max-width: 30%;'> </img> <p><strong>Would you launch the weapon?</strong></p>","0",""
"","","","","","html-keyboard-response","127","280483","0.0-3.0-0.62","74","1","2023-06-16 18:03:28","846205d480aaa49f22c83d5c8cececc8","185.33.85.119","Mozilla/5.0 (Windows NT 6.3; Win64; x64) AppleWebKit/537.36 (KHTML, like Gecko) Chrome/109.0.0.0 Safari/537.36","WebKit","Chrome","109.0.0.0","Windows","6.3","null","<div style=""font-size:60px;"">+</div>","null",""
"","","","","","html-button-response","128","281482","0.0-3.0-1.62","74","1","2023-06-16 18:03:28","846205d480aaa49f22c83d5c8cececc8","185.33.85.119","Mozilla/5.0 (Windows NT 6.3; Win64; x64) AppleWebKit/537.36 (KHTML, like Gecko) Chrome/109.0.0.0 Safari/537.36","WebKit","Chrome","109.0.0.0","Windows","6.3","967","<p>As the military commander, you could choose to launch a missile to kill <strong>6 enemy soldiers</strong> , but would accidentally kill <strong>1 enemy civilian</strong> nearby.</p> <p>The photo of the <strong>enemy civilian</strong> is shown below.</p> <p></p> <img src='stimuli/faces/PCF2.jpg', style='max-width: 30%;'> </img> <p><strong>Would you launch the weapon?</strong></p>","0",""
"","","","","","html-keyboard-response","129","282504","0.0-3.0-0.63","74","1","2023-06-16 18:03:28","846205d480aaa49f22c83d5c8cececc8","185.33.85.119","Mozilla/5.0 (Windows NT 6.3; Win64; x64) AppleWebKit/537.36 (KHTML, like Gecko) Chrome/109.0.0.0 Safari/537.36","WebKit","Chrome","109.0.0.0","Windows","6.3","null","<div style=""font-size:60px;"">+</div>","null",""
"","","","","","html-button-response","130","284444","0.0-3.0-1.63","74","1","2023-06-16 18:03:28","846205d480aaa49f22c83d5c8cececc8","185.33.85.119","Mozilla/5.0 (Windows NT 6.3; Win64; x64) AppleWebKit/537.36 (KHTML, like Gecko) Chrome/109.0.0.0 Safari/537.36","WebKit","Chrome","109.0.0.0","Windows","6.3","1935","<p>As the military commander, you could choose to launch a missile to kill <strong>8 enemy soldiers</strong> , but would accidentally kill <strong>1 enemy civilian</strong> nearby.</p> <p>The photo of the <strong>enemy civilian</strong> is shown below.</p> <p></p> <img src='stimuli/faces/PCF4.jpg', style='max-width: 30%;'> </img> <p><strong>Would you launch the weapon?</strong></p>","0",""
"","","","","","survey-multi-choice","131","291684","0.0-4.0","74","1","2023-06-16 18:03:28","846205d480aaa49f22c83d5c8cececc8","185.33.85.119","Mozilla/5.0 (Windows NT 6.3; Win64; x64) AppleWebKit/537.36 (KHTML, like Gecko) Chrome/109.0.0.0 Safari/537.36","WebKit","Chrome","109.0.0.0","Windows","6.3","7188","","{""Attention1"":""2""}","[0]"
"","","","","","html-button-response","132","293292","0.0-5.0","74","1","2023-06-16 18:03:28","846205d480aaa49f22c83d5c8cececc8","185.33.85.119","Mozilla/5.0 (Windows NT 6.3; Win64; x64) AppleWebKit/537.36 (KHTML, like Gecko) Chrome/109.0.0.0 Safari/537.36","WebKit","Chrome","109.0.0.0","Windows","6.3","1581","<p style=""font-size:20px;font-weight:bold;"">Great!</p><p>You have finished the first part of the experiment!</p><p>Please relax a little bit and then contine to answer some questions regarding yourself.</p><p>The next part will take around 10 minutes to complete.</p>","0",""
"","","","","","survey-text","133","375086","0.0-6.0","74","1","2023-06-16 18:03:28","846205d480aaa49f22c83d5c8cececc8","185.33.85.119","Mozilla/5.0 (Windows NT 6.3; Win64; x64) AppleWebKit/537.36 (KHTML, like Gecko) Chrome/109.0.0.0 Safari/537.36","WebKit","Chrome","109.0.0.0","Windows","6.3","80757","","{""Age"":""30"",""Nation"":""Canadian"",""Born"":""USA"",""Live"":""USA""}",""
"","","","","","survey-multi-choice","134","394804","0.0-7.0","74","1","2023-06-16 18:03:28","846205d480aaa49f22c83d5c8cececc8","185.33.85.119","Mozilla/5.0 (Windows NT 6.3; Win64; x64) AppleWebKit/537.36 (KHTML, like Gecko) Chrome/109.0.0.0 Safari/537.36","WebKit","Chrome","109.0.0.0","Windows","6.3","19691","","{""Gender"":""Male"",""Education"":""Bachelor's Degree"",""Income"":""$40,000 - $69,999"",""Children"":""1"",""Ethnicity"":""White""}","[0,1,2,3,4]"
"","","","","","survey-multi-select","135","404778","0.0-8.0","74","1","2023-06-16 18:03:28","846205d480aaa49f22c83d5c8cececc8","185.33.85.119","Mozilla/5.0 (Windows NT 6.3; Win64; x64) AppleWebKit/537.36 (KHTML, like Gecko) Chrome/109.0.0.0 Safari/537.36","WebKit","Chrome","109.0.0.0","Windows","6.3","9967","","{""Marriage"":[""Married""],""Religion"":[""Christian""]}","[0,1]"
"","","","","","survey-multi-choice","136","411899","0.0-9.0","74","1","2023-06-16 18:03:28","846205d480aaa49f22c83d5c8cececc8","185.33.85.119","Mozilla/5.0 (Windows NT 6.3; Win64; x64) AppleWebKit/537.36 (KHTML, like Gecko) Chrome/109.0.0.0 Safari/537.36","WebKit","Chrome","109.0.0.0","Windows","6.3","7098","","{""SES"":""9""}","[0]"
"","","","","","html-button-response","137","416136","0.0-10.0","74","1","2023-06-16 18:03:28","846205d480aaa49f22c83d5c8cececc8","185.33.85.119","Mozilla/5.0 (Windows NT 6.3; Win64; x64) AppleWebKit/537.36 (KHTML, like Gecko) Chrome/109.0.0.0 Safari/537.36","WebKit","Chrome","109.0.0.0","Windows","6.3","4217","<p><strong>Please indicate the extent that the following statements could describe you.</p><p> (1 = ""extremely uncharacteristic of me"" to 5 = ""extremely characteristic of me"".)</strong></p>","0",""
"","","","","","survey-likert","138","436177","0.0-11.0","74","1","2023-06-16 18:03:28","846205d480aaa49f22c83d5c8cececc8","185.33.85.119","Mozilla/5.0 (Windows NT 6.3; Win64; x64) AppleWebKit/537.36 (KHTML, like Gecko) Chrome/109.0.0.0 Safari/537.36","WebKit","Chrome","109.0.0.0","Windows","6.3","20024","","{""Aggression1"":4,""Aggression2"":2,""Aggression3"":0,""Aggression4"":0,""Aggression5"":1,""Aggression6"":1,""Aggression7"":1,""Aggression8"":1,""Aggression9"":0}","[0,1,2,3,4,5,6,7,8]"
"","","","","","html-button-response","139","437915","0.0-12.0","74","1","2023-06-16 18:03:28","846205d480aaa49f22c83d5c8cececc8","185.33.85.119","Mozilla/5.0 (Windows NT 6.3; Win64; x64) AppleWebKit/537.36 (KHTML, like Gecko) Chrome/109.0.0.0 Safari/537.36","WebKit","Chrome","109.0.0.0","Windows","6.3","1728","<p><strong>Please indicate the extent that the following statements could describe you. </strong></p><p><strong> (1 = ""Does not describe me well"" to 5 = ""Does decribe me well"".)</strong></p>","0",""
"","","","","","survey-likert","140","485414","0.0-13.0","74","1","2023-06-16 18:03:28","846205d480aaa49f22c83d5c8cececc8","185.33.85.119","Mozilla/5.0 (Windows NT 6.3; Win64; x64) AppleWebKit/537.36 (KHTML, like Gecko) Chrome/109.0.0.0 Safari/537.36","WebKit","Chrome","109.0.0.0","Windows","6.3","47491","","{""ecs2"":1,""pds1"":2,""ecs5"":1,""ecs3"":2,""ecs4"":0,""pts1"":4,""fs1"":2,""pts2"":0,""pts5"":1,""pds4"":0,""pts4"":1,""fs7"":0,""pds5"":0,""pts6"":1,""fs2"":0,""pds6"":1,""pds7"":0,""pds2"":1,""fs4"":0,""ecs1"":0,""pts3"":0,""pts7"":1,""fs6"":0,""ecs6"":2,""pds3"":2,""fs5"":1,""fs3"":1,""ecs7"":2}","[3,5,17,8,13,2,0,7,20,16,14,25,18,24,4,23,26,9,11,1,10,27,22,19,12,15,6,21]"
"","","","","","html-button-response","141","486918","0.0-14.0","74","1","2023-06-16 18:03:28","846205d480aaa49f22c83d5c8cececc8","185.33.85.119","Mozilla/5.0 (Windows NT 6.3; Win64; x64) AppleWebKit/537.36 (KHTML, like Gecko) Chrome/109.0.0.0 Safari/537.36","WebKit","Chrome","109.0.0.0","Windows","6.3","1487","<p><strong>Which of the following objects or statements do you have a positive or negative feeling towards? </strong></p><p><strong> (1 = ""Very negative"" to 7 = ""Very positive"") </strong></p>","0",""
"","","","","","survey-likert","142","503144","0.0-15.0","74","1","2023-06-16 18:03:28","846205d480aaa49f22c83d5c8cececc8","185.33.85.119","Mozilla/5.0 (Windows NT 6.3; Win64; x64) AppleWebKit/537.36 (KHTML, like Gecko) Chrome/109.0.0.0 Safari/537.36","WebKit","Chrome","109.0.0.0","Windows","6.3","16209","","{""sdo1"":4,""sdo15"":5,""sdo8"":4,""sdo7"":4,""sdo2"":4,""sdo9"":3,""sdo14"":5,""sdo6"":3,""sdo5"":3,""sdo13"":4,""sdo12"":2,""sdo11"":3,""sdo10"":2,""sdo4"":2,""sdo16"":2,""sdo3"":4}","[0,14,7,6,1,8,13,5,4,12,11,10,9,3,15,2]"
"","","","","","html-button-response","143","504618","0.0-16.0","74","1","2023-06-16 18:03:28","846205d480aaa49f22c83d5c8cececc8","185.33.85.119","Mozilla/5.0 (Windows NT 6.3; Win64; x64) AppleWebKit/537.36 (KHTML, like Gecko) Chrome/109.0.0.0 Safari/537.36","WebKit","Chrome","109.0.0.0","Windows","6.3","1447","<p><strong>Please indicate the extent you agree with the following statements.</strong></p><strong><p> (1 = ""Strongly Disagree"" to 5 = ""Srongly Agree"") </strong></p>","0",""
"","","","","","survey-likert","144","519467","0.0-17.0","74","1","2023-06-16 18:03:28","846205d480aaa49f22c83d5c8cececc8","185.33.85.119","Mozilla/5.0 (Windows NT 6.3; Win64; x64) AppleWebKit/537.36 (KHTML, like Gecko) Chrome/109.0.0.0 Safari/537.36","WebKit","Chrome","109.0.0.0","Windows","6.3","14793","","{""caring1"":2,""liking1"":3,""caring2"":1,""protection1"":1,""liking2"":1,""caring3"":1,""protection2"":2,""liking3"":1,""protection3"":1,""caring4"":1,""liking4"":3,""protection4"":1,""caring5"":2,""liking5"":1,""protection5"":3}","[0,1,2,3,4,5,6,7,8,9,10,11,12,13,14]"
"","","","","","html-button-response","145","522618","0.0-18.0","74","1","2023-06-16 18:03:28","846205d480aaa49f22c83d5c8cececc8","185.33.85.119","Mozilla/5.0 (Windows NT 6.3; Win64; x64) AppleWebKit/537.36 (KHTML, like Gecko) Chrome/109.0.0.0 Safari/537.36","WebKit","Chrome","109.0.0.0","Windows","6.3","3126","<p><strong>Please imagine spercific situations involving children below, and rate the amount of tenderness you would feel in each situation. </strong></p><p><strong> (Ternderness is ""a warm, gentle feeling of sympathetic affection."") </strong></p><strong><p> (1 = ""No tenderness at all"" to 5 = ""A lot of tenderness"") </strong></p>","0",""
"","","","","","survey-likert","146","532853","0.0-19.0","74","1","2023-06-16 18:03:28","846205d480aaa49f22c83d5c8cececc8","185.33.85.119","Mozilla/5.0 (Windows NT 6.3; Win64; x64) AppleWebKit/537.36 (KHTML, like Gecko) Chrome/109.0.0.0 Safari/537.36","WebKit","Chrome","109.0.0.0","Windows","6.3","10206","","{""tenderness-positive1"":2,""tenderness-negative1"":2,""tenderness-negative2"":2,""tenderness-positive2"":2,""tenderness-positive3"":2,""tenderness-negative3"":0,""tenderness-positive4"":1,""tendereness-negative4"":1,""tendernness-negative5"":2,""tenderness-positive5"":2}","[0,1,2,3,4,5,6,7,8,9]"
"","","","","","survey-multi-choice","147","543805","0.0-20.0","74","1","2023-06-16 18:03:28","846205d480aaa49f22c83d5c8cececc8","185.33.85.119","Mozilla/5.0 (Windows NT 6.3; Win64; x64) AppleWebKit/537.36 (KHTML, like Gecko) Chrome/109.0.0.0 Safari/537.36","WebKit","Chrome","109.0.0.0","Windows","6.3","10932","","{""Attention2"":""Other""}","[0]"
"","","","","","html-button-response","148","545074","0.0-21.0","74","1","2023-06-16 18:03:28","846205d480aaa49f22c83d5c8cececc8","185.33.85.119","Mozilla/5.0 (Windows NT 6.3; Win64; x64) AppleWebKit/537.36 (KHTML, like Gecko) Chrome/109.0.0.0 Safari/537.36","WebKit","Chrome","109.0.0.0","Windows","6.3","1253","<p><strong>Please indicate the extent you agree with the following statements.</strong></p>","0",""
"","","","","","survey-likert","149","567590","0.0-22.0","74","1","2023-06-16 18:03:28","846205d480aaa49f22c83d5c8cececc8","185.33.85.119","Mozilla/5.0 (Windows NT 6.3; Win64; x64) AppleWebKit/537.36 (KHTML, like Gecko) Chrome/109.0.0.0 Safari/537.36","WebKit","Chrome","109.0.0.0","Windows","6.3","22516","","{""Patri6"":2,""Nation5"":0,""Nation3"":1,""Nation7"":0,""Nation2"":1,""Patri7"":0,""Patri2"":1,""Patri10"":1,""Patri8"":2,""Nation8"":2,""Patri12"":1,""Patri11"":2,""Patri5"":1,""Patri9"":2,""Patri4"":3,""Patri1"":4,""Nation1"":3,""Nation4"":1,""Nation6"":2,""Patri3"":1}","[5,16,14,18,13,6,1,9,7,19,11,10,4,8,3,0,12,15,17,2]"
"","","","","","html-button-response","150","568981","0.0-23.0","74","1","2023-06-16 18:03:28","846205d480aaa49f22c83d5c8cececc8","185.33.85.119","Mozilla/5.0 (Windows NT 6.3; Win64; x64) AppleWebKit/537.36 (KHTML, like Gecko) Chrome/109.0.0.0 Safari/537.36","WebKit","Chrome","109.0.0.0","Windows","6.3","1368","<p><strong>Please indicate the extent you agree with the following statements. </p><p>(1 = ""never or definitely no"" and 9 = ""always or definitely yes"".)</strong></p>","0",""
"","","","","","survey-likert","151","597259","0.0-24.0","74","1","2023-06-16 18:03:28","846205d480aaa49f22c83d5c8cececc8","185.33.85.119","Mozilla/5.0 (Windows NT 6.3; Win64; x64) AppleWebKit/537.36 (KHTML, like Gecko) Chrome/109.0.0.0 Safari/537.36","WebKit","Chrome","109.0.0.0","Windows","6.3","28278","","{""hi2"":5,""vi1"":6,""vi4"":6,""vi3"":6,""hi4"":5,""hi3"":5,""hc3"":4,""vi2"":5,""vc1"":3,""vc2"":5,""hc2"":4,""vc3"":4,""hi1"":4,""Robot2"":6,""vc4"":7,""hc4"":5,""hc1"":5}","[1,4,8,6,3,2,11,5,13,14,10,15,0,7,16,12,9]"
"","","","","","survey-text","152","634450","0.0-25.0","74","1","2023-06-16 18:03:28","846205d480aaa49f22c83d5c8cececc8","185.33.85.119","Mozilla/5.0 (Windows NT 6.3; Win64; x64) AppleWebKit/537.36 (KHTML, like Gecko) Chrome/109.0.0.0 Safari/537.36","WebKit","Chrome","109.0.0.0","Windows","6.3","36983","","{""ID"":""A140BZI7KCZ9VX"",""Comments"":""good""}",""
"","","","","","html-button-response","153","749995","0.0-26.0","74","1","2023-06-16 18:03:28","846205d480aaa49f22c83d5c8cececc8","185.33.85.119","Mozilla/5.0 (Windows NT 6.3; Win64; x64) AppleWebKit/537.36 (KHTML, like Gecko) Chrome/109.0.0.0 Safari/537.36","WebKit","Chrome","109.0.0.0","Windows","6.3","115528","<p><strong>Congratulations! </strong> Your have finished all the survey. Thank you for your participation!</p><p><strong>Here is your complete token:</strong></p>7v2766i2swrhxcte374qvsj5<p></p><p><strong>Please copy it to the mTurk page.</strong></p>","0",""
